sep=,
PacketCounter,SampleTimeFine,Quat_W,Quat_X,Quat_Y,Quat_Z,Acc_X,Acc_Y,Acc_Z,Gyr_X,Gyr_Y,Gyr_Z,Mag_X,Mag_Y,Mag_Z,
0, 3253571076, 0.8953475952148438, -0.05623681843280792, -0.40576180815696716, -0.17484736442565918, 0, 0, 0, 0, 0, 0, -0.859619140625, 0.143798828125, -0.318115234375, 
1, 3253579409, 0.8952822089195251, -0.056307315826416016, -0.4058680236339569, -0.17491328716278076, 7.326283931732178, 0.4828382730484009, 6.497610092163086, -1.1901142597198486, -2.2988522052764893, -0.4166155159473419, -0.860595703125, 0.14453125, -0.314453125, 
2, 3253587742, 0.8952035903930664, -0.05635081231594086, -0.4060100018978119, -0.17497262358665466, 7.317143440246582, 0.5103575587272644, 6.569547653198242, -0.7234484553337097, -2.75296688079834, -0.5752701163291931, -0.861572265625, 0.14501953125, -0.314453125, 
3, 3253596075, 0.8951376676559448, -0.05639529228210449, -0.40612688660621643, -0.1750234067440033, 7.341062545776367, 0.5016310214996338, 6.588595390319824, -0.59550541639328, -2.37052059173584, -0.25119879841804504, -0.861572265625, 0.14501953125, -0.31494140625, 
4, 3253604408, 0.8950923681259155, -0.05645976960659027, -0.40620094537734985, -0.1750624179840088, 7.375794887542725, 0.48684805631637573, 6.568717956542969, -1.0050257444381714, -1.798272967338562, -0.07589498162269592, -0.863037109375, 0.14501953125, -0.31591796875, 
5, 3253612741, 0.8950668573379517, -0.05656495690345764, -0.4062223732471466, -0.1751096248626709, 7.4019694328308105, 0.46092844009399414, 6.55756139755249, -1.8777797222137451, -1.1443928480148315, 0.013844494707882404, -0.862548828125, 0.14453125, -0.31640625, 
6, 3253621074, 0.8950525522232056, -0.05670306086540222, -0.40620288252830505, -0.17518308758735657, 7.411420822143555, 0.4488546848297119, 6.565502166748047, -2.306638717651367, -0.6237834692001343, 0.05636413022875786, -0.862060546875, 0.14453125, -0.31689453125, 
7, 3253629407, 0.8950572609901428, -0.056805357336997986, -0.4061576724052429, -0.1752307415008545, 7.389716148376465, 0.42690709233283997, 6.57960844039917, -1.8232983350753784, -0.1363701969385147, 0.24480806291103363, -0.863525390625, 0.14501953125, -0.31591796875, 
8, 3253637740, 0.8950802087783813, -0.05687355995178223, -0.40608280897140503, -0.17526477575302124, 7.376290798187256, 0.43515053391456604, 6.573828220367432, -1.3287384510040283, 0.40338578820228577, 0.2875837981700897, -0.861328125, 0.146484375, -0.31591796875, 
9, 3253646073, 0.8951081037521362, -0.056950196623802185, -0.4059854745864868, -0.17532318830490112, 7.340562343597412, 0.4262811243534088, 6.557133674621582, -1.4690275192260742, 0.7183127403259277, 0.23656027019023895, -0.861083984375, 0.14453125, -0.31689453125, 
10, 3253654406, 0.8951321840286255, -0.05705006420612335, -0.4058985710144043, -0.17536908388137817, 7.328614711761475, 0.42857807874679565, 6.536509990692139, -1.8128987550735474, 0.49042296409606934, 0.32946309447288513, -0.85888671875, 0.1474609375, -0.31689453125, 
11, 3253662739, 0.8951321840286255, -0.05715802311897278, -0.40586787462234497, -0.1754046380519867, 7.311886787414551, 0.44216182827949524, 6.527767658233643, -1.87030029296875, -0.36843517422676086, 0.3428593575954437, -0.862060546875, 0.1455078125, -0.3173828125, 
12, 3253671072, 0.8951154947280884, -0.057253822684288025, -0.40587499737739563, -0.17544233798980713, 7.296468257904053, 0.487630695104599, 6.53975772857666, -1.5227662324905396, -0.8913241028785706, 0.23428058624267578, -0.861572265625, 0.14306640625, -0.31494140625, 
13, 3253679405, 0.8950904607772827, -0.057340264320373535, -0.4059012830257416, -0.17548072338104248, 7.283757209777832, 0.4740045964717865, 6.545192241668701, -1.364751935005188, -1.1480299234390259, 0.19224762916564941, -0.86279296875, 0.14697265625, -0.31787109375, 
14, 3253687738, 0.8950701951980591, -0.05743223428726196, -0.40591204166412354, -0.1755291223526001, 7.293604850769043, 0.46143731474876404, 6.5750298500061035, -1.5297335386276245, -0.9374810457229614, 0.07114354521036148, -0.85986328125, 0.146484375, -0.31689453125, 
15, 3253696071, 0.8950587511062622, -0.057486966252326965, -0.4059152603149414, -0.17556247115135193, 7.312358379364014, 0.46157270669937134, 6.551074504852295, -1.2192375659942627, -0.7305691838264465, -0.05955309420824051, -0.86181640625, 0.146484375, -0.31787109375, 
16, 3253704404, 0.8950388431549072, -0.05755089223384857, -0.4059255123138428, -0.17561942338943481, 7.30828857421875, 0.4599704146385193, 6.514158725738525, -1.2332483530044556, -0.8554128408432007, -0.18957094848155975, -0.86083984375, 0.146484375, -0.3173828125, 
17, 3253712737, 0.8950015902519226, -0.05761614441871643, -0.4059721529483795, -0.1756802797317505, 7.318003177642822, 0.46711236238479614, 6.504602432250977, -1.2518188953399658, -1.402866005897522, -0.29594686627388, -0.8623046875, 0.146484375, -0.318359375, 
18, 3253721070, 0.8949537873268127, -0.05771276354789734, -0.406026154756546, -0.17576685547828674, 7.308923721313477, 0.4788486361503601, 6.504397392272949, -1.7169222831726074, -1.6035537719726562, -0.4747086763381958, -0.86181640625, 0.146484375, -0.31396484375, 
19, 3253729403, 0.8949170112609863, -0.05778312683105469, -0.4060588479042053, -0.1758551001548767, 7.345255374908447, 0.46268391609191895, 6.499467372894287, -1.5893888473510742, -1.2244117259979248, -0.6663542985916138, -0.86181640625, 0.146484375, -0.3154296875, 
20, 3253737736, 0.8948880434036255, -0.05783873796463013, -0.40607577562332153, -0.1759454607963562, 7.343835830688477, 0.4752098023891449, 6.493243217468262, -1.3093998432159424, -0.9416049718856812, -0.6743203997612, -0.865234375, 0.146484375, -0.31640625, 
21, 3253746069, 0.8948602080345154, -0.05787356197834015, -0.40610039234161377, -0.17601847648620605, 7.318588733673096, 0.4591338336467743, 6.491169452667236, -1.1143728494644165, -1.0030790567398071, -0.6778807044029236, -0.86083984375, 0.146484375, -0.31591796875, 
22, 3253754402, 0.894830584526062, -0.05791434645652771, -0.4061279296875, -0.1760925054550171, 7.346506118774414, 0.4620235860347748, 6.506383419036865, -1.0103535652160645, -1.0537697076797485, -0.5672271847724915, -0.860595703125, 0.1435546875, -0.31640625, 
23, 3253762735, 0.8947998881340027, -0.057941973209381104, -0.40615954995155334, -0.17616620659828186, 7.380882740020752, 0.48381829261779785, 6.491541385650635, -0.8926816582679749, -1.0785385370254517, -0.6394849419593811, -0.860595703125, 0.1455078125, -0.31591796875, 
24, 3253771068, 0.8947676420211792, -0.05798979103565216, -0.4061885476112366, -0.17624720931053162, 7.366408824920654, 0.49478375911712646, 6.51428747177124, -1.1325589418411255, -1.0967246294021606, -0.6207865476608276, -0.862548828125, 0.14501953125, -0.3154296875, 
25, 3253779401, 0.8947370052337646, -0.05802266299724579, -0.40621739625930786, -0.17632612586021423, 7.356276988983154, 0.46033552289009094, 6.523349761962891, -0.9274914860725403, -1.048569917678833, -0.6207353472709656, -0.861083984375, 0.14501953125, -0.3134765625, 
26, 3253787734, 0.8947125673294067, -0.05803529918193817, -0.4062391519546509, -0.17639568448066711, 7.341270446777344, 0.4415450096130371, 6.529637336730957, -0.6481170058250427, -0.8876612782478333, -0.6497306823730469, -0.860107421875, 0.14599609375, -0.3134765625, 
27, 3253796067, 0.8946921825408936, -0.05802306532859802, -0.40625956654548645, -0.17645585536956787, 7.345626354217529, 0.42603763937950134, 6.5385422706604, -0.5054969191551208, -0.809358537197113, -0.7946560382843018, -0.861083984375, 0.14404296875, -0.31494140625, 
28, 3253804400, 0.8946572542190552, -0.058024242520332336, -0.4062996506690979, -0.17653995752334595, 7.321756839752197, 0.4162672758102417, 6.595100402832031, -0.5518330931663513, -1.1316624879837036, -0.93448406457901, -0.858642578125, 0.1435546875, -0.315185546875, 
29, 3253812733, 0.8946161270141602, -0.05803805589675903, -0.40634745359420776, -0.17663398385047913, 7.320342063903809, 0.4228413701057434, 6.62905216217041, -0.8360486030578613, -1.2894461154937744, -1.0271052122116089, -0.861083984375, 0.14404296875, -0.314453125, 
30, 3253821066, 0.8945705890655518, -0.05810639262199402, -0.4063868522644043, -0.1767520308494568, 7.325610637664795, 0.42181146144866943, 6.673385143280029, -1.5784003734588623, -1.3192354440689087, -1.0031046867370605, -0.859619140625, 0.14453125, -0.315673828125, 
31, 3253829399, 0.894543468952179, -0.058180034160614014, -0.4063921570777893, -0.17685216665267944, 7.311537265777588, 0.43812111020088196, 6.655815124511719, -1.677757978439331, -0.8276215195655823, -0.6864614486694336, -0.859619140625, 0.14453125, -0.313232421875, 
32, 3253837732, 0.8945263624191284, -0.0581534206867218, -0.4064202308654785, -0.1768832504749298, 7.297709941864014, 0.43118757009506226, 6.530667304992676, 0.07037511467933655, -0.8599979877471924, -0.38462334871292114, -0.859619140625, 0.141845703125, -0.316162109375, 
33, 3253846065, 0.8945233821868896, -0.05795620381832123, -0.40647780895233154, -0.17683085799217224, 7.335987091064453, 0.4463774859905243, 6.367906093597412, 2.6589243412017822, -0.7986518740653992, -0.30050623416900635, -0.862060546875, 0.14306640625, -0.314453125, 
34, 3253854398, 0.894412636756897, -0.05796562135219574, -0.40668022632598877, -0.17692244052886963, 7.295790195465088, 0.4470556974411011, 6.600199222564697, -0.3617497980594635, -3.567115068435669, -1.2933396100997925, -0.863037109375, 0.142333984375, -0.31494140625, 
35, 3253862731, 0.8942135572433472, -0.0581546425819397, -0.407021164894104, -0.17708194255828857, 7.28985595703125, 0.34972092509269714, 6.6909098625183105, -2.694591760635376, -6.1465959548950195, -1.4122920036315918, -0.860595703125, 0.1416015625, -0.314208984375, 
36, 3253871064, 0.8941740989685059, -0.05816167593002319, -0.4070696234703064, -0.1771678924560547, 7.46377420425415, 0.38622206449508667, 6.489928245544434, -0.619326651096344, -1.2733348608016968, -0.9414769411087036, -0.862548828125, 0.142578125, -0.31298828125, 
37, 3253879397, 0.8941974639892578, -0.05811616778373718, -0.40700966119766235, -0.17720255255699158, 7.404931545257568, 0.47286760807037354, 6.4077534675598145, 0.01235886849462986, 0.4933173656463623, -0.38859352469444275, -0.863037109375, 0.143798828125, -0.3154296875, 
38, 3253887730, 0.8941333293914795, -0.05825035274028778, -0.40709155797958374, -0.17729419469833374, 7.284171104431152, 0.4852728247642517, 6.394885063171387, -2.1510579586029053, -2.1279795169830322, -0.38733845949172974, -0.863037109375, 0.14453125, -0.3125, 
39, 3253896063, 0.8939878940582275, -0.058525606989860535, -0.40730661153793335, -0.1774425208568573, 7.294402599334717, 0.41253572702407837, 6.538034439086914, -3.877431869506836, -4.512152671813965, -0.4970698654651642, -0.863525390625, 0.14208984375, -0.31201171875, 
40, 3253904396, 0.8938755989074707, -0.05875319242477417, -0.40748730301856995, -0.17751845717430115, 7.401825904846191, 0.37732023000717163, 6.538905620574951, -3.009467601776123, -3.8529443740844727, 0.1313370019197464, -0.863037109375, 0.14306640625, -0.31103515625, 
41, 3253912729, 0.8938277959823608, -0.05878683924674988, -0.40760183334350586, -0.17748501896858215, 7.3798065185546875, 0.39111682772636414, 6.466401100158691, -0.10939840972423553, -2.291347026824951, 0.6596562266349792, -0.86181640625, 0.14599609375, -0.31396484375, 
42, 3253921062, 0.8937275409698486, -0.05876544117927551, -0.40785592794418335, -0.17741313576698303, 7.270086288452148, 0.36711248755455017, 6.472664833068848, 1.0667177438735962, -4.198685646057129, 0.523567795753479, -0.860595703125, 0.14453125, -0.31103515625, 
43, 3253929395, 0.893576979637146, -0.05875001847743988, -0.4082237482070923, -0.1773313581943512, 7.353641033172607, 0.33354809880256653, 6.450353145599365, 1.2882553339004517, -5.9003167152404785, 0.5134502053260803, -0.863525390625, 0.14208984375, -0.3115234375, 
44, 3253937728, 0.8934454917907715, -0.05866360664367676, -0.4085606336593628, -0.17724600434303284, 7.4364914894104, 0.32959747314453125, 6.496469020843506, 2.119155168533325, -5.244873046875, 0.18264229595661163, -0.863525390625, 0.14208984375, -0.3115234375, 
45, 3253946061, 0.8933675289154053, -0.058524489402770996, -0.408810019493103, -0.1771097481250763, 7.407538414001465, 0.3950580060482025, 6.521242141723633, 2.827183961868286, -3.784093141555786, 0.7155464291572571, -0.863525390625, 0.14208984375, -0.310546875, 
46, 3253954394, 0.8933160901069641, -0.058367639780044556, -0.4090181589126587, -0.17694050073623657, 7.437603950500488, 0.4246639907360077, 6.448168754577637, 3.2078373432159424, -3.1081080436706543, 1.1160506010055542, -0.864990234375, 0.14111328125, -0.31005859375, 
47, 3253962727, 0.8932554721832275, -0.058254510164260864, -0.4092349410057068, -0.17678192257881165, 7.430546760559082, 0.44946417212486267, 6.435211181640625, 2.579289436340332, -3.3654801845550537, 1.2115917205810547, -0.864013671875, 0.14208984375, -0.30859375, 
48, 3253971060, 0.8931595087051392, -0.058262065052986145, -0.40949761867523193, -0.17665669322013855, 7.403167247772217, 0.4712008535861969, 6.451664447784424, 1.0348024368286133, -4.3933024406433105, 1.3466813564300537, -0.863037109375, 0.1435546875, -0.310546875, 
49, 3253979393, 0.8930578231811523, -0.05832093954086304, -0.4097597599029541, -0.17654407024383545, 7.396462440490723, 0.5322506427764893, 6.476696491241455, 0.3031828999519348, -4.53561544418335, 1.493911862373352, -0.863525390625, 0.14453125, -0.30712890625, 
50, 3253987726, 0.8929978013038635, -0.058351919054985046, -0.4099378287792206, -0.1764240264892578, 7.397531032562256, 0.5367478728294373, 6.497091770172119, 0.5431627035140991, -3.203828811645508, 1.5713694095611572, -0.863037109375, 0.14306640625, -0.3095703125, 
51, 3253996059, 0.8929816484451294, -0.058389827609062195, -0.41001421213150024, -0.1763153076171875, 7.420027256011963, 0.527027428150177, 6.495265007019043, 0.12378080189228058, -1.719355583190918, 1.6584832668304443, -0.863037109375, 0.1435546875, -0.3056640625, 
52, 3254004392, 0.8929849863052368, -0.05842605233192444, -0.41004228591918945, -0.17622071504592896, 7.411892890930176, 0.5407009720802307, 6.454229354858398, 0.023296145722270012, -0.9975464940071106, 1.563044548034668, -0.864501953125, 0.14306640625, -0.30859375, 
53, 3254012725, 0.8929771184921265, -0.058443546295166016, -0.41008996963500977, -0.17614370584487915, 7.384356498718262, 0.5288019180297852, 6.45982027053833, 0.12795591354370117, -1.2453128099441528, 1.1978625059127808, -0.863037109375, 0.14501953125, -0.310546875, 
54, 3254021058, 0.8929563164710999, -0.05843628942966461, -0.41017529368400574, -0.17605319619178772, 7.378541469573975, 0.5148090124130249, 6.460508346557617, 0.6516644954681396, -1.7293452024459839, 1.160286545753479, -0.865478515625, 0.14404296875, -0.30810546875, 
55, 3254029391, 0.8929245471954346, -0.05838306248188019, -0.4102832078933716, -0.17598018050193787, 7.369325637817383, 0.504551887512207, 6.456063747406006, 1.1563929319381714, -1.9413796663284302, 0.6873195171356201, -0.864990234375, 0.1455078125, -0.306640625, 
56, 3254037724, 0.8928852677345276, -0.058325618505477905, -0.41040661931037903, -0.17591127753257751, 7.3639445304870605, 0.5084585547447205, 6.441952228546143, 1.22378408908844, -2.1616365909576416, 0.5375275611877441, -0.864501953125, 0.142578125, -0.30908203125, 
57, 3254046057, 0.8928341865539551, -0.05828467011451721, -0.41054674983024597, -0.17585676908493042, 7.392383098602295, 0.517533540725708, 6.4272589683532715, 0.9410797953605652, -2.4623990058898926, 0.4381698966026306, -0.863037109375, 0.14404296875, -0.30615234375, 
58, 3254054390, 0.8927817344665527, -0.05823855102062225, -0.4106920659542084, -0.17579904198646545, 7.416027545928955, 0.5072227716445923, 6.4186692237854, 1.0653345584869385, -2.523719549179077, 0.4148353934288025, -0.862060546875, 0.14501953125, -0.30810546875, 
59, 3254062723, 0.8927276134490967, -0.05821758508682251, -0.41082948446273804, -0.17575940489768982, 7.413398742675781, 0.5086768269538879, 6.441262722015381, 0.7035077810287476, -2.47556471824646, 0.4453931450843811, -0.864990234375, 0.14404296875, -0.30810546875, 
60, 3254071056, 0.892664909362793, -0.0582137256860733, -0.41097724437713623, -0.17573389410972595, 7.394706726074219, 0.5077293515205383, 6.477255344390869, 0.36004650592803955, -2.687368631362915, 0.23018233478069305, -0.863037109375, 0.1435546875, -0.306640625, 
61, 3254079389, 0.8926100730895996, -0.05821739137172699, -0.4111047387123108, -0.17571264505386353, 7.419732093811035, 0.49952322244644165, 6.508993625640869, 0.1712951958179474, -2.4092493057250977, 0.28071922063827515, -0.862548828125, 0.14111328125, -0.30712890625, 
62, 3254087722, 0.8925660848617554, -0.05821920931339264, -0.4112091064453125, -0.17569103837013245, 7.425056457519531, 0.5241206288337708, 6.526768684387207, 0.17815980315208435, -2.0600759983062744, 0.2954986095428467, -0.864990234375, 0.14404296875, -0.30810546875, 
63, 3254096055, 0.8925321698188782, -0.05820845067501068, -0.41129055619239807, -0.17567715048789978, 7.42911958694458, 0.5103198289871216, 6.5160441398620605, 0.18820057809352875, -1.688003659248352, 0.1784159541130066, -0.865478515625, 0.14404296875, -0.3056640625, 
64, 3254104388, 0.8925161361694336, -0.05816793441772461, -0.4113364815711975, -0.17566481232643127, 7.455808639526367, 0.4860785901546478, 6.477964878082275, 0.5269232392311096, -1.0744658708572388, 0.0555700808763504, -0.865478515625, 0.14501953125, -0.3046875, 
65, 3254112721, 0.8925224542617798, -0.058107733726501465, -0.41134336590766907, -0.17563650012016296, 7.486687660217285, 0.48074281215667725, 6.406293869018555, 0.7929013967514038, -0.43213775753974915, 0.28153881430625916, -0.861083984375, 0.14111328125, -0.308349609375, 
66, 3254121054, 0.8925479650497437, -0.05803437530994415, -0.41133204102516174, -0.17555725574493408, 7.465465068817139, 0.49798092246055603, 6.394076347351074, 1.2033439874649048, -0.1111401692032814, 0.8392121195793152, -0.866943359375, 0.14404296875, -0.30419921875, 
67, 3254129387, 0.8925570249557495, -0.05800800025463104, -0.41133913397789, -0.1755029559135437, 7.338559150695801, 0.5190818309783936, 6.532341003417969, 0.5416514277458191, -0.5210959911346436, 0.8112668395042419, -0.863037109375, 0.1435546875, -0.3056640625, 
68, 3254137720, 0.8925623297691345, -0.05794423818588257, -0.41137006878852844, -0.17542493343353271, 7.360554218292236, 0.4297356605529785, 6.511139869689941, 1.1669718027114868, -0.7664803862571716, 0.795667827129364, -0.865966796875, 0.14404296875, -0.3056640625, 
69, 3254146053, 0.892594575881958, -0.0578169971704483, -0.41135311126708984, -0.17534247040748596, 7.411426544189453, 0.38962382078170776, 6.385613918304443, 1.8786890506744385, 0.12498467415571213, 0.6464136838912964, -0.863037109375, 0.14453125, -0.306640625, 
70, 3254154386, 0.8926256895065308, -0.05771096050739288, -0.4113321602344513, -0.17526814341545105, 7.396492004394531, 0.45815932750701904, 6.292060375213623, 1.5593048334121704, 0.12142427265644073, 0.614984929561615, -0.864990234375, 0.142578125, -0.3056640625, 
71, 3254162719, 0.8925549387931824, -0.05769026279449463, -0.41150203347206116, -0.17523643374443054, 7.337170124053955, 0.46045687794685364, 6.414473533630371, 0.5661129951477051, -2.973172187805176, 0.1566694676876068, -0.862548828125, 0.14501953125, -0.30712890625, 
72, 3254171052, 0.8924667835235596, -0.05770517885684967, -0.41169774532318115, -0.1752210259437561, 7.379662036895752, 0.39025425910949707, 6.504778861999512, 0.1686825454235077, -3.4573581218719482, 0.11591720581054688, -0.863037109375, 0.1416015625, -0.30859375, 
73, 3254179385, 0.8924722671508789, -0.05754311382770538, -0.41174519062042236, -0.1751347780227661, 7.4844160079956055, 0.3907962143421173, 6.419503688812256, 2.3510663509368896, -0.7436836361885071, 0.29068315029144287, -0.864501953125, 0.1435546875, -0.30615234375, 
74, 3254187718, 0.892499566078186, -0.057386428117752075, -0.41175273060798645, -0.17502886056900024, 7.448085784912109, 0.40670424699783325, 6.41111421585083, 2.4267566204071045, -0.15253275632858276, 0.6824015378952026, -0.864013671875, 0.1435546875, -0.30615234375, 
75, 3254196051, 0.892486572265625, -0.05733264982700348, -0.4118187427520752, -0.17495790123939514, 7.39872407913208, 0.4265842139720917, 6.3973307609558105, 1.0551912784576416, -1.3186721801757812, 0.7257409691810608, -0.864501953125, 0.142578125, -0.3037109375, 
76, 3254204384, 0.8924536108970642, -0.05726197361946106, -0.41192877292633057, -0.17489001154899597, 7.413780212402344, 0.49335387349128723, 6.427477836608887, 1.353827714920044, -1.9293923377990723, 0.47769272327423096, -0.863525390625, 0.142578125, -0.3046875, 
77, 3254212717, 0.8924197554588318, -0.05716438591480255, -0.4120424687862396, -0.17482668161392212, 7.391181468963623, 0.4821757674217224, 6.4843292236328125, 1.593064546585083, -1.9135626554489136, 0.25413164496421814, -0.865478515625, 0.1416015625, -0.30517578125, 
78, 3254221050, 0.8923879861831665, -0.0570589154958725, -0.4121537208557129, -0.17476120591163635, 7.422049045562744, 0.46167582273483276, 6.503094673156738, 1.7701871395111084, -1.8522164821624756, 0.25254353880882263, -0.863525390625, 0.142578125, -0.30322265625, 
79, 3254229383, 0.8923651576042175, -0.056967586278915405, -0.412243515253067, -0.1746954619884491, 7.461450099945068, 0.4790116250514984, 6.468318462371826, 1.4799777269363403, -1.5763001441955566, 0.36119911074638367, -0.865966796875, 0.14501953125, -0.30517578125, 
80, 3254237716, 0.8923518657684326, -0.056919872760772705, -0.41229385137557983, -0.17466038465499878, 7.477217197418213, 0.4889829456806183, 6.453831672668457, 0.7564523220062256, -1.114347219467163, 0.29859793186187744, -0.863525390625, 0.14306640625, -0.3046875, 
81, 3254246049, 0.8923473358154297, -0.056899964809417725, -0.4123173952102661, -0.17463409900665283, 7.47521448135376, 0.4956777095794678, 6.486248016357422, 0.20764178037643433, -0.800931453704834, 0.3568190932273865, -0.864013671875, 0.144775390625, -0.302734375, 
82, 3254254382, 0.892362117767334, -0.05685076117515564, -0.41230684518814087, -0.17459994554519653, 7.472475051879883, 0.47214460372924805, 6.496476173400879, 0.6470284461975098, -0.20399177074432373, 0.3940109610557556, -0.866455078125, 0.14453125, -0.30419921875, 
83, 3254262715, 0.8923962116241455, -0.05677042901515961, -0.4122657775878906, -0.17454856634140015, 7.467818260192871, 0.46972718834877014, 6.476834774017334, 0.8686171770095825, 0.32910454273223877, 0.38955411314964294, -0.864990234375, 0.14306640625, -0.30419921875, 
84, 3254271048, 0.8924275040626526, -0.056719839572906494, -0.4122135639190674, -0.1745290458202362, 7.455822944641113, 0.4442845284938812, 6.461391925811768, 0.49262580275535583, 0.4150146543979645, 0.27915674448013306, -0.863525390625, 0.14306640625, -0.3056640625, 
85, 3254279381, 0.8924447894096375, -0.05669023096561432, -0.41219115257263184, -0.17450270056724548, 7.425108909606934, 0.4614942669868469, 6.460240364074707, 0.26614469289779663, -0.0879080519080162, 0.415578156709671, -0.864013671875, 0.140625, -0.3046875, 
86, 3254287714, 0.8924438953399658, -0.05666857957839966, -0.4122065305709839, -0.17447805404663086, 7.407863140106201, 0.4562869966030121, 6.478494167327881, 0.30405381321907043, -0.669761061668396, 0.37782278656959534, -0.862060546875, 0.141845703125, -0.30322265625, 
87, 3254296047, 0.8924505114555359, -0.05661763250827789, -0.41222071647644043, -0.17442721128463745, 7.411039352416992, 0.4942399859428406, 6.453824043273926, 0.6817357540130615, -0.5699422955513, 0.48814332485198975, -0.864990234375, 0.1435546875, -0.3037109375, 
88, 3254304380, 0.8924671411514282, -0.05652879178524017, -0.4122180938720703, -0.17437702417373657, 7.411332607269287, 0.47816041111946106, 6.445019245147705, 1.243686318397522, -0.2080388069152832, 0.3655022978782654, -0.864990234375, 0.1455078125, -0.3056640625, 
89, 3254312713, 0.8924858570098877, -0.05643448233604431, -0.4122162461280823, -0.1743159294128418, 7.40307092666626, 0.5011069774627686, 6.447845458984375, 1.1872069835662842, -0.21313604712486267, 0.36755144596099854, -0.864013671875, 0.14404296875, -0.30810546875, 
90, 3254321046, 0.8924896121025085, -0.05635596811771393, -0.41223835945129395, -0.17427021265029907, 7.401747703552246, 0.5006060004234314, 6.42401123046875, 1.141792893409729, -0.6064682006835938, 0.32070302963256836, -0.864501953125, 0.142578125, -0.3046875, 
91, 3254329379, 0.892481803894043, -0.056266605854034424, -0.4122844338417053, -0.17422965168952942, 7.390498161315918, 0.515665590763092, 6.426200866699219, 1.3804149627685547, -0.928157389163971, 0.2607657015323639, -0.864013671875, 0.14208984375, -0.30419921875, 
92, 3254337712, 0.8924665451049805, -0.0561986118555069, -0.41234251856803894, -0.1741926074028015, 7.389108657836914, 0.5164781808853149, 6.46174955368042, 1.0342388153076172, -1.1735674142837524, 0.199137881398201, -0.865478515625, 0.14111328125, -0.306640625, 
93, 3254346045, 0.8924562931060791, -0.05614443123340607, -0.4123830199241638, -0.17416667938232422, 7.406160831451416, 0.5025802254676819, 6.458545207977295, 0.7074779272079468, -0.9568197727203369, 0.16845200955867767, -0.864990234375, 0.14208984375, -0.30615234375, 
94, 3254354378, 0.8924474120140076, -0.05611206591129303, -0.4124146103858948, -0.17414778470993042, 7.395374298095703, 0.5101121664047241, 6.452887058258057, 0.43663302063941956, -0.8833068609237671, 0.21425025165081024, -0.863525390625, 0.14208984375, -0.3046875, 
95, 3254362711, 0.892436146736145, -0.05607278645038605, -0.4124521315097809, -0.17412927746772766, 7.402498722076416, 0.5120934844017029, 6.435691833496094, 0.4804334342479706, -0.9554622769355774, 0.16770921647548676, -0.863525390625, 0.143798828125, -0.3046875, 
96, 3254371044, 0.8924281597137451, -0.056035205721855164, -0.4124869108200073, -0.17409950494766235, 7.425817012786865, 0.5184594988822937, 6.432809352874756, 0.5684950947761536, -0.9133011102676392, 0.31663036346435547, -0.863525390625, 0.142578125, -0.3056640625, 
97, 3254379377, 0.892418384552002, -0.05601419508457184, -0.4125150740146637, -0.17409026622772217, 7.449743270874023, 0.5035386681556702, 6.433023929595947, 0.22011591494083405, -0.8656586408615112, 0.1946297585964203, -0.864501953125, 0.140625, -0.30859375, 
98, 3254387710, 0.8924161195755005, -0.05600598454475403, -0.4125237464904785, -0.17408400774002075, 7.429529666900635, 0.5075801610946655, 6.4020304679870605, 0.01768662966787815, -0.6131023168563843, 0.22841495275497437, -0.866455078125, 0.14501953125, -0.3037109375, 
99, 3254396043, 0.8924214839935303, -0.0560087114572525, -0.4125078618526459, -0.17409315705299377, 7.439807891845703, 0.5227583646774292, 6.390056610107422, -0.18759863078594208, -0.2766849398612976, 0.24565330147743225, -0.865966796875, 0.1435546875, -0.3046875, 
100, 3254404376, 0.8924275636672974, -0.056003302335739136, -0.41249948740005493, -0.1740838885307312, 7.442855358123779, 0.529711127281189, 6.382359981536865, -0.034015703946352005, -0.36556634306907654, 0.3140176832675934, -0.865966796875, 0.1416015625, -0.3076171875, 
101, 3254412709, 0.8924295902252197, -0.05598621070384979, -0.412506639957428, -0.1740618348121643, 7.428134441375732, 0.5527430772781372, 6.40686559677124, 0.197882741689682, -0.5612847208976746, 0.41673076152801514, -0.864013671875, 0.145263671875, -0.30517578125, 
102, 3254421042, 0.8924276232719421, -0.05598251521587372, -0.4125184416770935, -0.17404499650001526, 7.411240577697754, 0.5367639064788818, 6.403969764709473, 0.030135145410895348, -0.6692231297492981, 0.3817417323589325, -0.864501953125, 0.14111328125, -0.3076171875, 
103, 3254429375, 0.8924199938774109, -0.05596537888050079, -0.41253891587257385, -0.1740412712097168, 7.401482105255127, 0.5255049467086792, 6.437321662902832, 0.04862862080335617, -0.769323468208313, 0.1046469509601593, -0.864501953125, 0.14306640625, -0.30712890625, 
104, 3254437708, 0.8924026489257812, -0.055972009897232056, -0.4125736355781555, -0.1740453839302063, 7.396990776062012, 0.5239028334617615, 6.482714653015137, -0.17199958860874176, -1.0457011461257935, 0.12921099364757538, -0.863525390625, 0.14013671875, -0.30517578125, 
105, 3254446041, 0.8923791646957397, -0.056012317538261414, -0.4126049876213074, -0.1740780770778656, 7.433570384979248, 0.5418135523796082, 6.516175746917725, -0.7021886706352234, -1.0926775932312012, 0.05144618824124336, -0.864990234375, 0.1435546875, -0.3046875, 
106, 3254454374, 0.892371654510498, -0.05611144006252289, -0.4125848710536957, -0.1741330623626709, 7.450906276702881, 0.539449155330658, 6.592784404754639, -1.7199701070785522, -0.4995543956756592, 0.09486231952905655, -0.863525390625, 0.14208984375, -0.30322265625, 
107, 3254462707, 0.8923903703689575, -0.05621019005775452, -0.4125010669231415, -0.17420387268066406, 7.435587406158447, 0.532500684261322, 6.589083194732666, -1.887922763824463, 0.44844120740890503, 0.09893498569726944, -0.863525390625, 0.1416015625, -0.30517578125, 
108, 3254471040, 0.8924367427825928, -0.056158751249313354, -0.41240647435188293, -0.1742066740989685, 7.435431480407715, 0.47877535223960876, 6.379757404327393, 0.28637993335723877, 1.0408470630645752, 0.06824912130832672, -0.861083984375, 0.14013671875, -0.306884765625, 
109, 3254479373, 0.8925120830535889, -0.05593620240688324, -0.41230201721191406, -0.1741398274898529, 7.456893444061279, 0.5009626150131226, 6.208517074584961, 2.7095892429351807, 1.6774122714996338, 0.022911934182047844, -0.864990234375, 0.142578125, -0.3037109375, 
110, 3254487706, 0.8924888968467712, -0.0559125691652298, -0.4123366177082062, -0.17418432235717773, 7.41950798034668, 0.5172721147537231, 6.403210639953613, -0.034809742122888565, -0.9734945893287659, -0.5527295470237732, -0.864990234375, 0.142578125, -0.306640625, 
111, 3254496039, 0.8923830986022949, -0.056082263588905334, -0.41249382495880127, -0.17429932951927185, 7.3972296714782715, 0.4259010851383209, 6.570940971374512, -2.6939260959625244, -3.362278461456299, -0.6592592000961304, -0.865478515625, 0.1416015625, -0.30419921875, 
112, 3254504372, 0.8924312591552734, -0.05610555410385132, -0.4123638868331909, -0.174352765083313, 7.536120891571045, 0.46195921301841736, 6.395399570465088, -1.000543236732483, 1.3442991971969604, -0.09697549045085907, -0.864990234375, 0.14404296875, -0.3046875, 
113, 3254512705, 0.8925650119781494, -0.056044235825538635, -0.41207897663116455, -0.1743604838848114, 7.470451354980469, 0.5334218740463257, 6.272006988525391, -0.14123688638210297, 3.8913018703460693, 0.2512372136116028, -0.865966796875, 0.14208984375, -0.3056640625, 
114, 3254521038, 0.8926323652267456, -0.05611586570739746, -0.41188937425613403, -0.1744416058063507, 7.309140205383301, 0.5252242088317871, 6.246777534484863, -1.8786247968673706, 2.090877056121826, -0.07143810391426086, -0.865478515625, 0.1435546875, -0.30517578125, 
115, 3254529371, 0.8925802111625671, -0.05637730658054352, -0.41189679503440857, -0.1746065616607666, 7.306497573852539, 0.4837144911289215, 6.424652099609375, -4.342458248138428, -1.397077202796936, -0.4492224454879761, -0.865966796875, 0.14306640625, -0.30615234375, 
116, 3254537704, 0.8925198316574097, -0.05662836134433746, -0.4119492173194885, -0.17471086978912354, 7.397429943084717, 0.4359019696712494, 6.431259632110596, -3.7306365966796875, -2.015123128890991, 0.16747869551181793, -0.865478515625, 0.14111328125, -0.30712890625, 
117, 3254546037, 0.8925162553787231, -0.05663900077342987, -0.4119628369808197, -0.17469283938407898, 7.400580883026123, 0.4680675268173218, 6.421664237976074, -0.14740991592407227, -0.7351541519165039, 0.5123230814933777, -0.866943359375, 0.14013671875, -0.3056640625, 
118, 3254554370, 0.8924773335456848, -0.05659416317939758, -0.41207581758499146, -0.17463982105255127, 7.334710121154785, 0.44684240221977234, 6.428887844085693, 0.9539636969566345, -2.049164295196533, 0.42628487944602966, -0.863525390625, 0.142578125, -0.3056640625, 
119, 3254562703, 0.8923762440681458, -0.056573331356048584, -0.4123063087463379, -0.17461907863616943, 7.393432140350342, 0.4438509941101074, 6.3889689445495605, 0.6898297667503357, -3.8763556480407715, -0.042878229171037674, -0.864013671875, 0.14453125, -0.3056640625, 
120, 3254571036, 0.8922781944274902, -0.056512996554374695, -0.4125315845012665, -0.17460748553276062, 7.48853874206543, 0.47002243995666504, 6.434825420379639, 1.1330585479736328, -3.6931371688842773, -0.40045294165611267, -0.864501953125, 0.1416015625, -0.3046875, 
121, 3254579369, 0.8922217488288879, -0.05644863843917847, -0.41267314553260803, -0.17458266019821167, 7.522171974182129, 0.5053563117980957, 6.4659810066223145, 1.0542691946029663, -2.4318156242370605, -0.07438374310731888, -0.863525390625, 0.1396484375, -0.30517578125, 
122, 3254587702, 0.8922035694122314, -0.056344494223594666, -0.4127541184425354, -0.17451739311218262, 7.484363079071045, 0.48790475726127625, 6.439742088317871, 1.6904497146606445, -1.4052737951278687, 0.3133261203765869, -0.864501953125, 0.14453125, -0.306640625, 
123, 3254596035, 0.892197847366333, -0.056262508034706116, -0.41280102729797363, -0.17446231842041016, 7.463183403015137, 0.5259556770324707, 6.429511547088623, 1.221043348312378, -0.9661433100700378, 0.3653486371040344, -0.863037109375, 0.14306640625, -0.306640625, 
124, 3254604368, 0.8921765089035034, -0.05625346302986145, -0.41286057233810425, -0.17443367838859558, 7.458555698394775, 0.5562694668769836, 6.409698486328125, 0.2636088728904724, -1.3605000972747803, 0.4137851595878601, -0.864990234375, 0.14404296875, -0.3046875, 
125, 3254612701, 0.8921574354171753, -0.05626566708087921, -0.4129054844379425, -0.17442074418067932, 7.4579901695251465, 0.5700815916061401, 6.399341106414795, -0.11380404978990555, -1.2046631574630737, 0.4152452051639557, -0.866943359375, 0.1416015625, -0.302734375, 
126, 3254621034, 0.8921566605567932, -0.05623370409011841, -0.4129263460636139, -0.1743854582309723, 7.460486888885498, 0.5477933287620544, 6.391787528991699, 0.5041009187698364, -0.7189659476280212, 0.44324150681495667, -0.864013671875, 0.14111328125, -0.3037109375, 
127, 3254629367, 0.8921700716018677, -0.056188374757766724, -0.41292044520378113, -0.1743450164794922, 7.4331769943237305, 0.505219578742981, 6.368876934051514, 0.6294057965278625, -0.2816797196865082, 0.525283932685852, -0.862548828125, 0.14111328125, -0.30810546875, 
128, 3254637700, 0.8921831250190735, -0.05613192915916443, -0.41291874647140503, -0.17430081963539124, 7.427919864654541, 0.5056418180465698, 6.383590221405029, 0.8122146725654602, -0.31305718421936035, 0.46593576669692993, -0.866455078125, 0.142578125, -0.3056640625, 
129, 3254646033, 0.8921679258346558, -0.056073904037475586, -0.4129708707332611, -0.17427340149879456, 7.39973783493042, 0.5338882207870483, 6.3747639656066895, 0.753148078918457, -1.121006965637207, 0.11581476032733917, -0.865478515625, 0.14111328125, -0.3046875, 
130, 3254654366, 0.8921154737472534, -0.056024909019470215, -0.4130951464176178, -0.17426353693008423, 7.4094767570495605, 0.5062998533248901, 6.402592182159424, 0.7764058709144592, -2.2210357189178467, -0.16818305850028992, -0.864013671875, 0.14111328125, -0.3046875, 
131, 3254662699, 0.8920491933822632, -0.055980369448661804, -0.4132465124130249, -0.1742580235004425, 7.458410263061523, 0.5005282759666443, 6.457202434539795, 0.7023295164108276, -2.641801118850708, -0.24023592472076416, -0.864501953125, 0.14208984375, -0.30615234375, 
132, 3254671032, 0.8919963836669922, -0.055926382541656494, -0.4133701026439667, -0.17425286769866943, 7.505984306335449, 0.5093250870704651, 6.485195159912109, 0.8107545971870422, -2.199596881866455, -0.2555532455444336, -0.866455078125, 0.14208984375, -0.306640625, 
133, 3254679365, 0.8919578194618225, -0.0558813214302063, -0.4134637713432312, -0.17424267530441284, 7.5315470695495605, 0.49373704195022583, 6.480722904205322, 0.5731056928634644, -1.7814701795578003, -0.10688821226358414, -0.864501953125, 0.142578125, -0.30224609375, 
134, 3254687698, 0.8919291496276855, -0.05583900213241577, -0.4135425388813019, -0.17421606183052063, 7.590977668762207, 0.472440242767334, 6.454219341278076, 0.6996400356292725, -1.5565769672393799, 0.16663341224193573, -0.863525390625, 0.14111328125, -0.3037109375, 
135, 3254696031, 0.89190673828125, -0.05576956272125244, -0.4136314392089844, -0.1741415560245514, 7.62504768371582, 0.4797632396221161, 6.421131610870361, 1.2676868438720703, -1.619639277458191, 0.6034073233604431, -0.866455078125, 0.142578125, -0.3037109375, 
136, 3254704364, 0.8918838500976562, -0.055715784430503845, -0.4137163460254669, -0.17407432198524475, 7.622788906097412, 0.5192176699638367, 6.43392276763916, 1.0900521278381348, -1.6031949520111084, 0.6086069941520691, -0.866943359375, 0.1416015625, -0.3046875, 
137, 3254712697, 0.891861081123352, -0.05565440654754639, -0.41380149126052856, -0.1740085780620575, 7.6356377601623535, 0.5791234374046326, 6.422260284423828, 1.1084175109863281, -1.5887739658355713, 0.542829692363739, -0.865966796875, 0.14306640625, -0.30224609375, 
138, 3254721030, 0.8918616771697998, -0.05547778308391571, -0.4138718545436859, -0.17389488220214844, 7.622242450714111, 0.5622078776359558, 6.429885387420654, 2.843423843383789, -1.0322281122207642, 0.5466974973678589, -0.864990234375, 0.14013671875, -0.302734375, 
139, 3254729363, 0.8919436931610107, -0.055270373821258545, -0.41374707221984863, -0.17383718490600586, 7.58945894241333, 0.4520675837993622, 6.423052787780762, 2.4853363037109375, 1.9403167963027954, 0.0656108632683754, -0.863037109375, 0.1396484375, -0.302490234375, 
140, 3254737696, 0.8921018838882446, -0.05502399802207947, -0.4134807586669922, -0.17373716831207275, 7.567301273345947, 0.4473331868648529, 6.275899410247803, 2.937120199203491, 4.171957015991211, 0.617136538028717, -0.861083984375, 0.13818359375, -0.305908203125, 
141, 3254746029, 0.892314076423645, -0.05471673607826233, -0.4131366014480591, -0.17356309294700623, 7.557050704956055, 0.5335831046104431, 6.084087371826172, 3.9233195781707764, 5.521570682525635, 1.3865113258361816, -0.864990234375, 0.14111328125, -0.30517578125, 
142, 3254754362, 0.8924775123596191, -0.054509297013282776, -0.41288095712661743, -0.17339694499969482, 7.495519638061523, 0.6172707676887512, 6.105034828186035, 2.865912914276123, 3.926905393600464, 1.65469229221344, -0.865478515625, 0.1416015625, -0.3056640625, 
143, 3254762695, 0.8925129175186157, -0.054392263293266296, -0.4128839671611786, -0.17324289679527283, 7.437116622924805, 0.4517901837825775, 6.081354141235352, 2.154682159423828, -0.18216842412948608, 1.5264161825180054, -0.864013671875, 0.142578125, -0.3037109375, 
144, 3254771028, 0.8924471735954285, -0.05434258282184601, -0.41309696435928345, -0.1730896234512329, 7.435860633850098, 0.34662482142448425, 6.1532135009765625, 1.7995922565460205, -3.4922194480895996, 1.4936045408248901, -0.864990234375, 0.13916015625, -0.30712890625, 
145, 3254779361, 0.892335057258606, -0.05449402332305908, -0.4133289158344269, -0.17306676506996155, 7.383404731750488, 0.480681836605072, 6.1851935386657715, -1.3837578296661377, -4.36597204208374, 0.971509575843811, -0.865966796875, 0.13916015625, -0.3056640625, 
146, 3254787694, 0.8921895027160645, -0.054649338126182556, -0.41363149881362915, -0.17304497957229614, 7.532864093780518, 0.6163337230682373, 6.214791297912598, -1.3084776401519775, -5.433906555175781, 0.787291944026947, -0.865478515625, 0.14013671875, -0.30517578125, 
147, 3254796027, 0.892104983329773, -0.05476073920726776, -0.41379669308662415, -0.17305082082748413, 7.7818779945373535, 0.5192645192146301, 6.30552339553833, -1.2348365783691406, -3.275087594985962, 0.47482386231422424, -0.864501953125, 0.140625, -0.3037109375, 
148, 3254804360, 0.8921955823898315, -0.05478082597255707, -0.4136306643486023, -0.17297431826591492, 7.961954593658447, 0.4280940294265747, 6.216501712799072, -0.2746870815753937, 1.9387799501419067, 1.6033616065979004, -0.866455078125, 0.1416015625, -0.30322265625, 
149, 3254812693, 0.8924785256385803, -0.05463084578514099, -0.4131149351596832, -0.1727944314479828, 7.962632179260254, 0.538074254989624, 6.130284786224365, 1.6527199745178223, 7.648960590362549, 2.6253180503845215, -0.863525390625, 0.142578125, -0.3056640625, 
150, 3254821026, 0.8928147554397583, -0.05445671081542969, -0.4124700129032135, -0.1726529896259308, 7.87831974029541, 0.5430742502212524, 6.144250392913818, 1.5221643447875977, 9.623459815979004, 2.2405667304992676, -0.863037109375, 0.13916015625, -0.305908203125, 
151, 3254829359, 0.8931413888931274, -0.05426265299320221, -0.41181835532188416, -0.17258048057556152, 7.766235828399658, 0.4967328906059265, 6.154473304748535, 1.4031349420547485, 9.759625434875488, 1.3519322872161865, -0.862060546875, 0.13916015625, -0.307373046875, 
152, 3254837692, 0.893517255783081, -0.053948938846588135, -0.41107460856437683, -0.17250609397888184, 7.647012710571289, 0.47902464866638184, 6.193472385406494, 2.6522133350372314, 11.443761825561523, 0.7945919632911682, -0.864990234375, 0.1396484375, -0.3076171875, 
153, 3254846025, 0.8939487934112549, -0.05356691777706146, -0.41021883487701416, -0.17242702841758728, 7.511980056762695, 0.45704737305641174, 6.140674114227295, 3.2282261848449707, 13.292520523071289, 0.6776630878448486, -0.863037109375, 0.1435546875, -0.3095703125, 
154, 3254854358, 0.8943798542022705, -0.053190380334854126, -0.4093802869319916, -0.17230114340782166, 7.489566802978516, 0.42833906412124634, 6.087765216827393, 3.530346155166626, 13.031665802001953, 1.273296594619751, -0.861083984375, 0.14013671875, -0.312255859375, 
155, 3254862691, 0.8947794437408447, -0.05288137495517731, -0.408616304397583, -0.17213451862335205, 7.497726917266846, 0.4125555753707886, 6.045103073120117, 3.1097092628479004, 11.756306648254395, 2.09592342376709, -0.862060546875, 0.1435546875, -0.31298828125, 
156, 3254871024, 0.895135760307312, -0.05258435010910034, -0.40796053409576416, -0.17192888259887695, 7.521169185638428, 0.45067429542541504, 6.161575794219971, 3.3791966438293457, 10.116305351257324, 2.39174222946167, -0.860107421875, 0.1435546875, -0.316162109375, 
157, 3254879357, 0.8954421877861023, -0.05233263969421387, -0.40739765763282776, -0.17174392938613892, 7.554903984069824, 0.5012714862823486, 6.30300235748291, 2.8750574588775635, 8.605705261230469, 2.245100975036621, -0.859130859375, 0.1435546875, -0.316650390625, 
158, 3254887690, 0.8957390785217285, -0.0521470308303833, -0.406840056180954, -0.1715744435787201, 7.643697261810303, 0.46581995487213135, 6.415444850921631, 1.9944909811019897, 8.337112426757812, 2.3591349124908447, -0.858154296875, 0.142578125, -0.317626953125, 
159, 3254896023, 0.8960716128349304, -0.05198371410369873, -0.4062002897262573, -0.1714027225971222, 7.78080415725708, 0.4325858950614929, 6.497007369995117, 1.5386855602264404, 9.500844955444336, 2.683232069015503, -0.856201171875, 0.14111328125, -0.317626953125, 
160, 3254904356, 0.896478533744812, -0.051882803440093994, -0.40539324283599854, -0.17121610045433044, 7.81514835357666, 0.4476001560688019, 6.553325176239014, 0.5364516973495483, 11.813374519348145, 3.483241558074951, -0.860595703125, 0.142333984375, -0.321533203125, 
161, 3254912689, 0.8969934582710266, -0.051783159375190735, -0.4043620228767395, -0.17098751664161682, 7.68717098236084, 0.5102575421333313, 6.59086799621582, 0.22744165360927582, 15.1478910446167, 4.3999505043029785, -0.857666015625, 0.144775390625, -0.322998046875, 
162, 3254921022, 0.8976038694381714, -0.0515202134847641, -0.4031617343425751, -0.17069858312606812, 7.4761128425598145, 0.5770432353019714, 6.554187774658203, 2.32509446144104, 18.102264404296875, 4.602328777313232, -0.855712890625, 0.143310546875, -0.322998046875, 
163, 3254929355, 0.8982670307159424, -0.051022812724113464, -0.4019083082675934, -0.17031371593475342, 7.381040573120117, 0.5760258436203003, 6.43366813659668, 5.57318639755249, 19.53679084777832, 4.621898651123047, -0.857666015625, 0.143798828125, -0.328369140625, 
164, 3254937688, 0.8988872766494751, -0.05037356913089752, -0.40077710151672363, -0.16990023851394653, 7.346866130828857, 0.5972334742546082, 6.327290058135986, 7.9530816078186035, 18.12242317199707, 3.976444721221924, -0.853271484375, 0.143798828125, -0.332275390625, 
165, 3254946021, 0.899385929107666, -0.049738675355911255, -0.3998800218105316, -0.16956189274787903, 7.306211471557617, 0.6711692214012146, 6.286102294921875, 7.806028842926025, 14.58409309387207, 2.7150449752807617, -0.852783203125, 0.143798828125, -0.332275390625, 
166, 3254954354, 0.899735689163208, -0.049234628677368164, -0.399257630109787, -0.16932058334350586, 7.356575965881348, 0.7593246698379517, 6.281540393829346, 6.210518836975098, 10.122862815856934, 1.6634016036987305, -0.852294921875, 0.145263671875, -0.333251953125, 
167, 3254962687, 0.9000146389007568, -0.048822060227394104, -0.3987506628036499, -0.16915205121040344, 7.57759428024292, 0.7239029407501221, 6.345616817474365, 4.9482741355896, 8.155791282653809, 1.114513874053955, -0.850341796875, 0.147216796875, -0.334716796875, 
168, 3254971020, 0.9002848267555237, -0.04843948781490326, -0.39825689792633057, -0.1689867377281189, 7.752164363861084, 0.6322036981582642, 6.482608318328857, 4.53555154800415, 7.8637375831604, 1.1171777248382568, -0.851318359375, 0.1455078125, -0.337646484375, 
169, 3254979353, 0.9006050825119019, -0.048090770840644836, -0.3976370096206665, -0.168839693069458, 7.652608871459961, 0.6416753530502319, 6.688754558563232, 3.6466095447540283, 9.633451461791992, 1.2329286336898804, -0.850830078125, 0.14306640625, -0.3388671875, 
170, 3254987686, 0.9010318517684937, -0.047734230756759644, -0.3967590034008026, -0.16872993111610413, 7.460152626037598, 0.6764984726905823, 6.852171421051025, 3.122004270553589, 13.454353332519531, 1.1909211874008179, -0.850830078125, 0.142578125, -0.3408203125, 
171, 3254996019, 0.901555061340332, -0.047280460596084595, -0.39567577838897705, -0.1686057150363922, 7.293220043182373, 0.7336645126342773, 6.899836540222168, 3.8996529579162598, 16.743989944458008, 1.169687032699585, -0.850341796875, 0.142578125, -0.34423828125, 
172, 3255004352, 0.9020982980728149, -0.04679715633392334, -0.3945487439632416, -0.16847628355026245, 7.261597156524658, 0.7412304282188416, 6.891607761383057, 4.2985944747924805, 17.456195831298828, 1.1781654357910156, -0.850830078125, 0.141845703125, -0.34521484375, 
173, 3255012685, 0.9026061296463013, -0.04622669517993927, -0.3935167193412781, -0.16832712292671204, 7.237656116485596, 0.769974946975708, 6.77857780456543, 5.659505844116211, 16.28360366821289, 0.8365227580070496, -0.847412109375, 0.143310546875, -0.34814453125, 
174, 3255021018, 0.9031358957290649, -0.045588523149490356, -0.39244046807289124, -0.16817209124565125, 7.152750015258789, 0.7674996256828308, 6.623466968536377, 6.468633651733398, 17.0945987701416, 0.5917273759841919, -0.847900390625, 0.14453125, -0.34912109375, 
175, 3255029351, 0.9037027359008789, -0.04488298296928406, -0.39131927490234375, -0.16792911291122437, 7.196663856506348, 0.6316347718238831, 6.48341178894043, 7.63198184967041, 17.960338592529297, 1.4279556274414062, -0.843994140625, 0.14306640625, -0.34814453125, 
176, 3255037684, 0.9041996598243713, -0.04413171112537384, -0.3904188573360443, -0.16754865646362305, 7.22931432723999, 0.4476287066936493, 6.470843315124512, 9.473388671875, 14.854429244995117, 2.599013090133667, -0.843017578125, 0.144287109375, -0.3544921875, 
177, 3255046017, 0.9045920372009277, -0.04341147840023041, -0.3897591233253479, -0.1671554446220398, 7.060769557952881, 0.4410441219806671, 6.540331840515137, 9.64508056640625, 11.235416412353516, 2.5886390209198, -0.842529296875, 0.142822265625, -0.35595703125, 
178, 3255054350, 0.9048711061477661, -0.042754992842674255, -0.3893214762210846, -0.16683432459831238, 6.9239420890808105, 0.5266047120094299, 6.818114757537842, 8.909337043762207, 7.747167587280273, 1.5900936126708984, -0.843505859375, 0.143798828125, -0.35693359375, 
179, 3255062683, 0.9050339460372925, -0.042221128940582275, -0.3890955448150635, -0.16661253571510315, 6.8700408935546875, 0.5772647857666016, 7.061298847198486, 7.246484279632568, 4.279484748840332, 0.6489493250846863, -0.844482421875, 0.143310546875, -0.3564453125, 
180, 3255071016, 0.9052069187164307, -0.041738227009773254, -0.3888190984725952, -0.16643983125686646, 7.015087604522705, 0.549737811088562, 7.1868414878845215, 6.262976169586182, 4.864233493804932, 0.33304914832115173, -0.843017578125, 0.141845703125, -0.3583984375, 
181, 3255079349, 0.9054327607154846, -0.04117381572723389, -0.3884649872779846, -0.1661790907382965, 7.108108997344971, 0.5364789962768555, 7.268216609954834, 7.513308048248291, 6.253190040588379, 1.1318546533584595, -0.841064453125, 0.141845703125, -0.359130859375, 
182, 3255087682, 0.9057011604309082, -0.04051896929740906, -0.38802146911621094, -0.16591361165046692, 7.053121566772461, 0.5934872031211853, 7.157631874084473, 8.572636604309082, 7.794066429138184, 0.8839088678359985, -0.843017578125, 0.143798828125, -0.3603515625, 
183, 3255096015, 0.9060441255569458, -0.03965672850608826, -0.3874422013759613, -0.16560205817222595, 6.976280212402344, 0.6709005236625671, 6.99390983581543, 11.164952278137207, 10.346193313598633, 0.6771764159202576, -0.841552734375, 0.1416015625, -0.361572265625, 
184, 3255104348, 0.9064426422119141, -0.03863571584224701, -0.38672828674316406, -0.16533231735229492, 6.823813438415527, 0.7480090260505676, 6.934455871582031, 12.611721992492676, 12.685670852661133, -0.5724270939826965, -0.840087890625, 0.14111328125, -0.364990234375, 
185, 3255112681, 0.9067150950431824, -0.03771413862705231, -0.3862207531929016, -0.16523665189743042, 6.640519142150879, 0.6732308268547058, 7.045221328735352, 10.832222938537598, 9.32182788848877, -2.571387529373169, -0.83935546875, 0.1396484375, -0.362060546875, 
186, 3255121014, 0.9069287776947021, -0.0369163453578949, -0.38581663370132446, -0.16518855094909668, 6.657705783843994, 0.5954688787460327, 7.012377738952637, 9.258535385131836, 7.453474044799805, -2.7304775714874268, -0.83837890625, 0.1376953125, -0.366455078125, 
187, 3255129347, 0.9071857929229736, -0.03596274554729462, -0.3853420317173004, -0.1650945544242859, 6.76768684387207, 0.6084139347076416, 6.782536506652832, 11.249402046203613, 8.897502899169922, -2.8500449657440186, -0.83837890625, 0.136962890625, -0.370361328125, 
188, 3255137680, 0.9073141813278198, -0.0349520742893219, -0.38514307141304016, -0.16507062315940857, 6.6548638343811035, 0.7216598391532898, 7.008701324462891, 12.208248138427734, 4.93636417388916, -4.456110000610352, -0.83837890625, 0.135498046875, -0.369384765625, 
189, 3255146013, 0.9073315262794495, -0.03441387414932251, -0.3850824534893036, -0.16523054242134094, 6.604712009429932, 0.7711673974990845, 7.207624912261963, 5.518880844116211, 1.6414240598678589, -4.589788436889648, -0.83740234375, 0.136474609375, -0.369873046875, 
190, 3255154346, 0.9074147939682007, -0.033964380621910095, -0.3849180340766907, -0.1652490198612213, 6.693980693817139, 0.6959814429283142, 7.099765300750732, 5.039102077484131, 3.0141427516937256, -2.132667064666748, -0.83935546875, 0.133056640625, -0.37109375, 
191, 3255162679, 0.9076181650161743, -0.03327542543411255, -0.38457778096199036, -0.16506391763687134, 6.745821475982666, 0.659294843673706, 7.0904765129089355, 8.766024589538574, 6.303394794464111, -0.44806987047195435, -0.83740234375, 0.133056640625, -0.3681640625, 
192, 3255171012, 0.9078466892242432, -0.03259041905403137, -0.3842011094093323, -0.1648218035697937, 6.667534351348877, 0.6800130605697632, 7.181748867034912, 8.941533088684082, 6.845057964324951, 0.300057977437973, -0.83984375, 0.133544921875, -0.372802734375, 
193, 3255179345, 0.9080456495285034, -0.032017782330513, -0.38386332988739014, -0.16462442278862, 6.597616195678711, 0.7214227914810181, 7.048996925354004, 7.344076633453369, 5.974303245544434, 0.2778504192829132, -0.8359375, 0.132080078125, -0.37353515625, 
194, 3255187678, 0.9082136154174805, -0.03147602081298828, -0.3835747539997101, -0.16447508335113525, 6.68446683883667, 0.6714600324630737, 6.9099907875061035, 6.835606575012207, 5.142915725708008, -0.27924638986587524, -0.837158203125, 0.1318359375, -0.37451171875, 
195, 3255196011, 0.9083659648895264, -0.030966579914093018, -0.3833294212818146, -0.16430142521858215, 6.768392086029053, 0.5902243852615356, 6.927272796630859, 6.589762210845947, 4.438243389129639, 0.14040444791316986, -0.8369140625, 0.13232421875, -0.37548828125, 
196, 3255204344, 0.9085244536399841, -0.030624717473983765, -0.3830791115760803, -0.16407325863838196, 6.730138778686523, 0.5449767112731934, 6.928355693817139, 4.83754301071167, 4.127901077270508, 1.7244657278060913, -0.834716796875, 0.132080078125, -0.375, 
197, 3255212677, 0.9087240695953369, -0.030383139848709106, -0.382757306098938, -0.16376391053199768, 6.789710998535156, 0.6734402179718018, 6.840872764587402, 3.791022300720215, 4.978139400482178, 3.370205879211426, -0.833984375, 0.133056640625, -0.375, 
198, 3255221010, 0.9089525938034058, -0.03017766773700714, -0.38241928815841675, -0.16332295536994934, 6.976060390472412, 0.7702473402023315, 6.716182231903076, 4.084203243255615, 5.19706392288208, 5.295013427734375, -0.83447265625, 0.133544921875, -0.37744140625, 
199, 3255229343, 0.9091115593910217, -0.029903769493103027, -0.3822968006134033, -0.16277390718460083, 7.018093585968018, 0.7244274616241455, 6.772205352783203, 5.874587059020996, 2.2434611320495605, 6.01182746887207, -0.8349609375, 0.1337890625, -0.37939453125, 
200, 3255237676, 0.9091628789901733, -0.02964058518409729, -0.3824531137943268, -0.16216611862182617, 6.919715404510498, 0.6662719249725342, 6.930817604064941, 6.71914005279541, -1.85313880443573, 6.476752758026123, -0.83447265625, 0.1337890625, -0.37890625, 
201, 3255246009, 0.9091486930847168, -0.029398053884506226, -0.38275736570358276, -0.1615714430809021, 6.814357757568359, 0.7651809453964233, 7.148189544677734, 6.735788822174072, -4.0749688148498535, 6.305674076080322, -0.832763671875, 0.132568359375, -0.376953125, 
202, 3255254342, 0.9091235399246216, -0.029138699173927307, -0.38304632902145386, -0.16107463836669922, 6.874151229858398, 0.8804835081100464, 7.236785411834717, 6.3506269454956055, -3.877098798751831, 4.88364839553833, -0.8349609375, 0.133056640625, -0.37646484375, 
203, 3255262675, 0.9091959595680237, -0.02875995635986328, -0.3831072151660919, -0.1605878472328186, 6.959662437438965, 0.8776142597198486, 7.22895622253418, 7.298559188842773, -0.23926259577274323, 4.4653425216674805, -0.83349609375, 0.136962890625, -0.37548828125, 
204, 3255271008, 0.909386396408081, -0.02815622091293335, -0.3829311430454254, -0.16003632545471191, 6.920924663543701, 0.7507392168045044, 7.089681148529053, 10.001935005187988, 3.810821771621704, 4.415522575378418, -0.83251953125, 0.134521484375, -0.37939453125, 
205, 3255279341, 0.9096353054046631, -0.027407631278038025, -0.38263410329818726, -0.15946120023727417, 6.849295616149902, 0.762510359287262, 6.980823040008545, 11.674446105957031, 5.948228359222412, 4.15679407119751, -0.83349609375, 0.133544921875, -0.37841796875, 
206, 3255287674, 0.9097996950149536, -0.02681119740009308, -0.38246986269950867, -0.15901756286621094, 6.7083516120910645, 0.8556216955184937, 6.930021286010742, 9.357765197753906, 3.551426649093628, 3.0441112518310547, -0.833984375, 0.1337890625, -0.37939453125, 
207, 3255296007, 0.9098411798477173, -0.026377305388450623, -0.3825378715991974, -0.15868958830833435, 6.681345462799072, 0.8897907733917236, 6.884853839874268, 7.129300117492676, -0.3109056055545807, 2.101968288421631, -0.833251953125, 0.1318359375, -0.37841796875, 
208, 3255304340, 0.9098371267318726, -0.02598223090171814, -0.3826736509799957, -0.1584504246711731, 6.719355583190918, 0.7901976108551025, 6.930203437805176, 6.35818338394165, -1.4528393745422363, 1.067665457725525, -0.833984375, 0.13330078125, -0.37890625, 
209, 3255312673, 0.9097929000854492, -0.025548964738845825, -0.38286107778549194, -0.15832173824310303, 6.7268500328063965, 0.6752828359603882, 7.098581314086914, 6.228395462036133, -2.194781541824341, -0.6826706528663635, -0.834228515625, 0.1318359375, -0.38232421875, 
210, 3255321006, 0.9097564220428467, -0.025053903460502625, -0.3829944133758545, -0.15828761458396912, 6.758585453033447, 0.6469489932060242, 7.176510334014893, 6.513584613800049, -1.3024581670761108, -2.0955004692077637, -0.834716796875, 0.1318359375, -0.37890625, 
211, 3255329339, 0.9098023176193237, -0.024332672357559204, -0.38297340273857117, -0.15818777680397034, 6.763065338134766, 0.6983277797698975, 7.098340034484863, 9.31117057800293, 1.5318207740783691, -2.2442166805267334, -0.834716796875, 0.13134765625, -0.38134765625, 
212, 3255337672, 0.909905195236206, -0.023481592535972595, -0.3828278183937073, -0.15807682275772095, 6.756904125213623, 0.8265379071235657, 7.113683700561523, 10.812369346618652, 3.6690471172332764, -2.6113197803497314, -0.831298828125, 0.13037109375, -0.380615234375, 
213, 3255346005, 0.90998375415802, -0.02249997854232788, -0.3827415704727173, -0.1579759120941162, 6.677666664123535, 0.9253801703453064, 6.9440202713012695, 12.478501319885254, 3.088834047317505, -3.476339101791382, -0.833251953125, 0.12890625, -0.38134765625, 
214, 3255354338, 0.9101120233535767, -0.021487072110176086, -0.38252946734428406, -0.157892107963562, 6.671422004699707, 0.9661406874656677, 6.774758338928223, 12.556344985961914, 4.9946112632751465, -3.7278966903686523, -0.831787109375, 0.126220703125, -0.382568359375, 
215, 3255362671, 0.9101865291595459, -0.020447850227355957, -0.3824389576911926, -0.15781942009925842, 6.6709885597229, 0.8806353807449341, 6.626777172088623, 12.922524452209473, 3.2398812770843506, -4.2458930015563965, -0.833740234375, 0.128662109375, -0.3837890625, 
216, 3255371004, 0.9100706577301025, -0.019549131393432617, -0.3827631175518036, -0.15781614184379578, 6.504458904266357, 0.7200673222541809, 6.825085163116455, 11.800260543823242, -3.225651741027832, -4.817320346832275, -0.834716796875, 0.124755859375, -0.382568359375, 
217, 3255379337, 0.9097588062286377, -0.018963277339935303, -0.38345661759376526, -0.15800157189369202, 6.439645767211914, 0.5825924277305603, 7.0985260009765625, 7.588921546936035, -9.505955696105957, -6.049698829650879, -0.83251953125, 0.122314453125, -0.383056640625, 
218, 3255387670, 0.9094035029411316, -0.018421217799186707, -0.384265661239624, -0.15814530849456787, 6.705826759338379, 0.5167151689529419, 7.189805030822754, 7.5516533851623535, -11.288681030273438, -5.428860187530518, -0.83251953125, 0.120849609375, -0.384521484375, 
219, 3255396003, 0.9091254472732544, -0.01778896152973175, -0.3849335312843323, -0.15819251537322998, 7.022177219390869, 0.5799643397331238, 7.317311763763428, 8.775322914123535, -8.952329635620117, -4.5581560134887695, -0.83447265625, 0.120849609375, -0.380615234375, 
220, 3255404336, 0.9089400768280029, -0.017094790935516357, -0.3853919804096222, -0.15821799635887146, 7.015163421630859, 0.8265615701675415, 7.415916442871094, 9.357124328613281, -5.7048540115356445, -4.299529075622559, -0.83544921875, 0.119384765625, -0.379150390625, 
221, 3255412669, 0.9088146686553955, -0.016244128346443176, -0.3857114613056183, -0.1582498848438263, 6.934842586517334, 1.0561734437942505, 7.331145286560059, 10.918132781982422, -3.3125357627868652, -5.05860710144043, -0.83154296875, 0.121337890625, -0.380615234375, 
222, 3255421002, 0.9087713956832886, -0.015101492404937744, -0.38585758209228516, -0.15825432538986206, 6.811187267303467, 1.2474335432052612, 7.111468315124512, 14.42646598815918, -0.07517779618501663, -6.032743453979492, -0.83837890625, 0.118896484375, -0.378173828125, 
223, 3255429335, 0.9087814092636108, -0.013796433806419373, -0.3858545124530792, -0.15832379460334778, 6.78101110458374, 1.253766655921936, 6.863092422485352, 15.804227828979492, 2.4449174404144287, -7.50486946105957, -0.837890625, 0.1171875, -0.382568359375, 
224, 3255437668, 0.9087973833084106, -0.012606143951416016, -0.3857884407043457, -0.15849187970161438, 6.819459438323975, 1.0723941326141357, 6.655023097991943, 13.704834938049316, 3.0246188640594482, -8.159185409545898, -0.836181640625, 0.11328125, -0.378662109375, 
225, 3255446001, 0.9086974859237671, -0.011895284056663513, -0.3859279751777649, -0.15877974033355713, 6.723727703094482, 0.8514199256896973, 6.743269443511963, 7.462617874145508, -1.1814568042755127, -7.385302543640137, -0.837646484375, 0.112548828125, -0.382080078125, 
226, 3255454334, 0.908554196357727, -0.011780396103858948, -0.3861026167869568, -0.159183531999588, 6.668179988861084, 0.8817241191864014, 6.830305099487305, -0.4870290458202362, -3.1343624591827393, -5.787254333496094, -0.835205078125, 0.11181640625, -0.38330078125, 
227, 3255462667, 0.908461332321167, -0.01182083785533905, -0.3861786723136902, -0.1595257818698883, 6.7129597663879395, 1.0550929307937622, 6.7708940505981445, -2.4136290550231934, -1.9943755865097046, -4.1135945320129395, -0.836181640625, 0.110107421875, -0.38232421875, 
228, 3255471000, 0.9083325266838074, -0.011683344841003418, -0.38641101121902466, -0.15970709919929504, 6.824645042419434, 1.2416709661483765, 6.836982727050781, 1.1047804355621338, -3.76306414604187, -3.1044199466705322, -0.835693359375, 0.1103515625, -0.38037109375, 
229, 3255479333, 0.9081661105155945, -0.011397406458854675, -0.3867815434932709, -0.15977737307548523, 6.927586555480957, 1.2555748224258423, 6.979238510131836, 3.6874120235443115, -5.400043964385986, -2.706732988357544, -0.836669921875, 0.110107421875, -0.380126953125, 
230, 3255487666, 0.9079751968383789, -0.01109384000301361, -0.38720691204071045, -0.15985342860221863, 6.948751926422119, 1.1964044570922852, 7.101887226104736, 4.152567386627197, -6.157407283782959, -2.840952157974243, -0.839599609375, 0.109619140625, -0.380615234375, 
231, 3255495999, 0.907848596572876, -0.010833382606506348, -0.3874683976173401, -0.15995559096336365, 7.090516567230225, 1.142581582069397, 7.1665496826171875, 3.052947998046875, -3.864086866378784, -2.784677267074585, -0.836669921875, 0.10888671875, -0.37646484375, 
232, 3255504332, 0.9077937602996826, -0.010512441396713257, -0.38760435581207275, -0.1599593162536621, 7.129164695739746, 1.0103304386138916, 7.0893235206604, 4.140682220458984, -1.7916388511657715, -1.6875171661376953, -0.838134765625, 0.108154296875, -0.378662109375, 
233, 3255512665, 0.9077380299568176, -0.0102967768907547, -0.3877723813056946, -0.15988215804100037, 7.137077331542969, 0.9867804050445557, 7.1415863037109375, 3.3137009143829346, -2.4367847442626953, -0.08324626088142395, -0.836669921875, 0.108154296875, -0.38037109375, 
234, 3255520998, 0.9076231718063354, -0.010189756751060486, -0.3880719542503357, -0.15981420874595642, 7.152039527893066, 1.0266664028167725, 6.9999680519104, 2.203272819519043, -4.634306907653809, 0.19237573444843292, -0.8359375, 0.106201171875, -0.3798828125, 
235, 3255529331, 0.9075877666473389, -0.010327339172363281, -0.3881998658180237, -0.15969601273536682, 7.092276096343994, 1.0597854852676392, 6.8871636390686035, -1.1328662633895874, -2.6359610557556152, 2.2030417919158936, -0.837646484375, 0.106689453125, -0.37841796875, 
236, 3255537664, 0.9076245427131653, -0.010442256927490234, -0.38819563388824463, -0.15948978066444397, 7.069716453552246, 1.0905052423477173, 6.773104667663574, -0.47388899326324463, -0.541408121585846, 3.4802961349487305, -0.839111328125, 0.107177734375, -0.378173828125, 
237, 3255545997, 0.9076926708221436, -0.010344713926315308, -0.38814809918403625, -0.15922331809997559, 7.017547130584717, 1.0355548858642578, 6.722829818725586, 2.495351552963257, 0.645952582359314, 3.3029427528381348, -0.840087890625, 0.108154296875, -0.378662109375, 
238, 3255554330, 0.9077774882316589, -0.010249197483062744, -0.3880403935909271, -0.1590091586112976, 6.924369812011719, 1.030426263809204, 6.755069732666016, 1.9723857641220093, 1.466478943824768, 2.5742435455322266, -0.839111328125, 0.108642578125, -0.380615234375, 
239, 3255562663, 0.9078837037086487, -0.009985283017158508, -0.38788482546806335, -0.1587979793548584, 6.888150215148926, 1.0019463300704956, 6.586794853210449, 3.747375726699829, 2.521836996078491, 1.5507242679595947, -0.839111328125, 0.108154296875, -0.379638671875, 
240, 3255570996, 0.9079856872558594, -0.009533047676086426, -0.3877484202384949, -0.1585763692855835, 6.844069957733154, 1.0302448272705078, 6.6104278564453125, 6.406671047210693, 2.6950149536132812, 0.8062721490859985, -0.838134765625, 0.108642578125, -0.380615234375, 
241, 3255579329, 0.9079732894897461, -0.009046807885169983, -0.38784852623939514, -0.1584310531616211, 6.799921035766602, 0.9770708680152893, 6.70629358291626, 6.8326096534729, -0.7907882928848267, -0.6399716138839722, -0.837158203125, 0.107666015625, -0.37646484375, 
242, 3255587662, 0.907902717590332, -0.00864100456237793, -0.38805168867111206, -0.1583612561225891, 6.836048603057861, 0.9438236951828003, 6.793712139129639, 5.73647403717041, -2.546208620071411, -1.2614498138427734, -0.8388671875, 0.105224609375, -0.3779296875, 
243, 3255595995, 0.9078155159950256, -0.008199557662010193, -0.388300359249115, -0.15827494859695435, 6.776820659637451, 0.8597605228424072, 6.846400737762451, 6.285182952880859, -3.1340811252593994, -1.3085545301437378, -0.836669921875, 0.106689453125, -0.37841796875, 
244, 3255604328, 0.9077608585357666, -0.007674217224121094, -0.38849976658821106, -0.15812543034553528, 6.931396961212158, 0.9107336401939392, 6.8711256980896, 7.646017074584961, -2.1634809970855713, -0.8696290254592896, -0.83740234375, 0.105224609375, -0.37841796875, 
245, 3255612661, 0.9077159762382507, -0.007142156362533569, -0.3887103796005249, -0.15788933634757996, 7.011698246002197, 0.9546789526939392, 6.786540508270264, 8.136655807495117, -2.251234769821167, 0.1706804484128952, -0.8388671875, 0.105224609375, -0.3779296875, 
246, 3255620994, 0.9076651334762573, -0.006595879793167114, -0.38894274830818176, -0.1576327085494995, 7.040287971496582, 1.060889482498169, 6.751355171203613, 8.551350593566895, -2.519979476928711, 0.36214685440063477, -0.83984375, 0.104736328125, -0.37744140625, 
247, 3255629327, 0.9076367616653442, -0.006108298897743225, -0.3890972137451172, -0.1574346125125885, 7.092158317565918, 1.127212643623352, 6.739477157592773, 7.321996212005615, -1.5443592071533203, 0.03438711166381836, -0.8388671875, 0.104736328125, -0.37890625, 
248, 3255637660, 0.9076594114303589, -0.005582079291343689, -0.3891354501247406, -0.15722942352294922, 7.091456890106201, 1.1700087785720825, 6.737850189208984, 7.612155437469482, 0.25676998496055603, 0.0006019346765242517, -0.83740234375, 0.102783203125, -0.3798828125, 
249, 3255645993, 0.9077383279800415, -0.005004093050956726, -0.3890282213687897, -0.1570580005645752, 6.974215507507324, 1.193752408027649, 6.8136420249938965, 7.656390190124512, 2.4778060913085938, -0.6169701814651489, -0.837890625, 0.104248046875, -0.37939453125, 
250, 3255654326, 0.9078894853591919, -0.0044778138399124146, -0.38871559500694275, -0.1569747030735016, 6.861780643463135, 1.282969355583191, 6.676596164703369, 6.211490154266357, 5.33310079574585, -1.2167786359786987, -0.83837890625, 0.103271484375, -0.37890625, 
251, 3255662659, 0.9080562591552734, -0.0039435625076293945, -0.38835614919662476, -0.15691450238227844, 6.829944610595703, 1.2327874898910522, 6.514997959136963, 6.0086517333984375, 6.012596607208252, -1.5331145524978638, -0.83984375, 0.10302734375, -0.380859375, 
252, 3255670992, 0.9081470966339111, -0.003578558564186096, -0.38815706968307495, -0.15688982605934143, 6.822561264038086, 1.126857042312622, 6.632728576660156, 4.126902103424072, 3.2498703002929688, -1.2233614921569824, -0.8369140625, 0.102783203125, -0.380859375, 
253, 3255679325, 0.9081205129623413, -0.0034311115741729736, -0.38820937275886536, -0.1569177508354187, 6.825565338134766, 1.0468043088912964, 6.795003414154053, 1.5073848962783813, -1.0027716159820557, -1.0822526216506958, -0.83740234375, 0.1025390625, -0.38330078125, 
254, 3255687658, 0.9080768823623657, -0.003300786018371582, -0.3882997930049896, -0.1569492220878601, 6.886045455932617, 0.9759968519210815, 6.910109519958496, 1.515427827835083, -1.5869300365447998, -0.9757744073867798, -0.83740234375, 0.10205078125, -0.3828125, 
255, 3255695991, 0.9080804586410522, -0.0030899494886398315, -0.38829901814460754, -0.1569347381591797, 6.9078688621521, 0.9746211171150208, 7.0532402992248535, 2.7442703247070312, 0.013511508703231812, -0.5177404880523682, -0.83544921875, 0.1005859375, -0.38232421875, 
256, 3255704324, 0.9081639647483826, -0.0027820616960525513, -0.3881356120109558, -0.15686199069023132, 6.925442695617676, 1.0413429737091064, 7.011768817901611, 3.746556043624878, 2.639354944229126, -0.3381335437297821, -0.837890625, 0.10009765625, -0.38525390625, 
257, 3255712657, 0.9083186388015747, -0.0022630393505096436, -0.38782089948654175, -0.15675213932991028, 6.9467597007751465, 1.1047166585922241, 6.850474834442139, 6.531719207763672, 5.417294979095459, -0.538283109664917, -0.8349609375, 0.1005859375, -0.3828125, 
258, 3255720990, 0.9085290431976318, -0.0016002804040908813, -0.38738882541656494, -0.15660995244979858, 6.924925804138184, 1.2076058387756348, 6.803090572357178, 7.973800182342529, 7.433929443359375, -1.0807414054870605, -0.837890625, 0.1025390625, -0.3818359375, 
259, 3255729323, 0.9086841344833374, -0.0008726716041564941, -0.3870631754398346, -0.15652036666870117, 6.8124680519104, 1.3127007484436035, 6.810098171234131, 8.615694999694824, 5.938904762268066, -2.2604053020477295, -0.8349609375, 0.10009765625, -0.38427734375, 
260, 3255737656, 0.908738374710083, -0.00014412403106689453, -0.38693565130233765, -0.15652331709861755, 6.675586700439453, 1.3574539422988892, 6.818414211273193, 8.67619514465332, 2.941525936126709, -3.5854291915893555, -0.83642578125, 0.09814453125, -0.3857421875, 
261, 3255745989, 0.908768355846405, 0.0005314946174621582, -0.3868216276168823, -0.1566302478313446, 6.715926647186279, 1.3837547302246094, 6.715145111083984, 7.35806131362915, 2.514434337615967, -4.7302069664001465, -0.834228515625, 0.096923828125, -0.387939453125, 
262, 3255754322, 0.908787727355957, 0.0010704100131988525, -0.38672566413879395, -0.1567516028881073, 6.875959873199463, 1.1997671127319336, 6.595028400421143, 5.744260787963867, 1.9543788433074951, -4.130884170532227, -0.836181640625, 0.095458984375, -0.384521484375, 
263, 3255762655, 0.908731997013092, 0.001291707158088684, -0.3867809772491455, -0.15693706274032593, 6.863069534301758, 1.005820870399475, 6.8416547775268555, 1.65159273147583, -1.033713459968567, -3.45684552192688, -0.835205078125, 0.094482421875, -0.388427734375, 
264, 3255770988, 0.9086021184921265, 0.001185685396194458, -0.3869754374027252, -0.15721023082733154, 6.88482141494751, 0.9313600063323975, 7.0348100662231445, -2.4945194721221924, -3.8624989986419678, -2.91546368598938, -0.837158203125, 0.096435546875, -0.384765625, 
265, 3255779321, 0.9085931777954102, 0.001314610242843628, -0.3869394361972809, -0.15734893083572388, 7.051101207733154, 1.0276176929473877, 6.751806259155273, 0.6134225726127625, 0.17178186774253845, -2.2200112342834473, -0.836181640625, 0.095458984375, -0.386474609375, 
266, 3255787654, 0.9086709022521973, 0.001657932996749878, -0.38672107458114624, -0.15743395686149597, 6.987265586853027, 1.2357592582702637, 6.623594284057617, 3.225792646408081, 3.373919725418091, -2.5134224891662598, -0.836181640625, 0.093017578125, -0.386962890625, 
267, 3255795987, 0.9087471961975098, 0.0019029229879379272, -0.38649454712867737, -0.15754631161689758, 6.682657241821289, 1.3435416221618652, 6.630495548248291, 1.6858395338058472, 3.2363715171813965, -2.426180362701416, -0.836669921875, 0.093994140625, -0.386474609375, 
268, 3255804320, 0.9087779521942139, 0.0020291507244110107, -0.3863579332828522, -0.1577027440071106, 6.504454135894775, 1.3161818981170654, 6.75811767578125, 0.31076470017433167, 1.6321007013320923, -2.3512330055236816, -0.837158203125, 0.094482421875, -0.389892578125, 
269, 3255812653, 0.9088274836540222, 0.0023199915885925293, -0.3861966133117676, -0.15780851244926453, 6.539931297302246, 1.2697186470031738, 6.739287853240967, 2.1347544193267822, 2.3229424953460693, -2.920945167541504, -0.836181640625, 0.093994140625, -0.389404296875, 
270, 3255820986, 0.908814549446106, 0.0027100592851638794, -0.3861594796180725, -0.15796780586242676, 6.494105339050293, 1.195526123046875, 6.843838214874268, 3.8107452392578125, 0.7285841107368469, -3.879121780395508, -0.834716796875, 0.091552734375, -0.388427734375, 
271, 3255829319, 0.9086705446243286, 0.003032788634300232, -0.38641801476478577, -0.1581583321094513, 6.466588973999023, 1.1424314975738525, 6.891351222991943, 3.463441848754883, -3.7996153831481934, -4.127682685852051, -0.834716796875, 0.092529296875, -0.387451171875, 
272, 3255837652, 0.9084481596946716, 0.003204241394996643, -0.3868398666381836, -0.15840095281600952, 6.561814785003662, 1.0992536544799805, 6.90745210647583, 1.6415013074874878, -6.5994062423706055, -4.198583602905273, -0.835205078125, 0.090087890625, -0.387451171875, 
273, 3255845985, 0.9082146883010864, 0.003228232264518738, -0.3873041868209839, -0.15860459208488464, 6.757274627685547, 1.0843441486358643, 7.013138294219971, 0.14570660889148712, -7.49147367477417, -2.858241558074951, -0.835205078125, 0.092529296875, -0.385986328125, 
274, 3255854318, 0.9080332517623901, 0.003044694662094116, -0.38767731189727783, -0.15873578190803528, 6.89710807800293, 1.101723551750183, 7.154348373413086, -2.307509660720825, -6.5413384437561035, -0.8297732472419739, -0.83642578125, 0.089111328125, -0.385986328125, 
275, 3255862651, 0.9079424738883972, 0.0026969313621520996, -0.38786908984184265, -0.1587918996810913, 6.9061079025268555, 1.3133571147918701, 7.182570457458496, -4.599189758300781, -4.186877250671387, 0.9998645782470703, -0.837158203125, 0.091064453125, -0.385498046875, 
276, 3255870984, 0.9079552888870239, 0.0023675858974456787, -0.3878537118434906, -0.1587614119052887, 6.823680877685547, 1.5255401134490967, 7.054571151733398, -4.120306015014648, -0.9665530920028687, 2.3750672340393066, -0.838134765625, 0.08935546875, -0.385498046875, 
277, 3255879317, 0.9080386161804199, 0.0022125989198684692, -0.3877065181732178, -0.15864652395248413, 6.7704973220825195, 1.5234313011169434, 6.880204677581787, -1.8156137466430664, 1.4405574798583984, 2.6674792766571045, -0.83544921875, 0.088134765625, -0.383056640625, 
278, 3255887650, 0.9081083536148071, 0.0021806955337524414, -0.3875972628593445, -0.15851560235023499, 6.80069637298584, 1.4205996990203857, 6.798154354095459, -0.07866132259368896, 1.1612597703933716, 2.1652867794036865, -0.838623046875, 0.092041015625, -0.385498046875, 
279, 3255895983, 0.9081147909164429, 0.00215718150138855, -0.38761991262435913, -0.15842297673225403, 6.7991132736206055, 1.3222888708114624, 6.813827037811279, 0.0013959757052361965, -0.819168746471405, 1.4515713453292847, -0.836669921875, 0.090576171875, -0.385009765625, 
280, 3255904316, 0.9080772399902344, 0.0020958930253982544, -0.3877221345901489, -0.15838906168937683, 6.848690509796143, 1.2659615278244019, 6.934686660766602, -0.4992726445198059, -2.117887258529663, 0.8829354643821716, -0.838623046875, 0.09033203125, -0.387451171875, 
281, 3255912649, 0.9080323576927185, 0.0020998120307922363, -0.3878316283226013, -0.15837842226028442, 6.872424125671387, 1.2860084772109985, 6.961058139801025, 0.02957163192331791, -2.134152412414551, 0.11315086483955383, -0.837646484375, 0.090576171875, -0.384521484375, 
282, 3255920982, 0.9080090522766113, 0.00209181010723114, -0.38787761330604553, -0.15839940309524536, 6.844576835632324, 1.3177968263626099, 7.017067909240723, -0.24909839034080505, -1.2256155014038086, -0.057478342205286026, -0.835205078125, 0.090576171875, -0.385009765625, 
283, 3255929315, 0.9080021381378174, 0.002000078558921814, -0.3878600299358368, -0.1584833264350891, 6.822624683380127, 1.2951884269714355, 6.965140342712402, -1.8168431520462036, -0.5306757092475891, -0.35734421014785767, -0.835205078125, 0.092041015625, -0.385009765625, 
284, 3255937648, 0.908027172088623, 0.0018160641193389893, -0.38775935769081116, -0.15858858823776245, 6.861722946166992, 1.2811508178710938, 6.932844638824463, -3.2169172763824463, 0.4784354865550995, -0.06992686539888382, -0.836669921875, 0.091552734375, -0.384521484375, 
285, 3255945981, 0.9081001281738281, 0.0016966462135314941, -0.38756316900253296, -0.15865188837051392, 6.970011234283447, 1.2601609230041504, 6.964840888977051, -2.3480827808380127, 2.0821940898895264, 0.30177411437034607, -0.836669921875, 0.091552734375, -0.385986328125, 
286, 3255954314, 0.9082385301589966, 0.0017824023962020874, -0.3872367739677429, -0.15865585207939148, 7.046468257904053, 1.3032032251358032, 7.0073113441467285, 0.19721683859825134, 4.492519378662109, -0.001280711847357452, -0.835205078125, 0.093017578125, -0.385986328125, 
287, 3255962647, 0.9084303379058838, 0.0020527690649032593, -0.3867751657962799, -0.1586795449256897, 7.145737171173096, 1.3478821516036987, 7.090519428253174, 2.0374460220336914, 6.8615803718566895, -1.128383994102478, -0.838623046875, 0.092041015625, -0.386474609375, 
288, 3255970980, 0.9086481928825378, 0.002332746982574463, -0.3861832916736603, -0.1588699221611023, 7.194185256958008, 1.425742506980896, 7.136800289154053, 1.048890233039856, 8.649250030517578, -3.1973488330841064, -0.839111328125, 0.091796875, -0.388916015625, 
289, 3255979313, 0.9089663028717041, 0.0025280267000198364, -0.38524311780929565, -0.1593298316001892, 7.269005298614502, 1.4877955913543701, 7.140620708465576, -2.1992383003234863, 13.34792423248291, -5.854313373565674, -0.834228515625, 0.091552734375, -0.388427734375, 
290, 3255987646, 0.9093633890151978, 0.002540960907936096, -0.3840331435203552, -0.15998303890228271, 7.222625255584717, 1.4248325824737549, 7.279356002807617, -6.101517677307129, 16.724319458007812, -7.194067478179932, -0.835205078125, 0.0927734375, -0.392333984375, 
291, 3255995979, 0.9099217653274536, 0.0025347620248794556, -0.3823935091495514, -0.16073396801948547, 6.992001056671143, 1.5154787302017212, 7.142970085144043, -7.8541483879089355, 22.900842666625977, -7.973562240600586, -0.8330078125, 0.08740234375, -0.39306640625, 
292, 3256004312, 0.9107145071029663, 0.0027575939893722534, -0.3801448345184326, -0.16157230734825134, 6.860450267791748, 1.6240308284759521, 6.7725653648376465, -6.757068634033203, 32.25956344604492, -9.777349472045898, -0.83056640625, 0.08740234375, -0.39599609375, 
293, 3256012645, 0.9115675687789917, 0.0033522844314575195, -0.3777647316455841, -0.16233134269714355, 6.8175177574157715, 1.5482347011566162, 6.285547733306885, -1.8274495601654053, 35.08591842651367, -10.404949188232422, -0.828125, 0.08935546875, -0.4013671875, 
294, 3256020978, 0.9122447371482849, 0.004321843385696411, -0.3758482336997986, -0.16295215487480164, 6.723854064941406, 1.2171980142593384, 5.883358955383301, 4.4811248779296875, 29.168582916259766, -11.184953689575195, -0.82763671875, 0.088134765625, -0.40478515625, 
295, 3256029311, 0.9125803709030151, 0.005225434899330139, -0.37479886412620544, -0.1634616255760193, 6.522146701812744, 0.9307420253753662, 5.984803199768066, 6.191974639892578, 16.39174461364746, -10.115321159362793, -0.82470703125, 0.086181640625, -0.410400390625, 
296, 3256037644, 0.9125634431838989, 0.005623772740364075, -0.37461036443710327, -0.1639740765094757, 6.325143814086914, 0.7931978106498718, 6.28370475769043, 1.7954427003860474, 2.6282382011413574, -8.325907707214355, -0.826171875, 0.0830078125, -0.409423828125, 
297, 3256045977, 0.9123609066009521, 0.005608901381492615, -0.374922513961792, -0.16438817977905273, 6.364759922027588, 0.9037958979606628, 6.475327014923096, -1.750656247138977, -5.5282697677612305, -5.305988788604736, -0.8251953125, 0.085693359375, -0.41015625, 
298, 3256054310, 0.9122451543807983, 0.005482882261276245, -0.37510567903518677, -0.16461697220802307, 6.605189800262451, 1.0806852579116821, 6.520401477813721, -2.474155902862549, -3.7056117057800293, -2.257715940475464, -0.825439453125, 0.08056640625, -0.406494140625, 
299, 3256062643, 0.9122962951660156, 0.005313515663146973, -0.37501800060272217, -0.16453903913497925, 6.890052795410156, 1.1087504625320435, 6.509541034698486, -2.1431686878204346, 0.47044384479522705, 2.1450769901275635, -0.826171875, 0.08251953125, -0.408447265625, 
300, 3256070976, 0.9123867750167847, 0.005026817321777344, -0.37496063113212585, -0.1641770303249359, 7.002543926239014, 1.1115416288375854, 6.643806457519531, -2.0031356811523438, 0.05492972582578659, 6.430568695068359, -0.825439453125, 0.08251953125, -0.408447265625, 
301, 3256079309, 0.912480354309082, 0.004366248846054077, -0.3749432861804962, -0.16371482610702515, 6.960866451263428, 1.1761499643325806, 6.9435648918151855, -6.243905544281006, -1.2893438339233398, 9.524768829345703, -0.826171875, 0.084716796875, -0.408203125, 
302, 3256087642, 0.9125533103942871, 0.0033646225929260254, -0.37494295835494995, -0.16333115100860596, 6.782345294952393, 1.3021700382232666, 7.051346778869629, -10.733391761779785, -2.3602752685546875, 10.3527250289917, -0.82421875, 0.088623046875, -0.40966796875, 
303, 3256095975, 0.9125822186470032, 0.0023920685052871704, -0.3750171661376953, -0.16301614046096802, 6.495108604431152, 1.4108794927597046, 7.144383907318115, -10.506037712097168, -3.441016674041748, 9.339091300964355, -0.8271484375, 0.088623046875, -0.4091796875, 
304, 3256104308, 0.9125890731811523, 0.0014289766550064087, -0.3750806748867035, -0.16284310817718506, 6.263106822967529, 1.4599275588989258, 7.302472114562988, -11.19001579284668, -3.4247007369995117, 7.365694999694824, -0.8251953125, 0.088623046875, -0.40625, 
305, 3256112641, 0.9125291109085083, 0.0003975480794906616, -0.37526294589042664, -0.16276425123214722, 6.2572221755981445, 1.4949427843093872, 7.306511402130127, -12.344783782958984, -5.417924404144287, 6.362795352935791, -0.82470703125, 0.09033203125, -0.40771484375, 
306, 3256120974, 0.9125021696090698, -0.0006213337182998657, -0.3753434419631958, -0.16272974014282227, 6.380804061889648, 1.5227869749069214, 7.359500408172607, -12.563705444335938, -3.9382400512695312, 5.842825412750244, -0.825439453125, 0.09130859375, -0.4052734375, 
307, 3256129307, 0.9125643372535706, -0.0016422122716903687, -0.37518635392189026, -0.162736177444458, 6.560427665710449, 1.4384613037109375, 7.475070953369141, -13.380877494812012, -0.5020647048950195, 5.540961742401123, -0.826904296875, 0.09375, -0.40576171875, 
308, 3256137640, 0.9127563238143921, -0.002507343888282776, -0.3747188150882721, -0.16272562742233276, 6.713438987731934, 1.3418477773666382, 7.4768476486206055, -11.98252010345459, 4.412629127502441, 5.245885848999023, -0.827392578125, 0.09619140625, -0.405029296875, 
309, 3256145973, 0.9130150079727173, -0.0033051520586013794, -0.3740813136100769, -0.1627269983291626, 6.688263416290283, 1.273346185684204, 7.472954750061035, -11.692541122436523, 7.0269455909729, 4.8426408767700195, -0.825439453125, 0.09619140625, -0.4072265625, 
310, 3256154306, 0.9132766723632812, -0.00409369170665741, -0.3734188973903656, -0.1627623438835144, 6.536907196044922, 1.1889899969100952, 7.232990741729736, -11.690234184265137, 7.3914103507995605, 4.438012599945068, -0.825927734375, 0.095703125, -0.40966796875, 
311, 3256162639, 0.9134669303894043, -0.004916071891784668, -0.37292221188545227, -0.1628102958202362, 6.300467014312744, 1.1690218448638916, 7.019991874694824, -11.636370658874512, 4.905703067779541, 4.508118629455566, -0.82470703125, 0.099609375, -0.408203125, 
312, 3256170972, 0.913482666015625, -0.005845025181770325, -0.37283527851104736, -0.16289019584655762, 6.15578031539917, 1.178261160850525, 6.939990520477295, -12.409818649291992, -1.4093468189239502, 4.0114593505859375, -0.822509765625, 0.099853515625, -0.4091796875, 
313, 3256179305, 0.9133745431900024, -0.0068645179271698, -0.3730708360671997, -0.16291746497154236, 6.152068138122559, 1.0437209606170654, 7.031405448913574, -12.8314790725708, -6.3425726890563965, 4.6229987144470215, -0.82275390625, 0.099853515625, -0.40869140625, 
314, 3256187638, 0.9132577776908875, -0.007947131991386414, -0.37333711981773376, -0.1629130244255066, 6.229024410247803, 0.8979339599609375, 7.21013879776001, -13.128219604492188, -6.8778076171875, 5.532662868499756, -0.82470703125, 0.102294921875, -0.406005859375, 
315, 3256195971, 0.9132035374641418, -0.00909675657749176, -0.3734795153141022, -0.16283079981803894, 6.381637096405029, 0.9298276305198669, 7.361090660095215, -13.947364807128906, -5.170977592468262, 6.953868865966797, -0.82421875, 0.102783203125, -0.405029296875, 
316, 3256204304, 0.9131964445114136, -0.010192900896072388, -0.37353262305259705, -0.16268378496170044, 6.532996654510498, 1.0733256340026855, 7.396850109100342, -13.030860900878906, -3.685197353363037, 7.664074897766113, -0.82470703125, 0.104736328125, -0.405517578125, 
317, 3256212637, 0.9132136106491089, -0.01109158992767334, -0.37354302406311035, -0.16250425577163696, 6.6061811447143555, 1.2084301710128784, 7.39013147354126, -10.519460678100586, -2.589035987854004, 7.1236395835876465, -0.827880859375, 0.1083984375, -0.403564453125, 
318, 3256220970, 0.9132306575775146, -0.011836379766464233, -0.3735356628894806, -0.16237375140190125, 6.605580806732178, 1.213368535041809, 7.399328708648682, -8.835222244262695, -2.0133306980133057, 5.7151384353637695, -0.824951171875, 0.10986328125, -0.405029296875, 
319, 3256229303, 0.9131958484649658, -0.01248718798160553, -0.3736325800418854, -0.16229674220085144, 6.519542217254639, 1.0721203088760376, 7.383899688720703, -7.750843048095703, -3.3728833198547363, 4.432812690734863, -0.824462890625, 0.11181640625, -0.403564453125, 
320, 3256237636, 0.9130708575248718, -0.01324203610420227, -0.37386009097099304, -0.16241687536239624, 6.332838535308838, 0.9939523339271545, 7.436847686767578, -9.746703147888184, -5.671273708343506, 2.2622365951538086, -0.826904296875, 0.1103515625, -0.402099609375, 
321, 3256245969, 0.9128729104995728, -0.014107763767242432, -0.3742055296897888, -0.16266030073165894, 6.341408729553223, 0.9449262022972107, 7.328667640686035, -11.570056915283203, -7.756940841674805, 1.105062484741211, -0.826904296875, 0.11328125, -0.40234375, 
322, 3256254302, 0.9126526117324829, -0.014953076839447021, -0.37465590238571167, -0.16278457641601562, 6.477990627288818, 0.8525485992431641, 7.293267726898193, -10.42371654510498, -9.162137985229492, 2.4216599464416504, -0.826416015625, 0.113525390625, -0.400390625, 
323, 3256262635, 0.9123969078063965, -0.015883266925811768, -0.37518972158432007, -0.1629001498222351, 6.712912559509277, 0.8754575252532959, 7.400846481323242, -11.31027603149414, -10.58862018585205, 2.8749806880950928, -0.827880859375, 0.114013671875, -0.400390625, 
324, 3256270968, 0.9122043251991272, -0.016929909586906433, -0.3755187690258026, -0.16311541199684143, 6.819892406463623, 0.9234333634376526, 7.241186618804932, -13.686277389526367, -7.92811918258667, 2.406445026397705, -0.826904296875, 0.112548828125, -0.3984375, 
325, 3256279301, 0.912137508392334, -0.017856642603874207, -0.3755589723587036, -0.1632978916168213, 6.904987335205078, 0.9724258184432983, 7.079208850860596, -12.674385070800781, -3.398958206176758, 2.554469347000122, -0.828369140625, 0.114501953125, -0.39453125, 
326, 3256287634, 0.9121265411376953, -0.018500298261642456, -0.3755217492580414, -0.16337263584136963, 6.914792060852051, 1.067064881324768, 7.0316338539123535, -8.684174537658691, -1.525404691696167, 2.580467939376831, -0.828857421875, 0.114990234375, -0.396484375, 
327, 3256295967, 0.9120538234710693, -0.019034534692764282, -0.37564533948898315, -0.16343384981155396, 6.928886890411377, 1.2369812726974487, 7.127805233001709, -6.759418487548828, -3.598646879196167, 2.1872129440307617, -0.8291015625, 0.118408203125, -0.3984375, 
328, 3256304300, 0.9120004177093506, -0.019612401723861694, -0.375701367855072, -0.16353410482406616, 6.821444988250732, 1.2063404321670532, 7.116774082183838, -7.791619300842285, -2.7590115070343018, 1.8035110235214233, -0.828125, 0.1181640625, -0.39599609375, 
329, 3256312633, 0.911989688873291, -0.020236462354660034, -0.375598281621933, -0.16375401616096497, 6.621530055999756, 1.082594394683838, 7.053317546844482, -9.35982608795166, -0.6175593137741089, 0.7058387398719788, -0.8291015625, 0.1220703125, -0.396728515625, 
330, 3256320966, 0.9120023250579834, -0.020826056599617004, -0.37537604570388794, -0.16411855816841125, 6.593679428100586, 0.9270401000976562, 6.918653964996338, -9.912708282470703, 1.1176131963729858, -1.2263071537017822, -0.8291015625, 0.1201171875, -0.3955078125, 
331, 3256329299, 0.9119439125061035, -0.021685749292373657, -0.3752663731575012, -0.16458213329315186, 6.65490198135376, 0.6928539276123047, 7.005459308624268, -13.687737464904785, -1.256685733795166, -1.3205422163009644, -0.82958984375, 0.1201171875, -0.3935546875, 
332, 3256337632, 0.9117969274520874, -0.02274961769580841, -0.37537723779678345, -0.16499966382980347, 6.737973690032959, 0.5298627018928528, 7.054021835327148, -15.426507949829102, -4.940218448638916, 0.09852517396211624, -0.828125, 0.12060546875, -0.3955078125, 
333, 3256345965, 0.9116662740707397, -0.023791447281837463, -0.37548112869262695, -0.16533789038658142, 6.75441837310791, 0.5033414959907532, 7.154610633850098, -14.852673530578613, -4.757383823394775, 0.9717914462089539, -0.828125, 0.12158203125, -0.3955078125, 
334, 3256354298, 0.9116911292076111, -0.02468457818031311, -0.37523210048675537, -0.16563573479652405, 6.747097015380859, 0.4776320457458496, 7.152170181274414, -13.430109977722168, 0.8088592886924744, 1.2256542444229126, -0.8291015625, 0.1220703125, -0.393310546875, 
335, 3256362631, 0.9118226766586304, -0.025527432560920715, -0.3747681975364685, -0.16583377122879028, 6.910560131072998, 0.5928221344947815, 7.115617275238037, -12.700053215026855, 4.138070106506348, 2.6213741302490234, -0.82666015625, 0.12353515625, -0.39697265625, 
336, 3256370964, 0.9119184017181396, -0.02622099220752716, -0.37445759773254395, -0.16590014100074768, 6.9588494300842285, 0.6459300518035889, 7.009023189544678, -9.850774765014648, 2.3214311599731445, 3.2794547080993652, -0.827392578125, 0.125732421875, -0.393798828125, 
337, 3256379297, 0.9118621349334717, -0.026841595768928528, -0.3745436370372772, -0.1659160852432251, 6.936244010925293, 0.6452980637550354, 7.147001266479492, -8.136310577392578, -3.3254199028015137, 2.796626567840576, -0.828857421875, 0.124755859375, -0.392822265625, 
338, 3256387630, 0.911734938621521, -0.027533620595932007, -0.37473636865615845, -0.16606661677360535, 6.786367893218994, 0.6256232857704163, 7.212952613830566, -9.199814796447754, -5.103355407714844, 1.5269545316696167, -0.829345703125, 0.127685546875, -0.394287109375, 
339, 3256395963, 0.911540150642395, -0.028183266520500183, -0.375053733587265, -0.16631117463111877, 6.574781894683838, 0.6954788565635681, 7.1822004318237305, -9.152863502502441, -6.914102554321289, -0.2779913544654846, -0.82861328125, 0.12451171875, -0.393310546875, 
340, 3256404296, 0.9113339781761169, -0.028847187757492065, -0.37535586953163147, -0.1666451394557953, 6.513777256011963, 0.9583317637443542, 7.235476493835449, -9.572809219360352, -6.748659610748291, -1.1393725872039795, -0.829345703125, 0.128662109375, -0.390380859375, 
341, 3256412629, 0.9111486673355103, -0.029530003666877747, -0.3755576014518738, -0.1670829951763153, 6.519087791442871, 1.1652592420578003, 7.0446367263793945, -10.820657730102539, -5.414798736572266, -2.4537415504455566, -0.828857421875, 0.127685546875, -0.390380859375, 
342, 3256420962, 0.910907506942749, -0.030288413166999817, -0.3758580684661865, -0.16758614778518677, 6.604466915130615, 1.202254056930542, 6.926444053649902, -11.646692276000977, -7.057824611663818, -2.85219669342041, -0.831787109375, 0.128173828125, -0.388916015625, 
343, 3256429295, 0.9106411933898926, -0.03116782009601593, -0.3762269616127014, -0.16804346442222595, 6.67465877532959, 0.9308903217315674, 6.726511001586914, -12.863368034362793, -8.352137565612793, -1.7739653587341309, -0.831298828125, 0.125732421875, -0.387451171875, 
344, 3256437628, 0.9104238748550415, -0.03220720589160919, -0.37652358412742615, -0.16835978627204895, 6.918575286865234, 0.6629915237426758, 6.6398444175720215, -14.198664665222168, -7.6132941246032715, 0.9988400340080261, -0.830810546875, 0.129150390625, -0.388427734375, 
345, 3256445961, 0.9101604223251343, -0.03374899923801422, -0.3768594264984131, -0.16873061656951904, 6.882178783416748, 0.5378957986831665, 7.057192325592041, -20.89351463317871, -9.506010055541992, 2.6534180641174316, -0.830322265625, 0.13037109375, -0.387451171875, 
346, 3256454294, 0.9098010063171387, -0.035408854484558105, -0.37741631269454956, -0.16908451914787292, 6.757829666137695, 0.4644206464290619, 7.096381187438965, -21.62186050415039, -13.027639389038086, 3.2920587062835693, -0.831298828125, 0.13134765625, -0.385498046875, 
347, 3256462627, 0.909550666809082, -0.03665044903755188, -0.37787309288978577, -0.16914600133895874, 6.9623188972473145, 0.5171447992324829, 7.04588508605957, -15.10853385925293, -10.387164115905762, 5.073732852935791, -0.83251953125, 0.1328125, -0.38037109375, 
348, 3256470960, 0.9093432426452637, -0.03770612180233002, -0.3782753348350525, -0.1691303849220276, 7.051178932189941, 0.5326475501060486, 7.170129776000977, -12.429718971252441, -9.080580711364746, 5.207695484161377, -0.8330078125, 0.13623046875, -0.38330078125, 
349, 3256479293, 0.9090683460235596, -0.03866754472255707, -0.3788345754146576, -0.16913950443267822, 6.927833557128906, 0.533160924911499, 7.214966773986816, -11.317243576049805, -11.19050407409668, 3.9617931842803955, -0.83251953125, 0.136474609375, -0.37890625, 
350, 3256487626, 0.9087232351303101, -0.03961014747619629, -0.37954437732696533, -0.1691853404045105, 6.892885684967041, 0.5367015600204468, 7.237159252166748, -10.693460464477539, -13.347915649414062, 3.3681321144104004, -0.83251953125, 0.136962890625, -0.38037109375, 
351, 3256495959, 0.9083840847015381, -0.04043099284172058, -0.38027215003967285, -0.16917762160301208, 6.923460960388184, 0.6560462713241577, 7.1657538414001465, -9.008092880249023, -13.304498672485352, 3.3025338649749756, -0.8330078125, 0.136962890625, -0.3759765625, 
352, 3256504292, 0.9079765677452087, -0.04118610918521881, -0.3811415433883667, -0.16922655701637268, 6.850540637969971, 0.8957260251045227, 7.129695415496826, -8.030705451965332, -15.22861385345459, 2.1161844730377197, -0.8349609375, 0.13818359375, -0.37255859375, 
353, 3256512625, 0.9075124263763428, -0.041824936866760254, -0.382085382938385, -0.16943120956420898, 6.7907938957214355, 1.1172171831130981, 7.086640357971191, -7.246524333953857, -16.0987548828125, -0.555905818939209, -0.83544921875, 0.136962890625, -0.373046875, 
354, 3256520958, 0.9071379899978638, -0.04224489629268646, -0.3827529847621918, -0.16982495784759521, 6.953023433685303, 1.1537728309631348, 6.866209030151367, -6.108586311340332, -11.558783531188965, -3.7537670135498047, -0.837158203125, 0.14111328125, -0.372314453125, 
355, 3256529291, 0.9069525599479675, -0.04223604500293732, -0.3830225467681885, -0.17020902037620544, 7.274515151977539, 0.9500064849853516, 6.647521495819092, -1.7506306171417236, -4.626417636871338, -5.371305465698242, -0.837890625, 0.1396484375, -0.368408203125, 
356, 3256537624, 0.9069799184799194, -0.04206781089305878, -0.38282182812690735, -0.17055609822273254, 7.416818618774414, 0.6578108668327332, 6.481158256530762, -0.32130497694015503, 2.7349727153778076, -4.8231353759765625, -0.8388671875, 0.138671875, -0.370361328125, 
357, 3256545957, 0.9071007966995239, -0.04200302064418793, -0.3824077248573303, -0.1708582043647766, 7.33548641204834, 0.5349707007408142, 6.527444839477539, -1.7540115118026733, 5.6226959228515625, -3.2638168334960938, -0.83740234375, 0.13916015625, -0.369873046875, 
358, 3256554290, 0.9071660041809082, -0.042292118072509766, -0.3820725977420807, -0.17118993401527405, 7.138195514678955, 0.45602139830589294, 6.608274459838867, -6.239525318145752, 3.5276055335998535, -2.05997371673584, -0.83740234375, 0.138427734375, -0.371337890625, 
359, 3256562623, 0.9071326851844788, -0.04287515580654144, -0.38194942474365234, -0.17149579524993896, 6.972636699676514, 0.29294219613075256, 6.6929097175598145, -9.454933166503906, -0.3546547591686249, -0.6177641749382019, -0.8369140625, 0.139404296875, -0.373779296875, 
360, 3256570956, 0.907006025314331, -0.04346209764480591, -0.3820713758468628, -0.17174705862998962, 6.989304065704346, 0.15509530901908875, 6.802358150482178, -8.566426277160645, -3.930556297302246, -0.21111254394054413, -0.8349609375, 0.13916015625, -0.36962890625, 
361, 3256579289, 0.9068012237548828, -0.04392729699611664, -0.38241109251976013, -0.1719537079334259, 7.07053279876709, 0.1224571242928505, 7.027409553527832, -6.1208038330078125, -6.778526306152344, -0.35368141531944275, -0.83642578125, 0.13671875, -0.3701171875, 
362, 3256587622, 0.9065959453582764, -0.04412031173706055, -0.38282474875450134, -0.17206639051437378, 7.1024394035339355, 0.10322058200836182, 7.120425224304199, -2.2834577560424805, -7.134819030761719, -0.9145050048828125, -0.84033203125, 0.13916015625, -0.368896484375, 
363, 3256595955, 0.9064635038375854, -0.043960705399513245, -0.3831343948841095, -0.17211461067199707, 7.1055378913879395, 0.20469845831394196, 7.165422439575195, 2.2699973583221436, -4.658768177032471, -1.667794108390808, -0.83837890625, 0.13818359375, -0.368408203125, 
364, 3256604288, 0.9064072966575623, -0.043616652488708496, -0.3832755386829376, -0.17218440771102905, 6.969195365905762, 0.3960045576095581, 7.153140544891357, 4.082076072692871, -1.7076497077941895, -2.689955711364746, -0.83544921875, 0.138671875, -0.36669921875, 
365, 3256612621, 0.9063622951507568, -0.04327794909477234, -0.3833546042442322, -0.17233067750930786, 6.859444618225098, 0.6336303353309631, 7.015094757080078, 3.543025016784668, -0.8365097641944885, -3.443885326385498, -0.83642578125, 0.13525390625, -0.36767578125, 
366, 3256620954, 0.9062425494194031, -0.042932525277137756, -0.38358473777770996, -0.17253491282463074, 6.848788738250732, 0.842435359954834, 6.791811943054199, 3.5634653568267822, -3.0688416957855225, -4.5760345458984375, -0.837890625, 0.13623046875, -0.366455078125, 
367, 3256629287, 0.9060305953025818, -0.04282093048095703, -0.3839559257030487, -0.17285004258155823, 6.879842758178711, 0.9656129479408264, 6.721686363220215, 0.2098190188407898, -5.8162760734558105, -5.107837200164795, -0.83984375, 0.135498046875, -0.367431640625, 
368, 3256637620, 0.9057728052139282, -0.0429752916097641, -0.38435813784599304, -0.1732684075832367, 6.871573448181152, 0.9891770482063293, 6.743053913116455, -3.467271566390991, -7.000934600830078, -5.035272598266602, -0.83837890625, 0.134033203125, -0.36669921875, 
369, 3256645953, 0.9055418968200684, -0.04333654046058655, -0.38463521003723145, -0.17376965284347534, 6.790442943572998, 0.877741277217865, 6.749690532684326, -6.822813987731934, -5.751318454742432, -4.84508752822876, -0.83740234375, 0.133544921875, -0.3662109375, 
370, 3256654286, 0.9053052663803101, -0.043719738721847534, -0.3849363327026367, -0.17423918843269348, 6.784300327301025, 0.6320170760154724, 6.858664035797119, -6.813873767852783, -6.145752429962158, -4.354164123535156, -0.84033203125, 0.133544921875, -0.364013671875, 
371, 3256662619, 0.905058741569519, -0.04417787492275238, -0.385291188955307, -0.17461997270584106, 6.840296745300293, 0.35719263553619385, 6.894799709320068, -7.25103235244751, -7.110231399536133, -2.9481730461120605, -0.83935546875, 0.13427734375, -0.364501953125, 
372, 3256670952, 0.9047844409942627, -0.04455767571926117, -0.38578587770462036, -0.174852192401886, 6.911226749420166, 0.2217804193496704, 6.917708873748779, -5.073719501495361, -8.889242172241211, -1.6251978874206543, -0.84130859375, 0.132568359375, -0.361083984375, 
373, 3256679285, 0.9044820070266724, -0.04485286772251129, -0.3863948583602905, -0.17499592900276184, 6.977870464324951, 0.22309423983097076, 6.919064521789551, -3.2853589057922363, -10.312932968139648, -1.0567665100097656, -0.84130859375, 0.134765625, -0.361572265625, 
374, 3256687618, 0.9041368961334229, -0.04502779245376587, -0.38711440563201904, -0.17514419555664062, 7.041420936584473, 0.24056977033615112, 6.934823036193848, -1.5836257934570312, -11.621026992797852, -1.9787256717681885, -0.84228515625, 0.1337890625, -0.357666015625, 
375, 3256695951, 0.9037480354309082, -0.04504501819610596, -0.38795170187950134, -0.1752949357032776, 7.012489318847656, 0.2646736204624176, 6.884282112121582, 0.5841455459594727, -12.943309783935547, -3.0166399478912354, -0.84326171875, 0.131591796875, -0.358642578125, 
376, 3256704284, 0.9033178091049194, -0.044754236936569214, -0.38900530338287354, -0.1752515733242035, 7.110696792602539, 0.3674129545688629, 6.782590389251709, 5.980221271514893, -15.222031593322754, -2.4910106658935547, -0.84375, 0.13427734375, -0.356689453125, 
377, 3256712617, 0.9028924703598022, -0.04438580572605133, -0.39012396335601807, -0.17505058646202087, 7.199484825134277, 0.6996824145317078, 6.9380059242248535, 7.817633152008057, -15.929394721984863, -1.0477761030197144, -0.8427734375, 0.134765625, -0.354248046875, 
378, 3256720950, 0.9024559855461121, -0.04422062635421753, -0.3911939263343811, -0.1749558448791504, 7.257760524749756, 0.9180294871330261, 6.990349769592285, 4.729324817657471, -15.794742584228516, -1.2019740343093872, -0.84716796875, 0.13232421875, -0.353759765625, 
379, 3256729283, 0.9021000862121582, -0.04412896931171417, -0.3920510411262512, -0.17489492893218994, 7.361295700073242, 0.9714945554733276, 6.853300094604492, 3.059633731842041, -12.889777183532715, -0.9601753950119019, -0.8486328125, 0.1328125, -0.352783203125, 
380, 3256737616, 0.9018387794494629, -0.044160544872283936, -0.39262092113494873, -0.17495578527450562, 7.363381862640381, 0.9403485059738159, 6.785307884216309, 0.35471877455711365, -9.025099754333496, -1.3471040725708008, -0.846923828125, 0.1298828125, -0.349853515625, 
381, 3256745949, 0.9015658497810364, -0.04439513385295868, -0.3931404948234558, -0.17513638734817505, 7.240410804748535, 0.9168519377708435, 6.783378601074219, -3.0289604663848877, -8.890573501586914, -1.7670749425888062, -0.84912109375, 0.13134765625, -0.347900390625, 
382, 3256754282, 0.90125572681427, -0.04467079043388367, -0.3937508165836334, -0.17529088258743286, 7.17795467376709, 0.8793503046035767, 6.758033275604248, -3.1109261512756348, -10.32169246673584, -1.3350908756256104, -0.84716796875, 0.13232421875, -0.349365234375, 
383, 3256762615, 0.901032567024231, -0.04470597207546234, -0.3942282795906067, -0.17535632848739624, 7.186854839324951, 0.7577040791511536, 6.612418174743652, -0.33137139678001404, -7.7201313972473145, -1.5604193210601807, -0.84765625, 0.13232421875, -0.345458984375, 
384, 3256770948, 0.9008500576019287, -0.0445517897605896, -0.39463984966278076, -0.17540717124938965, 7.167667388916016, 0.6448591947555542, 6.557660102844238, 2.3750157356262207, -6.194238662719727, -1.9484747648239136, -0.847900390625, 0.130859375, -0.344970703125, 
385, 3256779281, 0.9005802869796753, -0.0444234162569046, -0.39522865414619446, -0.17550024390220642, 7.186614513397217, 0.5333190560340881, 6.559960842132568, 2.187443256378174, -8.902817726135254, -2.6174166202545166, -0.849365234375, 0.12939453125, -0.345947265625, 
386, 3256787614, 0.9002390503883362, -0.0442817360162735, -0.3959575593471527, -0.17564308643341064, 7.174780368804932, 0.45417287945747375, 6.491238117218018, 2.390333652496338, -10.960869789123535, -3.596930503845215, -0.848876953125, 0.13037109375, -0.342529296875, 
387, 3256795947, 0.8998920917510986, -0.0441165417432785, -0.3966943621635437, -0.17580020427703857, 7.239318370819092, 0.4128131568431854, 6.538217067718506, 2.49509596824646, -11.037303924560547, -3.980196714401245, -0.849853515625, 0.12890625, -0.341552734375, 
388, 3256804280, 0.8994840979576111, -0.04400227963924408, -0.3975589871406555, -0.1759636104106903, 7.297436714172363, 0.4366510212421417, 6.614091396331787, 2.227221965789795, -13.057345390319824, -3.9457197189331055, -0.849853515625, 0.1279296875, -0.342529296875, 
389, 3256812613, 0.8990713953971863, -0.04389983415603638, -0.39843127131462097, -0.1761247217655182, 7.4245829582214355, 0.5097968578338623, 6.579588890075684, 2.2482261657714844, -13.195690155029297, -3.701437473297119, -0.849853515625, 0.12646484375, -0.340087890625, 
390, 3256820946, 0.8986997008323669, -0.043812260031700134, -0.3992037773132324, -0.17629504203796387, 7.479096412658691, 0.5254632234573364, 6.579555034637451, 1.6582274436950684, -11.780834197998047, -3.7424707412719727, -0.853271484375, 0.1279296875, -0.337890625, 
391, 3256829279, 0.8983831405639648, -0.043664515018463135, -0.39986908435821533, -0.1764368712902069, 7.425952911376953, 0.5675142407417297, 6.537840366363525, 2.292410373687744, -10.028257369995117, -3.509791135787964, -0.853271484375, 0.126953125, -0.337646484375, 
392, 3256837612, 0.8980878591537476, -0.04350544512271881, -0.4005069136619568, -0.17653322219848633, 7.395724773406982, 0.5947837829589844, 6.548549652099609, 2.6672749519348145, -9.568302154541016, -2.9529120922088623, -0.850830078125, 0.12353515625, -0.336669921875, 
393, 3256845945, 0.8977525234222412, -0.04341316223144531, -0.4012371599674225, -0.1766037940979004, 7.35817813873291, 0.6777712106704712, 6.4978156089782715, 2.1816797256469727, -11.107434272766113, -2.3772315979003906, -0.853759765625, 0.12451171875, -0.334716796875, 
394, 3256854278, 0.8973857164382935, -0.04353019595146179, -0.4019795060157776, -0.17675018310546875, 7.200286388397217, 0.6846821308135986, 6.428661346435547, -0.8082571029663086, -11.894097328186035, -2.285020112991333, -0.853759765625, 0.12548828125, -0.333740234375, 
395, 3256862611, 0.8970010280609131, -0.04385136067867279, -0.40270185470581055, -0.17697948217391968, 7.2112531661987305, 0.7728097438812256, 6.413544654846191, -3.8108866214752197, -12.189764976501465, -2.1389427185058594, -0.856201171875, 0.125732421875, -0.3291015625, 
396, 3256870944, 0.8965334892272949, -0.044330865144729614, -0.40357911586761475, -0.17723095417022705, 7.310428619384766, 0.7755166292190552, 6.456417560577393, -5.591896057128906, -14.933537483215332, -1.90190851688385, -0.855712890625, 0.1240234375, -0.32958984375, 
397, 3256879277, 0.8960363864898682, -0.044873833656311035, -0.40451857447624207, -0.17746567726135254, 7.459051132202148, 0.7814028859138489, 6.531518459320068, -6.254229545593262, -16.039688110351562, -1.4962559938430786, -0.857177734375, 0.1240234375, -0.32958984375, 
398, 3256887610, 0.8955622315406799, -0.045337289571762085, -0.40543419122695923, -0.1776517629623413, 7.447941303253174, 0.6577416658401489, 6.565890789031982, -4.940756320953369, -15.44400405883789, -1.2253596782684326, -0.857177734375, 0.123779296875, -0.326171875, 
399, 3256895943, 0.895221471786499, -0.04568593204021454, -0.40607959032058716, -0.17780616879463196, 7.39439058303833, 0.5763512253761292, 6.5967230796813965, -4.038238048553467, -11.122776985168457, -1.02792489528656, -0.860107421875, 0.123291015625, -0.32373046875, 
400, 3256904276, 0.8949499726295471, -0.04596008360385895, -0.4066174030303955, -0.177873432636261, 7.473503112792969, 0.6507216095924377, 6.543186187744141, -2.7433102130889893, -9.273070335388184, -0.08808736503124237, -0.859130859375, 0.126220703125, -0.32275390625, 
401, 3256912609, 0.8947124481201172, -0.04608355462551117, -0.40712210536003113, -0.17788147926330566, 7.418164253234863, 0.6532748937606812, 6.410871505737305, -0.6373845934867859, -8.346270561218262, -0.06754473596811295, -0.858154296875, 0.124267578125, -0.32275390625, 
402, 3256920942, 0.8944791555404663, -0.046174123883247375, -0.4076298177242279, -0.17786851525306702, 7.36647367477417, 0.6651261448860168, 6.407309532165527, -0.08598698675632477, -8.2904052734375, -0.015932053327560425, -0.860595703125, 0.126220703125, -0.32275390625, 
403, 3256929275, 0.8942215442657471, -0.04632025957107544, -0.40819329023361206, -0.1778339445590973, 7.314787864685059, 0.6863656640052795, 6.356010913848877, -0.682107150554657, -9.277835845947266, 0.3857632279396057, -0.859619140625, 0.123291015625, -0.31982421875, 
404, 3256937608, 0.8939348459243774, -0.04655621945858002, -0.4088020324707031, -0.17781499028205872, 7.33991813659668, 0.6675381660461426, 6.36439323425293, -1.6272724866867065, -10.191699981689453, 0.6788412928581238, -0.860107421875, 0.124267578125, -0.3173828125, 
405, 3256945941, 0.8936171531677246, -0.04676848649978638, -0.40947410464286804, -0.17780926823616028, 7.2980217933654785, 0.6250035762786865, 6.385837554931641, -1.3330928087234497, -11.083433151245117, 0.26501765847206116, -0.861083984375, 0.125244140625, -0.3173828125, 
406, 3256954274, 0.8932475447654724, -0.047047168016433716, -0.41024157404899597, -0.17782464623451233, 7.340832233428955, 0.652216374874115, 6.421990394592285, -2.010922908782959, -12.692394256591797, 0.19232453405857086, -0.862548828125, 0.124755859375, -0.31689453125, 
407, 3256962607, 0.892840564250946, -0.04738569259643555, -0.41110506653785706, -0.17778387665748596, 7.456415176391602, 0.6890748143196106, 6.385470390319824, -2.223828077316284, -14.263978958129883, 1.107751727104187, -0.862548828125, 0.126220703125, -0.31591796875, 
408, 3256970940, 0.8924252986907959, -0.04755741357803345, -0.41201210021972656, -0.17772310972213745, 7.460966110229492, 0.6190897226333618, 6.242790222167969, 0.04514509066939354, -14.452345848083496, 0.3211897015571594, -0.863525390625, 0.125, -0.31201171875, 
409, 3256979273, 0.8920749425888062, -0.047691598534584045, -0.4128032326698303, -0.17761090397834778, 7.606928825378418, 0.6815950274467468, 6.279726982116699, 0.5021799802780151, -12.607481956481934, 0.9785792231559753, -0.863525390625, 0.125, -0.310546875, 
410, 3256987606, 0.8917231559753418, -0.04788157343864441, -0.41359561681747437, -0.17748335003852844, 7.64259672164917, 0.6894371509552002, 6.170218467712402, -0.04016312584280968, -12.773283004760742, 1.4725497961044312, -0.863037109375, 0.1259765625, -0.3115234375, 
411, 3256995939, 0.8915400505065918, -0.04815874993801117, -0.4139699339866638, -0.17745473980903625, 7.545804977416992, 0.5271357893943787, 6.159663677215576, -2.6206436157226562, -6.837514877319336, 1.457693338394165, -0.864501953125, 0.125, -0.307861328125, 
412, 3257004272, 0.8914161920547485, -0.048593178391456604, -0.4142284095287323, -0.17735549807548523, 7.6357316970825195, 0.4937216341495514, 6.300687313079834, -4.350834369659424, -5.50808572769165, 3.4254820346832275, -0.865966796875, 0.1259765625, -0.308349609375, 
413, 3257012605, 0.8913224935531616, -0.04907190799713135, -0.4144446551799774, -0.1771889328956604, 7.620333671569824, 0.5659458637237549, 6.249237537384033, -4.548166275024414, -4.965396404266357, 4.685496807098389, -0.864990234375, 0.1259765625, -0.306396484375, 
414, 3257020938, 0.8912608623504639, -0.04945245385169983, -0.4146358370780945, -0.17694616317749023, 7.586411476135254, 0.7070088982582092, 6.219446182250977, -2.9928700923919678, -4.29422664642334, 5.07900857925415, -0.863525390625, 0.12548828125, -0.3076171875, 
415, 3257029271, 0.8911283016204834, -0.0498090535402298, -0.41498690843582153, -0.17668983340263367, 7.503759860992432, 0.8067331314086914, 6.220170021057129, -2.3053834438323975, -6.609009742736816, 4.851092338562012, -0.8662109375, 0.129150390625, -0.305419921875, 
416, 3257037604, 0.8909295797348022, -0.05017443001270294, -0.41545549035072327, -0.17648836970329285, 7.593142509460449, 0.772383987903595, 6.191938400268555, -2.463756799697876, -8.410614967346191, 3.959897518157959, -0.864990234375, 0.128662109375, -0.305419921875, 
417, 3257045937, 0.890735924243927, -0.05046764016151428, -0.4159156084060669, -0.17629829049110413, 7.717851638793945, 0.6792698502540588, 6.218849182128906, -1.692383885383606, -8.094123840332031, 3.446126699447632, -0.86767578125, 0.130126953125, -0.303466796875, 
418, 3257054270, 0.890586256980896, -0.05075526237487793, -0.41628265380859375, -0.17610570788383484, 7.716541767120361, 0.6219303607940674, 6.310444355010986, -1.7759120464324951, -6.692206382751465, 3.5955350399017334, -0.8671875, 0.131103515625, -0.301513671875, 
419, 3257062603, 0.8904846906661987, -0.05103185772895813, -0.41654592752456665, -0.17591595649719238, 7.571956157684326, 0.6101217269897461, 6.416316986083984, -1.8416378498077393, -5.108631134033203, 3.7566215991973877, -0.862548828125, 0.128662109375, -0.303955078125, 
420, 3257070936, 0.8904145956039429, -0.05120159685611725, -0.4167405366897583, -0.17576023936271667, 7.519968032836914, 0.5994386672973633, 6.376932144165039, -0.902824878692627, -3.8131654262542725, 2.7852280139923096, -0.86669921875, 0.129150390625, -0.301025390625, 
421, 3257079269, 0.8903706669807434, -0.05124007165431976, -0.41688868403434753, -0.17562079429626465, 7.531375885009766, 0.5360294580459595, 6.300522327423096, 0.38799163699150085, -2.7735862731933594, 1.8696727752685547, -0.865234375, 0.131103515625, -0.301513671875, 
422, 3257087602, 0.8902895450592041, -0.05126562714576721, -0.41710248589515686, -0.17551714181900024, 7.572906017303467, 0.5349321365356445, 6.254611968994141, 0.6017167568206787, -3.726128101348877, 1.2792644500732422, -0.86572265625, 0.129638671875, -0.299072265625, 
423, 3257095935, 0.890173077583313, -0.05136655271053314, -0.4173605442047119, -0.17546480894088745, 7.521032333374023, 0.5839244723320007, 6.2248687744140625, -0.48375046253204346, -4.607924461364746, 1.0489670038223267, -0.86474609375, 0.1328125, -0.300537109375, 
424, 3257104268, 0.8900270462036133, -0.051532238721847534, -0.41766709089279175, -0.17542728781700134, 7.50728178024292, 0.585922122001648, 6.197406768798828, -1.3163154125213623, -5.525246620178223, 1.05186128616333, -0.86767578125, 0.130615234375, -0.301025390625, 
425, 3257112601, 0.8898767232894897, -0.05170373618602753, -0.4179835617542267, -0.17538592219352722, 7.553154468536377, 0.5613802075386047, 6.108618259429932, -1.3185696601867676, -5.6828765869140625, 1.1771918535232544, -0.8671875, 0.132080078125, -0.301025390625, 
426, 3257120934, 0.8897212743759155, -0.051930442452430725, -0.4182946979999542, -0.17536556720733643, 7.563230037689209, 0.5552030801773071, 6.13547945022583, -2.1550540924072266, -5.770349502563477, 1.1678427457809448, -0.8662109375, 0.130615234375, -0.298583984375, 
427, 3257129267, 0.889580249786377, -0.05213841795921326, -0.4185579717159271, -0.17539051175117493, 7.6062703132629395, 0.5117894411087036, 6.118685722351074, -2.3680360317230225, -5.026972770690918, 0.5573273301124573, -0.8662109375, 0.1318359375, -0.295654296875, 
428, 3257137600, 0.8895118236541748, -0.05225816369056702, -0.418670117855072, -0.17543479800224304, 7.741557598114014, 0.46142131090164185, 6.126070976257324, -1.6355969905853271, -2.5320184230804443, 0.11289474368095398, -0.86767578125, 0.131591796875, -0.298095703125, 
429, 3257145933, 0.8895156383514404, -0.05227412283420563, -0.4186592698097229, -0.17543601989746094, 7.741056442260742, 0.47325363755226135, 6.198781490325928, -0.4009908437728882, -0.38972052931785583, 0.31965282559394836, -0.8671875, 0.1328125, -0.298583984375, 
430, 3257154266, 0.8895208835601807, -0.05229616165161133, -0.41865047812461853, -0.1754245162010193, 7.589588642120361, 0.5104268789291382, 6.336045742034912, -0.3604690730571747, -0.43277812004089355, 0.4964678883552551, -0.86767578125, 0.1328125, -0.297119140625, 
431, 3257162599, 0.8894867897033691, -0.052314698696136475, -0.41871142387390137, -0.1754462718963623, 7.541412830352783, 0.5688371658325195, 6.424868583679199, -0.3960729241371155, -1.4769936800003052, -0.05437902361154556, -0.869140625, 0.131591796875, -0.29638671875, 
432, 3257170932, 0.8894444704055786, -0.052308693528175354, -0.41877952218055725, -0.1755000650882721, 7.564410209655762, 0.6111317276954651, 6.4861836433410645, -0.2399541586637497, -1.5310653448104858, -0.6332864165306091, -0.8671875, 0.13232421875, -0.297119140625, 
433, 3257179265, 0.8894152641296387, -0.05222317576408386, -0.4188232421875, -0.17556875944137573, 7.588815689086914, 0.6408374905586243, 6.494602680206299, 0.5428552627563477, -0.9561793208122253, -1.2229771614074707, -0.86767578125, 0.131103515625, -0.298583984375, 
434, 3257187598, 0.8894269466400146, -0.052077516913414, -0.4187922179698944, -0.17562714219093323, 7.60571813583374, 0.674492359161377, 6.461371421813965, 1.2408943176269531, 0.3316146731376648, -1.2914952039718628, -0.87060546875, 0.132080078125, -0.29833984375, 
435, 3257195931, 0.8894883990287781, -0.051826462149620056, -0.4186902344226837, -0.17563381791114807, 7.594336986541748, 0.7268610000610352, 6.341212749481201, 2.637587308883667, 1.7036408185958862, -1.0949828624725342, -0.8662109375, 0.1318359375, -0.297119140625, 
436, 3257204264, 0.8895399570465088, -0.05161282420158386, -0.41856664419174194, -0.17572978138923645, 7.470536708831787, 0.6951073408126831, 6.474323749542236, 1.6585856676101685, 1.884682536125183, -1.9805182218551636, -0.86767578125, 0.130615234375, -0.299072265625, 
437, 3257212597, 0.8895022869110107, -0.051599130034446716, -0.41856303811073303, -0.17593315243721008, 7.3584303855896, 0.5938750505447388, 6.620361804962158, -1.2209281921386719, -0.5036014914512634, -2.435452699661255, -0.8671875, 0.1328125, -0.297607421875, 
438, 3257220930, 0.889586865901947, -0.05153718590736389, -0.4183386564254761, -0.17605730891227722, 7.499380588531494, 0.6117680072784424, 6.459371566772461, -0.578753650188446, 2.9603524208068848, -1.3011518716812134, -0.8681640625, 0.129150390625, -0.297607421875, 
439, 3257229263, 0.8898167610168457, -0.05139128863811493, -0.4178447425365448, -0.17611119151115417, 7.604009628295898, 0.7644082307815552, 6.31012487411499, 0.32897645235061646, 7.254195213317871, -0.31641268730163574, -0.864990234375, 0.128662109375, -0.300048828125, 
440, 3257237596, 0.8900101780891418, -0.05128276348114014, -0.4174169898033142, -0.17617952823638916, 7.4608635902404785, 0.7350179553031921, 6.210953235626221, -0.10299484431743622, 6.147839546203613, -0.4777311384677887, -0.86767578125, 0.131591796875, -0.299560546875, 
441, 3257245929, 0.8901002407073975, -0.0513710081577301, -0.417165070772171, -0.17629560828208923, 7.392913341522217, 0.6966743469238281, 6.427872180938721, -2.511885404586792, 2.956125497817993, -0.325454443693161, -0.8671875, 0.129150390625, -0.299072265625, 
442, 3257254262, 0.890117883682251, -0.05168488621711731, -0.4170081317424774, -0.17648667097091675, 7.457498550415039, 0.6928181052207947, 6.545407772064209, -5.445355415344238, 0.8870337605476379, -0.17420239746570587, -0.86767578125, 0.130615234375, -0.298095703125, 
443, 3257262595, 0.8901862502098083, -0.051755547523498535, -0.4168207049369812, -0.17656314373016357, 7.459565162658691, 0.7195743918418884, 6.528567790985107, -2.0236268043518066, 2.0493054389953613, -0.11454685032367706, -0.8662109375, 0.130126953125, -0.300537109375, 
444, 3257270928, 0.8902536034584045, -0.05167089402675629, -0.4166671335697174, -0.1766105592250824, 7.333564758300781, 0.742631733417511, 6.6290693283081055, 0.3013898730278015, 1.9970009326934814, -0.5823395848274231, -0.8681640625, 0.130615234375, -0.302978515625, 
445, 3257279261, 0.8902719616889954, -0.05156148970127106, -0.4165970981121063, -0.17671561241149902, 7.370090961456299, 0.6755169630050659, 6.539289474487305, 0.4861965775489807, 0.8018664717674255, -1.528708815574646, -0.865234375, 0.130615234375, -0.301025390625, 
