sep=,
PacketCounter,SampleTimeFine,Quat_W,Quat_X,Quat_Y,Quat_Z,Acc_X,Acc_Y,Acc_Z,Gyr_X,Gyr_Y,Gyr_Z,Mag_X,Mag_Y,Mag_Z,
0, 3678187424, 0.8990304470062256, -0.05167226493358612, -0.4234214127063751, -0.09907081723213196, 0, 0, 0, 0, 0, 0, -0.85791015625, 0.218994140625, -0.266357421875, 
1, 3678195757, 0.8990525007247925, -0.05164620280265808, -0.42342060804367065, -0.09888732433319092, 7.189758777618408, -0.40007543563842773, 6.363247394561768, 1.1500791311264038, -0.4624266028404236, 2.299543619155884, -0.8623046875, 0.220458984375, -0.267822265625, 
2, 3678204090, 0.8989773988723755, -0.0514376163482666, -0.42367586493492126, -0.09858521819114685, 7.205940246582031, -0.4851951003074646, 6.340378284454346, 4.452906608581543, -4.022113800048828, 2.4441871643066406, -0.8642578125, 0.218994140625, -0.266845703125, 
3, 3678212423, 0.898755669593811, -0.05108793079853058, -0.42428353428840637, -0.09817320108413696, 7.301149845123291, -0.4886244833469391, 6.3966288566589355, 7.146371841430664, -9.127902030944824, 2.486579179763794, -0.8623046875, 0.220947265625, -0.268798828125, 
4, 3678220756, 0.8983954191207886, -0.050760939717292786, -0.42518457770347595, -0.09774121642112732, 7.518066883087158, -0.378318727016449, 6.388599872589111, 7.34660005569458, -13.598793983459473, 2.517751932144165, -0.85986328125, 0.218017578125, -0.265869140625, 
5, 3678229089, 0.8979894518852234, -0.0504651814699173, -0.42617374658584595, -0.09731709957122803, 7.78549861907959, -0.1900002807378769, 6.438340187072754, 6.960413455963135, -14.998713493347168, 2.4532291889190674, -0.85986328125, 0.22119140625, -0.261962890625, 
6, 3678237422, 0.8976564407348633, -0.05020272731781006, -0.4269903004169464, -0.09694492816925049, 7.830027103424072, -0.06293104588985443, 6.472218036651611, 6.104719638824463, -12.440414428710938, 2.252567768096924, -0.8623046875, 0.220947265625, -0.263916015625, 
7, 3678245755, 0.8974867463111877, -0.04986770451068878, -0.42747020721435547, -0.0965726375579834, 7.748620986938477, 0.039049845188856125, 6.476694107055664, 6.557628154754639, -7.23685359954834, 2.1939616203308105, -0.8623046875, 0.219482421875, -0.263916015625, 
8, 3678254088, 0.897422194480896, -0.04953952133655548, -0.4277128279209137, -0.09626713395118713, 7.75798225402832, 0.05760791152715683, 6.433291912078857, 5.946268558502197, -3.6471729278564453, 1.7959165573120117, -0.86474609375, 0.220458984375, -0.26123046875, 
9, 3678262421, 0.8973931670188904, -0.049254149198532104, -0.4278632700443268, -0.09601545333862305, 7.783066272735596, 0.011389639228582382, 6.316867351531982, 4.932917594909668, -2.329064130783081, 1.4419021606445312, -0.8623046875, 0.22021484375, -0.261962890625, 
10, 3678270754, 0.8973461389541626, -0.049033522605895996, -0.42803066968917847, -0.09582307934761047, 7.831252098083496, -0.0034934389404952526, 6.293636798858643, 3.8637022972106934, -2.681413412094116, 1.1079181432724, -0.865234375, 0.221435546875, -0.26123046875, 
11, 3678279087, 0.8972756862640381, -0.048925623297691345, -0.428222119808197, -0.09568196535110474, 7.882340908050537, 0.03288417309522629, 6.296250343322754, 2.1134557723999023, -3.235628128051758, 1.0352246761322021, -0.86181640625, 0.22119140625, -0.259521484375, 
12, 3678287420, 0.8972198963165283, -0.048818036913871765, -0.4283757507801056, -0.09557211399078369, 7.852507591247559, 0.028891781345009804, 6.294015884399414, 1.9606672525405884, -2.6567728519439697, 0.7531610131263733, -0.86328125, 0.218017578125, -0.261962890625, 
13, 3678295753, 0.8971912264823914, -0.048661112785339355, -0.4284762740135193, -0.09546944499015808, 7.880112648010254, -0.010089332237839699, 6.301427841186523, 2.3988497257232666, -1.7786139249801636, 0.3872103989124298, -0.86328125, 0.220947265625, -0.261962890625, 
14, 3678304086, 0.8971624374389648, -0.04844848811626434, -0.4285869002342224, -0.0953509509563446, 7.947981834411621, -0.04935634136199951, 6.242843151092529, 3.268350601196289, -1.832301378250122, 0.30424585938453674, -0.86279296875, 0.21923828125, -0.259033203125, 
15, 3678312419, 0.8971371054649353, -0.04818981885910034, -0.42870503664016724, -0.09518992900848389, 7.946745872497559, -0.08057501912117004, 6.173690319061279, 4.034754753112793, -1.8832995891571045, 0.5077253580093384, -0.865234375, 0.220703125, -0.25830078125, 
16, 3678320752, 0.8971420526504517, -0.04791760444641113, -0.42876267433166504, -0.09502080082893372, 7.762262344360352, -0.05977568030357361, 6.139534950256348, 4.254037857055664, -0.9366229772567749, 0.6582345962524414, -0.8623046875, 0.22021484375, -0.260498046875, 
17, 3678329085, 0.8971904516220093, -0.04758480191230774, -0.4287356734275818, -0.09485292434692383, 7.590276718139648, -0.041864968836307526, 6.164367198944092, 4.913373947143555, 0.44458624720573425, 0.39794275164604187, -0.8642578125, 0.218505859375, -0.260986328125, 
18, 3678337418, 0.897175133228302, -0.047274649143218994, -0.4288269877433777, -0.0947396457195282, 7.728607177734375, -0.07760892808437347, 6.095915794372559, 4.340998649597168, -1.3933759927749634, -0.36634761095046997, -0.86279296875, 0.217529296875, -0.262939453125, 
19, 3678345751, 0.8971490859985352, -0.046944260597229004, -0.4289328157901764, -0.09467172622680664, 7.740617275238037, -0.13843482732772827, 5.9643073081970215, 4.440868377685547, -1.579207420349121, -0.984444797039032, -0.86328125, 0.218994140625, -0.260009765625, 
20, 3678354084, 0.897213339805603, -0.046497419476509094, -0.4288684129714966, -0.09457507729530334, 7.6165924072265625, -0.12335845082998276, 5.969079494476318, 5.8595380783081055, 1.193495273590088, -1.1111327409744263, -0.86376953125, 0.220458984375, -0.264404296875, 
21, 3678362417, 0.8973270058631897, -0.04600101709365845, -0.42870840430259705, -0.0944647490978241, 7.635682582855225, -0.06974460184574127, 5.935979843139648, 6.35950231552124, 2.712803363800049, -1.185670018196106, -0.86181640625, 0.216552734375, -0.259521484375, 
22, 3678370750, 0.8974156975746155, -0.04552115499973297, -0.4285922944545746, -0.09438174962997437, 7.670624256134033, -0.05498630553483963, 5.917108058929443, 6.136017799377441, 2.0269055366516113, -1.4095128774642944, -0.8642578125, 0.218994140625, -0.260986328125, 
23, 3678379083, 0.8974318504333496, -0.045024335384368896, -0.428631067276001, -0.09429046511650085, 7.6459479331970215, -0.04664536565542221, 5.958494186401367, 6.550225734710693, -0.29329580068588257, -1.598136067390442, -0.86083984375, 0.216552734375, -0.260986328125, 
24, 3678387416, 0.8974069952964783, -0.04457490146160126, -0.4287501573562622, -0.09419816732406616, 7.573575496673584, 0.04876813292503357, 6.068661212921143, 5.986404895782471, -1.597495675086975, -1.4585129022598267, -0.865234375, 0.215576171875, -0.263427734375, 
25, 3678395749, 0.8973919749259949, -0.04412244260311127, -0.42884618043899536, -0.09411737322807312, 7.6048502922058105, 0.15285912156105042, 6.0616302490234375, 5.979208469390869, -1.2413042783737183, -1.5516464710235596, -0.865234375, 0.216552734375, -0.262939453125, 
26, 3678404082, 0.8973942995071411, -0.04364316165447235, -0.42889970541000366, -0.09407603740692139, 7.65362024307251, 0.1132805272936821, 6.048663139343262, 6.049954414367676, -0.5515128374099731, -2.1400563716888428, -0.864501953125, 0.214599609375, -0.261962890625, 
27, 3678412415, 0.8973959684371948, -0.043135106563568115, -0.42894887924194336, -0.0940694808959961, 7.605544090270996, -0.012133982963860035, 6.008225917816162, 6.113478183746338, -0.4490559697151184, -2.794090509414673, -0.865234375, 0.216552734375, -0.262939453125, 
28, 3678420748, 0.8973646759986877, -0.04263019561767578, -0.4290638267993927, -0.09407389163970947, 7.5826334953308105, -0.06285109370946884, 6.108226776123047, 6.1557159423828125, -1.4461158514022827, -2.9344823360443115, -0.864013671875, 0.21240234375, -0.262451171875, 
29, 3678429081, 0.8973081707954407, -0.042187824845314026, -0.4292154908180237, -0.09412002563476562, 7.592495918273926, -0.09172192215919495, 6.182014465332031, 5.074512958526611, -2.1127007007598877, -3.2046356201171875, -0.864990234375, 0.214111328125, -0.262451171875, 
30, 3678437414, 0.8972604274749756, -0.04171256721019745, -0.42935240268707275, -0.09416237473487854, 7.634659767150879, -0.09364057332277298, 6.141600131988525, 5.5846967697143555, -1.8308414220809937, -3.2629075050354004, -0.86474609375, 0.21484375, -0.264892578125, 
31, 3678445747, 0.8972715139389038, -0.04123084247112274, -0.42936211824417114, -0.09422469139099121, 7.6447248458862305, -0.05223899707198143, 6.041019439697266, 5.415515422821045, 0.10765662044286728, -3.3975107669830322, -0.863525390625, 0.2109375, -0.264892578125, 
32, 3678454080, 0.8972780704498291, -0.04075951874256134, -0.4293742775917053, -0.09431341290473938, 7.589438438415527, 0.01062641479074955, 6.059523105621338, 5.04631233215332, 0.04264770448207855, -3.733288049697876, -0.863525390625, 0.213134765625, -0.262451171875, 
33, 3678462413, 0.8972001075744629, -0.040354594588279724, -0.42954927682876587, -0.09443110227584839, 7.515247821807861, 0.021655892953276634, 6.116405963897705, 4.215949058532715, -2.5350022315979004, -3.903238534927368, -0.866455078125, 0.2109375, -0.263427734375, 
34, 3678470746, 0.8971257209777832, -0.040051937103271484, -0.4297012686729431, -0.09457558393478394, 7.555960655212402, 0.05786116048693657, 6.128950595855713, 2.8571653366088867, -2.339719295501709, -3.5454325675964355, -0.862548828125, 0.2099609375, -0.262451171875, 
35, 3678479079, 0.8971017003059387, -0.039806023240089417, -0.4297481179237366, -0.09469404816627502, 7.581858158111572, 0.12358932942152023, 6.197118282318115, 2.124598503112793, -0.8407745361328125, -2.8227272033691406, -0.864990234375, 0.2080078125, -0.263427734375, 
36, 3678487412, 0.8971031308174133, -0.03966204822063446, -0.42972531914711, -0.0948432981967926, 7.503939628601074, 0.17463606595993042, 6.255282402038574, 0.685693085193634, 0.060680121183395386, -2.4698143005371094, -0.864013671875, 0.208984375, -0.262451171875, 
37, 3678495745, 0.897076427936554, -0.03960585594177246, -0.4297501742839813, -0.09500697255134583, 7.4554572105407715, 0.21647754311561584, 6.268926620483398, -0.515781044960022, -0.8087055087089539, -2.2541935443878174, -0.863037109375, 0.20703125, -0.26416015625, 
38, 3678504078, 0.8969783186912537, -0.03964650630950928, -0.4299086630344391, -0.0951988697052002, 7.468672275543213, 0.2580254077911377, 6.294010162353516, -1.6601225137710571, -2.982226848602295, -2.1337807178497314, -0.864501953125, 0.20849609375, -0.261474609375, 
39, 3678512411, 0.896799623966217, -0.039763063192367554, -0.4302254319190979, -0.09540349245071411, 7.548790454864502, 0.2730936110019684, 6.319845199584961, -2.5482192039489746, -5.511939525604248, -2.0625476837158203, -0.86474609375, 0.205322265625, -0.26318359375, 
40, 3678520744, 0.8965827226638794, -0.039931848645210266, -0.4306173324584961, -0.09560263156890869, 7.643736839294434, 0.27099522948265076, 6.390491008758545, -3.043368339538574, -6.727848052978516, -1.7485175132751465, -0.867431640625, 0.20654296875, -0.260986328125, 
41, 3678529077, 0.8963883519172668, -0.04016238451004028, -0.4309535026550293, -0.0958133339881897, 7.749090194702148, 0.2837872803211212, 6.404002666473389, -3.9533140659332275, -5.98877477645874, -1.476622223854065, -0.86669921875, 0.20556640625, -0.259521484375, 
42, 3678537410, 0.8962484002113342, -0.040443435311317444, -0.4311700761318207, -0.09603050351142883, 7.804931163787842, 0.2974584400653839, 6.397187232971191, -4.7227396965026855, -4.247467994689941, -1.109595775604248, -0.8662109375, 0.205078125, -0.260009765625, 
43, 3678545743, 0.896177351474762, -0.04072517156600952, -0.4312470555305481, -0.09622856974601746, 7.810249328613281, 0.3218926787376404, 6.348044395446777, -4.829038619995117, -2.1404662132263184, -0.746616542339325, -0.8662109375, 0.20458984375, -0.259033203125, 
44, 3678554076, 0.896136462688446, -0.04102528095245361, -0.43125882744789124, -0.09642952680587769, 7.804285526275635, 0.26121780276298523, 6.311465263366699, -5.075345039367676, -1.1704297065734863, -0.5515384078025818, -0.863525390625, 0.20751953125, -0.26171875, 
45, 3678562409, 0.8960942625999451, -0.04135936498641968, -0.43126532435417175, -0.09664863348007202, 7.808494567871094, 0.21669982373714447, 6.254128456115723, -5.59941291809082, -1.1562137603759766, -0.5584799647331238, -0.865966796875, 0.2080078125, -0.260498046875, 
46, 3678570742, 0.8960498571395874, -0.04170602560043335, -0.4312746822834015, -0.09687009453773499, 7.754798889160156, 0.22032636404037476, 6.272067546844482, -5.778097152709961, -1.211617350578308, -0.5304580330848694, -0.866455078125, 0.21044921875, -0.258544921875, 
47, 3678579075, 0.8960164189338684, -0.0420457124710083, -0.4312615692615509, -0.09709173440933228, 7.66042423248291, 0.19283509254455566, 6.296183109283447, -5.793542861938477, -0.8705381155014038, -0.6027157306671143, -0.866943359375, 0.20751953125, -0.259521484375, 
48, 3678587408, 0.8959962129592896, -0.0423378050327301, -0.43122807145118713, -0.09729912877082825, 7.620814800262451, 0.12693575024604797, 6.241338729858398, -5.064638614654541, -0.47684741020202637, -0.6249232888221741, -0.864501953125, 0.20849609375, -0.259033203125, 
49, 3678595741, 0.8959696888923645, -0.042581379413604736, -0.4312169551849365, -0.09748545289039612, 7.6061320304870605, 0.08375327289104462, 6.215004920959473, -4.372644901275635, -0.7443369626998901, -0.7141633629798889, -0.865966796875, 0.20947265625, -0.260009765625, 
50, 3678604074, 0.8959110379219055, -0.04281800985336304, -0.43127545714378357, -0.09766221046447754, 7.56834077835083, 0.03835181146860123, 6.1997175216674805, -4.099827289581299, -1.7813549041748047, -0.6804037690162659, -0.868408203125, 0.20947265625, -0.256591796875, 
51, 3678612407, 0.8958154916763306, -0.043032750487327576, -0.4314152002334595, -0.09782680869102478, 7.580294132232666, -0.03941400349140167, 6.177884101867676, -3.776242971420288, -2.988604784011841, -0.8344733715057373, -0.865478515625, 0.20751953125, -0.257080078125, 
52, 3678620740, 0.8956968784332275, -0.04321908950805664, -0.43160542845726013, -0.0979924201965332, 7.64655876159668, -0.11439833790063858, 6.16490364074707, -3.271437644958496, -3.699195146560669, -0.9996340274810791, -0.866455078125, 0.208984375, -0.258056640625, 
53, 3678629073, 0.8955777287483215, -0.04341121017932892, -0.4317987263202667, -0.09814509749412537, 7.691715240478516, -0.14683414995670319, 6.147087574005127, -3.2621910572052, -3.7555723190307617, -0.8086798787117004, -0.865478515625, 0.2099609375, -0.259033203125, 
54, 3678637406, 0.8954639434814453, -0.04361039400100708, -0.43197980523109436, -0.0982964038848877, 7.732114315032959, -0.16724731028079987, 6.110324859619141, -3.4181296825408936, -3.590693235397339, -0.7831168174743652, -0.8671875, 0.20556640625, -0.257568359375, 
55, 3678645739, 0.8953627943992615, -0.043803632259368896, -0.4321379065513611, -0.09843701124191284, 7.759256839752197, -0.17795301973819733, 6.090700626373291, -3.24633526802063, -3.232119560241699, -0.6078386306762695, -0.868408203125, 0.20703125, -0.256103515625, 
56, 3678654072, 0.8952743411064148, -0.04397960007190704, -0.4322754144668579, -0.0985586941242218, 7.76867151260376, -0.1409073919057846, 6.087071895599365, -2.936530828475952, -2.8807177543640137, -0.4486204981803894, -0.867919921875, 0.210205078125, -0.255126953125, 
57, 3678662405, 0.8952184915542603, -0.04408426582813263, -0.4323616325855255, -0.0986413061618805, 7.7624077796936035, -0.10999749600887299, 6.037850856781006, -1.959783673286438, -1.99382483959198, -0.3765420913696289, -0.868896484375, 0.20703125, -0.256103515625, 
58, 3678670738, 0.8951932191848755, -0.044127777218818665, -0.432397723197937, -0.09869363903999329, 7.748310089111328, -0.09314467012882233, 6.045232772827148, -0.991719126701355, -1.1214039325714111, -0.23471605777740479, -0.866455078125, 0.208740234375, -0.253662109375, 
59, 3678679071, 0.8951728343963623, -0.04414263367652893, -0.4324299991130829, -0.09872987866401672, 7.69966983795166, -0.06731496751308441, 6.0299530029296875, -0.613704264163971, -1.0240955352783203, -0.24744631350040436, -0.866943359375, 0.20751953125, -0.255126953125, 
60, 3678687404, 0.8951305747032166, -0.04412250220775604, -0.4325118958950043, -0.09876284003257751, 7.662254333496094, -0.03760720044374466, 6.057182312011719, -0.041866470128297806, -1.7120939493179321, -0.42567020654678345, -0.868896484375, 0.20849609375, -0.255126953125, 
61, 3678695737, 0.8950592875480652, -0.04408708214759827, -0.4326547384262085, -0.09879964590072632, 7.668421268463135, -0.038823723793029785, 6.051627159118652, 0.15542718768119812, -2.6187355518341064, -0.6653169989585876, -0.866455078125, 0.207275390625, -0.253173828125, 
62, 3678704070, 0.8949571847915649, -0.044055864214897156, -0.43286097049713135, -0.09883567690849304, 7.672934055328369, -0.046456947922706604, 6.070889472961426, 0.20934514701366425, -3.5803449153900146, -0.685116708278656, -0.868896484375, 0.20751953125, -0.255126953125, 
63, 3678712403, 0.8948426842689514, -0.044036269187927246, -0.43309229612350464, -0.09886777400970459, 7.737182140350342, -0.03253936022520065, 6.088887691497803, 0.010681135579943657, -3.990684986114502, -0.67991703748703, -0.867431640625, 0.208251953125, -0.252197265625, 
64, 3678720736, 0.8947519063949585, -0.04400011897087097, -0.43327611684799194, -0.09890046715736389, 7.786905288696289, -0.029236622154712677, 6.071500301361084, 0.26597821712493896, -3.232990264892578, -0.6457732915878296, -0.869384765625, 0.20654296875, -0.253173828125, 
65, 3678729069, 0.8947086334228516, -0.04390580952167511, -0.4333747625350952, -0.09890156984329224, 7.8039350509643555, -0.010955829173326492, 6.056174278259277, 1.0371716022491455, -1.8501548767089844, -0.5216723084449768, -0.867919921875, 0.207763671875, -0.251220703125, 
66, 3678737402, 0.8947113156318665, -0.04375450313091278, -0.4333866238594055, -0.09889212250709534, 7.787441253662109, 0.03409448266029358, 6.043059349060059, 1.7567009925842285, -0.427488774061203, -0.5814046859741211, -0.866943359375, 0.20654296875, -0.255615234375, 
67, 3678745735, 0.8947268724441528, -0.043589428067207336, -0.4333731234073639, -0.09888270497322083, 7.734104156494141, 0.08232435584068298, 6.079467296600342, 1.8121559619903564, -0.030109532177448273, -0.6969761252403259, -0.869873046875, 0.2060546875, -0.255126953125, 
68, 3678754068, 0.8947221636772156, -0.04346178472042084, -0.43338871002197266, -0.09891322255134583, 7.701050758361816, 0.07464699447154999, 6.155478000640869, 1.2270243167877197, -0.5267951488494873, -0.9463050961494446, -0.867919921875, 0.20751953125, -0.254150390625, 
69, 3678762401, 0.8946827054023743, -0.043407633900642395, -0.4334676265716553, -0.0989481508731842, 7.668325424194336, 0.09578578174114227, 6.221625328063965, 0.30186372995376587, -1.6172187328338623, -0.6927241683006287, -0.86962890625, 0.20556640625, -0.254638671875, 
70, 3678770734, 0.8946527242660522, -0.043358877301216125, -0.43353572487831116, -0.09894222021102905, 7.668105125427246, 0.14629709720611572, 6.184655666351318, 0.5314441323280334, -1.453390121459961, -0.09314616024494171, -0.86962890625, 0.20556640625, -0.253173828125, 
71, 3678779067, 0.8946551084518433, -0.04313300549983978, -0.4335734248161316, -0.09885507822036743, 7.65627384185791, 0.1377907693386078, 6.041808605194092, 3.206108331680298, -0.7005621790885925, -0.05790097638964653, -0.869873046875, 0.20703125, -0.252685546875, 
72, 3678787400, 0.8946813941001892, -0.042749837040901184, -0.4335882067680359, -0.09871819615364075, 7.589052677154541, 0.21888259053230286, 5.980415344238281, 5.386750221252441, -0.0837201327085495, -0.3656047582626343, -0.87109375, 0.205078125, -0.251708984375, 
73, 3678795733, 0.8945793509483337, -0.04253481328487396, -0.433820903301239, -0.09871357679367065, 7.574253082275391, 0.17574439942836761, 6.129386901855469, 2.7096023559570312, -3.6886932849884033, -1.322347640991211, -0.86669921875, 0.20458984375, -0.251708984375, 
74, 3678804066, 0.8943850994110107, -0.04245133697986603, -0.4342195987701416, -0.09875819087028503, 7.693186283111572, 0.06583493202924728, 6.016453266143799, 1.009456992149353, -6.424216270446777, -1.335590124130249, -0.867431640625, 0.207275390625, -0.252685546875, 
75, 3678812399, 0.8943150043487549, -0.042342960834503174, -0.43437427282333374, -0.09875732660293579, 7.871190071105957, 0.1266811639070511, 5.9304046630859375, 1.2370394468307495, -2.680619478225708, -0.6827346682548523, -0.867919921875, 0.206787109375, -0.251708984375, 
76, 3678820732, 0.8942999243736267, -0.04235777258872986, -0.43439415097236633, -0.09879997372627258, 7.808966159820557, 0.22538572549819946, 5.984097480773926, -0.5975928902626038, -0.8300676941871643, -0.2616878151893616, -0.869140625, 0.20458984375, -0.254150390625, 
77, 3678829065, 0.8942801356315613, -0.04244779050350189, -0.43440791964530945, -0.0988803505897522, 7.72392463684082, 0.2252548187971115, 5.9824395179748535, -1.8285106420516968, -0.8683865666389465, -0.32941189408302307, -0.868408203125, 0.2060546875, -0.253662109375, 
78, 3678837398, 0.8942471742630005, -0.04264983534812927, -0.43442732095718384, -0.099007248878479, 7.813138484954834, 0.1931191235780716, 6.047545909881592, -3.414288282394409, -1.1372592449188232, -0.20382530987262726, -0.8701171875, 0.205078125, -0.251220703125, 
79, 3678845731, 0.8941953778266907, -0.04282285273075104, -0.43449699878692627, -0.09909236431121826, 7.827152729034424, 0.13854490220546722, 5.997104167938232, -2.8289003372192383, -1.8590940237045288, 0.02745845727622509, -0.8701171875, 0.20556640625, -0.250732421875, 
80, 3678854064, 0.8941592574119568, -0.04284444451332092, -0.4345663785934448, -0.09910580515861511, 7.7599406242370605, 0.18063074350357056, 6.0789794921875, -0.45220649242401123, -1.5893504619598389, 0.07960904389619827, -0.869873046875, 0.206787109375, -0.249755859375, 
81, 3678862397, 0.8941168785095215, -0.0427798330783844, -0.43465858697891235, -0.0991106629371643, 7.672200679779053, 0.15866197645664215, 6.117123603820801, 0.621631920337677, -1.802486777305603, -0.39928749203681946, -0.8701171875, 0.205078125, -0.252197265625, 
82, 3678870730, 0.894047737121582, -0.04267188906669617, -0.43480682373046875, -0.09913182258605957, 7.658881187438965, 0.10660483688116074, 6.115063667297363, 1.1839412450790405, -2.575806140899658, -0.8805790543556213, -0.8720703125, 0.205078125, -0.252685546875, 
83, 3678879063, 0.8939706087112427, -0.04251812398433685, -0.4349784255027771, -0.09914043545722961, 7.706705093383789, 0.08550071716308594, 6.094481468200684, 1.8039082288742065, -2.8623011112213135, -1.0526810884475708, -0.86962890625, 0.205078125, -0.252197265625, 
84, 3678887396, 0.893875777721405, -0.04234318435192108, -0.43519383668899536, -0.09912517666816711, 7.796926498413086, 0.07441256940364838, 6.078290939331055, 2.301157236099243, -3.4852395057678223, -0.9071410298347473, -0.86962890625, 0.2041015625, -0.254150390625, 
85, 3678895729, 0.8937632441520691, -0.042194947600364685, -0.4354460835456848, -0.09909629821777344, 7.837413311004639, 0.08409210294485092, 6.135003089904785, 2.0930416584014893, -4.087276458740234, -0.6272542476654053, -0.8671875, 0.20361328125, -0.250244140625, 
86, 3678904062, 0.893618643283844, -0.042143747210502625, -0.43575552105903625, -0.09906122088432312, 7.914499759674072, 0.06365855038166046, 6.218136310577393, 0.9856613874435425, -5.12452507019043, -0.05121566355228424, -0.86962890625, 0.20361328125, -0.250244140625, 
87, 3678912395, 0.8934763073921204, -0.04217830300331116, -0.436056524515152, -0.09900611639022827, 7.937841415405273, 0.13717949390411377, 6.293919563293457, 0.04915371537208557, -5.1341552734375, 0.7207845449447632, -0.87060546875, 0.20361328125, -0.247314453125, 
88, 3678920728, 0.8933648467063904, -0.04221174120903015, -0.4363056719303131, -0.09890028834342957, 7.807353496551514, 0.23119652271270752, 6.345823287963867, 0.317923903465271, -4.336170196533203, 1.4110114574432373, -0.8701171875, 0.2041015625, -0.249267578125, 
89, 3678929061, 0.8933033347129822, -0.04217915236949921, -0.4364624321460724, -0.09877771139144897, 7.62387752532959, 0.3043883740901947, 6.374462604522705, 1.0886561870574951, -2.827235221862793, 1.3108853101730347, -0.8720703125, 0.20361328125, -0.246826171875, 
90, 3678937394, 0.893271267414093, -0.04206405580043793, -0.4365636706352234, -0.09867101907730103, 7.55959939956665, 0.35093018412590027, 6.315222263336182, 1.9919935464859009, -1.8401908874511719, 0.724754810333252, -0.8701171875, 0.205322265625, -0.248291015625, 
91, 3678945727, 0.8932398557662964, -0.04190632700920105, -0.43666476011276245, -0.09857335686683655, 7.601106643676758, 0.3526245951652527, 6.235050201416016, 2.3884506225585938, -1.7819440364837646, 0.3058851957321167, -0.8701171875, 0.20458984375, -0.248291015625, 
92, 3678954060, 0.8931626081466675, -0.04173922538757324, -0.4368593394756317, -0.09848147630691528, 7.659570693969727, 0.3238571882247925, 6.1523027420043945, 2.6455917358398438, -3.178406238555908, 0.11493106186389923, -0.87158203125, 0.2041015625, -0.247802734375, 
93, 3678962393, 0.8930366039276123, -0.04161389172077179, -0.43714797496795654, -0.09839525818824768, 7.744967937469482, 0.24322879314422607, 6.1083984375, 2.1310017108917236, -4.690798759460449, 0.13173401355743408, -0.87060546875, 0.2041015625, -0.251220703125, 
94, 3678970726, 0.8928954005241394, -0.041530489921569824, -0.43745580315589905, -0.09834414720535278, 7.886660575866699, 0.14934608340263367, 6.068161964416504, 1.4869575500488281, -5.0436601638793945, -0.03377236798405647, -0.86962890625, 0.20361328125, -0.247802734375, 
95, 3678979059, 0.8928043842315674, -0.04149088263511658, -0.4376513957977295, -0.09831786155700684, 7.970213413238525, 0.09374638646841049, 6.061502456665039, 0.6525482535362244, -3.4173104763031006, 0.04336490109562874, -0.873046875, 0.203125, -0.244873046875, 
96, 3678987392, 0.8927987813949585, -0.041425034403800964, -0.4376766085624695, -0.09828430414199829, 7.935678482055664, 0.0678304061293602, 6.038151264190674, 0.8612785935401917, -0.7732553482055664, 0.20117419958114624, -0.87255859375, 0.2041015625, -0.246826171875, 
97, 3678995725, 0.8928654193878174, -0.04128675162792206, -0.4375638961791992, -0.09823882579803467, 7.838613510131836, 0.08734502643346786, 6.017333984375, 1.6121087074279785, 1.438188076019287, 0.03965083137154579, -0.8720703125, 0.20458984375, -0.246337890625, 
98, 3679004058, 0.8929590582847595, -0.041091352701187134, -0.4373992681503296, -0.09820237755775452, 7.766315937042236, 0.07392269372940063, 6.007685661315918, 2.2682688236236572, 2.3273606300354004, -0.30144113302230835, -0.8701171875, 0.203369140625, -0.245361328125, 
99, 3679012391, 0.8930524587631226, -0.0408552885055542, -0.437238872051239, -0.09816581010818481, 7.725426197052002, 0.13184112310409546, 5.9834418296813965, 2.7579097747802734, 2.323133707046509, -0.55535489320755, -0.8701171875, 0.2041015625, -0.247802734375, 
100, 3679020724, 0.8931348323822021, -0.04063713550567627, -0.43709370493888855, -0.09815436601638794, 7.644085884094238, 0.11060236394405365, 5.9811296463012695, 2.4187779426574707, 2.067683458328247, -0.7724613547325134, -0.87255859375, 0.205078125, -0.248291015625, 
101, 3679029057, 0.8931897878646851, -0.04047892987728119, -0.4369933009147644, -0.09816724061965942, 7.611099720001221, 0.09244701266288757, 5.989596843719482, 1.506911039352417, 1.274999737739563, -0.8228957056999207, -0.8720703125, 0.20263671875, -0.248779296875, 
102, 3679037390, 0.8932034373283386, -0.04037563502788544, -0.4369639754295349, -0.09821566939353943, 7.643342018127441, 0.046793900430202484, 5.975313186645508, 0.765583872795105, 0.11131945997476578, -0.9747880697250366, -0.8720703125, 0.2041015625, -0.249755859375, 
103, 3679045723, 0.8931878805160522, -0.04030287265777588, -0.436991810798645, -0.09826308488845825, 7.647411823272705, 0.029212210327386856, 5.943912506103516, 0.38400861620903015, -0.8201550841331482, -0.9015315175056458, -0.87158203125, 0.20068359375, -0.248291015625, 
104, 3679054056, 0.8931586742401123, -0.04021334648132324, -0.4370543360710144, -0.098287433385849, 7.710230350494385, -0.009766374714672565, 5.924235820770264, 0.8424009084701538, -1.3086951971054077, -0.7047628164291382, -0.86865234375, 0.19970703125, -0.24853515625, 
105, 3679062389, 0.8931101560592651, -0.04011480510234833, -0.43716514110565186, -0.09827587008476257, 7.706836223602295, 0.026550844311714172, 6.067055702209473, 1.2232333421707153, -2.0313494205474854, -0.36527177691459656, -0.86962890625, 0.2041015625, -0.247802734375, 
106, 3679070722, 0.8930688500404358, -0.040064603090286255, -0.43724995851516724, -0.09829455614089966, 7.727230548858643, 0.04021606594324112, 6.135873317718506, 0.4172302484512329, -1.7101471424102783, -0.4275912046432495, -0.87109375, 0.201171875, -0.246337890625, 
107, 3679079055, 0.8930913209915161, -0.03997547924518585, -0.4372173249721527, -0.0982721745967865, 7.800239562988281, 0.021537132561206818, 6.034496784210205, 1.0171412229537964, 0.14479726552963257, -0.004495298024266958, -0.87060546875, 0.201171875, -0.247802734375, 
108, 3679087388, 0.8931958675384521, -0.039911285042762756, -0.43701398372650146, -0.0982518196105957, 7.8455095291137695, 0.08952131867408752, 5.883399486541748, 0.4954560697078705, 2.6956675052642822, 0.3121863007545471, -0.87255859375, 0.20361328125, -0.247314453125, 
109, 3679095721, 0.8932268023490906, -0.03996501863002777, -0.4369468688964844, -0.09824720025062561, 7.7410359382629395, 0.11026119440793991, 5.985815048217773, -0.9283751249313354, 0.4281419813632965, 0.6355147957801819, -0.8701171875, 0.201171875, -0.246826171875, 
110, 3679104054, 0.8931249976158142, -0.040130406618118286, -0.43713369965553284, -0.09827476739883423, 7.711272239685059, 0.05274169519543648, 6.136430263519287, -2.178708553314209, -3.615231990814209, 0.6205305457115173, -0.87158203125, 0.2001953125, -0.246826171875, 
111, 3679112387, 0.8930585980415344, -0.04026518762111664, -0.43725889921188354, -0.09826526045799255, 7.802344799041748, 0.0553775392472744, 6.127215385437012, -1.6105207204818726, -2.6289169788360596, 1.0040138959884644, -0.87353515625, 0.201171875, -0.246337890625, 
112, 3679120720, 0.8930821418762207, -0.04028986394405365, -0.43722790479660034, -0.09817922115325928, 7.83759880065918, 0.06303085386753082, 6.140315055847168, 0.005430217832326889, -0.05777290090918541, 1.459575891494751, -0.8720703125, 0.20361328125, -0.247314453125, 
113, 3679129053, 0.8931375741958618, -0.04038648307323456, -0.43712547421455383, -0.09809136390686035, 7.789823532104492, 0.07324602454900742, 6.145890235900879, -1.0292952060699463, 0.9043362736701965, 1.9382034540176392, -0.87109375, 0.20361328125, -0.250732421875, 
114, 3679137386, 0.8931952714920044, -0.04052893817424774, -0.43701016902923584, -0.09802243113517761, 7.790476322174072, 0.07863451540470123, 6.064938068389893, -1.6380431652069092, 1.0340466499328613, 2.0511109828948975, -0.87158203125, 0.2021484375, -0.247802734375, 
115, 3679145719, 0.8932401537895203, -0.040678635239601135, -0.43692314624786377, -0.09793731570243835, 7.79347562789917, 0.10281648486852646, 6.080114841461182, -1.6328433752059937, 0.5821347236633301, 2.2360970973968506, -0.87060546875, 0.203125, -0.247802734375, 
116, 3679154052, 0.8932660818099976, -0.0408269464969635, -0.43687522411346436, -0.09785374999046326, 7.7715744972229, 0.1331585794687271, 6.082595348358154, -1.549469232559204, -0.002010717522352934, 2.185508966445923, -0.87255859375, 0.20361328125, -0.250244140625, 
117, 3679162385, 0.8932952284812927, -0.04097159206867218, -0.43681976199150085, -0.097775399684906, 7.757090091705322, 0.17436635494232178, 6.0805206298828125, -1.584842562675476, 0.10955209285020828, 2.0764694213867188, -0.86962890625, 0.203125, -0.247802734375, 
118, 3679170718, 0.8933424353599548, -0.0411115437746048, -0.4367198348045349, -0.09773176908493042, 7.778807163238525, 0.17832839488983154, 6.04021692276001, -1.7447010278701782, 0.8003424406051636, 1.705165147781372, -0.87255859375, 0.20458984375, -0.248779296875, 
119, 3679179051, 0.8934041261672974, -0.04123599827289581, -0.4365893304347992, -0.09769752621650696, 7.792588233947754, 0.1856924444437027, 6.081171035766602, -1.7022837400436401, 1.2793285846710205, 1.4868552684783936, -0.873046875, 0.20361328125, -0.250732421875, 
120, 3679187384, 0.8934561014175415, -0.04134945571422577, -0.4364783763885498, -0.09766995906829834, 7.72831392288208, 0.19146136939525604, 6.065333843231201, -1.5277737379074097, 1.0089447498321533, 1.3599878549575806, -0.871337890625, 0.2060546875, -0.248291015625, 
121, 3679195717, 0.8935116529464722, -0.04146856069564819, -0.43636220693588257, -0.09763103723526001, 7.752416610717773, 0.2218889743089676, 6.085757255554199, -1.597111701965332, 1.0699068307876587, 1.4940528869628906, -0.87109375, 0.205078125, -0.248291015625, 
122, 3679204050, 0.893574595451355, -0.0416029691696167, -0.43622222542762756, -0.09762248396873474, 7.746459007263184, 0.20345839858055115, 6.086984634399414, -1.9308652877807617, 1.4136240482330322, 1.283401370048523, -0.8701171875, 0.20458984375, -0.250244140625, 
123, 3679212383, 0.8936444520950317, -0.04175618290901184, -0.436062753200531, -0.09763142466545105, 7.7427473068237305, 0.20294781029224396, 6.055665969848633, -2.3666398525238037, 1.669817566871643, 1.1438292264938354, -0.872314453125, 0.20556640625, -0.250732421875, 
124, 3679220716, 0.8937090635299683, -0.04192693531513214, -0.43590593338012695, -0.09766620397567749, 7.731212139129639, 0.19514873623847961, 6.080709457397461, -2.660051107406616, 1.606909155845642, 0.9808459281921387, -0.87158203125, 0.205078125, -0.249755859375, 
125, 3679229049, 0.8937633037567139, -0.04208609461784363, -0.4357730448246002, -0.09769359230995178, 7.707430839538574, 0.1730147898197174, 6.054299831390381, -2.5414061546325684, 1.251204252243042, 0.9045155644416809, -0.86767578125, 0.205322265625, -0.248291015625, 
126, 3679237382, 0.8938083648681641, -0.04224531352519989, -0.4356560707092285, -0.09773576259613037, 7.712149143218994, 0.15179629623889923, 6.054769039154053, -2.518711805343628, 1.0203174352645874, 0.7705786228179932, -0.872802734375, 0.205078125, -0.251220703125, 
127, 3679245715, 0.8938532471656799, -0.04239673912525177, -0.435539186000824, -0.09778070449829102, 7.741931438446045, 0.11722078919410706, 6.066745281219482, -2.44711971282959, 1.0215213298797607, 0.6880495548248291, -0.870361328125, 0.20703125, -0.250732421875, 
128, 3679254048, 0.8939026594161987, -0.04253126680850983, -0.435416579246521, -0.09781768918037415, 7.746567249298096, 0.11414297670125961, 6.064596652984619, -2.1908750534057617, 1.14467453956604, 0.6962973475456238, -0.870361328125, 0.206787109375, -0.248779296875, 
129, 3679262381, 0.8939536213874817, -0.042637065052986145, -0.43529656529426575, -0.09783867001533508, 7.763382911682129, 0.10206741839647293, 6.059609889984131, -1.7942898273468018, 1.1434450149536133, 0.6807494163513184, -0.871337890625, 0.2060546875, -0.249267578125, 
130, 3679270714, 0.8939863443374634, -0.04275889694690704, -0.43520742654800415, -0.0978829562664032, 7.761324882507324, 0.10602116584777832, 6.073899269104004, -2.042978525161743, 0.6542643904685974, 0.488463431596756, -0.872314453125, 0.20751953125, -0.250244140625, 
131, 3679279047, 0.8940095901489258, -0.04291544854640961, -0.43513059616088867, -0.09794357419013977, 7.734160900115967, 0.11418215930461884, 6.092677116394043, -2.6144065856933594, 0.4013238251209259, 0.43416133522987366, -0.870361328125, 0.20654296875, -0.250244140625, 
132, 3679287380, 0.8940434455871582, -0.043083205819129944, -0.4350259602069855, -0.09802564978599548, 7.722436428070068, 0.09352311491966248, 6.100188732147217, -2.852849245071411, 0.8109210729598999, 0.30916380882263184, -0.872314453125, 0.208740234375, -0.24951171875, 
133, 3679295713, 0.8940810561180115, -0.04325076937675476, -0.43491265177726746, -0.09811133146286011, 7.763422012329102, 0.07639580219984055, 6.105278968811035, -2.939195394515991, 0.9364565014839172, 0.23321761190891266, -0.868408203125, 0.207763671875, -0.251220703125, 
134, 3679304046, 0.8941273093223572, -0.04339784383773804, -0.4347853660583496, -0.09818831086158752, 7.739214897155762, 0.05616096407175064, 6.098422527313232, -2.590508460998535, 1.188987135887146, 0.2784779667854309, -0.870849609375, 0.208740234375, -0.248291015625, 
135, 3679312379, 0.8941790461540222, -0.043535441160202026, -0.43464893102645874, -0.09826087951660156, 7.769532680511475, 0.04620501771569252, 6.077383041381836, -2.5081589221954346, 1.3367302417755127, 0.25716692209243774, -0.867919921875, 0.209716796875, -0.251708984375, 
136, 3679320712, 0.8942331671714783, -0.043670326471328735, -0.4345073103904724, -0.09833455085754395, 7.779658794403076, 0.025018611922860146, 6.029879570007324, -2.4360547065734863, 1.4273276329040527, 0.26374977827072144, -0.870849609375, 0.2060546875, -0.250732421875, 
137, 3679329045, 0.8942849636077881, -0.0437982976436615, -0.4343726634979248, -0.0984024703502655, 7.781960487365723, 0.029292818158864975, 6.016763687133789, -2.394559621810913, 1.3251780271530151, 0.22412458062171936, -0.867919921875, 0.20703125, -0.253173828125, 
138, 3679337378, 0.8943334221839905, -0.043898805975914, -0.4342467188835144, -0.09847283363342285, 7.7749199867248535, 0.020051661878824234, 6.026678562164307, -1.9755359888076782, 1.2467983961105347, 0.08398907631635666, -0.870849609375, 0.207275390625, -0.248291015625, 
139, 3679345711, 0.894374668598175, -0.04398904740810394, -0.4341382682323456, -0.09853538870811462, 7.7443060874938965, 0.021562254056334496, 6.0323615074157715, -1.8324294090270996, 0.9881458878517151, 0.06365137547254562, -0.867919921875, 0.207275390625, -0.249267578125, 
140, 3679354044, 0.8944118618965149, -0.04409019649028778, -0.4340357184410095, -0.09860426187515259, 7.73544979095459, 0.0292462520301342, 6.045299530029297, -1.9505112171173096, 0.8892494440078735, 0.0769195482134819, -0.87060546875, 0.20556640625, -0.250244140625, 
141, 3679362377, 0.8944526314735413, -0.0441715270280838, -0.43392711877822876, -0.09867614507675171, 7.731423854827881, 0.04423442482948303, 6.025655269622803, -1.7036666870117188, 1.007459044456482, -0.0460415855050087, -0.866943359375, 0.2080078125, -0.255615234375, 
142, 3679370710, 0.8944826126098633, -0.044254153966903687, -0.4338412880897522, -0.09874498844146729, 7.743732929229736, 0.05013945326209068, 6.0525970458984375, -1.7045888900756836, 0.6651504039764404, -0.05385392904281616, -0.869873046875, 0.209228515625, -0.250732421875, 
143, 3679379043, 0.8944958448410034, -0.044346749782562256, -0.43379026651382446, -0.09880787134170532, 7.7329421043396, 0.07332231104373932, 6.070095062255859, -1.832455039024353, 0.11126822978258133, -0.021784905344247818, -0.870361328125, 0.207763671875, -0.249267578125, 
144, 3679387376, 0.8944981694221497, -0.044452965259552, -0.4337589740753174, -0.09887692332267761, 7.768920421600342, 0.06870918720960617, 6.0769944190979, -1.9395225048065186, -0.20136629045009613, 0.013191331177949905, -0.870361328125, 0.208251953125, -0.249267578125, 
145, 3679395709, 0.8945067524909973, -0.04455815255641937, -0.4337114095687866, -0.09896093606948853, 7.788787364959717, 0.036379557102918625, 6.101066589355469, -2.074740171432495, 0.03737116605043411, -0.185946524143219, -0.867919921875, 0.207763671875, -0.251708984375, 
146, 3679404042, 0.8945268392562866, -0.044652312994003296, -0.4336403012275696, -0.09904813766479492, 7.799375057220459, -0.0111366743221879, 6.118906021118164, -1.9407777786254883, 0.4214310050010681, -0.23405006527900696, -0.870361328125, 0.20703125, -0.253173828125, 
147, 3679412375, 0.8945551514625549, -0.04472346603870392, -0.43355706334114075, -0.09912377595901489, 7.791608810424805, -0.0181677658110857, 6.130406856536865, -1.66721773147583, 0.6353098750114441, -0.25687235593795776, -0.868896484375, 0.20703125, -0.251708984375, 
148, 3679420708, 0.894575297832489, -0.04481497406959534, -0.4334844946861267, -0.09921804070472717, 7.756062030792236, -0.026597028598189354, 6.178471565246582, -1.9537640810012817, 0.44722452759742737, -0.3354055881500244, -0.8671875, 0.2060546875, -0.251708984375, 
149, 3679429041, 0.8945894241333008, -0.04494640231132507, -0.4334179759025574, -0.09932169318199158, 7.7130889892578125, -0.015417097136378288, 6.214778900146484, -2.547297239303589, 0.28073200583457947, -0.2600741684436798, -0.871337890625, 0.20751953125, -0.251220703125, 
150, 3679437374, 0.8946285247802734, -0.045120954513549805, -0.4332957863807678, -0.0994233787059784, 7.73314905166626, 0.019636014476418495, 6.237168312072754, -3.0743355751037598, 1.061863660812378, 0.12466447800397873, -0.868408203125, 0.209716796875, -0.252197265625, 
151, 3679445707, 0.8947206735610962, -0.04518839716911316, -0.4330923557281494, -0.0994504988193512, 7.691761016845703, 0.03214321285486221, 6.137048244476318, -1.4854847192764282, 2.468827962875366, 0.45880216360092163, -0.869384765625, 0.2060546875, -0.253173828125, 
152, 3679454040, 0.8948435187339783, -0.04502606391906738, -0.4328719675540924, -0.09937834739685059, 7.6274213790893555, 0.03745152801275253, 5.917661666870117, 2.0223207473754883, 3.120940685272217, 0.4320865273475647, -0.870361328125, 0.2080078125, -0.252197265625, 
153, 3679462373, 0.8949021100997925, -0.044875115156173706, -0.432768851518631, -0.09936898946762085, 7.5779852867126465, 0.05886438861489296, 5.986435890197754, 1.5538874864578247, 1.311090111732483, -0.4900386929512024, -0.867431640625, 0.20703125, -0.255126953125, 
154, 3679470706, 0.8947317600250244, -0.04496730864048004, -0.433080792427063, -0.09950268268585205, 7.606166362762451, -0.04517870023846626, 6.147050380706787, -1.7892694473266602, -5.393909454345703, -1.314381718635559, -0.866943359375, 0.209716796875, -0.254638671875, 
155, 3679479039, 0.8945971727371216, -0.04498597979545593, -0.43334051966667175, -0.09957188367843628, 7.795314311981201, -0.04863526672124863, 6.0160627365112305, -0.6599635481834412, -4.488626003265381, -0.9619810581207275, -0.869873046875, 0.2060546875, -0.251220703125, 
156, 3679487372, 0.8946388959884644, -0.044925257563591, -0.43324461579322815, -0.09964048862457275, 7.860595226287842, 0.0938667580485344, 6.0684075355529785, 0.05343129485845566, 1.0556907653808594, -0.8811425566673279, -0.871337890625, 0.20849609375, -0.253662109375, 
157, 3679495705, 0.8946979641914368, -0.044944554567337036, -0.43309712409973145, -0.09974315762519836, 7.702641010284424, 0.09649432450532913, 6.050084114074707, -1.2677124738693237, 1.6977626085281372, -0.8240995407104492, -0.868896484375, 0.20849609375, -0.253173828125, 
158, 3679504038, 0.8947584629058838, -0.04501698911190033, -0.4329318404197693, -0.0998869240283966, 7.7345428466796875, 0.05255155265331268, 6.0387420654296875, -2.115799903869629, 1.8831843137741089, -0.9464588761329651, -0.870849609375, 0.2060546875, -0.253173828125, 
159, 3679512371, 0.8947676420211792, -0.0451836884021759, -0.4328591525554657, -0.10004299879074097, 7.733216762542725, 0.021742191165685654, 6.121766567230225, -3.2946949005126953, 0.3108287453651428, -0.6941841244697571, -0.869384765625, 0.208251953125, -0.252197265625, 
160, 3679520704, 0.8947620391845703, -0.04523494839668274, -0.43285107612609863, -0.10010504722595215, 7.6891703605651855, 0.039033062756061554, 6.127840518951416, -1.1940971612930298, -0.46521854400634766, -0.25256916880607605, -0.867919921875, 0.207275390625, -0.252197265625, 
161, 3679529037, 0.894782304763794, -0.04510372877120972, -0.432827353477478, -0.10008573532104492, 7.6448869705200195, 0.047366127371788025, 6.190377712249756, 1.529733419418335, 0.08191432803869247, -0.2948070168495178, -0.866943359375, 0.209228515625, -0.250244140625, 
162, 3679537370, 0.8947776556015015, -0.04491531848907471, -0.4328613877296448, -0.10006460547447205, 7.615457057952881, 0.029683781787753105, 6.142926216125488, 2.2523624897003174, -0.7050190567970276, -0.723666250705719, -0.871337890625, 0.20751953125, -0.255126953125, 
163, 3679545703, 0.8947433233261108, -0.04471662640571594, -0.4329577684402466, -0.10004386305809021, 7.688511371612549, 0.04667798429727554, 6.043676376342773, 2.4274098873138428, -1.6375051736831665, -0.8798874616622925, -0.86962890625, 0.20458984375, -0.255615234375, 
164, 3679554036, 0.894693911075592, -0.044525355100631714, -0.4330815374851227, -0.10003551840782166, 7.717021465301514, 0.08364765346050262, 6.058102130889893, 2.365064859390259, -2.0575530529022217, -0.9738404750823975, -0.870361328125, 0.20703125, -0.252197265625, 
165, 3679562369, 0.8946463465690613, -0.044344156980514526, -0.43319785594940186, -0.10003823041915894, 7.754216194152832, 0.09155455231666565, 6.08500337600708, 2.0996499061584473, -1.9700034856796265, -1.091409683227539, -0.869873046875, 0.20849609375, -0.254150390625, 
166, 3679570702, 0.8946284055709839, -0.04422265291213989, -0.4332399368286133, -0.10007092356681824, 7.77271032333374, 0.11369693279266357, 6.1174798011779785, 1.1677017211914062, -0.9369815587997437, -0.9702801704406738, -0.871337890625, 0.20556640625, -0.253662109375, 
167, 3679579035, 0.8946489095687866, -0.04414239525794983, -0.4331994652748108, -0.10009631514549255, 7.792356967926025, 0.14966608583927155, 6.127432823181152, 0.5767813324928284, 0.2408762276172638, -0.5567125082015991, -0.871337890625, 0.20556640625, -0.254150390625, 
168, 3679587368, 0.8946830034255981, -0.04406924545764923, -0.4331328868865967, -0.10011199116706848, 7.756106376647949, 0.1679416000843048, 6.098878860473633, 0.5547786951065063, 0.6330814361572266, -0.33366385102272034, -0.870361328125, 0.20654296875, -0.251708984375, 
169, 3679595701, 0.8947198987007141, -0.04399988055229187, -0.43306076526641846, -0.10012474656105042, 7.7799906730651855, 0.15081754326820374, 6.085289001464844, 0.44010376930236816, 0.7036998271942139, -0.3344578444957733, -0.868408203125, 0.2060546875, -0.253173828125, 
170, 3679604034, 0.8947586417198181, -0.04393719136714935, -0.43298372626304626, -0.10013991594314575, 7.73236608505249, 0.12565399706363678, 6.131187915802002, 0.4177425503730774, 0.7755221724510193, -0.25297898054122925, -0.869140625, 0.20556640625, -0.254150390625, 
171, 3679612367, 0.8948126435279846, -0.043887630105018616, -0.4328746497631073, -0.1001492440700531, 7.6959662437438965, 0.12631194293498993, 6.154464244842529, 0.214519202709198, 1.231711745262146, -0.09304369986057281, -0.870361328125, 0.20703125, -0.252685546875, 
172, 3679620700, 0.8948702812194824, -0.04381944239139557, -0.4327629804611206, -0.100147545337677, 7.688441753387451, 0.16553807258605957, 6.164320945739746, 0.5497070550918579, 1.3104243278503418, -0.032978326082229614, -0.8681640625, 0.205078125, -0.250732421875, 
173, 3679629033, 0.8949193954467773, -0.04374763369560242, -0.4326682984828949, -0.10014960169792175, 7.632254123687744, 0.13499583303928375, 6.145421504974365, 0.5398712158203125, 1.0516948699951172, -0.15861615538597107, -0.869140625, 0.2041015625, -0.255615234375, 
174, 3679637366, 0.8949435353279114, -0.04371611773967743, -0.4326150417327881, -0.10017761588096619, 7.616533279418945, 0.1427135169506073, 6.102941513061523, -0.0177378561347723, 0.35918840765953064, -0.260048508644104, -0.8671875, 0.2060546875, -0.255126953125, 
175, 3679645699, 0.8949317336082458, -0.04375314712524414, -0.43261948227882385, -0.10024774074554443, 7.611819267272949, 0.10066910833120346, 6.091833114624023, -1.053167700767517, -0.6323513984680176, -0.4544861912727356, -0.871337890625, 0.20654296875, -0.254150390625, 
176, 3679654032, 0.8948912024497986, -0.04381386935710907, -0.4326789081096649, -0.10032650828361511, 7.644328594207764, 0.0781162902712822, 6.130466938018799, -1.406439185142517, -1.514095664024353, -0.5441616177558899, -0.86865234375, 0.20556640625, -0.255126953125, 
177, 3679662365, 0.8948484659194946, -0.04385839402675629, -0.4327453374862671, -0.10040250420570374, 7.687602996826172, 0.06828130036592484, 6.143546104431152, -1.1687393188476562, -1.5930391550064087, -0.6047905087471008, -0.8701171875, 0.203125, -0.254150390625, 
178, 3679670698, 0.8948308229446411, -0.043855100870132446, -0.43276864290237427, -0.10046020150184631, 7.742544651031494, 0.05847449228167534, 6.1385626792907715, -0.46047988533973694, -0.8517115712165833, -0.5594788789749146, -0.8701171875, 0.2041015625, -0.254638671875, 
179, 3679679031, 0.8948264718055725, -0.04383406043052673, -0.43276533484458923, -0.10052290558815002, 7.720463752746582, 0.05812400206923485, 6.14896297454834, -0.31504228711128235, -0.4233136773109436, -0.7012025117874146, -0.87060546875, 0.2041015625, -0.256103515625, 
180, 3679687364, 0.8948239684104919, -0.04383869469165802, -0.43274956941604614, -0.10061123967170715, 7.722409725189209, 0.0743180364370346, 6.1586480140686035, -0.7856013774871826, -0.27434125542640686, -0.8466656804084778, -0.86865234375, 0.203369140625, -0.257568359375, 
181, 3679695697, 0.894826352596283, -0.043826475739479065, -0.432721883058548, -0.10071355104446411, 7.723918914794922, 0.0934089794754982, 6.135000705718994, -0.6742050647735596, -0.0701189637184143, -1.1011431217193604, -0.87060546875, 0.203125, -0.254638671875, 
182, 3679704030, 0.8948425650596619, -0.04378966987133026, -0.4326701760292053, -0.10080775618553162, 7.719676971435547, 0.08995415270328522, 6.157088756561279, -0.348801851272583, 0.3421036899089813, -1.1177411079406738, -0.86865234375, 0.203125, -0.257080078125, 
183, 3679712363, 0.8948781490325928, -0.04372832179069519, -0.432578444480896, -0.10091254115104675, 7.716892719268799, 0.0883951336145401, 6.098665237426758, -0.22395803034305573, 0.981025218963623, -1.3942723274230957, -0.8681640625, 0.2041015625, -0.254638671875, 
184, 3679720696, 0.8949218988418579, -0.04362708330154419, -0.43248045444488525, -0.10098850727081299, 7.711771011352539, 0.07253338396549225, 6.038963317871094, 0.5033454298973083, 1.153793215751648, -1.2104390859603882, -0.8701171875, 0.203125, -0.254638671875, 
185, 3679729029, 0.8949223160743713, -0.043540820479393005, -0.43246781826019287, -0.10107609629631042, 7.6508588790893555, 0.08554087579250336, 6.201056957244873, 0.27245858311653137, -0.1764436513185501, -1.4290565252304077, -0.868408203125, 0.2060546875, -0.253662109375, 
186, 3679737362, 0.8948964476585388, -0.04349961876869202, -0.43249934911727905, -0.10118764638900757, 7.641915321350098, 0.09146740287542343, 6.220795154571533, -0.3074604868888855, -0.9164901375770569, -1.4665814638137817, -0.8681640625, 0.20458984375, -0.256591796875, 
187, 3679745695, 0.8949110507965088, -0.04337993264198303, -0.4324697256088257, -0.101236492395401, 7.681402206420898, 0.08904575556516647, 6.116975784301758, 0.8721901774406433, 0.13911090791225433, -1.1426893472671509, -0.87060546875, 0.203369140625, -0.256591796875, 
188, 3679754028, 0.8949573040008545, -0.043257758021354675, -0.43236878514289856, -0.10131195187568665, 7.684880256652832, 0.10347867757081985, 6.043665409088135, 0.7616904973983765, 1.2330180406570435, -1.3225525617599487, -0.87060546875, 0.203369140625, -0.257568359375, 
189, 3679762361, 0.8949136734008789, -0.04320807754993439, -0.4324389100074768, -0.10141775012016296, 7.628317832946777, 0.09306186437606812, 6.108419418334961, -0.17928683757781982, -1.4957047700881958, -1.534049391746521, -0.87060546875, 0.201416015625, -0.254150390625, 
190, 3679770694, 0.8947787880897522, -0.0432409793138504, -0.43268513679504395, -0.10154414176940918, 7.662111759185791, 0.021433021873235703, 6.218987941741943, -1.0730187892913818, -4.301718711853027, -1.4864583015441895, -0.873046875, 0.202392578125, -0.252685546875, 
191, 3679779027, 0.8947199583053589, -0.04319015145301819, -0.4327947795391083, -0.10161644220352173, 7.745846748352051, 0.027435261756181717, 6.227802753448486, 0.11692898720502853, -2.0905444622039795, -1.1455326080322266, -0.87060546875, 0.201171875, -0.251708984375, 
192, 3679787360, 0.8947564363479614, -0.04304158687591553, -0.43272948265075684, -0.1016363799571991, 7.751945972442627, 0.05978299304842949, 6.181116104125977, 1.4591405391693115, 0.74127596616745, -0.8327059149742126, -0.86865234375, 0.200439453125, -0.254150390625, 
193, 3679795693, 0.8947899341583252, -0.04295511543750763, -0.43265777826309204, -0.10168367624282837, 7.68897008895874, 0.05999089404940605, 6.148827075958252, 0.485569030046463, 0.723730206489563, -0.8264816403388977, -0.86865234375, 0.20263671875, -0.252685546875, 
194, 3679804026, 0.8947839736938477, -0.042906418442726135, -0.43265867233276367, -0.10175293684005737, 7.6911444664001465, 0.08357381820678711, 6.091067790985107, 0.005148461554199457, -0.436658650636673, -0.9446145296096802, -0.869140625, 0.20166015625, -0.250732421875, 
195, 3679812359, 0.8947595357894897, -0.04284067451953888, -0.4327021837234497, -0.10181009769439697, 7.687546730041504, 0.10748577117919922, 6.146960258483887, 0.3212793469429016, -1.0610312223434448, -0.9592915177345276, -0.86962890625, 0.201904296875, -0.256591796875, 
196, 3679820692, 0.894737720489502, -0.04275396466255188, -0.4327470064163208, -0.10184797644615173, 7.664872169494629, 0.10493935644626617, 6.163647651672363, 0.7118964195251465, -1.0367746353149414, -0.8299908638000488, -0.87060546875, 0.203125, -0.253662109375, 
197, 3679829025, 0.8947328329086304, -0.04268190264701843, -0.43275418877601624, -0.10189104080200195, 7.7002644538879395, 0.15486620366573334, 6.160042762756348, 0.45828986167907715, -0.4908071458339691, -0.7632656693458557, -0.87109375, 0.201904296875, -0.255615234375, 
198, 3679837358, 0.8947306871414185, -0.04265254735946655, -0.43274450302124023, -0.10196271538734436, 7.711817264556885, 0.18911385536193848, 6.127940654754639, -0.3292069435119629, -0.31721946597099304, -0.8995590806007385, -0.86865234375, 0.200927734375, -0.255126953125, 
199, 3679845691, 0.8947177529335022, -0.042646825313568115, -0.4327530264854431, -0.10204219818115234, 7.705135345458984, 0.1540364772081375, 6.141724109649658, -0.6368083357810974, -0.634041965007782, -0.8707943558692932, -0.87060546875, 0.201416015625, -0.255615234375, 
200, 3679854024, 0.8946998119354248, -0.04264897108078003, -0.4327701926231384, -0.10212615132331848, 7.710428714752197, 0.16130375862121582, 6.1574320793151855, -0.6910079717636108, -0.7698230743408203, -0.8485355377197266, -0.869140625, 0.2001953125, -0.252685546875, 
201, 3679862357, 0.8947070837020874, -0.04264265298843384, -0.43273767828941345, -0.1022021472454071, 7.695922374725342, 0.13715575635433197, 6.163046836853027, -0.6733341813087463, -0.011206227354705334, -0.7956677675247192, -0.87158203125, 0.199462890625, -0.254638671875, 
202, 3679870690, 0.8947436213493347, -0.04264937341213226, -0.4326379895210266, -0.102301687002182, 7.676924705505371, 0.12918749451637268, 6.138069152832031, -0.9738916158676147, 0.9943189024925232, -0.8678998351097107, -0.8701171875, 0.201904296875, -0.254638671875, 
203, 3679879023, 0.8947734236717224, -0.04266482591629028, -0.43254899978637695, -0.10241135954856873, 7.662986755371094, 0.13717341423034668, 6.105390548706055, -1.1971964836120605, 0.8066434860229492, -1.0065240859985352, -0.86767578125, 0.20068359375, -0.2548828125, 
204, 3679887356, 0.8947662115097046, -0.04269815981388092, -0.4325336813926697, -0.10252481698989868, 7.612720489501953, 0.12576843798160553, 6.093699932098389, -1.289996862411499, -0.33333083987236023, -0.992794930934906, -0.869140625, 0.20166015625, -0.254638671875, 
205, 3679895689, 0.894717812538147, -0.04273010790348053, -0.43260422348976135, -0.10263568162918091, 7.605451583862305, 0.11524683982133865, 6.112941741943359, -1.2295985221862793, -1.6433963775634766, -1.1279867887496948, -0.87255859375, 0.201416015625, -0.255126953125, 
206, 3679904022, 0.8946536183357239, -0.042791157960891724, -0.432699054479599, -0.10277026891708374, 7.646731376647949, 0.11184073984622955, 6.128764629364014, -1.6351231336593628, -2.0549402236938477, -1.2307767868041992, -0.8720703125, 0.203125, -0.253662109375, 
207, 3679912355, 0.8945877552032471, -0.04289144277572632, -0.4327879548072815, -0.10292741656303406, 7.676805019378662, 0.1307104229927063, 6.1453938484191895, -2.351835250854492, -2.0434141159057617, -1.3448371887207031, -0.87109375, 0.198486328125, -0.255126953125, 
208, 3679920688, 0.8945128321647644, -0.043026089668273926, -0.4328884482383728, -0.1031002402305603, 7.710348606109619, 0.14386813342571259, 6.145391464233398, -2.7672719955444336, -2.269228935241699, -1.2831834554672241, -0.87060546875, 0.199951171875, -0.254150390625, 
209, 3679929021, 0.8944234848022461, -0.04319049417972565, -0.43301525712013245, -0.10327336192131042, 7.76929235458374, 0.16007328033447266, 6.135786056518555, -3.153945207595825, -2.7292866706848145, -1.1823405027389526, -0.869140625, 0.20263671875, -0.253662109375, 
210, 3679937354, 0.8943310379981995, -0.043405741453170776, -0.433136522769928, -0.10347476601600647, 7.781928062438965, 0.18422402441501617, 6.134702682495117, -3.907900094985962, -2.7255468368530273, -1.192048192024231, -0.87158203125, 0.200439453125, -0.253173828125, 
211, 3679945687, 0.8942488431930542, -0.04369686543941498, -0.43322300910949707, -0.10370025038719177, 7.740767002105713, 0.2530427873134613, 6.158994197845459, -5.0973992347717285, -2.3416664600372314, -1.0518869161605835, -0.87109375, 0.20263671875, -0.253173828125, 
212, 3679954020, 0.8941848278045654, -0.044006869196891785, -0.433266282081604, -0.10394075512886047, 7.681026458740234, 0.2841286361217499, 6.171506881713867, -5.4007487297058105, -1.7090202569961548, -1.0209449529647827, -0.8701171875, 0.198974609375, -0.252685546875, 
213, 3679962353, 0.8941251039505005, -0.044320330023765564, -0.433302640914917, -0.10416880249977112, 7.638803482055664, 0.25210142135620117, 6.164854526519775, -5.449774265289307, -1.6221879720687866, -0.8910807967185974, -0.8701171875, 0.19921875, -0.251220703125, 
214, 3679970686, 0.8940392732620239, -0.04466328024864197, -0.43338796496391296, -0.10440465807914734, 7.618415355682373, 0.18674595654010773, 6.14133882522583, -5.732172012329102, -2.406163215637207, -0.8240484595298767, -0.87109375, 0.199462890625, -0.252197265625, 
215, 3679979019, 0.8939180374145508, -0.045055896043777466, -0.4335377514362335, -0.10465055704116821, 7.630106449127197, 0.1472148448228836, 6.1172637939453125, -6.343070030212402, -3.482600688934326, -0.7472312450408936, -0.87158203125, 0.200439453125, -0.252197265625, 
216, 3679987352, 0.8937594890594482, -0.04550214111804962, -0.4337506890296936, -0.10493093729019165, 7.658674716949463, 0.14691241085529327, 6.120296001434326, -7.128198146820068, -4.529813289642334, -0.9390562772750854, -0.869140625, 0.20166015625, -0.251220703125, 
217, 3679995685, 0.8935707807540894, -0.04595988988876343, -0.434018075466156, -0.10523229837417603, 7.688889503479004, 0.11678782105445862, 6.09684419631958, -7.424479007720947, -5.391887187957764, -1.2728867530822754, -0.86865234375, 0.2001953125, -0.251220703125, 
218, 3680004018, 0.893370509147644, -0.0464208722114563, -0.43430137634277344, -0.10556206107139587, 7.7388739585876465, 0.09276174753904343, 6.073688507080078, -7.528653144836426, -5.635196685791016, -1.562916874885559, -0.87109375, 0.201171875, -0.250732421875, 
219, 3680012351, 0.8931821584701538, -0.04687096178531647, -0.43455836176872253, -0.10589742660522461, 7.796411514282227, 0.05922209843993187, 6.071106910705566, -7.555035591125488, -5.227776527404785, -1.733225703239441, -0.869140625, 0.2021484375, -0.248291015625, 
220, 3680020684, 0.8930239081382751, -0.04732063412666321, -0.43474775552749634, -0.10625261068344116, 7.843084335327148, 0.06183258444070816, 6.0661516189575195, -7.651266098022461, -4.196367263793945, -1.8204164505004883, -0.87109375, 0.20068359375, -0.246826171875, 
221, 3680029017, 0.8928779363632202, -0.04774214327335358, -0.43491125106811523, -0.10662183165550232, 7.8456130027771, 0.04328681528568268, 6.091536045074463, -7.418381214141846, -3.7555975914001465, -2.127608060836792, -0.8720703125, 0.20068359375, -0.247802734375, 
222, 3680037350, 0.8927483558654785, -0.04812172055244446, -0.4350425601005554, -0.10699969530105591, 7.82772159576416, 0.0250711627304554, 6.1026387214660645, -7.06070613861084, -3.2049174308776855, -2.487539768218994, -0.87109375, 0.20068359375, -0.248779296875, 
223, 3680045683, 0.8926349878311157, -0.04846744239330292, -0.4351429045200348, -0.10738179087638855, 7.797704219818115, 0.017825452610850334, 6.087358474731445, -6.738068580627441, -2.6724228858947754, -2.724214792251587, -0.873046875, 0.20166015625, -0.248291015625, 
224, 3680054016, 0.8925435543060303, -0.04877287149429321, -0.43521061539649963, -0.10772797465324402, 7.814744472503662, 0.02383197657763958, 6.099228382110596, -5.960700988769531, -2.097639322280884, -2.394073009490967, -0.87353515625, 0.19921875, -0.244873046875, 
225, 3680062349, 0.8924187421798706, -0.049085915088653564, -0.4353393316268921, -0.10809892416000366, 7.752711296081543, 0.06787706166505814, 6.165623188018799, -6.1956610679626465, -3.049438714981079, -2.787917375564575, -0.8720703125, 0.2021484375, -0.244384765625, 
226, 3680070682, 0.8922601938247681, -0.049393415451049805, -0.43551862239837646, -0.10854434967041016, 7.738949298858643, -0.014809838496148586, 6.136186122894287, -6.460666179656982, -3.804776906967163, -3.7737581729888916, -0.87158203125, 0.20166015625, -0.242919921875, 
227, 3680079015, 0.892083466053009, -0.049700960516929626, -0.43572595715522766, -0.10902330279350281, 7.8110032081604, -0.10225111246109009, 6.118685722351074, -6.712429046630859, -4.243241786956787, -4.295213222503662, -0.87353515625, 0.19970703125, -0.244873046875, 
228, 3680087348, 0.8918889760971069, -0.050051748752593994, -0.43595629930496216, -0.10953253507614136, 7.886353969573975, -0.09462916851043701, 6.13613748550415, -7.32089376449585, -4.6687703132629395, -4.385426044464111, -0.87353515625, 0.19970703125, -0.241943359375, 
229, 3680095681, 0.891703724861145, -0.050458237528800964, -0.43614259362220764, -0.11011099815368652, 7.904264450073242, -0.09366794675588608, 6.125586986541748, -8.479887962341309, -4.107025623321533, -4.8591108322143555, -0.875, 0.19873046875, -0.241455078125, 
230, 3680104014, 0.8915811777114868, -0.050863221287727356, -0.4361976683139801, -0.11069819331169128, 7.940587520599365, -0.13248354196548462, 6.035064697265625, -8.734877586364746, -2.125072479248047, -4.835750579833984, -0.873046875, 0.1982421875, -0.242431640625, 
231, 3680112347, 0.8915106654167175, -0.051263436675071716, -0.4361436367034912, -0.11129257082939148, 7.980110168457031, -0.13877926766872406, 5.955965518951416, -8.836771011352539, -0.46030065417289734, -4.7879791259765625, -0.8759765625, 0.19775390625, -0.241455078125, 
232, 3680120680, 0.8914324045181274, -0.05177655816078186, -0.43607863783836365, -0.11193516850471497, 7.895044803619385, -0.08511149138212204, 5.999528884887695, -10.477873802185059, -0.5048694014549255, -4.668437957763672, -0.873046875, 0.19775390625, -0.241455078125, 
233, 3680129013, 0.8913047313690186, -0.05241350829601288, -0.43608519434928894, -0.1126263439655304, 7.7759480476379395, -0.016445569694042206, 6.083425045013428, -12.259549140930176, -1.838833212852478, -4.682577133178711, -0.87548828125, 0.19677734375, -0.240478515625, 
234, 3680137346, 0.8911651372909546, -0.05309264361858368, -0.4361129105091095, -0.11330324411392212, 7.703558921813965, 0.030384894460439682, 6.078977108001709, -12.620019912719727, -2.2402596473693848, -4.25253963470459, -0.87890625, 0.1962890625, -0.239013671875, 
235, 3680145679, 0.891053318977356, -0.05363571643829346, -0.43611371517181396, -0.11392241716384888, 7.6927103996276855, 0.05392369627952576, 5.98048210144043, -10.559557914733887, -1.5792073011398315, -4.247826099395752, -0.873046875, 0.19775390625, -0.238525390625, 
236, 3680154012, 0.8909732103347778, -0.05393035709857941, -0.43611031770706177, -0.11442166566848755, 7.655697345733643, 0.0060895634815096855, 5.831422328948975, -6.848542213439941, -1.0318055152893066, -4.266089916229248, -0.8740234375, 0.1982421875, -0.239501953125, 
237, 3680162345, 0.8908142447471619, -0.05431175231933594, -0.43623143434524536, -0.11501526832580566, 7.642385959625244, -0.029095280915498734, 5.995427131652832, -8.339597702026367, -3.0960311889648438, -5.118402481079102, -0.8779296875, 0.19775390625, -0.238037109375, 
238, 3680170678, 0.8904560208320618, -0.054917529225349426, -0.4367099106311798, -0.11568409204483032, 7.609943866729736, -0.12356656789779663, 6.100300312042236, -11.181882858276367, -8.973834037780762, -5.31870698928833, -0.87548828125, 0.19677734375, -0.237548828125, 
239, 3680179011, 0.8901728391647339, -0.05540931224822998, -0.43706533312797546, -0.11628499627113342, 7.753901958465576, -0.1046256422996521, 5.943019866943359, -9.515473365783691, -6.887682914733887, -4.960825443267822, -0.87548828125, 0.197265625, -0.237548828125, 
240, 3680187344, 0.890015721321106, -0.05577898025512695, -0.43718820810317993, -0.11684843897819519, 7.789184093475342, -0.08371315151453018, 6.038975238800049, -8.013708114624023, -3.109145402908325, -4.814131736755371, -0.876953125, 0.197265625, -0.237548828125, 
241, 3680195677, 0.8898828625679016, -0.05603471398353577, -0.4372929036617279, -0.11734464764595032, 7.7357096672058105, -0.0775630995631218, 5.912368297576904, -6.339587211608887, -2.6175312995910645, -4.708062648773193, -0.874755859375, 0.1953125, -0.234619140625, 
242, 3680204010, 0.8897212147712708, -0.05621759593486786, -0.4374772310256958, -0.1177946925163269, 7.719545364379883, -0.0989985242486, 5.9493184089660645, -4.95047664642334, -3.673222780227661, -4.602327823638916, -0.876708984375, 0.19580078125, -0.237548828125, 
243, 3680212343, 0.8894226551055908, -0.05642421543598175, -0.4379640817642212, -0.11814066767692566, 7.7399468421936035, -0.07943320274353027, 6.026018142700195, -4.332738399505615, -8.327892303466797, -3.719327926635742, -0.880615234375, 0.1943359375, -0.235595703125, 
244, 3680220676, 0.8890661597251892, -0.056561097502708435, -0.43861180543899536, -0.11835622787475586, 7.780364036560059, -0.04769136384129524, 6.04188871383667, -2.376168727874756, -10.622825622558594, -2.687765598297119, -0.879638671875, 0.19287109375, -0.232666015625, 
245, 3680229009, 0.888716995716095, -0.05653999745845795, -0.4392630457878113, -0.11857324838638306, 7.732849597930908, -0.07699668407440186, 6.139358997344971, -0.49026933312416077, -10.372064590454102, -3.685619592666626, -0.878662109375, 0.19287109375, -0.231201171875, 
246, 3680237342, 0.8883885741233826, -0.05655971169471741, -0.4398520588874817, -0.1188412606716156, 7.713818073272705, -0.056724708527326584, 6.202410697937012, -1.3346682786941528, -9.503664016723633, -3.9423511028289795, -0.879150390625, 0.19189453125, -0.226806640625, 
247, 3680245675, 0.8881628513336182, -0.05658324062824249, -0.440216600894928, -0.11916753649711609, 7.811786651611328, -0.06256795674562454, 6.062045574188232, -2.0498175621032715, -6.110672950744629, -4.312707424163818, -0.880126953125, 0.1943359375, -0.229248046875, 
248, 3680254008, 0.8879719376564026, -0.05651310086250305, -0.4405170679092407, -0.11951157450675964, 7.899780750274658, -0.12512926757335663, 5.99669885635376, -1.061543583869934, -4.941408634185791, -4.9648966789245605, -0.881103515625, 0.19140625, -0.228271484375, 
249, 3680262341, 0.8877568244934082, -0.05647702515125275, -0.4408564567565918, -0.11987537145614624, 7.830974102020264, -0.09142669290304184, 6.09287166595459, -1.6275416612625122, -5.61306619644165, -5.126804828643799, -0.880126953125, 0.1923828125, -0.228759765625, 
250, 3680270674, 0.8874818086624146, -0.05649298429489136, -0.4412916898727417, -0.1203022301197052, 7.740967750549316, -0.0421568900346756, 6.113079071044922, -2.4576222896575928, -7.173433780670166, -5.698694705963135, -0.882568359375, 0.193359375, -0.226318359375, 
251, 3680279007, 0.8871910572052002, -0.05649945139884949, -0.4417561888694763, -0.12073874473571777, 7.7675700187683105, -0.015693839639425278, 6.108361721038818, -2.365436315536499, -7.603188991546631, -5.923151016235352, -0.881103515625, 0.1923828125, -0.227294921875, 
252, 3680287340, 0.8869146704673767, -0.05650724470615387, -0.4421866536140442, -0.12118911743164062, 7.871604919433594, 0.034317851066589355, 6.053168773651123, -2.5815179347991943, -7.100816249847412, -6.084264278411865, -0.881591796875, 0.19140625, -0.225830078125, 
253, 3680295673, 0.8866716623306274, -0.05650132894515991, -0.4425494372844696, -0.12164434790611267, 7.869320392608643, 0.08903783559799194, 6.028968811035156, -2.5349769592285156, -6.046996116638184, -6.126246452331543, -0.880615234375, 0.18896484375, -0.224365234375, 
254, 3680304006, 0.8864377737045288, -0.05651135742664337, -0.4428855776786804, -0.12212017178535461, 7.755052089691162, 0.12317594140768051, 6.048155307769775, -2.8175532817840576, -5.668136119842529, -6.186336994171143, -0.881103515625, 0.189453125, -0.224853515625, 
255, 3680312339, 0.8862212896347046, -0.056530505418777466, -0.44318267703056335, -0.1226034164428711, 7.736508846282959, 0.12016987055540085, 5.99632453918457, -3.090703248977661, -5.103649139404297, -6.211721420288086, -0.88330078125, 0.1865234375, -0.223876953125, 
256, 3680320672, 0.886004626750946, -0.05654226243495941, -0.4434838891029358, -0.12307357788085938, 7.740904331207275, 0.18709571659564972, 6.004467487335205, -2.8484950065612793, -5.145784854888916, -6.0496344566345215, -0.882080078125, 0.18798828125, -0.221435546875, 
257, 3680329005, 0.8857620358467102, -0.05652718245983124, -0.4438353180885315, -0.123558908700943, 7.701290607452393, 0.20200954377651215, 5.96088171005249, -2.6225523948669434, -5.86710786819458, -6.537330150604248, -0.884033203125, 0.18896484375, -0.221923828125, 
258, 3680337338, 0.8855021595954895, -0.056558042764663696, -0.4442036747932434, -0.12408322095870972, 7.650692939758301, 0.18168868124485016, 5.923348903656006, -3.3321938514709473, -6.217432022094727, -6.719471454620361, -0.88330078125, 0.185546875, -0.220947265625, 
259, 3680345671, 0.8852004408836365, -0.05663613975048065, -0.44464004039764404, -0.12463566660881042, 7.697985649108887, 0.14870740473270416, 5.857958793640137, -4.055848598480225, -7.369460105895996, -6.942598819732666, -0.88330078125, 0.1845703125, -0.220458984375, 
260, 3680354004, 0.8848736882209778, -0.0567888468503952, -0.4450978636741638, -0.12525051832199097, 7.7629523277282715, 0.16160564124584198, 5.793433666229248, -5.267324447631836, -7.851597309112549, -7.259831428527832, -0.8828125, 0.1845703125, -0.217529296875, 
261, 3680362337, 0.8845072984695435, -0.05694533884525299, -0.4456329047679901, -0.12586340308189392, 7.843251705169678, 0.1676301509141922, 5.764975070953369, -5.2728705406188965, -9.053686141967773, -7.3945488929748535, -0.88232421875, 0.18505859375, -0.216552734375, 
262, 3680370670, 0.8841190934181213, -0.057113587856292725, -0.44620561599731445, -0.12648418545722961, 7.932658672332764, 0.17737577855587006, 5.7547287940979, -5.342514991760254, -9.649087905883789, -7.432483196258545, -0.88232421875, 0.18408203125, -0.217041015625, 
263, 3680379003, 0.8837282657623291, -0.05732879042625427, -0.44677361845970154, -0.1271113157272339, 7.9762091636657715, 0.18624252080917358, 5.7824883460998535, -6.083957672119141, -9.695384979248047, -7.3102898597717285, -0.88427734375, 0.181640625, -0.215087890625, 
264, 3680387336, 0.8833510279655457, -0.05756126344203949, -0.44731003046035767, -0.12774062156677246, 8.02214241027832, 0.22790375351905823, 5.861277103424072, -6.230522155761719, -9.246521949768066, -7.094797611236572, -0.8857421875, 0.18115234375, -0.213623046875, 
265, 3680395669, 0.8829882144927979, -0.0578368604183197, -0.44779863953590393, -0.12841156125068665, 7.986819744110107, 0.27332282066345215, 5.900267124176025, -7.082989692687988, -8.617359161376953, -7.2717156410217285, -0.884765625, 0.17919921875, -0.214111328125, 
266, 3680404002, 0.8826944828033447, -0.05804271996021271, -0.4481608271598816, -0.12907317280769348, 7.99447774887085, 0.2756260335445404, 5.809133052825928, -6.430826187133789, -6.555157661437988, -7.426836013793945, -0.88818359375, 0.178466796875, -0.212158203125, 
267, 3680412335, 0.8824616074562073, -0.058252379298210144, -0.44839799404144287, -0.12974494695663452, 8.018081665039062, 0.29859933257102966, 5.807005405426025, -6.68906831741333, -4.658883571624756, -7.299224376678467, -0.886962890625, 0.1767578125, -0.208740234375, 
268, 3680420668, 0.8822140693664551, -0.05841192603111267, -0.44867217540740967, -0.13040724396705627, 7.957887649536133, 0.28101709485054016, 5.8091840744018555, -5.907578468322754, -5.106800079345703, -7.507238388061523, -0.886474609375, 0.17822265625, -0.209228515625, 
269, 3680429001, 0.881905198097229, -0.058645784854888916, -0.4490484297275543, -0.13109427690505981, 7.9348554611206055, 0.278840571641922, 5.9394755363464355, -6.906686782836914, -6.847133636474609, -7.594634056091309, -0.887939453125, 0.177001953125, -0.212158203125, 
270, 3680437334, 0.8815737962722778, -0.05891701579093933, -0.44945791363716125, -0.1317969262599945, 7.986759662628174, 0.20129609107971191, 5.92164421081543, -7.337313652038574, -7.432599067687988, -7.565741539001465, -0.888916015625, 0.17626953125, -0.203857421875, 
271, 3680445667, 0.8812873363494873, -0.05908970534801483, -0.44980722665786743, -0.1324416995048523, 8.068459510803223, 0.19679580628871918, 5.839494705200195, -5.919847011566162, -6.305111408233643, -7.390052795410156, -0.889404296875, 0.176025390625, -0.208740234375, 
272, 3680454000, 0.8810944557189941, -0.05926541984081268, -0.44996538758277893, -0.13310861587524414, 8.045760154724121, 0.25018739700317383, 5.7980828285217285, -6.30257511138916, -3.388622760772705, -7.269333839416504, -0.888916015625, 0.17529296875, -0.204345703125, 
273, 3680462333, 0.8808692693710327, -0.05954203009605408, -0.4501681625843048, -0.13378801941871643, 8.015649795532227, 0.18416205048561096, 5.796987056732178, -7.607005596160889, -4.310248851776123, -6.928894519805908, -0.889892578125, 0.173095703125, -0.204833984375, 
274, 3680470666, 0.8806034326553345, -0.059870555996894836, -0.45044031739234924, -0.13447323441505432, 8.046904563903809, 0.08757380396127701, 5.755023002624512, -8.11765193939209, -5.485532283782959, -6.770700931549072, -0.889404296875, 0.17431640625, -0.204345703125, 
275, 3680478999, 0.8803994655609131, -0.06013853847980499, -0.45061612129211426, -0.1350996196269989, 8.060564994812012, 0.09212598949670792, 5.6904616355896, -7.146974086761475, -3.871246576309204, -6.240333080291748, -0.890869140625, 0.171630859375, -0.203369140625, 
276, 3680487332, 0.8802303075790405, -0.06042484939098358, -0.45073482394218445, -0.13567662239074707, 8.057744979858398, 0.13314563035964966, 5.767001152038574, -7.236367702484131, -3.0498485565185547, -5.483253002166748, -0.891357421875, 0.171630859375, -0.203857421875, 
277, 3680495665, 0.8800420165061951, -0.06082913279533386, -0.45086580514907837, -0.1362801492214203, 7.995258331298828, 0.13724027574062347, 5.765157222747803, -8.789846420288086, -3.5137736797332764, -5.09985876083374, -0.891357421875, 0.170654296875, -0.204345703125, 
278, 3680503998, 0.879823625087738, -0.06121140718460083, -0.4510611891746521, -0.13687080144882202, 7.992571830749512, 0.07445002347230911, 5.836985111236572, -8.284989356994629, -4.440445899963379, -5.14348030090332, -0.889892578125, 0.172119140625, -0.203369140625, 
279, 3680512331, 0.8796145915985107, -0.06156480312347412, -0.4512490928173065, -0.13743627071380615, 8.014326095581055, 0.028548432514071465, 5.808379173278809, -7.882077693939209, -4.268190383911133, -5.061309337615967, -0.890869140625, 0.171142578125, -0.202880859375, 
280, 3680520664, 0.8794245719909668, -0.06188663840293884, -0.4514123201370239, -0.13797089457511902, 8.054003715515137, -0.01155878882855177, 5.845778942108154, -7.242003440856934, -3.8082869052886963, -4.7615203857421875, -0.8916015625, 0.169677734375, -0.198974609375, 
281, 3680528997, 0.8792821764945984, -0.06221510469913483, -0.4514901638031006, -0.13847443461418152, 8.098980903625488, -0.03676117584109306, 5.833672046661377, -7.277939796447754, -2.527933120727539, -4.196700096130371, -0.892333984375, 0.170166015625, -0.202880859375, 
282, 3680537330, 0.8792135715484619, -0.0623917281627655, -0.45147377252578735, -0.13888409733772278, 8.08922004699707, -0.017763644456863403, 5.772582054138184, -4.948069095611572, -0.7114226818084717, -3.7674319744110107, -0.894287109375, 0.170654296875, -0.199951171875, 
283, 3680545663, 0.8792530298233032, -0.06254899501800537, -0.4512626826763153, -0.13924750685691833, 8.099098205566406, 0.061149973422288895, 5.754875183105469, -4.7712788581848145, 2.2993900775909424, -3.0019242763519287, -0.892578125, 0.168212890625, -0.200927734375, 
284, 3680553996, 0.8793299198150635, -0.06269720196723938, -0.45100468397140503, -0.13953092694282532, 8.038985252380371, 0.1612539291381836, 5.772824287414551, -4.1594319343566895, 3.057725191116333, -1.9319154024124146, -0.89404296875, 0.168212890625, -0.199462890625, 
285, 3680562329, 0.8794361352920532, -0.06267288327217102, -0.450726181268692, -0.13977280259132385, 7.980986595153809, 0.17187492549419403, 5.6168413162231445, -1.8653950691223145, 3.7722854614257812, -2.4518842697143555, -0.89111328125, 0.168701171875, -0.200439453125, 
286, 3680570662, 0.8795609474182129, -0.06262695789337158, -0.45043301582336426, -0.13995331525802612, 7.98183536529541, 0.21012960374355316, 5.71212911605835, -1.198067545890808, 4.063827037811279, -1.7671645879745483, -0.8916015625, 0.168701171875, -0.201904296875, 
287, 3680578995, 0.8795678615570068, -0.06262467801570892, -0.45035603642463684, -0.14015823602676392, 7.879092216491699, 0.14105331897735596, 5.737011909484863, -1.6328434944152832, 0.6455299854278564, -2.254833936691284, -0.88818359375, 0.167724609375, -0.20458984375, 
288, 3680587328, 0.8794698119163513, -0.06261247396469116, -0.4504759609699249, -0.14039334654808044, 7.959394931793213, 0.07141859829425812, 5.7969489097595215, -1.3408154249191284, -2.3295505046844482, -3.0046393871307373, -0.892578125, 0.169677734375, -0.199951171875, 
289, 3680595661, 0.8793424963951111, -0.06260895729064941, -0.45064452290534973, -0.14065080881118774, 8.064142227172852, 0.03302673250436783, 5.886878967285156, -1.6096113920211792, -3.1082231998443604, -3.38798189163208, -0.89599609375, 0.168212890625, -0.200927734375, 
290, 3680603994, 0.8791928291320801, -0.06270807981491089, -0.4508194923400879, -0.14098131656646729, 8.061784744262695, -0.0016537922201678157, 5.869439601898193, -3.217186450958252, -3.4490973949432373, -3.615206003189087, -0.89404296875, 0.167724609375, -0.200439453125, 
291, 3680612327, 0.8791145086288452, -0.06272484362125397, -0.4508640468120575, -0.1413199007511139, 8.095075607299805, 0.010337901301681995, 5.9869279861450195, -2.5108225345611572, -1.2724512815475464, -4.007334232330322, -0.892578125, 0.166259765625, -0.200439453125, 
292, 3680620660, 0.879158616065979, -0.0625859946012497, -0.4506898522377014, -0.14166226983070374, 8.08670425415039, 0.07336454093456268, 5.8178791999816895, -0.9244560599327087, 2.4453909397125244, -4.5568108558654785, -0.892578125, 0.167236328125, -0.202392578125, 
293, 3680628993, 0.8792747855186462, -0.06216530501842499, -0.45043274760246277, -0.14194408059120178, 8.047089576721191, 0.2221108376979828, 5.666347503662109, 2.662061929702759, 4.379112243652344, -5.430896759033203, -0.89404296875, 0.165771484375, -0.201416015625, 
294, 3680637326, 0.8793402314186096, -0.06173323094844818, -0.4502720534801483, -0.1422368586063385, 7.898476600646973, 0.32513514161109924, 5.635760307312012, 2.9743764400482178, 2.944049119949341, -5.743928909301758, -0.89306640625, 0.166259765625, -0.202880859375, 
295, 3680645659, 0.8792805075645447, -0.06131203472614288, -0.4503462314605713, -0.14255288243293762, 7.865015983581543, 0.3957337439060211, 5.618851184844971, 2.958930730819702, -0.6841690540313721, -6.4712958335876465, -0.89013671875, 0.1630859375, -0.20458984375, 
296, 3680653992, 0.8791422247886658, -0.06086701154708862, -0.45055437088012695, -0.1429382860660553, 7.881150722503662, 0.3638257682323456, 5.558008193969727, 3.10506010055542, -2.6744463443756104, -7.655339241027832, -0.89501953125, 0.162109375, -0.203125, 
297, 3680662325, 0.8789732456207275, -0.06051625311374664, -0.4508080780506134, -0.14332622289657593, 7.908814907073975, 0.33309367299079895, 5.671308994293213, 1.954289197921753, -3.6083412170410156, -7.2467145919799805, -0.8935546875, 0.1611328125, -0.20263671875, 
298, 3680670658, 0.8788648843765259, -0.06024216115474701, -0.4508935809135437, -0.14383584260940552, 7.80379056930542, 0.28201428055763245, 5.611557960510254, 0.05281656235456467, -1.2402799129486084, -7.9353814125061035, -0.891845703125, 0.16064453125, -0.20166015625, 
299, 3680678991, 0.8788483738899231, -0.06005316972732544, -0.45078757405281067, -0.14434731006622314, 7.889462947845459, 0.2246406078338623, 5.6097235679626465, -1.3569012880325317, 1.4675421714782715, -7.140724182128906, -0.891845703125, 0.1591796875, -0.2001953125, 
300, 3680687324, 0.878821611404419, -0.0598110556602478, -0.4507144093513489, -0.14483794569969177, 7.907296657562256, 0.18551811575889587, 5.560792922973633, -0.4616325795650482, 1.1057665348052979, -7.214775085449219, -0.894775390625, 0.15771484375, -0.20166015625, 
301, 3680695657, 0.8787553310394287, -0.05969423055648804, -0.4507010579109192, -0.14532890915870667, 7.8762006759643555, 0.20159605145454407, 5.540195465087891, -1.9495635032653809, -0.12142428755760193, -6.611457347869873, -0.892822265625, 0.158203125, -0.20068359375, 
302, 3680703990, 0.8786104321479797, -0.05948978662490845, -0.4509022533893585, -0.14566448330879211, 7.913960933685303, 0.21263208985328674, 5.687407970428467, 0.4936119616031647, -3.143571138381958, -5.570648193359375, -0.892822265625, 0.157470703125, -0.20458984375, 
303, 3680712323, 0.8784090876579285, -0.05936118960380554, -0.4512017071247101, -0.1460038721561432, 7.936601638793945, 0.292287677526474, 5.665277004241943, -0.36068686842918396, -4.840155601501465, -5.3875322341918945, -0.896728515625, 0.156005859375, -0.20068359375, 
304, 3680720656, 0.8781945705413818, -0.059306010603904724, -0.45151373744010925, -0.14635175466537476, 7.976718902587891, 0.29272013902664185, 5.704226016998291, -1.2195066213607788, -5.203545093536377, -5.023374557495117, -0.893798828125, 0.15478515625, -0.19873046875, 
305, 3680728989, 0.8779810667037964, -0.05919766426086426, -0.45183122158050537, -0.14669588208198547, 8.024504661560059, 0.351812481880188, 5.652838706970215, -0.5422917604446411, -5.160282135009766, -5.309075355529785, -0.896240234375, 0.153564453125, -0.19921875, 
306, 3680737322, 0.8777646422386169, -0.05912616848945618, -0.45214003324508667, -0.14706870913505554, 7.997378349304199, 0.3673658072948456, 5.686308860778809, -1.257133960723877, -5.1339006423950195, -5.480896472930908, -0.895263671875, 0.15625, -0.19921875, 
307, 3680745655, 0.8775749802589417, -0.05909237265586853, -0.45238497853279114, -0.14746025204658508, 7.987242698669434, 0.34032949805259705, 5.69333028793335, -1.9513566493988037, -4.259224891662598, -5.371676921844482, -0.894287109375, 0.153076171875, -0.20068359375, 
308, 3680753988, 0.8773764371871948, -0.05902937054634094, -0.4526543915271759, -0.1478395164012909, 8.004647254943848, 0.35753363370895386, 5.653429985046387, -1.3924283981323242, -4.547283172607422, -5.383484840393066, -0.892333984375, 0.154296875, -0.19873046875, 
309, 3680762321, 0.877183198928833, -0.059015557169914246, -0.4529092013835907, -0.14821073412895203, 7.943038463592529, 0.3430418372154236, 5.745945930480957, -2.0081942081451416, -4.4560441970825195, -4.9905877113342285, -0.8935546875, 0.15234375, -0.19775390625, 
310, 3680770654, 0.876983642578125, -0.05904027819633484, -0.4531806707382202, -0.14855149388313293, 7.947729110717773, 0.26633134484291077, 5.799692153930664, -2.2092151641845703, -4.789259910583496, -4.376435279846191, -0.894775390625, 0.153076171875, -0.19970703125, 
311, 3680778987, 0.876825213432312, -0.059029072523117065, -0.4533877670764923, -0.14885887503623962, 8.007832527160645, 0.24007198214530945, 5.803934097290039, -1.7425748109817505, -3.7200193405151367, -4.115349769592285, -0.8935546875, 0.150634765625, -0.199951171875, 
312, 3680787320, 0.876709520816803, -0.05902925133705139, -0.45351266860961914, -0.14915966987609863, 8.040693283081055, 0.2903590500354767, 5.7398176193237305, -1.895133376121521, -2.4833643436431885, -3.7567760944366455, -0.89599609375, 0.151611328125, -0.1962890625, 
313, 3680795653, 0.8766307830810547, -0.05901366472244263, -0.4535874128341675, -0.1494014859199524, 8.048833847045898, 0.3468194901943207, 5.733192443847656, -1.496370792388916, -1.6734675168991089, -3.0882954597473145, -0.8974609375, 0.150146484375, -0.19580078125, 
314, 3680803986, 0.8765767812728882, -0.05900052189826965, -0.45362722873687744, -0.14960235357284546, 8.051544189453125, 0.3539884090423584, 5.751714706420898, -1.2360789775848389, -1.1250412464141846, -2.4392054080963135, -0.89697265625, 0.150634765625, -0.1953125, 
315, 3680812319, 0.8765830993652344, -0.05898545682430267, -0.45356807112693787, -0.14974984526634216, 8.059748649597168, 0.33443737030029297, 5.781960487365723, -1.1040631532669067, 0.3934858739376068, -1.654205560684204, -0.89892578125, 0.148681640625, -0.197265625, 
316, 3680820652, 0.8766343593597412, -0.058961108326911926, -0.45344316959381104, -0.1498381793498993, 8.0145263671875, 0.3456646203994751, 5.759182453155518, -0.6529708504676819, 1.4481518268585205, -0.8038899302482605, -0.89697265625, 0.148681640625, -0.197265625, 
317, 3680828985, 0.876680850982666, -0.0589725524187088, -0.45333555340766907, -0.14988747239112854, 7.981642723083496, 0.4021399915218353, 5.803215980529785, -0.8765830993652344, 1.094496250152588, -0.18184825778007507, -0.89501953125, 0.149658203125, -0.19677734375, 
318, 3680837318, 0.8767306804656982, -0.05899752676486969, -0.45322683453559875, -0.14991497993469238, 7.958302974700928, 0.401539146900177, 5.82323694229126, -0.8361383080482483, 1.0932668447494507, 0.22202420234680176, -0.89697265625, 0.148681640625, -0.19775390625, 
319, 3680845651, 0.876844584941864, -0.05897758901119232, -0.45301395654678345, -0.14990073442459106, 7.971249580383301, 0.3856451213359833, 5.802250862121582, -0.19783155620098114, 2.805501699447632, 0.6611546277999878, -0.8974609375, 0.150146484375, -0.19677734375, 
320, 3680853984, 0.8770350217819214, -0.05888722836971283, -0.4526827931404114, -0.1498212218284607, 7.949801921844482, 0.3314324617385864, 5.71044397354126, 0.7953476905822754, 4.793447971343994, 1.206789255142212, -0.89208984375, 0.147705078125, -0.196044921875, 
321, 3680862317, 0.8772391080856323, -0.05881205201148987, -0.4523520767688751, -0.14965471625328064, 7.998318195343018, 0.3908669650554657, 5.655385971069336, 1.2235664129257202, 4.77218770980835, 2.4153199195861816, -0.89501953125, 0.148193359375, -0.199951171875, 
322, 3680870650, 0.8774813413619995, -0.05869019031524658, -0.4519723951816559, -0.1494300365447998, 8.036870002746582, 0.5132946372032166, 5.519211769104004, 2.10210919380188, 5.657493591308594, 2.9661030769348145, -0.89501953125, 0.149658203125, -0.20263671875, 
323, 3680878983, 0.8776671886444092, -0.058639347553253174, -0.45166778564453125, -0.14927923679351807, 7.955103397369385, 0.49273911118507385, 5.656774520874023, 0.8310539126396179, 4.3044209480285645, 2.2929608821868896, -0.89697265625, 0.14892578125, -0.201171875, 
324, 3680887316, 0.8777322769165039, -0.058802127838134766, -0.4515427350997925, -0.14921125769615173, 7.959685325622559, 0.5277997255325317, 5.640717029571533, -1.9266901016235352, 1.0248254537582397, 2.2733402252197266, -0.8935546875, 0.151611328125, -0.20068359375, 
325, 3680895649, 0.8778700828552246, -0.059018999338150024, -0.45125818252563477, -0.14917486906051636, 8.146565437316895, 0.6108565926551819, 5.506618499755859, -3.130021333694458, 3.307105302810669, 2.446927785873413, -0.896484375, 0.151611328125, -0.19775390625, 
326, 3680903982, 0.8780655860900879, -0.059279486536979675, -0.450839102268219, -0.1491883397102356, 8.12537670135498, 0.6059188842773438, 5.650760650634766, -4.108638286590576, 5.249022483825684, 2.400489330291748, -0.896484375, 0.150146484375, -0.20166015625, 
327, 3680912315, 0.8782880902290344, -0.059576526284217834, -0.4503503739833832, -0.14923697710037231, 8.00016975402832, 0.45259958505630493, 5.799124717712402, -4.93682336807251, 6.204561710357666, 2.2834832668304443, -0.89453125, 0.151123046875, -0.2041015625, 
328, 3680920648, 0.8785106539726257, -0.05984865128993988, -0.4498758018016815, -0.14924964308738708, 8.06666374206543, 0.3135102093219757, 5.962002754211426, -4.336734294891357, 6.0631208419799805, 2.5848865509033203, -0.89501953125, 0.1494140625, -0.20458984375, 
329, 3680928981, 0.8787715435028076, -0.05998168885707855, -0.4493730664253235, -0.1491733193397522, 8.123717308044434, 0.22980214655399323, 5.847980976104736, -2.1765060424804688, 6.845098495483398, 2.8687944412231445, -0.891845703125, 0.153564453125, -0.20263671875, 
330, 3680937314, 0.8791003227233887, -0.0599023699760437, -0.4488097131252289, -0.14896473288536072, 8.049149513244629, 0.17016218602657318, 5.8041462898254395, 1.183377742767334, 8.33072280883789, 3.378056764602661, -0.8955078125, 0.1513671875, -0.20654296875, 
331, 3680945647, 0.8794146776199341, -0.0598243772983551, -0.4482952952384949, -0.14868968725204468, 7.98250675201416, 0.0433494858443737, 5.809605121612549, 1.6103923320770264, 7.585424423217773, 4.078323841094971, -0.892578125, 0.152099609375, -0.206787109375, 
332, 3680953980, 0.8797560930252075, -0.059814006090164185, -0.4477381110191345, -0.14835277199745178, 8.069186210632324, -0.0021629473194479942, 5.756312370300293, 1.1653451919555664, 8.088207244873047, 5.373840808868408, -0.893310546875, 0.154052734375, -0.208984375, 
333, 3680962313, 0.8801552057266235, -0.05981983244419098, -0.4470912218093872, -0.1479339599609375, 8.12660026550293, 0.06358271092176437, 5.769411563873291, 1.3358335494995117, 9.427165985107422, 6.656883716583252, -0.893310546875, 0.154541015625, -0.20947265625, 
334, 3680970646, 0.8806182146072388, -0.05986097455024719, -0.4463401734828949, -0.1474282145500183, 8.081748008728027, 0.14871162176132202, 5.746028900146484, 1.2205952405929565, 10.931466102600098, 8.095431327819824, -0.893310546875, 0.154052734375, -0.20849609375, 
335, 3680978979, 0.8811454772949219, -0.05988328158855438, -0.44548583030700684, -0.14685183763504028, 7.969979286193848, 0.19440887868404388, 5.743466854095459, 1.8066747188568115, 12.557944297790527, 9.107834815979004, -0.890869140625, 0.158935546875, -0.21337890625, 
336, 3680987312, 0.8816949129104614, -0.05990302562713623, -0.4446009397506714, -0.14622628688812256, 7.899345874786377, 0.169274240732193, 5.763302326202393, 2.077852964401245, 13.0336275100708, 9.745142936706543, -0.890380859375, 0.157958984375, -0.21484375, 
337, 3680995645, 0.882213294506073, -0.05994895100593567, -0.44378870725631714, -0.14554688334465027, 7.870177268981934, 0.11276494711637497, 5.834041118621826, 2.173675537109375, 11.860466957092285, 10.4066801071167, -0.889404296875, 0.158447265625, -0.21484375, 
338, 3681003978, 0.8826863169670105, -0.06000116467475891, -0.44308245182037354, -0.1448066532611847, 7.909650802612305, 0.07498899847269058, 5.870852947235107, 2.6797871589660645, 10.24193000793457, 11.0357666015625, -0.889404296875, 0.160400390625, -0.21826171875, 
339, 3681012311, 0.8831620216369629, -0.06001937389373779, -0.4423965811729431, -0.14399367570877075, 7.921148777008057, 0.07654744386672974, 5.961296558380127, 3.50661563873291, 10.010942459106445, 11.643927574157715, -0.888671875, 0.163330078125, -0.21923828125, 
340, 3681020644, 0.8836609125137329, -0.05995875597000122, -0.4416836202144623, -0.14314410090446472, 7.926896095275879, 0.032651402056217194, 6.075278282165527, 4.724905490875244, 10.61292839050293, 11.730963706970215, -0.8857421875, 0.162353515625, -0.2197265625, 
341, 3681028977, 0.8842018842697144, -0.059775859117507935, -0.4409194588661194, -0.14223313331604004, 7.884363651275635, 0.0013794407714158297, 6.083495616912842, 6.517492294311523, 11.68027400970459, 11.860213279724121, -0.8857421875, 0.164306640625, -0.2216796875, 
342, 3681037310, 0.8847808837890625, -0.05951137840747833, -0.4401097893714905, -0.14124798774719238, 7.837144374847412, -0.004416089970618486, 6.087666034698486, 7.8368821144104, 12.556819915771484, 12.330697059631348, -0.88720703125, 0.163330078125, -0.22216796875, 
343, 3681045643, 0.8853474259376526, -0.05919812619686127, -0.4393359422683716, -0.14023494720458984, 7.757390975952148, 0.008166967891156673, 6.08333158493042, 8.756613731384277, 12.122197151184082, 12.395038604736328, -0.8857421875, 0.169189453125, -0.22509765625, 
344, 3681053976, 0.8858342170715332, -0.0589156299829483, -0.43872973322868347, -0.13917356729507446, 7.681153774261475, 0.06705683469772339, 6.117069721221924, 8.89815616607666, 9.50208854675293, 12.853941917419434, -0.8857421875, 0.169189453125, -0.22802734375, 
345, 3681062309, 0.886233925819397, -0.05874750018119812, -0.43827900290489197, -0.13811606168746948, 7.693004608154297, 0.12455179542303085, 6.174152374267578, 7.64008903503418, 6.860954284667969, 13.153427124023438, -0.884765625, 0.169189453125, -0.22802734375, 
346, 3681070642, 0.8865945339202881, -0.05860741436481476, -0.43789908289909363, -0.1370629072189331, 7.731448650360107, 0.13561998307704926, 6.214574813842773, 7.445137023925781, 5.718968391418457, 13.189079284667969, -0.884033203125, 0.171630859375, -0.23046875, 
347, 3681078975, 0.887004554271698, -0.05849672853946686, -0.43740493059158325, -0.1360306441783905, 7.75761079788208, 0.2055041790008545, 6.21902322769165, 6.715542316436768, 7.363685131072998, 13.242409706115723, -0.885009765625, 0.171630859375, -0.23095703125, 
348, 3681087308, 0.8875254988670349, -0.05828551948070526, -0.4367033839225769, -0.1349739134311676, 7.759589195251465, 0.23906314373016357, 6.09688138961792, 7.859371662139893, 10.736875534057617, 13.364128112792969, -0.883544921875, 0.1728515625, -0.2294921875, 
349, 3681095641, 0.8881641030311584, -0.05798131227493286, -0.43575921654701233, -0.13395026326179504, 7.734158039093018, 0.26219844818115234, 5.991591453552246, 8.425549507141113, 14.596638679504395, 12.803690910339355, -0.882568359375, 0.176025390625, -0.2353515625, 
350, 3681103974, 0.8888131380081177, -0.05757419764995575, -0.4348028004169464, -0.13292574882507324, 7.700815677642822, 0.232412189245224, 5.845896244049072, 9.68679428100586, 15.004643440246582, 12.238152503967285, -0.880615234375, 0.176513671875, -0.23681640625, 
351, 3681112307, 0.8894182443618774, -0.05716463923454285, -0.43392878770828247, -0.13190710544586182, 7.687036037445068, 0.21068675816059113, 5.769172191619873, 9.735872268676758, 13.73599624633789, 11.95821475982666, -0.880126953125, 0.17724609375, -0.2373046875, 
352, 3681120640, 0.8899464011192322, -0.05680285394191742, -0.4332064390182495, -0.1308717429637909, 7.675227642059326, 0.1627260148525238, 5.736782073974609, 9.52857494354248, 11.328897476196289, 12.237486839294434, -0.879638671875, 0.177978515625, -0.240234375, 
353, 3681128973, 0.8904005885124207, -0.05648262798786163, -0.43264204263687134, -0.12978428602218628, 7.649265289306641, 0.1732049435377121, 5.781254291534424, 9.516818046569824, 8.835529327392578, 12.832682609558105, -0.87841796875, 0.179443359375, -0.24267578125, 
354, 3681137306, 0.8908118009567261, -0.05619536340236664, -0.4321754574775696, -0.12863659858703613, 7.60587215423584, 0.22669187188148499, 5.812807559967041, 9.651778221130371, 7.282127380371094, 13.646317481994629, -0.876953125, 0.181640625, -0.24072265625, 
355, 3681145639, 0.8911169767379761, -0.05596451461315155, -0.43189361691474915, -0.12756550312042236, 7.495758533477783, 0.19045627117156982, 5.982888698577881, 8.697237968444824, 4.340511798858643, 12.668417930603027, -0.8759765625, 0.1845703125, -0.24462890625, 
356, 3681153972, 0.8913454413414001, -0.0558011531829834, -0.4317489266395569, -0.12652629613876343, 7.49723482131958, 0.008855100721120834, 6.098094940185547, 7.914314270019531, 2.1186819076538086, 12.481307983398438, -0.876953125, 0.18603515625, -0.24658203125, 
357, 3681162305, 0.8916390538215637, -0.0556112676858902, -0.43147730827331543, -0.1254616677761078, 7.588703632354736, -0.03393060714006424, 6.066510200500488, 8.183236122131348, 4.082422733306885, 12.819926261901855, -0.8759765625, 0.18408203125, -0.24609375, 
358, 3681170638, 0.8920021057128906, -0.05539435148239136, -0.4310600161552429, -0.12440767884254456, 7.662757396697998, 0.05081656947731972, 6.057965278625488, 8.29004955291748, 6.339473724365234, 12.786758422851562, -0.874267578125, 0.18896484375, -0.24658203125, 
359, 3681178971, 0.8923543691635132, -0.05514030158519745, -0.4306589961051941, -0.1233794093132019, 7.730687618255615, 0.050050586462020874, 6.022613525390625, 8.485074996948242, 6.150721549987793, 12.120914459228516, -0.875, 0.18798828125, -0.2470703125, 
360, 3681187304, 0.8926756978034973, -0.05491301417350769, -0.4303080439567566, -0.12237629294395447, 7.806498050689697, 0.003172778058797121, 6.011947154998779, 8.197965621948242, 5.336061000823975, 11.982135772705078, -0.874267578125, 0.1884765625, -0.25048828125, 
361, 3681195637, 0.8929810523986816, -0.054730817675590515, -0.4299832284450531, -0.12136772274971008, 7.781780242919922, -0.02782512456178665, 6.021090507507324, 7.601896286010742, 4.8329973220825195, 12.184514999389648, -0.873291015625, 0.191162109375, -0.24853515625, 
362, 3681203970, 0.893292248249054, -0.054552242159843445, -0.42965060472488403, -0.12033268809318542, 7.754077911376953, -0.04240269958972931, 6.085422515869141, 7.8120622634887695, 4.94482946395874, 12.630125999450684, -0.873779296875, 0.19189453125, -0.2509765625, 
363, 3681212303, 0.8935848474502563, -0.05436606705188751, -0.42935800552368164, -0.11928403377532959, 7.7132391929626465, -0.04485801234841347, 6.125424861907959, 7.987212181091309, 4.33846378326416, 12.652641296386719, -0.874755859375, 0.19140625, -0.2509765625, 
364, 3681220636, 0.8938411474227905, -0.05418875813484192, -0.4291362464427948, -0.11823713779449463, 7.680356979370117, -0.023690814152359962, 6.169673919677734, 8.008880615234375, 3.247424602508545, 12.610915184020996, -0.871826171875, 0.195556640625, -0.25390625, 
365, 3681228969, 0.8940911293029785, -0.053966715931892395, -0.4289344549179077, -0.11717599630355835, 7.65004301071167, 0.04753069579601288, 6.188313961029053, 8.550263404846191, 3.0213019847869873, 12.401134490966797, -0.873046875, 0.197509765625, -0.251708984375, 
366, 3681237302, 0.894339382648468, -0.0537552684545517, -0.42871981859207153, -0.1161598265171051, 7.617574691772461, 0.10706624388694763, 6.228960037231445, 8.253497123718262, 3.1907150745391846, 12.011235237121582, -0.871826171875, 0.195068359375, -0.25439453125, 
367, 3681245635, 0.894605278968811, -0.053544461727142334, -0.4284501373767853, -0.11520090699195862, 7.633855819702148, 0.11658118665218353, 6.256004810333252, 7.761600017547607, 4.0062971115112305, 11.326281547546387, -0.873291015625, 0.195556640625, -0.252685546875, 
368, 3681253968, 0.8948971629142761, -0.053365856409072876, -0.4280921220779419, -0.11434492468833923, 7.636007785797119, 0.06526979804039001, 6.211244583129883, 6.708292007446289, 5.277609348297119, 10.411137580871582, -0.86962890625, 0.199462890625, -0.253173828125, 
369, 3681262301, 0.895209014415741, -0.053198784589767456, -0.42767223715782166, -0.11355027556419373, 7.628101348876953, 0.02184871770441532, 6.204719066619873, 6.054284572601318, 6.180639743804932, 9.74401569366455, -0.87060546875, 0.198974609375, -0.256591796875, 
370, 3681270634, 0.8954863548278809, -0.05305017530918121, -0.4273119866847992, -0.11278674006462097, 7.623773097991943, 0.029331587255001068, 6.188839435577393, 5.779749870300293, 5.241031169891357, 9.429625511169434, -0.8701171875, 0.198486328125, -0.258544921875, 
371, 3681278967, 0.8957162499427795, -0.05289721488952637, -0.4270481467247009, -0.11202865839004517, 7.645382881164551, 0.03620217740535736, 6.1360764503479, 5.8127923011779785, 3.779355525970459, 9.107475280761719, -0.8671875, 0.202880859375, -0.258544921875, 
372, 3681287300, 0.8959213495254517, -0.05283370614051819, -0.42681050300598145, -0.11132234334945679, 7.576395034790039, -0.012487079948186874, 6.202975749969482, 4.533105850219727, 3.216738700866699, 9.022334098815918, -0.865234375, 0.201904296875, -0.2587890625, 
373, 3681295633, 0.8961071968078613, -0.052782416343688965, -0.4265919327735901, -0.11068710684776306, 7.529116153717041, 0.030556002631783485, 6.2024054527282715, 3.980247974395752, 2.899890184402466, 8.175015449523926, -0.869140625, 0.203369140625, -0.258056640625, 
374, 3681303966, 0.8962647318840027, -0.052731990814208984, -0.426429808139801, -0.1100587248802185, 7.584794998168945, 0.07839557528495789, 6.25786018371582, 3.916980743408203, 2.0389957427978516, 7.949609279632568, -0.8671875, 0.20556640625, -0.259033203125, 
375, 3681312299, 0.8963857889175415, -0.05272015929222107, -0.4263134002685547, -0.10952827334403992, 7.636547565460205, 0.12265677005052567, 6.242518901824951, 2.9094955921173096, 1.2746669054031372, 6.881289958953857, -0.86767578125, 0.20556640625, -0.258056640625, 
376, 3681320632, 0.8964869976043701, -0.05270324647426605, -0.42623019218444824, -0.109031081199646, 7.641772747039795, 0.11236073821783066, 6.245575904846191, 2.891206741333008, 0.7851530909538269, 6.447307586669922, -0.867919921875, 0.20654296875, -0.260009765625, 
377, 3681328965, 0.896599292755127, -0.05273902416229248, -0.4261123836040497, -0.10854917764663696, 7.617588520050049, 0.07487790286540985, 6.331005573272705, 2.0418643951416016, 1.201384425163269, 6.558037757873535, -0.865966796875, 0.2060546875, -0.261474609375, 
378, 3681337298, 0.8967226147651672, -0.05281069874763489, -0.4259597957134247, -0.10809379816055298, 7.635149955749512, 0.03758325055241585, 6.334242820739746, 1.4670041799545288, 1.6682040691375732, 6.534677982330322, -0.867431640625, 0.2080078125, -0.260986328125, 
379, 3681345631, 0.8969281911849976, -0.05284580588340759, -0.4256322979927063, -0.10765942931175232, 7.6169304847717285, 0.05185994133353233, 6.323698043823242, 1.5347028970718384, 4.370378017425537, 6.264859199523926, -0.865966796875, 0.20751953125, -0.258544921875, 
380, 3681353964, 0.8971354365348816, -0.05277359485626221, -0.42532312870025635, -0.10718980431556702, 7.5820746421813965, 0.0746045708656311, 6.3038811683654785, 3.1520371437072754, 4.292587757110596, 6.108842372894287, -0.866455078125, 0.20751953125, -0.262451171875, 
381, 3681362297, 0.8973536491394043, -0.052688658237457275, -0.4249721169471741, -0.1067962646484375, 7.622233867645264, 0.0911630392074585, 6.293715000152588, 2.765902519226074, 4.941832065582275, 5.103278636932373, -0.865478515625, 0.20849609375, -0.260986328125, 
382, 3681370630, 0.8975350856781006, -0.052615031599998474, -0.4246830642223358, -0.10645699501037598, 7.653952121734619, 0.053695693612098694, 6.271892547607422, 2.4168057441711426, 3.989776134490967, 4.439587593078613, -0.865966796875, 0.20849609375, -0.263916015625, 
383, 3681378963, 0.8976881504058838, -0.05264006555080414, -0.4244207739830017, -0.10619893670082092, 7.717221736907959, 0.035102371126413345, 6.284871578216553, 0.6788028478622437, 3.404285430908203, 3.901636838912964, -0.865478515625, 0.2099609375, -0.261474609375, 
384, 3681387296, 0.8978304862976074, -0.05271221697330475, -0.4241594672203064, -0.10600408911705017, 7.697914123535156, -0.041401274502277374, 6.278604507446289, -0.21245726943016052, 3.312330484390259, 3.429438591003418, -0.864013671875, 0.21044921875, -0.263427734375, 
385, 3681395629, 0.8979972004890442, -0.05278497934341431, -0.42383766174316406, -0.10584273934364319, 7.6720170974731445, -0.12250006198883057, 6.299138069152832, -0.5553037524223328, 4.218536853790283, 3.0428431034088135, -0.864501953125, 0.2109375, -0.264892578125, 
386, 3681403962, 0.8981972932815552, -0.05289560556411743, -0.42343994975090027, -0.10568147897720337, 7.685613632202148, -0.13681535422801971, 6.303216934204102, -1.039745807647705, 5.299277305603027, 3.422497510910034, -0.862548828125, 0.2109375, -0.265869140625, 
387, 3681412295, 0.8984324336051941, -0.05302892625331879, -0.4229704439640045, -0.10549542307853699, 7.671721458435059, -0.13074809312820435, 6.2539896965026855, -1.34657883644104, 6.334963798522949, 3.8911097049713135, -0.862548828125, 0.2109375, -0.265380859375, 
388, 3681420628, 0.8986508846282959, -0.05314326286315918, -0.42254573106765747, -0.10528004169464111, 7.665465354919434, -0.10480126738548279, 6.275577545166016, -0.7973839044570923, 5.695119857788086, 4.158752918243408, -0.862060546875, 0.21044921875, -0.267822265625, 
389, 3681428961, 0.8988393545150757, -0.05322881042957306, -0.4221954047679901, -0.10503262281417847, 7.601500034332275, -0.09656015038490295, 6.282698154449463, -0.25287654995918274, 4.617657661437988, 4.222686290740967, -0.861572265625, 0.21240234375, -0.268798828125, 
390, 3681437294, 0.8990078568458557, -0.05331100523471832, -0.42188766598701477, -0.10478541254997253, 7.53440523147583, -0.0898604542016983, 6.301928520202637, -0.0811074748635292, 3.982962131500244, 4.207086563110352, -0.860595703125, 0.21435546875, -0.269775390625, 
391, 3681445627, 0.8991240859031677, -0.0533890575170517, -0.4216917157173157, -0.10453727841377258, 7.53981351852417, -0.0953928679227829, 6.283036708831787, 0.02013278938829899, 2.297699451446533, 3.978505849838257, -0.859130859375, 0.21435546875, -0.267822265625, 
392, 3681453960, 0.8992350697517395, -0.05357193946838379, -0.421469509601593, -0.10438495874404907, 7.605827331542969, -0.05323898419737816, 6.255383014678955, -1.7963391542434692, 2.5174951553344727, 3.472419261932373, -0.863525390625, 0.21337890625, -0.269287109375, 
393, 3681462293, 0.8993547558784485, -0.05374942719936371, -0.4212172329425812, -0.10428076982498169, 7.614496231079102, -0.06447631120681763, 6.2504777908325195, -2.076251268386841, 2.9773476123809814, 2.8552191257476807, -0.86474609375, 0.21484375, -0.269287109375, 
394, 3681470626, 0.8994897603988647, -0.05391813814640045, -0.4209271967411041, -0.10420075058937073, 7.629246711730957, -0.0677940845489502, 6.248615741729736, -2.118617296218872, 3.5690622329711914, 2.580249786376953, -0.861328125, 0.21630859375, -0.271728515625, 
395, 3681478959, 0.8996180295944214, -0.05407083034515381, -0.42064833641052246, -0.10414034128189087, 7.613412380218506, -0.07701781392097473, 6.267540454864502, -2.024305820465088, 3.428619146347046, 2.2288997173309326, -0.862060546875, 0.21435546875, -0.270263671875, 
396, 3681487292, 0.8997586965560913, -0.054216206073760986, -0.4203328788280487, -0.10412409901618958, 7.611358642578125, -0.15407826006412506, 6.277955532073975, -2.320150136947632, 3.9950008392333984, 1.6114170551300049, -0.86181640625, 0.21533203125, -0.272705078125, 
397, 3681495625, 0.8999152183532715, -0.05441458523273468, -0.4199724793434143, -0.10412052273750305, 7.599634170532227, -0.22873778641223907, 6.285585880279541, -3.0587875843048096, 4.574163913726807, 1.8517042398452759, -0.8623046875, 0.21630859375, -0.268798828125, 
398, 3681503958, 0.9000833034515381, -0.054582223296165466, -0.4196021556854248, -0.10407325625419617, 7.578027248382568, -0.2111596316099167, 6.252065658569336, -2.3863117694854736, 4.778746128082275, 2.277797222137451, -0.85888671875, 0.216064453125, -0.269287109375, 
399, 3681512291, 0.9002143740653992, -0.05477261543273926, -0.4193146824836731, -0.1039983332157135, 7.50139045715332, -0.18367990851402283, 6.290788650512695, -2.476346015930176, 3.482844591140747, 2.5870888233184814, -0.8603515625, 0.21728515625, -0.274169921875, 
400, 3681520624, 0.9002997875213623, -0.05506013333797455, -0.41911405324935913, -0.10391584038734436, 7.471436500549316, -0.1780465841293335, 6.338644504547119, -3.48639178276062, 2.0034172534942627, 3.158440113067627, -0.8603515625, 0.21875, -0.272216796875, 
401, 3681528957, 0.9003745317459106, -0.05542437732219696, -0.4189259707927704, -0.10383337736129761, 7.457913398742676, -0.1567467302083969, 6.4423394203186035, -4.522769927978516, 1.6751967668533325, 3.4950625896453857, -0.861328125, 0.21923828125, -0.273681640625, 
402, 3681537290, 0.9004268646240234, -0.05569721758365631, -0.41880080103874207, -0.10373961925506592, 7.462270736694336, -0.1286027878522873, 6.432572841644287, -3.157120943069458, 0.8887627720832825, 3.108799934387207, -0.8623046875, 0.21826171875, -0.273681640625, 
403, 3681545623, 0.9004749059677124, -0.055961400270462036, -0.4186684191226959, -0.1037137508392334, 7.495985984802246, -0.10290198773145676, 6.409206390380859, -3.5048346519470215, 1.0167315006256104, 2.1770052909851074, -0.859375, 0.21923828125, -0.273193359375, 
404, 3681553956, 0.9005320072174072, -0.05613428354263306, -0.41853058338165283, -0.10368070006370544, 7.585821628570557, -0.10896559804677963, 6.271782398223877, -2.2841875553131104, 1.2644978761672974, 1.7977861166000366, -0.85986328125, 0.2197265625, -0.275146484375, 
405, 3681562289, 0.9006447196006775, -0.056197017431259155, -0.4182906746864319, -0.10363483428955078, 7.621701717376709, -0.09991075098514557, 6.346957206726074, -1.0051922798156738, 2.9922549724578857, 1.4329371452331543, -0.8603515625, 0.220458984375, -0.273681640625, 
406, 3681570622, 0.9006909132003784, -0.056406378746032715, -0.41814494132995605, -0.10370790958404541, 7.606651782989502, -0.1546638160943985, 6.462151050567627, -3.3650827407836914, 1.3298397064208984, 0.6832852959632874, -0.857421875, 0.21826171875, -0.274169921875, 
407, 3681578955, 0.9007958173751831, -0.05653756856918335, -0.41788148880004883, -0.10378730297088623, 7.635634422302246, -0.2289653718471527, 6.329428195953369, -2.6232688426971436, 3.236922025680542, 0.27609583735466003, -0.85791015625, 0.219482421875, -0.274658203125, 
408, 3681587288, 0.9010050296783447, -0.0566050261259079, -0.41740772128105164, -0.10384112596511841, 7.6745285987854, -0.18783795833587646, 6.329257488250732, -1.8379621505737305, 6.51674747467041, 0.5939172506332397, -0.861328125, 0.21826171875, -0.271728515625, 
409, 3681595621, 0.9012256860733032, -0.05675762891769409, -0.4168890416622162, -0.10392659902572632, 7.5559210777282715, -0.1430681347846985, 6.371994972229004, -3.1302006244659424, 7.042609214782715, 0.7419420480728149, -0.85791015625, 0.219970703125, -0.274169921875, 
410, 3681603954, 0.9013780355453491, -0.05692158639431, -0.4165131449699402, -0.10402309894561768, 7.436087608337402, -0.18981271982192993, 6.447159767150879, -3.1550204753875732, 4.871109962463379, 0.4852360785007477, -0.85791015625, 0.221435546875, -0.276123046875, 
411, 3681612287, 0.9014944434165955, -0.057074129581451416, -0.4162227511405945, -0.10409241914749146, 7.426883220672607, -0.23918285965919495, 6.467864990234375, -2.8983147144317627, 3.59946608543396, 0.5246307849884033, -0.8583984375, 0.221435546875, -0.275146484375, 
412, 3681620620, 0.9016438722610474, -0.05702511966228485, -0.41592133045196533, -0.10403165221214294, 7.37743616104126, -0.1899530440568924, 6.377053737640381, 0.4600317180156708, 4.115131855010986, 1.1282047033309937, -0.8583984375, 0.221923828125, -0.274658203125, 
413, 3681628953, 0.9018094539642334, -0.05678178369998932, -0.4156254827976227, -0.10391080379486084, 7.315089702606201, -0.164839968085289, 6.356916427612305, 3.1567494869232178, 4.366074085235596, 0.7175315618515015, -0.857421875, 0.22021484375, -0.277587890625, 
414, 3681637286, 0.9019066095352173, -0.05653718113899231, -0.41546663641929626, -0.10383531451225281, 7.358223915100098, -0.20629365742206573, 6.2844977378845215, 3.133363723754883, 2.3166282176971436, 0.007530584465712309, -0.85986328125, 0.2197265625, -0.278076171875, 
415, 3681645619, 0.9019466638565063, -0.056320950388908386, -0.4154253602027893, -0.10377073287963867, 7.457727909088135, -0.1859169900417328, 6.222522735595703, 2.7907731533050537, 0.49627578258514404, -0.18189947307109833, -0.857421875, 0.21875, -0.277099609375, 
416, 3681653952, 0.901965856552124, -0.05621659755706787, -0.4154066741466522, -0.10373574495315552, 7.492552757263184, -0.1478707194328308, 6.275532245635986, 1.3027399778366089, -0.037614502012729645, 0.0855003148317337, -0.85693359375, 0.222900390625, -0.279541015625, 
417, 3681662285, 0.9019948244094849, -0.05616335570812225, -0.4153633117675781, -0.10368585586547852, 7.49733829498291, -0.14156191051006317, 6.308592796325684, 0.591407060623169, 0.23905766010284424, 0.4874388575553894, -0.857421875, 0.21923828125, -0.278564453125, 
418, 3681670618, 0.9020520448684692, -0.05611489713191986, -0.4152635633945465, -0.10361447930335999, 7.470085620880127, -0.12739212810993195, 6.342046737670898, 0.7314656972885132, 1.078128695487976, 0.9728798866271973, -0.8564453125, 0.221923828125, -0.277099609375, 
419, 3681678951, 0.9021013975143433, -0.056077539920806885, -0.415179580450058, -0.10354059934616089, 7.439593315124512, -0.122063547372818, 6.388239860534668, 0.5171770453453064, 0.8184772729873657, 0.9548731446266174, -0.85546875, 0.220703125, -0.278076171875, 
420, 3681687284, 0.9021039009094238, -0.056074827909469604, -0.41517409682273865, -0.10354170203208923, 7.472969055175781, -0.10747861862182617, 6.39209508895874, -0.15987122058868408, -0.4116591215133667, 0.18485790491104126, -0.8564453125, 0.22216796875, -0.279052734375, 
421, 3681695617, 0.9020774960517883, -0.056088343262672424, -0.41522035002708435, -0.10357880592346191, 7.492324352264404, -0.12018179148435593, 6.389855861663818, -0.6183916330337524, -1.219173550605774, -0.33763402700424194, -0.8583984375, 0.22265625, -0.278076171875, 
422, 3681703950, 0.9020739793777466, -0.05607324838638306, -0.4152214527130127, -0.10361316800117493, 7.525869846343994, -0.14123956859111786, 6.411471366882324, -0.1897374540567398, -0.48468533158302307, -0.31094399094581604, -0.85791015625, 0.2216796875, -0.278564453125, 
423, 3681712283, 0.9021004438400269, -0.056033745408058167, -0.415160596370697, -0.10364833474159241, 7.544497013092041, -0.14267060160636902, 6.391744613647461, -0.03671800717711449, 0.48813050985336304, -0.4397580325603485, -0.8583984375, 0.220703125, -0.281982421875, 
424, 3681720616, 0.9021400213241577, -0.055980831384658813, -0.4150742292404175, -0.10367831587791443, 7.473927021026611, -0.20619499683380127, 6.380292892456055, 0.21303358674049377, 0.8963445425033569, -0.34462669491767883, -0.857421875, 0.22119140625, -0.279052734375, 
425, 3681728949, 0.902168869972229, -0.055907830595970154, -0.4150298833847046, -0.10364514589309692, 7.388178825378418, -0.18446466326713562, 6.3441853523254395, 0.7656607031822205, 0.29056787490844727, 0.1851397007703781, -0.85791015625, 0.21875, -0.280517578125, 
426, 3681737282, 0.9021419882774353, -0.055884286761283875, -0.4151037633419037, -0.10359561443328857, 7.379880905151367, -0.10423238575458527, 6.301113605499268, 0.4792679250240326, -1.5740331411361694, 0.5915350914001465, -0.86083984375, 0.2177734375, -0.277587890625, 
427, 3681745615, 0.902043342590332, -0.05593748390674591, -0.4153228998184204, -0.10354733467102051, 7.419737339019775, -0.04238288477063179, 6.28396463394165, -0.3394782245159149, -3.8972179889678955, 0.7906600832939148, -0.85791015625, 0.2197265625, -0.278564453125, 
428, 3681753948, 0.901885986328125, -0.056102946400642395, -0.4156467020511627, -0.10352939367294312, 7.480202674865723, -0.0036653128918260336, 6.345597743988037, -1.7886803150177002, -5.663473606109619, 0.9022870063781738, -0.85595703125, 0.2197265625, -0.279541015625, 
429, 3681762281, 0.9017350673675537, -0.056328386068344116, -0.4159495234489441, -0.10350537300109863, 7.492669105529785, 0.042756810784339905, 6.397129535675049, -2.597834587097168, -5.460608959197998, 1.284092903137207, -0.8544921875, 0.21923828125, -0.27783203125, 
430, 3681770614, 0.9016143083572388, -0.05654124915599823, -0.41617968678474426, -0.10351565480232239, 7.529544830322266, 0.07820863276720047, 6.441249847412109, -2.6443235874176025, -4.338705062866211, 0.9456006288528442, -0.85498046875, 0.220947265625, -0.277099609375, 
431, 3681778947, 0.9015331864356995, -0.0567246675491333, -0.41632163524627686, -0.10355052351951599, 7.5550432205200195, 0.033596236258745193, 6.4705328941345215, -2.602393627166748, -2.961453914642334, 0.5243746042251587, -0.85888671875, 0.22119140625, -0.276611328125, 
432, 3681787280, 0.9014782905578613, -0.05686512589454651, -0.4164047837257385, -0.10361796617507935, 7.566068649291992, -0.0062995292246341705, 6.4611334800720215, -2.2319602966308594, -1.9908535480499268, 0.031198136508464813, -0.8583984375, 0.22021484375, -0.276123046875, 
433, 3681795613, 0.9014525413513184, -0.056950584053993225, -0.41643333435058594, -0.10368022322654724, 7.596664905548096, -0.050385087728500366, 6.48264217376709, -1.6382735967636108, -1.0783976316452026, -0.1847938895225525, -0.8544921875, 0.219970703125, -0.275390625, 
434, 3681803946, 0.9014433026313782, -0.0569644421339035, -0.4164380729198456, -0.10373425483703613, 7.598708152770996, -0.08900997787714005, 6.459410667419434, -0.6609368920326233, -0.5868605375289917, -0.40033766627311707, -0.85986328125, 0.22216796875, -0.278076171875, 
435, 3681812279, 0.9014809727668762, -0.056886225938797, -0.4163670241832733, -0.10373511910438538, 7.625724792480469, -0.14273497462272644, 6.405778408050537, 0.6020882725715637, 0.7054161429405212, -0.23343534767627716, -0.857421875, 0.221923828125, -0.275146484375, 
436, 3681820612, 0.9015567302703857, -0.05677299201488495, -0.41622740030288696, -0.10369867086410522, 7.581019401550293, -0.13992135226726532, 6.378952980041504, 1.2927249670028687, 1.798734188079834, 0.2275056540966034, -0.8564453125, 0.220947265625, -0.275634765625, 
437, 3681828945, 0.901614785194397, -0.05674688518047333, -0.4161055088043213, -0.10369753837585449, 7.434128284454346, -0.1305823028087616, 6.5295515060424805, -0.05405883863568306, 1.3769445419311523, 0.18685585260391235, -0.85546875, 0.219970703125, -0.275146484375, 
438, 3681837278, 0.9016302824020386, -0.05678395926952362, -0.4160667657852173, -0.10369741916656494, 7.347822189331055, -0.19547289609909058, 6.543971538543701, -0.681530773639679, 0.017135921865701675, 0.4731462001800537, -0.859375, 0.2216796875, -0.277587890625, 
439, 3681845611, 0.9016799926757812, -0.056744933128356934, -0.41598495841026306, -0.1036156415939331, 7.420888900756836, -0.18923594057559967, 6.466155529022217, 0.6335681080818176, 0.7872278690338135, 1.0819963216781616, -0.85791015625, 0.22119140625, -0.277099609375, 
440, 3681853944, 0.9017931222915649, -0.05664031207561493, -0.4157778024673462, -0.10352012515068054, 7.391305446624756, -0.08634701371192932, 6.3506178855896, 1.4568352699279785, 2.79097843170166, 1.1153206825256348, -0.85888671875, 0.22119140625, -0.277587890625, 
441, 3681862277, 0.9018166065216064, -0.05659511685371399, -0.4157496988773346, -0.10345172882080078, 7.330062389373779, -0.1375420093536377, 6.3465895652771, 0.671784520149231, -0.009490073658525944, 0.7861008644104004, -0.8564453125, 0.220703125, -0.278076171875, 
442, 3681870610, 0.9017201662063599, -0.056725889444351196, -0.41594260931015015, -0.1034453809261322, 7.378421783447266, -0.21612387895584106, 6.374379634857178, -1.56637442111969, -3.634800434112549, 0.7454255223274231, -0.85693359375, 0.220703125, -0.278564453125, 
443, 3681878943, 0.901584804058075, -0.056911125779151917, -0.41621309518814087, -0.10343572497367859, 7.420434951782227, -0.19430361688137054, 6.399572849273682, -2.1932060718536377, -4.90191125869751, 0.9400424957275391, -0.85791015625, 0.21923828125, -0.275146484375, 
