sep=,
PacketCounter,SampleTimeFine,Quat_W,Quat_X,Quat_Y,Quat_Z,Acc_X,Acc_Y,Acc_Z,Gyr_X,Gyr_Y,Gyr_Z,Mag_X,Mag_Y,Mag_Z,
0, 2927292461, 0.8997641205787659, -0.01376555860042572, -0.415263295173645, -0.1334943175315857, 0, 0, 0, 0, 0, 0, -0.91943359375, -0.01318359375, -0.36572265625, 
1, 2927300794, 0.8997249603271484, -0.013712525367736816, -0.41535454988479614, -0.13347965478897095, 7.400437831878662, 0.8728866577148438, 6.487016677856445, 0.7919408679008484, -1.7886035442352295, 0.00361160677857697, -0.91943359375, -0.0126953125, -0.365234375, 
2, 2927309127, 0.899694561958313, -0.013695433735847473, -0.41541028022766113, -0.1335127055644989, 7.466423511505127, 0.917881429195404, 6.455498218536377, 0.015009942464530468, -1.3558768033981323, -0.3552566468715668, -0.919677734375, -0.0107421875, -0.366455078125, 
3, 2927317460, 0.8996678590774536, -0.013667643070220947, -0.41545265913009644, -0.13356393575668335, 7.451759338378906, 0.9401485919952393, 6.478522300720215, -0.00575039628893137, -1.1307276487350464, -0.6426483988761902, -0.9208984375, -0.01318359375, -0.36669921875, 
4, 2927325793, 0.8996549844741821, -0.013627663254737854, -0.4154644012451172, -0.13361793756484985, 7.422369003295898, 0.9309711456298828, 6.487342357635498, 0.1512008160352707, -0.6598610877990723, -0.6619102358818054, -0.91943359375, -0.01416015625, -0.36376953125, 
5, 2927334126, 0.8996690511703491, -0.01358175277709961, -0.41541436314582825, -0.1336832344532013, 7.408377170562744, 0.8900493383407593, 6.475740432739258, -0.023782815784215927, 0.2828579843044281, -0.8292223811149597, -0.9189453125, -0.0126953125, -0.3642578125, 
6, 2927342459, 0.8996944427490234, -0.013600558042526245, -0.4153291583061218, -0.1337752640247345, 7.343416213989258, 0.8473544120788574, 6.470426082611084, -1.0818299055099487, 0.6434551477432251, -0.8078088164329529, -0.921875, -0.0126953125, -0.365966796875, 
7, 2927350792, 0.8997091054916382, -0.013687297701835632, -0.415263831615448, -0.13387078046798706, 7.291067123413086, 0.8023483157157898, 6.429851055145264, -1.8647291660308838, 0.23467764258384705, -0.4397324025630951, -0.9208984375, -0.01220703125, -0.363037109375, 
8, 2927359125, 0.8997008800506592, -0.013752028346061707, -0.4152641296386719, -0.13391801714897156, 7.233105659484863, 0.7898386120796204, 6.414211273193359, -1.1496309041976929, -0.6875500679016113, 0.010527449660003185, -0.9189453125, -0.01416015625, -0.36572265625, 
9, 2927367458, 0.8996576070785522, -0.013770923018455505, -0.4153590798377991, -0.1339130401611328, 7.234955310821533, 0.7838631272315979, 6.451739311218262, -0.1678372621536255, -1.9735383987426758, 0.2785547971725464, -0.92041015625, -0.013671875, -0.365234375, 
10, 2927375791, 0.899592399597168, -0.013797745108604431, -0.4154999852180481, -0.13391101360321045, 7.277778625488281, 0.8326623439788818, 6.45015287399292, -0.10920628905296326, -2.6862030029296875, 0.30739644169807434, -0.919677734375, -0.01123046875, -0.36474609375, 
11, 2927384124, 0.8995050191879272, -0.013835534453392029, -0.4156862497329712, -0.13391545414924622, 7.316328525543213, 0.8681239485740662, 6.466853141784668, -0.29590848088264465, -3.3865222930908203, 0.17146171629428864, -0.9189453125, -0.0126953125, -0.36376953125, 
12, 2927392457, 0.8994197249412537, -0.01385517418384552, -0.4158658981323242, -0.13392913341522217, 7.391210556030273, 0.9209132194519043, 6.474030017852783, -0.11212630569934845, -3.2758944034576416, -0.03285025432705879, -0.921875, -0.0146484375, -0.36181640625, 
13, 2927400790, 0.899338960647583, -0.013858065009117126, -0.4160345196723938, -0.1339472234249115, 7.414847373962402, 0.9025201201438904, 6.471243381500244, 0.02661318890750408, -3.0621178150177, -0.1808236986398697, -0.92041015625, -0.01416015625, -0.36572265625, 
14, 2927409123, 0.8992758989334106, -0.01383887231349945, -0.4161638617515564, -0.1339702308177948, 7.4280242919921875, 0.8703383207321167, 6.455260753631592, 0.20337702333927155, -2.434696912765503, -0.32664549350738525, -0.88232421875, -0.04248046875, -0.3857421875, 
15, 2927417456, 0.8992362022399902, -0.013803690671920776, -0.41623979806900024, -0.13400551676750183, 7.403048038482666, 0.8817151188850403, 6.464765548706055, 0.2774277627468109, -1.6239808797836304, -0.49628859758377075, -0.88330078125, -0.04296875, -0.3837890625, 
16, 2927425789, 0.8992070555686951, -0.013769358396530151, -0.41629037261009216, -0.1340475082397461, 7.36229944229126, 0.9160717725753784, 6.42558479309082, 0.19815170764923096, -1.24742591381073, -0.5348123908042908, -0.88232421875, -0.0419921875, -0.38330078125, 
17, 2927434122, 0.899185061454773, -0.013722747564315796, -0.41632968187332153, -0.13407781720161438, 7.3138532638549805, 0.9149702191352844, 6.4041547775268555, 0.3431538939476013, -1.0348278284072876, -0.481253057718277, -0.88330078125, -0.04443359375, -0.38134765625, 
18, 2927442455, 0.8991448879241943, -0.013717085123062134, -0.4164068102836609, -0.13410812616348267, 7.302066802978516, 0.8726136684417725, 6.389684677124023, -0.05265005677938461, -1.6957775354385376, -0.2597411274909973, -0.8837890625, -0.04443359375, -0.3837890625, 
19, 2927450788, 0.899079442024231, -0.013760030269622803, -0.41653943061828613, -0.1341305375099182, 7.309154510498047, 0.8622064590454102, 6.403961658477783, -0.5558416843414307, -2.601830005645752, 0.030583400279283524, -0.88232421875, -0.04345703125, -0.38232421875, 
20, 2927459121, 0.8989890813827515, -0.01377829909324646, -0.41672706604003906, -0.13415178656578064, 7.33915376663208, 0.873223066329956, 6.415924549102783, -0.09058474749326706, -3.394923686981201, -0.11414984613656998, -0.88232421875, -0.0439453125, -0.38330078125, 
21, 2927467454, 0.8988754749298096, -0.013755083084106445, -0.41696828603744507, -0.13416573405265808, 7.377297878265381, 0.909965455532074, 6.43944787979126, 0.5027049779891968, -4.102132320404053, -0.3523366153240204, -0.88232421875, -0.04541015625, -0.3798828125, 
22, 2927475787, 0.8987758755683899, -0.013673216104507446, -0.41718193888664246, -0.13417676091194153, 7.490208625793457, 0.8932684659957886, 6.451793670654297, 1.2439807653427124, -3.5863897800445557, -0.5906258225440979, -0.884765625, -0.04248046875, -0.38037109375, 
23, 2927484120, 0.8987274169921875, -0.013563960790634155, -0.41728758811950684, -0.13418403267860413, 7.565349102020264, 0.8671481609344482, 6.4298248291015625, 1.3656742572784424, -1.8947491645812988, -0.6219009160995483, -0.8837890625, -0.04248046875, -0.3828125, 
24, 2927492453, 0.8987199068069458, -0.0135439932346344, -0.41727304458618164, -0.13428112864494324, 7.440208435058594, 0.9614064693450928, 6.527691841125488, -0.4129142761230469, -0.3363277018070221, -1.0799602270126343, -0.8837890625, -0.04248046875, -0.3828125, 
25, 2927500786, 0.89873206615448, -0.013589724898338318, -0.41721752285957336, -0.13436800241470337, 7.365876197814941, 0.901923418045044, 6.495882987976074, -1.29132878780365, 0.17427924275398254, -0.5710309147834778, -0.88427734375, -0.04345703125, -0.3798828125, 
26, 2927509119, 0.8987605571746826, -0.013580098748207092, -0.4171368181705475, -0.13442936539649963, 7.354832172393799, 0.8438709378242493, 6.386408805847168, -0.4531286358833313, 0.6623072028160095, -0.5035885572433472, -0.8828125, -0.044921875, -0.38427734375, 
27, 2927517452, 0.8987471461296082, -0.013613507151603699, -0.4171386957168579, -0.13450926542282104, 7.304562091827393, 0.8335851430892944, 6.3461737632751465, -0.9990703463554382, -0.6605783104896545, -0.6151130199432373, -0.8828125, -0.04443359375, -0.38330078125, 
28, 2927525785, 0.8986415266990662, -0.013782575726509094, -0.41733086109161377, -0.13460209965705872, 7.261181831359863, 0.7924231886863708, 6.352063179016113, -2.36456561088562, -3.803368330001831, -0.1664029061794281, -0.88330078125, -0.04541015625, -0.38134765625, 
29, 2927534118, 0.8985480070114136, -0.01390521228313446, -0.417514443397522, -0.13464456796646118, 7.352534294128418, 0.7540680766105652, 6.34589958190918, -1.5655547380447388, -3.538926601409912, 0.17858241498470306, -0.884765625, -0.04443359375, -0.38134765625, 
30, 2927542451, 0.8984691500663757, -0.013942420482635498, -0.4176819920539856, -0.13464707136154175, 7.407625675201416, 0.7321780323982239, 6.376077651977539, -0.2550537586212158, -3.1177775859832764, 0.24658827483654022, -0.88525390625, -0.04345703125, -0.38232421875, 
31, 2927550784, 0.8983715176582336, -0.013926312327384949, -0.4178990423679352, -0.1346265971660614, 7.41209602355957, 0.7573508024215698, 6.398036003112793, 0.5724524855613708, -3.731264114379883, 0.14584743976593018, -0.88427734375, -0.04443359375, -0.37939453125, 
32, 2927559117, 0.8982889652252197, -0.013916701078414917, -0.41807806491851807, -0.1346232295036316, 7.448753833770752, 0.8015451431274414, 6.457209587097168, 0.37512049078941345, -3.196131467819214, 0.03824205324053764, -0.88427734375, -0.04443359375, -0.38134765625, 
33, 2927567450, 0.8982287645339966, -0.013901829719543457, -0.4182029962539673, -0.13463836908340454, 7.486133098602295, 0.8295528888702393, 6.469661712646484, 0.18767550587654114, -2.3734281063079834, -0.20067474246025085, -0.88525390625, -0.04248046875, -0.382568359375, 
34, 2927575783, 0.8981844186782837, -0.013887092471122742, -0.4182811379432678, -0.1346924602985382, 7.463637351989746, 0.8450161814689636, 6.493013858795166, -0.06471436470746994, -1.7095836400985718, -0.6035353541374207, -0.88330078125, -0.04541015625, -0.37841796875, 
35, 2927584116, 0.8981640338897705, -0.013881012797355652, -0.4183109998703003, -0.13473665714263916, 7.428164005279541, 0.8579117059707642, 6.505032062530518, -0.2556428611278534, -0.9806280732154846, -0.41903606057167053, -0.8857421875, -0.04345703125, -0.380859375, 
36, 2927592449, 0.8981760740280151, -0.013833761215209961, -0.41827791929244995, -0.13476374745368958, 7.442897796630859, 0.8400799632072449, 6.474960803985596, 0.2917717397212982, 0.04244278743863106, -0.33476522564888, -0.8857421875, -0.0458984375, -0.37890625, 
37, 2927600782, 0.8982049226760864, -0.01376582682132721, -0.41821789741516113, -0.13476458191871643, 7.441424369812012, 0.8228558897972107, 6.442551136016846, 0.6001158952713013, 0.519892156124115, -0.1301843225955963, -0.88427734375, -0.04443359375, -0.38134765625, 
38, 2927609115, 0.8982143998146057, -0.013757869601249695, -0.4181944727897644, -0.13477537035942078, 7.38383674621582, 0.8052098155021667, 6.402273654937744, -0.08072325587272644, -0.16724814474582672, 0.08593575656414032, -0.8837890625, -0.04443359375, -0.38037109375, 
39, 2927617448, 0.8981970548629761, -0.013780653476715088, -0.41823095083236694, -0.13477489352226257, 7.355411529541016, 0.808714747428894, 6.406579494476318, -0.3432179093360901, -1.106598973274231, 0.3047581613063812, -0.88427734375, -0.0458984375, -0.38134765625, 
40, 2927625781, 0.8981722593307495, -0.013807818293571472, -0.4182897210121155, -0.1347552239894867, 7.371397018432617, 0.8050523400306702, 6.440168857574463, -0.19619221985340118, -1.452109456062317, 0.5813919305801392, -0.88525390625, -0.046630859375, -0.3818359375, 
41, 2927634114, 0.898140549659729, -0.013871908187866211, -0.41836145520210266, -0.13473710417747498, 7.377878665924072, 0.8271688222885132, 6.4541168212890625, -0.689317524433136, -1.7031034231185913, 0.7277004718780518, -0.88525390625, -0.045166015625, -0.38330078125, 
42, 2927642447, 0.8981170654296875, -0.013976871967315674, -0.4184073507785797, -0.13473966717720032, 7.39468240737915, 0.8468568325042725, 6.428780555725098, -1.3046739101409912, -1.422806739807129, 0.7629455924034119, -0.88330078125, -0.041015625, -0.37939453125, 
43, 2927650780, 0.8981099128723145, -0.014056265354156494, -0.41841816902160645, -0.1347457468509674, 7.403621673583984, 0.8349370360374451, 6.421178817749023, -1.1250156164169312, -0.8351905941963196, 0.5741430521011353, -0.884765625, -0.04443359375, -0.3828125, 
44, 2927659113, 0.8981137871742249, -0.014092087745666504, -0.41841262578964233, -0.134733647108078, 7.440680503845215, 0.847447395324707, 6.421228885650635, -0.4576623737812042, -0.5056378245353699, 0.6057767271995544, -0.8828125, -0.04541015625, -0.38037109375, 
45, 2927667446, 0.898131787776947, -0.014066338539123535, -0.41837865114212036, -0.13472187519073486, 7.430008411407471, 0.856002151966095, 6.438388347625732, 0.1981004923582077, 0.055070601403713226, 0.24525630474090576, -0.88427734375, -0.044921875, -0.3798828125, 
46, 2927675779, 0.8981640338897705, -0.014011219143867493, -0.4183167815208435, -0.13470444083213806, 7.392963886260986, 0.8207458257675171, 6.3991265296936035, 0.5983484983444214, 0.5201482772827148, 0.2124444544315338, -0.8828125, -0.044921875, -0.3818359375, 
47, 2927684112, 0.8981918096542358, -0.01397240161895752, -0.4182600975036621, -0.13469934463500977, 7.3802032470703125, 0.8372328281402588, 6.360551357269287, 0.28062957525253296, 0.4181011915206909, 0.10970576852560043, -0.88525390625, -0.04345703125, -0.380859375, 
48, 2927692445, 0.898192822933197, -0.01396109163761139, -0.41825219988822937, -0.1347181797027588, 7.363058090209961, 0.8440068364143372, 6.3607587814331055, -0.05528832599520683, -0.4007219076156616, -0.049525126814842224, -0.88232421875, -0.0439453125, -0.3798828125, 
49, 2927700778, 0.8981812000274658, -0.013952717185020447, -0.4182776212692261, -0.13471761345863342, 7.3517351150512695, 0.8324264287948608, 6.352962017059326, 0.023129653185606003, -0.8793238401412964, 0.13857300579547882, -0.88525390625, -0.04638671875, -0.38134765625, 
50, 2927709111, 0.8981550931930542, -0.013977646827697754, -0.41833460330963135, -0.1347126066684723, 7.343044281005859, 0.8138290047645569, 6.368412017822266, -0.26291730999946594, -1.429722547531128, 0.38078123331069946, -0.88134765625, -0.0439453125, -0.380859375, 
51, 2927717444, 0.8981244564056396, -0.014006078243255615, -0.41840314865112305, -0.13470029830932617, 7.364360332489014, 0.8193723559379578, 6.35964822769165, -0.2881985902786255, -1.5912972688674927, 0.4531414806842804, -0.8857421875, -0.0458984375, -0.37841796875, 
52, 2927725777, 0.8980872631072998, -0.01404009759426117, -0.4184795320034027, -0.13470831513404846, 7.429901599884033, 0.8509615659713745, 6.407808303833008, -0.4124276340007782, -1.746340274810791, 0.25119882822036743, -0.8857421875, -0.044921875, -0.37890625, 
53, 2927734110, 0.8980463743209839, -0.014043688774108887, -0.4185646176338196, -0.13471579551696777, 7.435851573944092, 0.8413323760032654, 6.457217693328857, -0.06650736182928085, -1.8064309358596802, 0.04126453027129173, -0.8837890625, -0.04541015625, -0.380859375, 
54, 2927742443, 0.8980206251144409, -0.014032155275344849, -0.4186181128025055, -0.13472244143486023, 7.43220329284668, 0.8373904228210449, 6.46744966506958, 0.11892688274383545, -1.3138948678970337, 0.033042360097169876, -0.88427734375, -0.044921875, -0.37939453125, 
55, 2927750776, 0.8980327844619751, -0.01400323212146759, -0.4185895323753357, -0.1347334086894989, 7.471302032470703, 0.8495073914527893, 6.442028999328613, 0.11459808796644211, -0.036410633474588394, -0.06783930212259293, -0.8828125, -0.0439453125, -0.37841796875, 
56, 2927759109, 0.8980494737625122, -0.013991832733154297, -0.41854289174079895, -0.13476872444152832, 7.4339280128479, 0.8490996956825256, 6.421271800994873, -0.22129416465759277, 0.17333152890205383, -0.21701662242412567, -0.884765625, -0.04443359375, -0.37890625, 
57, 2927767442, 0.8980644345283508, -0.013990223407745361, -0.4185026288032532, -0.13479351997375488, 7.419665336608887, 0.8415248394012451, 6.426214218139648, -0.32206058502197266, 0.07635603100061417, -0.0740891695022583, -0.8837890625, -0.04345703125, -0.38037109375, 
58, 2927775775, 0.8980780839920044, -0.013977885246276855, -0.4184722304344177, -0.13479840755462646, 7.415080547332764, 0.8162323832511902, 6.407337665557861, -0.002343702595680952, -0.047680895775556564, 0.14433620870113373, -0.884765625, -0.04443359375, -0.38037109375, 
59, 2927784108, 0.8980934619903564, -0.013927564024925232, -0.4184453785419464, -0.13478457927703857, 7.374073028564453, 0.8345150351524353, 6.388490200042725, 0.5252199172973633, -0.004572140984237194, 0.12077111005783081, -0.88525390625, -0.04248046875, -0.37744140625, 
60, 2927792441, 0.8980893492698669, -0.01390179991722107, -0.4184526205062866, -0.13479244709014893, 7.336084365844727, 0.8403231501579285, 6.367832660675049, 0.21049778163433075, -0.5907795429229736, -0.011283069849014282, -0.884765625, -0.04443359375, -0.37939453125, 
61, 2927800774, 0.8980798721313477, -0.013903334736824036, -0.4184642434120178, -0.13481903076171875, 7.354781150817871, 0.8332921266555786, 6.3478684425354, -0.2796946167945862, -0.7104747891426086, -0.1315418928861618, -0.8857421875, -0.0458984375, -0.37841796875, 
62, 2927809107, 0.8980662822723389, -0.013910681009292603, -0.41848263144493103, -0.13485172390937805, 7.371970176696777, 0.8452943563461304, 6.351388454437256, -0.3203187882900238, -0.8402365446090698, -0.14532236754894257, -0.88330078125, -0.04443359375, -0.3798828125, 
63, 2927817440, 0.8980437517166138, -0.01390618085861206, -0.4185231924057007, -0.1348765790462494, 7.381303787231445, 0.8453159332275391, 6.358526229858398, -0.1445283144712448, -1.1312142610549927, -0.1749836504459381, -0.88330078125, -0.04541015625, -0.37841796875, 
64, 2927825773, 0.8980109691619873, -0.013907626271247864, -0.4185847342014313, -0.13490372896194458, 7.389365196228027, 0.8318471312522888, 6.375621318817139, -0.1389700323343277, -1.473702073097229, -0.15390312671661377, -0.8828125, -0.0439453125, -0.3779296875, 
65, 2927834106, 0.8979693651199341, -0.013920381665229797, -0.41867321729660034, -0.13490474224090576, 7.437574863433838, 0.8211043477058411, 6.406944274902344, -0.13584508001804352, -1.8700823783874512, 0.17312660813331604, -0.88427734375, -0.04541015625, -0.3798828125, 
66, 2927842439, 0.8979291319847107, -0.013961955904960632, -0.4187549948692322, -0.13491472601890564, 7.437326431274414, 0.8457274436950684, 6.437706470489502, -0.5031532645225525, -1.8441096544265747, 0.2678736746311188, -0.88525390625, -0.0439453125, -0.37841796875, 
67, 2927850772, 0.8979062438011169, -0.01398111879825592, -0.41879987716674805, -0.13492563366889954, 7.443541526794434, 0.8757440447807312, 6.454782485961914, -0.34811022877693176, -1.2339016199111938, 0.1307094395160675, -0.8857421875, -0.044921875, -0.37744140625, 
68, 2927859105, 0.8979020118713379, -0.01397407054901123, -0.41880351305007935, -0.13494378328323364, 7.422297477722168, 0.8501368165016174, 6.460433483123779, -0.13978970050811768, -0.567496120929718, -0.06581577658653259, -0.884765625, -0.0439453125, -0.37744140625, 
69, 2927867438, 0.8979137539863586, -0.013956516981124878, -0.4187730550765991, -0.1349610984325409, 7.408599853515625, 0.8354878425598145, 6.423338890075684, -0.01338343694806099, -0.048270028084516525, -0.04486333578824997, -0.88525390625, -0.0458984375, -0.37646484375, 
70, 2927875771, 0.8979194164276123, -0.013941690325737, -0.41875630617141724, -0.13497626781463623, 7.359739780426025, 0.8189288973808289, 6.395951271057129, -0.01504836417734623, -0.2565906345844269, -0.02083718404173851, -0.88427734375, -0.04541015625, -0.37890625, 
71, 2927884104, 0.8979074954986572, -0.013924136757850647, -0.4187842607498169, -0.1349714696407318, 7.36276388168335, 0.7888795733451843, 6.38612174987793, 0.16464830935001373, -0.8968952894210815, 0.13649825751781464, -0.88427734375, -0.04443359375, -0.37890625, 
72, 2927892437, 0.8978822231292725, -0.0138978511095047, -0.41884320974349976, -0.13495898246765137, 7.394237995147705, 0.8071199059486389, 6.404778003692627, 0.4275527894496918, -1.3531616926193237, 0.18926358222961426, -0.883544921875, -0.046875, -0.3779296875, 
73, 2927900770, 0.8978393077850342, -0.01387697458267212, -0.4189445376396179, -0.13493221998214722, 7.392956256866455, 0.8091183304786682, 6.434868335723877, 0.46185025572776794, -1.9791734218597412, 0.31784701347351074, -0.88525390625, -0.0439453125, -0.37939453125, 
74, 2927909103, 0.8977804780006409, -0.01385989785194397, -0.4190792441368103, -0.13490751385688782, 7.37835693359375, 0.8716163039207458, 6.450931549072266, 0.521608293056488, -2.502523422241211, 0.31600284576416016, -0.88671875, -0.04345703125, -0.377197265625, 
75, 2927917436, 0.8977231979370117, -0.013813614845275879, -0.4192127287387848, -0.1348782777786255, 7.414689540863037, 0.8886248469352722, 6.451216697692871, 0.8475750088691711, -2.411541700363159, 0.16959184408187866, -0.8837890625, -0.04345703125, -0.3779296875, 
76, 2927925769, 0.8976861834526062, -0.013760536909103394, -0.4193028211593628, -0.1348501741886139, 7.435979843139648, 0.8803313970565796, 6.471467971801758, 0.9021333456039429, -1.760632872581482, 0.1972552239894867, -0.88232421875, -0.04345703125, -0.37841796875, 
77, 2927934102, 0.8976762890815735, -0.013711780309677124, -0.419331818819046, -0.13483041524887085, 7.476430416107178, 0.8727970719337463, 6.44564151763916, 0.6384347677230835, -0.8421576023101807, 0.14418251812458038, -0.88330078125, -0.0439453125, -0.376953125, 
78, 2927942435, 0.8976820707321167, -0.013671621680259705, -0.4193178117275238, -0.13483926653862, 7.46659517288208, 0.9057005643844604, 6.432774066925049, 0.3487378656864166, -0.24421894550323486, -0.08067204803228378, -0.88525390625, -0.0458984375, -0.3798828125, 
79, 2927950768, 0.8977035284042358, -0.013633444905281067, -0.41926828026771545, -0.1348545253276825, 7.4455084800720215, 0.8890769481658936, 6.4275946617126465, 0.16646690666675568, 0.29430755972862244, -0.15198206901550293, -0.884765625, -0.044921875, -0.3759765625, 
80, 2927959101, 0.8977344036102295, -0.013627097010612488, -0.419193297624588, -0.13488319516181946, 7.421281814575195, 0.8693350553512573, 6.4237823486328125, -0.2993663549423218, 0.5925596952438354, -0.08085133135318756, -0.883544921875, -0.04638671875, -0.37890625, 
81, 2927967434, 0.8977712392807007, -0.013611242175102234, -0.4191124439239502, -0.1348905861377716, 7.405923843383789, 0.8274193406105042, 6.409261226654053, -0.1198105737566948, 0.7275723218917847, 0.10629907995462418, -0.88623046875, -0.04541015625, -0.37841796875, 
82, 2927975767, 0.8978111147880554, -0.013588756322860718, -0.419033408164978, -0.13487344980239868, 7.35471773147583, 0.8142367005348206, 6.3874101638793945, 0.10901418328285217, 0.7309278249740601, 0.37937241792678833, -0.88525390625, -0.044921875, -0.37646484375, 
83, 2927984100, 0.8978252410888672, -0.013578534126281738, -0.41901326179504395, -0.13484308123588562, 7.3951239585876465, 0.7999811172485352, 6.3463454246521, 0.18905867636203766, -0.18517810106277466, 0.5849010944366455, -0.8857421875, -0.044921875, -0.3779296875, 
84, 2927992433, 0.8978063464164734, -0.013580113649368286, -0.41905927658081055, -0.1348252296447754, 7.374910354614258, 0.8769599795341492, 6.339743614196777, 0.09139158576726913, -1.2107975482940674, 0.43047282099723816, -0.88330078125, -0.04443359375, -0.37841796875, 
85, 2928000766, 0.8977572917938232, -0.013604238629341125, -0.41916516423225403, -0.13482078909873962, 7.3852643966674805, 0.8910208940505981, 6.391700744628906, -0.21514678001403809, -2.15101957321167, 0.28836506605148315, -0.88232421875, -0.04541015625, -0.37939453125, 
86, 2928009099, 0.8976986408233643, -0.013630524277687073, -0.4192897081375122, -0.1348213255405426, 7.369822025299072, 0.8917335867881775, 6.413289546966553, -0.1829240471124649, -2.4515254497528076, 0.2542981207370758, -0.88134765625, -0.042724609375, -0.37890625, 
87, 2928017432, 0.8976391553878784, -0.01362636685371399, -0.4194132089614868, -0.1348341405391693, 7.394994258880615, 0.8689953684806824, 6.4634108543396, 0.06531630456447601, -2.3708152770996094, -0.1093599870800972, -0.884765625, -0.044921875, -0.37841796875, 
88, 2928025765, 0.8975955843925476, -0.013604968786239624, -0.4195024073123932, -0.13484764099121094, 7.453619003295898, 0.8524149060249329, 6.453245162963867, 0.2712547481060028, -1.8373987674713135, -0.142837792634964, -0.8876953125, -0.044921875, -0.376708984375, 
89, 2928034098, 0.8976120948791504, -0.01350913941860199, -0.4194786548614502, -0.1348218023777008, 7.528173923492432, 0.9030680060386658, 6.345187664031982, 1.162117838859558, 0.04584948718547821, 0.007504971232265234, -0.8857421875, -0.04443359375, -0.37841796875, 
90, 2928042431, 0.8976150155067444, -0.013453975319862366, -0.4194590747356415, -0.13486909866333008, 7.4408369064331055, 0.887217104434967, 6.4245476722717285, 0.3002500534057617, -0.15700246393680573, -0.6498459577560425, -0.88671875, -0.04638671875, -0.37744140625, 
91, 2928050764, 0.8975924253463745, -0.013482436537742615, -0.4194909334182739, -0.1349172294139862, 7.376119136810303, 0.7971843481063843, 6.491462707519531, -0.703302800655365, -1.081624984741211, -0.2691415548324585, -0.884765625, -0.04443359375, -0.37890625, 
92, 2928059097, 0.8976191878318787, -0.013378456234931946, -0.4194532632827759, -0.1348665952682495, 7.41892147064209, 0.7853177785873413, 6.439526557922363, 1.436061978340149, 0.27530181407928467, 0.32414814829826355, -0.88427734375, -0.04541015625, -0.37548828125, 
93, 2928067430, 0.8976725339889526, -0.013220876455307007, -0.4193647801876068, -0.1348029375076294, 7.464250564575195, 0.9030262231826782, 6.338850498199463, 2.030363082885742, 1.1653451919555664, 0.19927874207496643, -0.883544921875, -0.04638671875, -0.37646484375, 
94, 2928075763, 0.8977341651916504, -0.013172060251235962, -0.41923514008522034, -0.13480034470558167, 7.383586406707764, 0.9929218888282776, 6.191364765167236, 0.3110080659389496, 1.5178227424621582, 0.12912136316299438, -0.884765625, -0.04638671875, -0.37841796875, 
95, 2928084096, 0.8977572917938232, -0.013292104005813599, -0.4191499948501587, -0.13489949703216553, 7.328706741333008, 0.9459639191627502, 6.242129325866699, -2.3360824584960938, 0.4649496078491211, -0.266733855009079, -0.88525390625, -0.0439453125, -0.37841796875, 
96, 2928092429, 0.8977185487747192, -0.013569623231887817, -0.41918301582336426, -0.1350267231464386, 7.352639675140381, 0.780552089214325, 6.287158966064453, -4.176311492919922, -1.6501073837280273, 0.19646118581295013, -0.88525390625, -0.04541015625, -0.37744140625, 
97, 2928100762, 0.8976877927780151, -0.013806357979774475, -0.4192178249359131, -0.13509929180145264, 7.3847527503967285, 0.7776924967765808, 6.242273807525635, -3.4104456901550293, -1.5472661256790161, 0.611795961856842, -0.88427734375, -0.04345703125, -0.37646484375, 
98, 2928109095, 0.8976486921310425, -0.013951689004898071, -0.41928064823150635, -0.1351490616798401, 7.3495988845825195, 0.8546959757804871, 6.2234039306640625, -2.041877031326294, -1.7865543365478516, 0.3858271837234497, -0.88330078125, -0.0458984375, -0.37841796875, 
99, 2928117428, 0.8975560665130615, -0.014142930507659912, -0.4194483458995819, -0.13522377610206604, 7.319239139556885, 0.9109779000282288, 6.27678108215332, -2.6262917518615723, -3.459625244140625, 0.1828344315290451, -0.884765625, -0.04541015625, -0.37744140625, 
100, 2928125761, 0.8974566459655762, -0.014340311288833618, -0.4196223020553589, -0.13532298803329468, 7.400089263916016, 0.8434812426567078, 6.3135576248168945, -2.781590700149536, -3.5952272415161133, -0.06461191177368164, -0.8837890625, -0.042724609375, -0.37646484375, 
101, 2928134094, 0.8973847031593323, -0.014426067471504211, -0.4197544455528259, -0.13538095355033875, 7.478918552398682, 0.8164536952972412, 6.39259147644043, -1.289740800857544, -2.709153652191162, -0.17416399717330933, -0.8837890625, -0.044921875, -0.375, 
102, 2928142427, 0.8973316550254822, -0.014426320791244507, -0.4198746085166931, -0.135360449552536, 7.454493045806885, 0.8156619071960449, 6.463671684265137, 0.25227463245391846, -2.3214054107666016, 0.37294331192970276, -0.8837890625, -0.04443359375, -0.37744140625, 
103, 2928150760, 0.8972909450531006, -0.014443233609199524, -0.4199709892272949, -0.13533011078834534, 7.4517822265625, 0.8377185463905334, 6.472036361694336, 0.007889184169471264, -1.976048469543457, 0.5848242044448853, -0.8857421875, -0.044189453125, -0.37353515625, 
104, 2928159093, 0.8972619771957397, -0.014548569917678833, -0.4200202226638794, -0.13535770773887634, 7.459826469421387, 0.8433691263198853, 6.433707237243652, -1.5007506608963013, -1.4788762331008911, 0.4114670753479004, -0.88623046875, -0.0439453125, -0.37353515625, 
105, 2928167426, 0.8972378969192505, -0.014737308025360107, -0.42004263401031494, -0.13542744517326355, 7.443984508514404, 0.8577107191085815, 6.445389270782471, -2.7724971771240234, -1.2811599969863892, 0.4196123778820038, -0.8857421875, -0.04443359375, -0.37548828125, 
106, 2928175759, 0.897211492061615, -0.01491101086139679, -0.42007577419281006, -0.13548019528388977, 7.418830871582031, 0.8277691006660461, 6.476338863372803, -2.4686102867126465, -1.4009578227996826, 0.5367974638938904, -0.88720703125, -0.04443359375, -0.376708984375, 
107, 2928184092, 0.8971846103668213, -0.015005335211753845, -0.42012667655944824, -0.13548940420150757, 7.43288516998291, 0.8200791478157043, 6.5062103271484375, -1.2559043169021606, -1.4718835353851318, 0.5784975290298462, -0.8857421875, -0.04541015625, -0.376953125, 
108, 2928192425, 0.8971766233444214, -0.015034854412078857, -0.42015233635902405, -0.13545987010002136, 7.431739330291748, 0.8073843121528625, 6.495854377746582, -0.2277233600616455, -0.95058274269104, 0.7520340085029602, -0.88720703125, -0.04443359375, -0.373779296875, 
109, 2928200758, 0.8971760272979736, -0.015037581324577332, -0.42016053199768066, -0.1354379951953888, 7.400467395782471, 0.8392645120620728, 6.468173027038574, -0.02042735181748867, -0.6294058561325073, 0.4896417558193207, -0.8857421875, -0.0458984375, -0.376953125, 
110, 2928209091, 0.8971637487411499, -0.015055492520332336, -0.4201907217502594, -0.1354236602783203, 7.389223098754883, 0.8388139009475708, 6.436478614807129, -0.1637646108865738, -1.0078305006027222, 0.4875413179397583, -0.884765625, -0.042236328125, -0.3759765625, 
111, 2928217424, 0.8971378207206726, -0.015070468187332153, -0.4202561378479004, -0.13539081811904907, 7.398128032684326, 0.8314035534858704, 6.448488235473633, -0.006954265292733908, -1.5066934823989868, 0.6385116577148438, -0.88720703125, -0.0439453125, -0.375244140625, 
112, 2928225757, 0.8971089720726013, -0.015049323439598083, -0.42033305764198303, -0.13534587621688843, 7.41323184967041, 0.8016596436500549, 6.454812049865723, 0.5854390263557434, -1.6135303974151611, 0.605955958366394, -0.92578125, -0.0166015625, -0.356201171875, 
113, 2928234090, 0.89710533618927, -0.015014737844467163, -0.42035675048828125, -0.13529986143112183, 7.453383922576904, 0.8211106061935425, 6.479710578918457, 0.6073134541511536, -0.7718721032142639, 0.5639486312866211, -0.92626953125, -0.015625, -0.358154296875, 
114, 2928242423, 0.897113025188446, -0.015005990862846375, -0.42034560441970825, -0.1352849304676056, 7.502981662750244, 0.8349370360374451, 6.447422504425049, 0.09892217814922333, -0.33202457427978516, 0.39030972123146057, -0.92431640625, -0.017578125, -0.359130859375, 
115, 2928250756, 0.897126317024231, -0.015030935406684875, -0.42031654715538025, -0.13528364896774292, 7.509805679321289, 0.8013759255409241, 6.399055004119873, -0.4803565442562103, -0.1262141317129135, 0.39717432856559753, -0.92431640625, -0.015625, -0.355712890625, 
116, 2928259089, 0.8971447348594666, -0.015049338340759277, -0.42027679085731506, -0.13528263568878174, 7.476101875305176, 0.7982430458068848, 6.375422477722168, -0.3637605309486389, 0.03552694246172905, 0.405191570520401, -0.92529296875, -0.0166015625, -0.355712890625, 
117, 2928267422, 0.8971691131591797, -0.015030324459075928, -0.42023810744285583, -0.13524392247200012, 7.418506622314453, 0.8468751311302185, 6.392710208892822, 0.26326313614845276, 0.12919819355010986, 0.6282915472984314, -0.92431640625, -0.01611328125, -0.357177734375, 
118, 2928275755, 0.8972052931785583, -0.014987245202064514, -0.42017486691474915, -0.13520479202270508, 7.394487380981445, 0.8595213890075684, 6.372210502624512, 0.5761153697967529, 0.5355936288833618, 0.5594404935836792, -0.9267578125, -0.0166015625, -0.355224609375, 
119, 2928284088, 0.8972278833389282, -0.014953643083572388, -0.42013704776763916, -0.13517671823501587, 7.426676273345947, 0.8768457174301147, 6.335252285003662, 0.3838548958301544, 0.13831686973571777, 0.40931543707847595, -0.92626953125, -0.0166015625, -0.356689453125, 
120, 2928292421, 0.8972456455230713, -0.014925390481948853, -0.420112282037735, -0.13513872027397156, 7.434406757354736, 0.887346088886261, 6.342761516571045, 0.4596986770629883, -0.07314144819974899, 0.593840479850769, -0.92431640625, -0.01611328125, -0.357177734375, 
121, 2928300754, 0.8972580432891846, -0.014903813600540161, -0.42010390758514404, -0.13508456945419312, 7.420273303985596, 0.8695212006568909, 6.371967315673828, 0.43749111890792847, -0.3113282024860382, 0.7759320139884949, -0.92529296875, -0.0166015625, -0.357666015625, 
122, 2928309087, 0.8972740173339844, -0.014887407422065735, -0.4200890064239502, -0.13502657413482666, 7.435975074768066, 0.8458096385002136, 6.387803554534912, 0.44965794682502747, -0.23125812411308289, 0.9046179056167603, -0.92578125, -0.01318359375, -0.358154296875, 
123, 2928317420, 0.897298276424408, -0.014855518937110901, -0.4200551211833954, -0.13497453927993774, 7.479970932006836, 0.8312819600105286, 6.384942531585693, 0.5074692368507385, 0.09210879355669022, 0.7163789868354797, -0.9248046875, -0.01708984375, -0.357177734375, 
124, 2928325753, 0.8973249197006226, -0.014832869172096252, -0.42001330852508545, -0.13492992520332336, 7.500514030456543, 0.819629967212677, 6.362353801727295, 0.4054221510887146, 0.1765589416027069, 0.7313888669013977, -0.92529296875, -0.015625, -0.357666015625, 
125, 2928334086, 0.8973667621612549, -0.014826148748397827, -0.41993945837020874, -0.1348818838596344, 7.520270347595215, 0.8368969559669495, 6.377846717834473, 0.10345588624477386, 0.6417133808135986, 0.8549519181251526, -0.923828125, -0.01611328125, -0.360107421875, 
126, 2928342419, 0.8974370360374451, -0.014792904257774353, -0.4198126196861267, -0.1348133087158203, 7.547098636627197, 0.853541374206543, 6.343207836151123, 0.5124127864837646, 1.490159511566162, 1.0540002584457397, -0.923828125, -0.01513671875, -0.358154296875, 
127, 2928350752, 0.8975256681442261, -0.014805719256401062, -0.41962605714797974, -0.13480323553085327, 7.441716194152832, 0.901779294013977, 6.4054179191589355, -0.5563796162605286, 2.275261402130127, 0.6080819964408875, -0.923828125, -0.01611328125, -0.357666015625, 
128, 2928359085, 0.8975852131843567, -0.014889344573020935, -0.41949182748794556, -0.1348147988319397, 7.410109043121338, 0.8552326560020447, 6.4087233543396, -1.399497628211975, 1.3196965456008911, 0.7291603684425354, -0.92333984375, -0.01513671875, -0.359130859375, 
129, 2928367418, 0.8976550102233887, -0.014932304620742798, -0.41933977603912354, -0.13481834530830383, 7.405205249786377, 0.836689293384552, 6.328850746154785, -0.9467405080795288, 1.6863131523132324, 0.5712230205535889, -0.9228515625, -0.0146484375, -0.360107421875, 
130, 2928375751, 0.8977090716362, -0.014959007501602173, -0.4192104935646057, -0.13485679030418396, 7.3736724853515625, 0.9218369126319885, 6.335895538330078, -0.8569113612174988, 1.3385486602783203, 0.04669474810361862, -0.9228515625, -0.01513671875, -0.359130859375, 
131, 2928384084, 0.8977078199386597, -0.015040948987007141, -0.41919076442718506, -0.13491761684417725, 7.377506732940674, 0.8882471919059753, 6.359828948974609, -1.5261088609695435, -0.41767850518226624, -0.07019581645727158, -0.92333984375, -0.01513671875, -0.359619140625, 
132, 2928392417, 0.8977475762367249, -0.015088856220245361, -0.41909876465797424, -0.13493356108665466, 7.483604907989502, 0.8226699233055115, 6.343520164489746, -0.9192563891410828, 0.7516752481460571, 0.4171277582645416, -0.92529296875, -0.01416015625, -0.358154296875, 
133, 2928400750, 0.8978226780891418, -0.015089303255081177, -0.41894063353538513, -0.1349247694015503, 7.5048747062683105, 0.8281511068344116, 6.362536430358887, -0.362582266330719, 1.8685327768325806, 0.48935994505882263, -0.921875, -0.0146484375, -0.36083984375, 
134, 2928409083, 0.8978623151779175, -0.015135124325752258, -0.41884738206863403, -0.13494563102722168, 7.407777309417725, 0.8402519822120667, 6.383033275604248, -0.9286824464797974, 0.769758939743042, 0.337365061044693, -0.923828125, -0.0146484375, -0.360107421875, 
135, 2928417416, 0.8978779315948486, -0.015232622623443604, -0.41880470514297485, -0.13496330380439758, 7.349853515625, 0.8638417720794678, 6.413318634033203, -1.510356068611145, -0.07339758425951004, 0.5894091725349426, -0.92529296875, -0.0166015625, -0.361083984375, 
136, 2928425749, 0.8978935480117798, -0.015338793396949768, -0.4187607765197754, -0.13498303294181824, 7.39748477935791, 0.8611667156219482, 6.432194232940674, -1.631306529045105, -0.07531865686178207, 0.6126412153244019, -0.9208984375, -0.013916015625, -0.35888671875, 
137, 2928434082, 0.897921085357666, -0.015473023056983948, -0.4186890721321106, -0.1350077986717224, 7.412343502044678, 0.8146624565124512, 6.4370927810668945, -1.9905205965042114, 0.2727915942668915, 0.7881500124931335, -0.92529296875, -0.01513671875, -0.361083984375, 
138, 2928442415, 0.8979570269584656, -0.01559409499168396, -0.41859573125839233, -0.135044127702713, 7.415252208709717, 0.7858892679214478, 6.4544172286987305, -1.9404191970825195, 0.6159966588020325, 0.5794451236724854, -0.92529296875, -0.013671875, -0.362548828125, 
139, 2928450748, 0.8979884386062622, -0.015701070427894592, -0.418514609336853, -0.1350747048854828, 7.408134937286377, 0.782183051109314, 6.450264930725098, -1.7687526941299438, 0.4755026698112488, 0.5202251672744751, -0.923828125, -0.01318359375, -0.357666015625, 
140, 2928459081, 0.8980118632316589, -0.015737324953079224, -0.4184456169605255, -0.13512790203094482, 7.392141342163086, 0.8011685013771057, 6.407974720001221, -0.9511974453926086, 0.4030912518501282, -0.14627009630203247, -0.9228515625, -0.013671875, -0.360107421875, 
141, 2928467414, 0.8980356454849243, -0.0157080739736557, -0.4183850884437561, -0.1351609230041504, 7.3932719230651855, 0.8141440153121948, 6.398282527923584, -0.06458628922700882, 0.4311387836933136, -0.31094399094581604, -0.9248046875, -0.0146484375, -0.359619140625, 
142, 2928475747, 0.8980540037155151, -0.015694618225097656, -0.4183327853679657, -0.13520261645317078, 7.3923845291137695, 0.8147159814834595, 6.385307312011719, -0.23794344067573547, 0.25780725479125977, -0.3010568916797638, -0.921875, -0.01416015625, -0.35888671875, 
143, 2928484080, 0.8980695009231567, -0.015720903873443604, -0.41828709840774536, -0.13523820042610168, 7.398271083831787, 0.8088365197181702, 6.404727935791016, -0.7385224103927612, 0.09702672064304352, -0.04230191186070442, -0.92333984375, -0.0126953125, -0.358642578125, 
144, 2928492413, 0.8980783224105835, -0.015767037868499756, -0.4182536005973816, -0.13527750968933105, 7.396990776062012, 0.7742165923118591, 6.405735492706299, -0.9357008337974548, -0.14066056907176971, 0.04262208566069603, -0.92041015625, -0.01513671875, -0.3623046875, 
145, 2928500746, 0.8980956673622131, -0.015849411487579346, -0.4182082414627075, -0.13529250025749207, 7.418814182281494, 0.7927709221839905, 6.443544864654541, -1.3137412071228027, -0.003957399167120457, 0.5376684665679932, -0.921875, -0.01611328125, -0.36083984375, 
146, 2928509079, 0.8981238007545471, -0.015950113534927368, -0.41814330220222473, -0.1352946162223816, 7.403988361358643, 0.7728763222694397, 6.444249629974365, -1.4548755884170532, 0.24899595975875854, 0.8526722192764282, -0.92529296875, -0.01416015625, -0.363037109375, 
147, 2928517412, 0.8981587886810303, -0.01602768898010254, -0.41806861758232117, -0.13528388738632202, 7.3913116455078125, 0.7817771434783936, 6.458337783813477, -1.1548562049865723, 0.46215760707855225, 0.8667600750923157, -0.92236328125, -0.013427734375, -0.357666015625, 
148, 2928525745, 0.8982048630714417, -0.0160629004240036, -0.41797009110450745, -0.13527852296829224, 7.362013339996338, 0.7922059893608093, 6.492371082305908, -0.6684931516647339, 0.8855865597724915, 0.6049057841300964, -0.923095703125, -0.01220703125, -0.360107421875, 
149, 2928534078, 0.8982431292533875, -0.016057386994361877, -0.4178920090198517, -0.13526618480682373, 7.355205059051514, 0.7725282907485962, 6.4520440101623535, -0.12688010931015015, 0.6789308190345764, 0.41653862595558167, -0.92578125, -0.013671875, -0.360595703125, 
150, 2928542411, 0.8982704877853394, -0.016028210520744324, -0.41783660650253296, -0.13525938987731934, 7.354531764984131, 0.806647539138794, 6.441585540771484, 0.22978530824184418, 0.3668983280658722, 0.2237403690814972, -0.923583984375, -0.01171875, -0.362548828125, 
151, 2928550744, 0.8982753157615662, -0.015975192189216614, -0.4178312420845032, -0.13524958491325378, 7.383207321166992, 0.8157387971878052, 6.411286354064941, 0.5742968320846558, -0.32308515906333923, 0.03388763219118118, -0.92236328125, -0.0126953125, -0.364013671875, 
152, 2928559077, 0.898267924785614, -0.015885204076766968, -0.4178578853607178, -0.13522765040397644, 7.410180568695068, 0.8162755370140076, 6.401773452758789, 1.1845046281814575, -0.7415192723274231, -0.04532438516616821, -0.926513671875, -0.0126953125, -0.362060546875, 
153, 2928567410, 0.8982688188552856, -0.015795662999153137, -0.41787171363830566, -0.13518905639648438, 7.437812328338623, 0.7986077666282654, 6.392045021057129, 1.2245908975601196, -0.5211344361305237, 0.16749146580696106, -0.921142578125, -0.011962890625, -0.360107421875, 
154, 2928575743, 0.8982759714126587, -0.01572158932685852, -0.4178658723831177, -0.13516885042190552, 7.438684940338135, 0.8006823062896729, 6.414548873901367, 0.9218562245368958, -0.28458693623542786, 0.0598604641854763, -0.9228515625, -0.013671875, -0.361572265625, 
155, 2928584076, 0.8982874155044556, -0.015689685940742493, -0.41784316301345825, -0.1351655125617981, 7.411954879760742, 0.8491358757019043, 6.423547267913818, 0.24484646320343018, -0.10918067395687103, 0.08998280018568039, -0.92333984375, -0.013671875, -0.360595703125, 
156, 2928592409, 0.898310661315918, -0.01570761203765869, -0.4177902936935425, -0.13517329096794128, 7.43176794052124, 0.8224122524261475, 6.419167518615723, -0.43737587332725525, 0.22809475660324097, 0.30270904302597046, -0.92431640625, -0.01513671875, -0.358154296875, 
157, 2928600742, 0.898351788520813, -0.015741556882858276, -0.4177033603191376, -0.13516485691070557, 7.400554180145264, 0.800746500492096, 6.4267659187316895, -0.6516132950782776, 0.7295446395874023, 0.6017552018165588, -0.923828125, -0.0146484375, -0.361083984375, 
158, 2928609075, 0.8983988761901855, -0.015764355659484863, -0.41761040687561035, -0.13513615727424622, 7.367249488830566, 0.7779431939125061, 6.431213855743408, -0.4075865149497986, 0.8567448854446411, 0.7996252179145813, -0.923583984375, -0.0126953125, -0.362548828125, 
159, 2928617408, 0.8984394669532776, -0.015789180994033813, -0.4175286591053009, -0.1351151168346405, 7.340140342712402, 0.7936437129974365, 6.474553108215332, -0.4023868143558502, 0.6630756855010986, 0.7382022738456726, -0.9228515625, -0.01416015625, -0.364013671875, 
160, 2928625741, 0.8984677791595459, -0.01577003300189972, -0.41747981309890747, -0.13508078455924988, 7.324940204620361, 0.7909327745437622, 6.4802470207214355, 0.2923608720302582, 0.2692824900150299, 0.6357197165489197, -0.92236328125, -0.01611328125, -0.36328125, 
161, 2928634074, 0.898497462272644, -0.01564881205558777, -0.41744378209114075, -0.13500839471817017, 7.342619895935059, 0.7801319360733032, 6.427404403686523, 1.7238892316818237, 0.31011152267456055, 0.4694320857524872, -0.92138671875, -0.01220703125, -0.361083984375, 
162, 2928642407, 0.8985147476196289, -0.015469327569007874, -0.41744160652160645, -0.1349206268787384, 7.359864711761475, 0.8145321607589722, 6.422192573547363, 2.658552646636963, -0.08615347743034363, 0.3370577096939087, -0.92431640625, -0.01611328125, -0.360595703125, 
163, 2928650740, 0.8985189199447632, -0.015260502696037292, -0.41746604442596436, -0.13484114408493042, 7.356167793273926, 0.8253745436668396, 6.403787612915039, 2.953500509262085, -0.4210852086544037, -0.0067237364128232, -0.92138671875, -0.01416015625, -0.36376953125, 
164, 2928659073, 0.8985230326652527, -0.015068262815475464, -0.41748178005218506, -0.13478681445121765, 7.40164852142334, 0.857251763343811, 6.405351638793945, 2.6234867572784424, -0.35628122091293335, -0.20167367160320282, -0.919921875, -0.01318359375, -0.36279296875, 
165, 2928667406, 0.8985289335250854, -0.014937251806259155, -0.4174823760986328, -0.13476014137268066, 7.421525001525879, 0.8937548995018005, 6.440155029296875, 1.6450484991073608, -0.24993090331554413, -0.2039533257484436, -0.92138671875, -0.01318359375, -0.362548828125, 
166, 2928675739, 0.8985422253608704, -0.014853164553642273, -0.4174574613571167, -0.1347579061985016, 7.455372333526611, 0.8921955823898315, 6.4108428955078125, 0.9238796830177307, 0.010681135579943657, -0.19094128906726837, -0.92431640625, -0.013671875, -0.363525390625, 
167, 2928684072, 0.8985697031021118, -0.01478932797908783, -0.4174104332923889, -0.13472753763198853, 7.40830659866333, 0.8745638132095337, 6.376723766326904, 0.7524950504302979, 0.3362380862236023, 0.2758653163909912, -0.92529296875, -0.013671875, -0.363525390625, 
168, 2928692405, 0.8985990285873413, -0.014779627323150635, -0.4173591434955597, -0.1346922218799591, 7.399637699127197, 0.8589419722557068, 6.363476753234863, 0.1548892855644226, 0.2830629050731659, 0.6838489174842834, -0.92138671875, -0.013671875, -0.361328125, 
169, 2928700738, 0.8985989093780518, -0.014803364872932434, -0.41736891865730286, -0.13465991616249084, 7.332214832305908, 0.8580049872398376, 6.363691329956055, -0.2179643213748932, -0.6855778098106384, 0.738817036151886, -0.92138671875, -0.013671875, -0.36474609375, 
170, 2928709071, 0.8985716700553894, -0.014823779463768005, -0.4174399971961975, -0.13461938500404358, 7.319037914276123, 0.8261318206787109, 6.403277397155762, 0.032017797231674194, -1.6088943481445312, 0.7972174882888794, -0.9228515625, -0.013671875, -0.363525390625, 
171, 2928717404, 0.8985463380813599, -0.014796093106269836, -0.41751596331596375, -0.13455605506896973, 7.392954349517822, 0.8164181113243103, 6.4155449867248535, 0.7121269702911377, -1.5593562126159668, 0.7682477235794067, -0.9228515625, -0.01416015625, -0.363037109375, 
172, 2928725737, 0.8985265493392944, -0.014731630682945251, -0.41758114099502563, -0.13449302315711975, 7.400382995605469, 0.8136880993843079, 6.452535152435303, 1.1477482318878174, -1.3271374702453613, 0.5661513805389404, -0.923828125, -0.015625, -0.363037109375, 
173, 2928734070, 0.8985048532485962, -0.014662101864814758, -0.4176425337791443, -0.13445445895195007, 7.383254051208496, 0.8436806797981262, 6.455024719238281, 1.1150134801864624, -1.2913289070129395, 0.2671564817428589, -0.92138671875, -0.0146484375, -0.36328125, 
174, 2928742403, 0.89848792552948, -0.014576345682144165, -0.41768836975097656, -0.13443467020988464, 7.377127647399902, 0.8366966247558594, 6.445269584655762, 1.1820969581604004, -1.0353658199310303, -0.04255805164575577, -0.92138671875, -0.013671875, -0.3623046875, 
175, 2928750736, 0.898476243019104, -0.014446943998336792, -0.4177280366420746, -0.1344032883644104, 7.410714149475098, 0.8552476763725281, 6.458859920501709, 1.7226852178573608, -0.8398267030715942, -0.1783134788274765, -0.9228515625, -0.013671875, -0.362060546875, 
176, 2928759069, 0.8984688520431519, -0.014305353164672852, -0.41776278614997864, -0.13435989618301392, 7.4315876960754395, 0.8513498306274414, 6.444429874420166, 1.9810304641723633, -0.7470519542694092, -0.058208346366882324, -0.923583984375, -0.0126953125, -0.363525390625, 
177, 2928767402, 0.8984653949737549, -0.014212414622306824, -0.41778498888015747, -0.13432401418685913, 7.464005947113037, 0.8507806062698364, 6.4399261474609375, 1.2666751146316528, -0.6430837512016296, 0.1044292226433754, -0.925048828125, -0.0126953125, -0.359130859375, 
178, 2928775735, 0.8984621167182922, -0.014189586043357849, -0.4177950620651245, -0.13431748747825623, 7.4178547859191895, 0.8646068572998047, 6.438652038574219, 0.22399649024009705, -0.635040819644928, 0.1505860835313797, -0.92041015625, -0.013671875, -0.36376953125, 
179, 2928784068, 0.8984614014625549, -0.01420050859451294, -0.41779589653015137, -0.13431793451309204, 7.3840155601501465, 0.8714380264282227, 6.4085612297058105, -0.26512011885643005, -0.5490539073944092, 0.2634167969226837, -0.92529296875, -0.01416015625, -0.361083984375, 
180, 2928792401, 0.8984793424606323, -0.014198079705238342, -0.41776329278945923, -0.1342998445034027, 7.42157506942749, 0.8514958620071411, 6.3667311668396, 0.012679046019911766, -0.01940278150141239, 0.49950316548347473, -0.92236328125, -0.0146484375, -0.363037109375, 
181, 2928800734, 0.8985042572021484, -0.014168187975883484, -0.41772764921188354, -0.1342473328113556, 7.423914432525635, 0.8441069722175598, 6.360529899597168, 0.48303326964378357, 0.11262580752372742, 0.7378693222999573, -0.92138671875, -0.013671875, -0.36328125, 
182, 2928809067, 0.8985115885734558, -0.01415330171585083, -0.41772693395614624, -0.1342015266418457, 7.403042316436768, 0.8352088332176208, 6.355894565582275, 0.3454335331916809, -0.4612739384174347, 0.7148420810699463, -0.921875, -0.0146484375, -0.3642578125, 
183, 2928817400, 0.8984990119934082, -0.014160990715026855, -0.4177621603012085, -0.13417461514472961, 7.378780841827393, 0.8165974020957947, 6.368584632873535, -0.005699167028069496, -1.039797067642212, 0.5537797212600708, -0.9208984375, -0.0146484375, -0.36279296875, 
184, 2928825733, 0.8984936475753784, -0.014138087630271912, -0.41777992248535156, -0.1341579258441925, 7.384487628936768, 0.8396292924880981, 6.372231960296631, 0.33439382910728455, -0.7403153777122498, 0.30183812975883484, -0.92333984375, -0.0146484375, -0.362548828125, 
185, 2928834066, 0.89849853515625, -0.01406329870223999, -0.4177815318107605, -0.13412824273109436, 7.381597995758057, 0.8529335856437683, 6.355315208435059, 0.9691658616065979, -0.3737757205963135, 0.15281453728675842, -0.91943359375, -0.0146484375, -0.3623046875, 
186, 2928842399, 0.898496150970459, -0.014005869626998901, -0.41779452562332153, -0.13411027193069458, 7.354395866394043, 0.8699931502342224, 6.376988410949707, 0.7614856362342834, -0.5995908379554749, 0.12737959623336792, -0.9248046875, -0.015625, -0.363037109375, 
187, 2928850732, 0.8984684944152832, -0.014000624418258667, -0.41785135865211487, -0.13411864638328552, 7.338536739349365, 0.8468465209007263, 6.400327205657959, -0.011692898347973824, -1.364150047302246, 0.012935186736285686, -0.92333984375, -0.013671875, -0.359130859375, 
188, 2928859065, 0.8984257578849792, -0.014019683003425598, -0.41794353723526, -0.1341157853603363, 7.381058692932129, 0.8081692457199097, 6.472344398498535, -0.14391356706619263, -1.9492303133010864, 0.28198713064193726, -0.9228515625, -0.01416015625, -0.361572265625, 
189, 2928867398, 0.8983950018882751, -0.014016106724739075, -0.4180207848548889, -0.13408178091049194, 7.412971496582031, 0.8248065114021301, 6.478346347808838, 0.24776647984981537, -1.645317554473877, 0.5347740054130554, -0.92041015625, -0.01708984375, -0.3623046875, 
190, 2928875731, 0.898388147354126, -0.013981282711029053, -0.4180520176887512, -0.13403362035751343, 7.410344123840332, 0.8304445147514343, 6.48663330078125, 0.6639978885650635, -0.901019275188446, 0.5987327694892883, -0.9228515625, -0.0166015625, -0.36181640625, 
191, 2928884064, 0.8984017372131348, -0.013935491442680359, -0.4180408716201782, -0.13398206233978271, 7.409129619598389, 0.838735044002533, 6.425206184387207, 0.716583788394928, -0.22344577312469482, 0.6075440049171448, -0.921875, -0.0146484375, -0.36279296875, 
192, 2928892397, 0.898442268371582, -0.013843923807144165, -0.4179908037185669, -0.133876234292984, 7.486842632293701, 0.8269372582435608, 6.369781017303467, 1.5782208442687988, 0.47145557403564453, 1.1077131032943726, -0.92236328125, -0.013671875, -0.361572265625, 
193, 2928900730, 0.8984595537185669, -0.013739466667175293, -0.41798633337020874, -0.13378486037254333, 7.4603800773620605, 0.8175346255302429, 6.412197113037109, 1.682394027709961, -0.18466582894325256, 0.7669669985771179, -0.921875, -0.0146484375, -0.36279296875, 
194, 2928909063, 0.8984423875808716, -0.013672411441802979, -0.418038547039032, -0.13374382257461548, 7.367249488830566, 0.8257670998573303, 6.50684118270874, 1.080459475517273, -1.1559574604034424, 0.3213561475276947, -0.9228515625, -0.015625, -0.362548828125, 
195, 2928917396, 0.8984673023223877, -0.013467401266098022, -0.41802340745925903, -0.1336439847946167, 7.39906644821167, 0.8475240468978882, 6.398369789123535, 2.9568562507629395, 0.17312662303447723, 0.31077754497528076, -0.92236328125, -0.0146484375, -0.361572265625, 
196, 2928925729, 0.898496687412262, -0.013228356838226318, -0.4179857671260834, -0.13358855247497559, 7.355480670928955, 0.8756824731826782, 6.309846878051758, 3.1421239376068115, 0.5362852811813354, -0.37761786580085754, -0.92431640625, -0.013671875, -0.363037109375, 
197, 2928934062, 0.8984361886978149, -0.013234391808509827, -0.41809219121932983, -0.13366156816482544, 7.241703033447266, 0.8844315409660339, 6.332414627075195, -0.43822112679481506, -2.1745331287384033, -0.7917744517326355, -0.9208984375, -0.01513671875, -0.36083984375, 
198, 2928942395, 0.8983209133148193, -0.013407319784164429, -0.4183019995689392, -0.13376235961914062, 7.269087314605713, 0.8313634395599365, 6.4517436027526855, -2.4296510219573975, -4.0828447341918945, -0.25971555709838867, -0.92333984375, -0.0166015625, -0.36083984375, 
199, 2928950728, 0.898247480392456, -0.013503819704055786, -0.41845595836639404, -0.13376441597938538, 7.344053745269775, 0.7599619626998901, 6.516112804412842, -1.062132716178894, -3.0155768394470215, 0.5727342963218689, -0.92138671875, -0.01318359375, -0.360107421875, 
200, 2928959061, 0.8982239961624146, -0.013474106788635254, -0.4185291528701782, -0.13369598984718323, 7.425881385803223, 0.8456478118896484, 6.443819046020508, 0.7916847467422485, -1.528696060180664, 0.8385844230651855, -0.923828125, -0.01611328125, -0.360107421875, 
201, 2928967394, 0.8981746435165405, -0.013458222150802612, -0.4186556339263916, -0.1336340606212616, 7.437002182006836, 0.90839022397995, 6.3689141273498535, 0.647604763507843, -2.3439459800720215, 0.766941487789154, -0.9228515625, -0.01513671875, -0.359130859375, 
202, 2928975727, 0.8980975151062012, -0.013455286622047424, -0.4188235402107239, -0.13362577557563782, 7.4570159912109375, 0.9043017625808716, 6.343012809753418, 0.29148995876312256, -3.042548179626465, 0.14395198225975037, -0.92138671875, -0.015625, -0.3623046875, 
203, 2928984060, 0.8980357646942139, -0.013386368751525879, -0.418956458568573, -0.13363158702850342, 7.482092380523682, 0.7985219359397888, 6.385765075683594, 0.9222918748855591, -2.3834941387176514, -0.39887771010398865, -0.923828125, -0.013671875, -0.360595703125, 
204, 2928992393, 0.8980017900466919, -0.013223633170127869, -0.4190429151058197, -0.1336052417755127, 7.4577836990356445, 0.755465567111969, 6.446575164794922, 2.223904609680176, -1.4983173608779907, -0.46009567379951477, -0.92431640625, -0.015625, -0.360595703125, 
205, 2929000726, 0.897986888885498, -0.013009205460548401, -0.4191012978553772, -0.13354280591011047, 7.4902215003967285, 0.785321831703186, 6.404228687286377, 2.9843146800994873, -0.9381085634231567, -0.2958316206932068, -0.923828125, -0.01416015625, -0.359619140625, 
206, 2929009059, 0.8979785442352295, -0.012876421213150024, -0.4191341698169708, -0.1335078477859497, 7.500993251800537, 0.8508346676826477, 6.384815692901611, 1.814742922782898, -0.744951605796814, -0.12339657545089722, -0.92529296875, -0.0146484375, -0.360107421875, 
207, 2929017392, 0.8979623913764954, -0.012901440262794495, -0.4191523790359497, -0.13355693221092224, 7.440452575683594, 0.9443823099136353, 6.353935718536377, -0.6891893744468689, -0.8699232935905457, -0.2864311635494232, -0.92578125, -0.015625, -0.360107421875, 
208, 2929025725, 0.897945761680603, -0.013005554676055908, -0.41915464401245117, -0.13365304470062256, 7.408566951751709, 0.9580057263374329, 6.371406555175781, -1.9026379585266113, -0.8254315257072449, -0.3670903742313385, -0.92333984375, -0.015625, -0.358642578125, 
209, 2929034058, 0.8979325294494629, -0.01310265064239502, -0.4191588759422302, -0.13371902704238892, 7.372020721435547, 0.8768138885498047, 6.4531378746032715, -1.7022582292556763, -0.8083724975585938, -0.07196319103240967, -0.923828125, -0.01708984375, -0.359130859375, 
210, 2929042391, 0.897935688495636, -0.013157635927200317, -0.4191407561302185, -0.13374826312065125, 7.376197814941406, 0.8572038412094116, 6.439067840576172, -0.9415152072906494, -0.3811269700527191, 0.21718308329582214, -0.92236328125, -0.01806640625, -0.36181640625, 
211, 2929050724, 0.8979576230049133, -0.013211101293563843, -0.4190916419029236, -0.1337500512599945, 7.369059085845947, 0.8394790887832642, 6.401379585266113, -0.8855993747711182, 0.12156514823436737, 0.5427912473678589, -0.92333984375, -0.01513671875, -0.360107421875, 
212, 2929059057, 0.8979654312133789, -0.01328781247138977, -0.41906315088272095, -0.133779376745224, 7.39020299911499, 0.8434918522834778, 6.370214462280273, -1.2363606691360474, -0.2660934627056122, 0.34653499722480774, -0.92333984375, -0.01611328125, -0.360107421875, 
213, 2929067390, 0.897961437702179, -0.013326391577720642, -0.41906899213790894, -0.13378402590751648, 7.428456783294678, 0.8392074704170227, 6.35432767868042, -0.6233096122741699, -0.6805317997932434, 0.3644905984401703, -0.92431640625, -0.0146484375, -0.360107421875, 
214, 2929075723, 0.897956907749176, -0.013280823826789856, -0.41908836364746094, -0.13375821709632874, 7.445115089416504, 0.854943573474884, 6.369041442871094, 0.6650223135948181, -0.7146243453025818, 0.2802453339099884, -0.92529296875, -0.01708984375, -0.357666015625, 
215, 2929084056, 0.8979543447494507, -0.013168439269065857, -0.4191144108772278, -0.1337045431137085, 7.4351348876953125, 0.851861298084259, 6.375946044921875, 1.6162327527999878, -0.6530733704566956, 0.2126493901014328, -0.921875, -0.01513671875, -0.35986328125, 
216, 2929092389, 0.8979488015174866, -0.01306578516960144, -0.4191495180130005, -0.13364237546920776, 7.414590358734131, 0.8676475286483765, 6.39477014541626, 1.6098545789718628, -0.8175935745239258, 0.3976609706878662, -0.9248046875, -0.0166015625, -0.362060546875, 
217, 2929100722, 0.8979332447052002, -0.012993738055229187, -0.419196754693985, -0.13360515236854553, 7.417119026184082, 0.8679617047309875, 6.3443498611450195, 1.0591742992401123, -1.060416579246521, 0.21459604799747467, -0.92333984375, -0.01513671875, -0.357177734375, 
218, 2929109055, 0.8978900909423828, -0.012933492660522461, -0.41929560899734497, -0.13359171152114868, 7.4264984130859375, 0.8887746930122375, 6.3432297706604, 0.9363027215003967, -1.8872184753417969, -0.02168244868516922, -0.9248046875, -0.017578125, -0.359130859375, 
219, 2929117388, 0.8978305459022522, -0.012910664081573486, -0.4194251596927643, -0.13358721137046814, 7.454632759094238, 0.8633754253387451, 6.346444129943848, 0.4077017605304718, -2.4148972034454346, -0.001062990864738822, -0.923828125, -0.015625, -0.358154296875, 
220, 2929125721, 0.8977893590927124, -0.01294960081577301, -0.41950562596321106, -0.13360688090324402, 7.445921421051025, 0.8155167102813721, 6.423299312591553, -0.5279478430747986, -1.8279471397399902, 0.1334245651960373, -0.92626953125, -0.01611328125, -0.359130859375, 
221, 2929134054, 0.8977841138839722, -0.013021662831306458, -0.41950497031211853, -0.13363811373710632, 7.423757076263428, 0.8366966247558594, 6.4712700843811035, -1.2000141143798828, -0.6640875339508057, 0.2281203716993332, -0.921875, -0.017578125, -0.359375, 
222, 2929142387, 0.8978186249732971, -0.01305478811264038, -0.41942328214645386, -0.13365831971168518, 7.429507732391357, 0.8845348358154297, 6.418903827667236, -0.7116530537605286, 0.6274718642234802, 0.28918465971946716, -0.92236328125, -0.01611328125, -0.357421875, 
223, 2929150720, 0.8978476524353027, -0.013011649250984192, -0.4193691909313202, -0.1336374580860138, 7.443068981170654, 0.8447726964950562, 6.373583793640137, 0.4299861192703247, 0.39561185240745544, 0.2779656648635864, -0.92431640625, -0.01611328125, -0.358642578125, 
224, 2929159053, 0.8978534936904907, -0.012952670454978943, -0.419365793466568, -0.1336139738559723, 7.4803643226623535, 0.8393508195877075, 6.355130195617676, 0.7918127775192261, -0.3460867404937744, 0.21103568375110626, -0.92431640625, -0.01611328125, -0.359130859375, 
225, 2929167386, 0.8978615403175354, -0.012882933020591736, -0.4193532466888428, -0.13360679149627686, 7.5048699378967285, 0.8510669469833374, 6.350866794586182, 0.7527767419815063, -0.18651004135608673, -0.089688241481781, -0.92578125, -0.015625, -0.360595703125, 
226, 2929175719, 0.8978992700576782, -0.012805059552192688, -0.41926848888397217, -0.1336267590522766, 7.571749210357666, 0.8393360376358032, 6.346166610717773, 0.5690457820892334, 0.896395742893219, -0.4036419093608856, -0.92529296875, -0.0146484375, -0.360107421875, 
227, 2929184052, 0.8979688882827759, -0.012754708528518677, -0.4191141128540039, -0.1336483359336853, 7.5676093101501465, 0.8082122206687927, 6.320568084716797, 0.14523272216320038, 1.8748595714569092, -0.16427691280841827, -0.92431640625, -0.0146484375, -0.357666015625, 
228, 2929192385, 0.8980661630630493, -0.012739807367324829, -0.41890668869018555, -0.13364624977111816, 7.529160499572754, 0.7827679514884949, 6.272356986999512, -0.2336658388376236, 2.6220009326934814, 0.40514034032821655, -0.9228515625, -0.015625, -0.35986328125, 
229, 2929200718, 0.8981637358665466, -0.01282675564289093, -0.41868090629577637, -0.13369011878967285, 7.359890937805176, 0.8315687775611877, 6.392391681671143, -1.8524854183197021, 2.6843204498291016, 0.38534054160118103, -0.92333984375, -0.015625, -0.359130859375, 
230, 2929209051, 0.8982319831848145, -0.013004466891288757, -0.41851770877838135, -0.13372552394866943, 7.318539142608643, 0.8236338496208191, 6.4345221519470215, -2.762251615524292, 1.560598373413086, 0.9809226393699646, -0.92333984375, -0.015625, -0.360107421875, 
231, 2929217384, 0.8983126878738403, -0.013060718774795532, -0.4183533191680908, -0.13369235396385193, 7.390272617340088, 0.7962744235992432, 6.345000267028809, -0.919948160648346, 1.8726054430007935, 1.119572639465332, -0.9228515625, -0.015625, -0.361083984375, 
232, 2929225717, 0.8984036445617676, -0.013053029775619507, -0.41815924644470215, -0.13368895649909973, 7.382268905639648, 0.8584789037704468, 6.329130172729492, -0.3074604868888855, 2.4043314456939697, 0.435313880443573, -0.9248046875, -0.015625, -0.359130859375, 
233, 2929234050, 0.8984150886535645, -0.013119429349899292, -0.41812244057655334, -0.13372117280960083, 7.3741302490234375, 0.9077315926551819, 6.366066932678223, -1.2003984451293945, -0.11005157232284546, 0.219155415892601, -0.92578125, -0.0146484375, -0.362060546875, 
234, 2929242383, 0.8984407186508179, -0.013192355632781982, -0.41805219650268555, -0.13376066088676453, 7.377950191497803, 0.8728471398353577, 6.3683762550354, -1.3391505479812622, 0.35867613554000854, 0.22333049774169922, -0.92236328125, -0.0166015625, -0.36181640625, 
235, 2929250716, 0.8984940052032471, -0.01319769024848938, -0.4179321527481079, -0.13377737998962402, 7.44080924987793, 0.8304665088653564, 6.484767436981201, -0.5011553764343262, 1.269057273864746, 0.15053486824035645, -0.92626953125, -0.01416015625, -0.360595703125, 
236, 2929259049, 0.8985664248466492, -0.013153895735740662, -0.417781263589859, -0.1337660551071167, 7.390364170074463, 0.7753528952598572, 6.463207244873047, 0.25329917669296265, 1.8296760320663452, 0.28029653429985046, -0.921875, -0.015625, -0.36328125, 
237, 2929267382, 0.8986508250236511, -0.01312340795993805, -0.4176093339920044, -0.13373923301696777, 7.3537373542785645, 0.8110437393188477, 6.443652153015137, 0.10115060210227966, 2.1460886001586914, 0.548528790473938, -0.9228515625, -0.015625, -0.362548828125, 
238, 2929275715, 0.898731529712677, -0.01313239336013794, -0.41743719577789307, -0.1337333619594574, 7.321036338806152, 0.8700180053710938, 6.420485019683838, -0.4640915095806122, 2.044630527496338, 0.5367974638938904, -0.92333984375, -0.01513671875, -0.363525390625, 
239, 2929284048, 0.898790717124939, -0.013173118233680725, -0.41730961203575134, -0.13373002409934998, 7.321878910064697, 0.8625168800354004, 6.414454936981201, -0.8357028961181641, 1.3265869617462158, 0.6148185729980469, -0.92236328125, -0.01611328125, -0.36376953125, 
240, 2929292381, 0.8988213539123535, -0.013193786144256592, -0.4172555208206177, -0.13369113206863403, 7.370068550109863, 0.8691491484642029, 6.443474292755127, -0.2559758424758911, 0.2847278416156769, 0.873752772808075, -0.921875, -0.01513671875, -0.36474609375, 
241, 2929300714, 0.8988149166107178, -0.01319006085395813, -0.4172821640968323, -0.13365083932876587, 7.380810260772705, 0.9088326692581177, 6.500975131988525, 0.24866299331188202, -0.8937190771102905, 0.6992685794830322, -0.923828125, -0.01416015625, -0.363525390625, 
242, 2929309047, 0.8988004922866821, -0.01317305862903595, -0.41732150316238403, -0.13362765312194824, 7.369123458862305, 0.9044269323348999, 6.523571491241455, 0.3312945067882538, -1.0710463523864746, 0.39351144433021545, -0.92333984375, -0.01416015625, -0.364013671875, 
243, 2929317380, 0.8988290429115295, -0.013154849410057068, -0.41726553440093994, -0.13361188769340515, 7.383057117462158, 0.8835692405700684, 6.511075496673584, 0.08934245258569717, 0.37186744809150696, 0.3592652380466461, -0.92138671875, -0.01513671875, -0.36279296875, 
244, 2929325713, 0.8988924622535706, -0.013128846883773804, -0.41713690757751465, -0.13358911871910095, 7.393492221832275, 0.8578121066093445, 6.530065536499023, 0.14543762803077698, 1.4687970876693726, 0.5084682106971741, -0.92236328125, -0.01416015625, -0.362060546875, 
245, 2929334046, 0.8989445567131042, -0.013129398226737976, -0.4170311689376831, -0.1335691511631012, 7.374317169189453, 0.8430982828140259, 6.55299186706543, -0.20497791469097137, 1.0872986316680908, 0.5726574659347534, -0.92529296875, -0.01416015625, -0.364501953125, 
246, 2929342379, 0.8989894986152649, -0.013179600238800049, -0.4169318675994873, -0.13357099890708923, 7.3321146965026855, 0.8712377548217773, 6.57865571975708, -0.8893902897834778, 0.8641987442970276, 0.6001671552658081, -0.92236328125, -0.01513671875, -0.36474609375, 
247, 2929350712, 0.8990613222122192, -0.013234421610832214, -0.4167790114879608, -0.13356006145477295, 7.307473659515381, 0.8697578310966492, 6.504687786102295, -1.0105969905853271, 1.6832906007766724, 0.8157109618186951, -0.921875, -0.015869140625, -0.36572265625, 
248, 2929359045, 0.8991391658782959, -0.013285502791404724, -0.4166146516799927, -0.13354381918907166, 7.298895835876465, 0.8686844110488892, 6.446975231170654, -0.9546296000480652, 1.8687888383865356, 0.8741369843482971, -0.92138671875, -0.01513671875, -0.36474609375, 
249, 2929367378, 0.8991804122924805, -0.013346731662750244, -0.4165256917476654, -0.13353711366653442, 7.262331485748291, 0.821983277797699, 6.415492057800293, -0.9378266930580139, 0.6947348713874817, 0.7766492366790771, -0.923828125, -0.01416015625, -0.363525390625, 
250, 2929375711, 0.8991758823394775, -0.013389259576797485, -0.41653886437416077, -0.1335219144821167, 7.227412223815918, 0.811225414276123, 6.406952381134033, -0.48737481236457825, -0.7972046136856079, 0.6686339974403381, -0.92236328125, -0.01513671875, -0.36328125, 
251, 2929384044, 0.8991549015045166, -0.013349398970603943, -0.4165983200073242, -0.13348239660263062, 7.275113582611084, 0.8548219799995422, 6.382073879241943, 0.6968607902526855, -1.305314064025879, 0.4169997274875641, -0.92236328125, -0.0126953125, -0.361572265625, 
252, 2929392377, 0.8991254568099976, -0.013242051005363464, -0.41667747497558594, -0.13344353437423706, 7.3097429275512695, 0.861506462097168, 6.412150859832764, 1.6205613613128662, -1.4844088554382324, 0.04313437268137932, -0.923828125, -0.01513671875, -0.362548828125, 
253, 2929400710, 0.8990845680236816, -0.013098552823066711, -0.4167845845222473, -0.13339895009994507, 7.346625328063965, 0.8380998969078064, 6.400625228881836, 2.0891995429992676, -1.8184443712234497, -0.15777090191841125, -0.9228515625, -0.01416015625, -0.365478515625, 
254, 2929409043, 0.8990252614021301, -0.012974485754966736, -0.4169221520423889, -0.1333812177181244, 7.384276390075684, 0.8465672135353088, 6.460641384124756, 1.814025640487671, -2.343254327774048, -0.37321221828460693, -0.92138671875, -0.01513671875, -0.36279296875, 
255, 2929417376, 0.8989681005477905, -0.012888014316558838, -0.4170517921447754, -0.1333700716495514, 7.433302879333496, 0.873744785785675, 6.494640350341797, 1.2315324544906616, -2.287850856781006, -0.27872133255004883, -0.92333984375, -0.0146484375, -0.365478515625, 
256, 2929425709, 0.898943305015564, -0.012852773070335388, -0.41709989309310913, -0.13338953256607056, 7.475157260894775, 0.9138257503509521, 6.519909381866455, 0.3267863690853119, -1.1979905366897583, -0.26007410883903503, -0.9248046875, -0.014892578125, -0.364501953125, 
257, 2929434042, 0.8989424705505371, -0.012867465615272522, -0.4170893430709839, -0.13342636823654175, 7.43463659286499, 0.8815303444862366, 6.529308795928955, -0.5395510196685791, -0.40871354937553406, -0.16312424838542938, -0.9228515625, -0.01611328125, -0.36376953125, 
258, 2929442375, 0.8989657163619995, -0.012883424758911133, -0.417030394077301, -0.13345223665237427, 7.419035911560059, 0.8557375073432922, 6.455032825469971, -0.5123744010925293, 0.31013715267181396, 0.07794412225484848, -0.92431640625, -0.014404296875, -0.365966796875, 
259, 2929450708, 0.8990054130554199, -0.012872830033302307, -0.41694575548171997, -0.13345059752464294, 7.381454944610596, 0.8532555103302002, 6.408926010131836, -0.136972114443779, 0.780081570148468, 0.25550201535224915, -0.92529296875, -0.015380859375, -0.365478515625, 
260, 2929459041, 0.899036169052124, -0.0128449946641922, -0.41688013076782227, -0.13345134258270264, 7.357880115509033, 0.8409737348556519, 6.373040676116943, 0.14297866821289062, 0.5085194110870361, 0.134987011551857, -0.9228515625, -0.01611328125, -0.36474609375, 
261, 2929467374, 0.8990502953529358, -0.012842819094657898, -0.41684994101524353, -0.13345012068748474, 7.348959445953369, 0.8378840088844299, 6.350637435913086, -0.14665430784225464, -0.05528832599520683, 0.24033835530281067, -0.923828125, -0.015380859375, -0.364501953125, 
262, 2929475707, 0.8990532159805298, -0.012837529182434082, -0.41684791445732117, -0.1334371566772461, 7.3477864265441895, 0.8467678427696228, 6.352296829223633, 0.00832462590187788, -0.4648086726665497, 0.3446139097213745, -0.923828125, -0.0146484375, -0.362060546875, 
263, 2929484040, 0.8990296125411987, -0.01283407211303711, -0.4169026017189026, -0.13342595100402832, 7.353845119476318, 0.8364462852478027, 6.349171161651611, 0.138137549161911, -1.33515465259552, 0.31556737422943115, -0.923828125, -0.0146484375, -0.364501953125, 
264, 2929492373, 0.898989200592041, -0.012791499495506287, -0.4170043468475342, -0.13338446617126465, 7.356550216674805, 0.8219032287597656, 6.3805742263793945, 0.8667089343070984, -1.946233868598938, 0.41825488209724426, -0.92333984375, -0.0146484375, -0.364990234375, 
265, 2929500706, 0.8989466428756714, -0.012702509760856628, -0.41711705923080444, -0.13332736492156982, 7.394737243652344, 0.7727810740470886, 6.398860454559326, 1.4976643323898315, -1.9991270303726196, 0.30491188168525696, -0.92236328125, -0.013671875, -0.363037109375, 
266, 2929509039, 0.8988988399505615, -0.012633934617042542, -0.4172348082065582, -0.13328802585601807, 7.455060958862305, 0.7725840210914612, 6.445775032043457, 1.1864770650863647, -2.1404409408569336, 0.20934514701366425, -0.92333984375, -0.01318359375, -0.363525390625, 
267, 2929517372, 0.8988612294197083, -0.012633860111236572, -0.4173155426979065, -0.1332891285419464, 7.477783679962158, 0.8064829111099243, 6.493357181549072, 0.007402513641864061, -1.727564811706543, 0.1115499883890152, -0.92529296875, -0.015380859375, -0.363525390625, 
268, 2929525705, 0.8988595604896545, -0.012621089816093445, -0.4173162579536438, -0.13329917192459106, 7.441595077514648, 0.9152705073356628, 6.48825740814209, 0.030788308009505272, -0.521467387676239, 0.045285966247320175, -0.923828125, -0.01513671875, -0.364013671875, 
269, 2929534038, 0.898888349533081, -0.012572139501571655, -0.4172607660293579, -0.13328304886817932, 7.401189804077148, 0.897710382938385, 6.429132461547852, 0.4731462001800537, 0.42409488558769226, 0.19000640511512756, -0.925537109375, -0.01171875, -0.362548828125, 
270, 2929542371, 0.8989138603210449, -0.01252928376197815, -0.41721847653388977, -0.13324755430221558, 7.3802032470703125, 0.867575466632843, 6.384949684143066, 0.5557008385658264, 0.21057461202144623, 0.46438607573509216, -0.923828125, -0.015869140625, -0.364501953125, 
271, 2929550704, 0.898918867111206, -0.012509286403656006, -0.4172194302082062, -0.13321265578269958, 7.3619561195373535, 0.823063313961029, 6.366366386413574, 0.3225344121456146, -0.46721649169921875, 0.5323407053947449, -0.92333984375, -0.015869140625, -0.364501953125, 
272, 2929559037, 0.8989144563674927, -0.01250457763671875, -0.41723787784576416, -0.13318514823913574, 7.343602657318115, 0.8306884765625, 6.383905410766602, 0.1454632580280304, -0.7808884382247925, 0.5204557180404663, -0.92431640625, -0.01318359375, -0.363525390625, 
273, 2929567370, 0.8988981246948242, -0.01246953010559082, -0.41728413105010986, -0.1331537961959839, 7.346305847167969, 0.8423473834991455, 6.397388458251953, 0.5672784447669983, -1.1210966110229492, 0.3557817339897156, -0.923828125, -0.015625, -0.364013671875, 
274, 2929575703, 0.8988678455352783, -0.012406572699546814, -0.41736626625061035, -0.13310673832893372, 7.365237712860107, 0.8678587675094604, 6.389326572418213, 1.1256431341171265, -1.6098673343658447, 0.39917218685150146, -0.9248046875, -0.013671875, -0.364013671875, 
275, 2929584036, 0.8988324403762817, -0.012305468320846558, -0.41746535897254944, -0.13304415345191956, 7.392220973968506, 0.8790557384490967, 6.3988938331604, 1.6558066606521606, -1.7664730548858643, 0.320024311542511, -0.9248046875, -0.01416015625, -0.364013671875, 
276, 2929592369, 0.898786187171936, -0.012192502617835999, -0.4175839424133301, -0.13299477100372314, 7.354877471923828, 0.8448993563652039, 6.465202331542969, 1.8029860258102417, -2.063521385192871, 0.09067440032958984, -0.923828125, -0.01611328125, -0.363037109375, 
277, 2929600702, 0.8987371921539307, -0.01213565468788147, -0.4177030324935913, -0.13295769691467285, 7.348495006561279, 0.8520582318305969, 6.4935994148254395, 0.9973414540290833, -2.1698715686798096, 0.22983650863170624, -0.9248046875, -0.016357421875, -0.363037109375, 
278, 2929609035, 0.8986978530883789, -0.012083441019058228, -0.4177975356578827, -0.13293129205703735, 7.394069671630859, 0.9050906300544739, 6.487756252288818, 0.8846132159233093, -1.8308926820755005, 0.1783263087272644, -0.92041015625, -0.01513671875, -0.36328125, 
279, 2929617368, 0.8986769914627075, -0.012000396847724915, -0.4178580641746521, -0.13288965821266174, 7.405588626861572, 0.9227726459503174, 6.447412014007568, 1.2439552545547485, -1.2374109029769897, 0.19602574408054352, -0.92626953125, -0.01513671875, -0.362548828125, 
280, 2929625701, 0.8986727595329285, -0.011952430009841919, -0.4178779125213623, -0.13285988569259644, 7.44088077545166, 0.8866163492202759, 6.422080039978027, 0.7202209830284119, -0.7144193649291992, 0.31869229674339294, -0.9228515625, -0.01513671875, -0.363525390625, 
281, 2929634034, 0.8986738920211792, -0.011986970901489258, -0.41787540912628174, -0.13285714387893677, 7.4147162437438965, 0.8410527110099792, 6.4313578605651855, -0.5432394742965698, -0.5414977669715881, 0.44176867604255676, -0.9228515625, -0.01611328125, -0.36328125, 
282, 2929642367, 0.8986873626708984, -0.012042611837387085, -0.4178459346294403, -0.1328536868095398, 7.390017032623291, 0.8668888211250305, 6.415821075439453, -0.8108314275741577, -0.1906595528125763, 0.6217598915100098, -0.927490234375, -0.013671875, -0.363037109375, 
283, 2929650700, 0.8986989259719849, -0.012033089995384216, -0.4178297519683838, -0.13282737135887146, 7.33808708190918, 0.8780472278594971, 6.379899501800537, 0.11257455497980118, -0.23510023951530457, 0.4997849464416504, -0.92333984375, -0.01416015625, -0.362060546875, 
284, 2929659033, 0.8986906409263611, -0.011947453022003174, -0.4178626537322998, -0.1327868402004242, 7.320112228393555, 0.8851142525672913, 6.364785671234131, 1.2577869892120361, -0.8345245122909546, 0.21549257636070251, -0.92333984375, -0.01611328125, -0.363037109375, 
285, 2929667366, 0.8986654877662659, -0.011827647686004639, -0.4179387390613556, -0.13272884488105774, 7.348699569702148, 0.8316085934638977, 6.364603519439697, 1.8203011751174927, -1.3898156881332397, 0.17650768160820007, -0.9228515625, -0.01611328125, -0.36376953125, 
286, 2929675699, 0.8986252546310425, -0.011746108531951904, -0.4180415868759155, -0.13268446922302246, 7.40176248550415, 0.8191506862640381, 6.396243572235107, 1.349639654159546, -1.8898309469223022, 0.21649150550365448, -0.9248046875, -0.01513671875, -0.363525390625, 
287, 2929684032, 0.8985902070999146, -0.011691316962242126, -0.41813018918037415, -0.13264751434326172, 7.424413681030273, 0.8186812996864319, 6.418323516845703, 0.9174762964248657, -1.7170629501342773, 0.2717670202255249, -0.92578125, -0.015380859375, -0.365478515625, 
288, 2929692365, 0.8985624313354492, -0.011660084128379822, -0.41819870471954346, -0.13262230157852173, 7.464714050292969, 0.8253164887428284, 6.443144798278809, 0.5792915225028992, -1.4814120531082153, 0.3139536678791046, -0.925048828125, -0.01171875, -0.362060546875, 
289, 2929700698, 0.898544192314148, -0.011625126004219055, -0.41824251413345337, -0.1326102614402771, 7.4666748046875, 0.8859299421310425, 6.445320129394531, 0.4506056308746338, -1.098504900932312, 0.11534089595079422, -0.9248046875, -0.01611328125, -0.360595703125, 
290, 2929709031, 0.8985377550125122, -0.011607557535171509, -0.41825777292251587, -0.13260725140571594, 7.430522441864014, 0.9090688824653625, 6.466169357299805, 0.1950780302286148, -0.7201570868492126, 0.17158974707126617, -0.92626953125, -0.017333984375, -0.364013671875, 
291, 2929717364, 0.8985588550567627, -0.011563628911972046, -0.4182198941707611, -0.13258782029151917, 7.437998294830322, 0.8941625952720642, 6.464868068695068, 0.4620039165019989, 0.15125206112861633, 0.24038957059383392, -0.9267578125, -0.01611328125, -0.360595703125, 
292, 2929725697, 0.8986045122146606, -0.011493027210235596, -0.4181291460990906, -0.13257041573524475, 7.42936372756958, 0.901258647441864, 6.438494682312012, 0.7514703869819641, 0.9826900362968445, 0.15996089577674866, -0.92236328125, -0.017333984375, -0.36376953125, 
293, 2929734030, 0.8986376523971558, -0.011390253901481628, -0.4180598855018616, -0.13257363438606262, 7.394093990325928, 0.89256751537323, 6.409355163574219, 1.001823902130127, 0.720553994178772, -0.3530794084072113, -0.921875, -0.015625, -0.36181640625, 
294, 2929742363, 0.8986610174179077, -0.011274635791778564, -0.4180237650871277, -0.1325390338897705, 7.449070930480957, 0.8715810775756836, 6.3265252113342285, 1.4895702600479126, 0.2575511336326599, 0.05332883447408676, -0.923828125, -0.0146484375, -0.362060546875, 
295, 2929750696, 0.8986778259277344, -0.011135652661323547, -0.417995423078537, -0.13252651691436768, 7.445501327514648, 0.8947633504867554, 6.327053546905518, 1.6126208305358887, 0.18373090028762817, -0.40220752358436584, -0.9248046875, -0.01611328125, -0.362060546875, 
296, 2929759029, 0.8986396193504333, -0.01107858121395111, -0.41806596517562866, -0.13256770372390747, 7.334102153778076, 0.8301954865455627, 6.4714741706848145, 0.5120029449462891, -1.5100231170654297, -0.6774837374687195, -0.92578125, -0.019287109375, -0.361572265625, 
297, 2929767362, 0.8986151218414307, -0.010930776596069336, -0.4181342124938965, -0.13253113627433777, 7.400097846984863, 0.8346421718597412, 6.3982625007629395, 2.028749704360962, -1.2339529991149902, -0.24562771618366241, -0.9228515625, -0.0166015625, -0.36328125, 
298, 2929775695, 0.8986309170722961, -0.010661080479621887, -0.41813337802886963, -0.1324482560157776, 7.510974884033203, 0.8804588317871094, 6.334803104400635, 3.7355287075042725, 0.051510222256183624, -0.25684672594070435, -0.9228515625, -0.017333984375, -0.3642578125, 
299, 2929784028, 0.8986369371414185, -0.010530829429626465, -0.4181251525878906, -0.13244342803955078, 7.415702819824219, 0.9843098521232605, 6.305481433868408, 1.4947186708450317, -0.1409679353237152, -0.4696754515171051, -0.923828125, -0.0166015625, -0.363037109375, 
300, 2929792361, 0.8986543416976929, -0.010678350925445557, -0.4180469214916229, -0.13256096839904785, 7.33546781539917, 0.9965651631355286, 6.36280632019043, -2.720423936843872, 0.28659766912460327, -0.32590270042419434, -0.92529296875, -0.018310546875, -0.360595703125, 
301, 2929800694, 0.8986667990684509, -0.010938078165054321, -0.4179713726043701, -0.13269400596618652, 7.345122337341309, 0.8576374650001526, 6.438419342041016, -4.238579750061035, 0.03644905984401703, 0.09141721576452255, -0.92578125, -0.015380859375, -0.363525390625, 
302, 2929809027, 0.8986887335777283, -0.011149361729621887, -0.417896568775177, -0.1327635645866394, 7.406992435455322, 0.7576411366462708, 6.381937503814697, -3.271719217300415, 0.16049878299236298, 0.6138194799423218, -0.9228515625, -0.01708984375, -0.361328125, 
303, 2929817360, 0.8986794352531433, -0.011244356632232666, -0.41790860891342163, -0.13278043270111084, 7.369393348693848, 0.8217964768409729, 6.336099624633789, -1.3371270895004272, -0.9015313982963562, 0.548528790473938, -0.92333984375, -0.0166015625, -0.36279296875, 
304, 2929825693, 0.898617148399353, -0.011274993419647217, -0.41803786158561707, -0.13279256224632263, 7.334020137786865, 0.8899986743927002, 6.3232316970825195, -0.300647109746933, -2.538383722305298, 0.13260489702224731, -0.9248046875, -0.017578125, -0.361083984375, 
305, 2929834026, 0.898540735244751, -0.011255338788032532, -0.41819703578948975, -0.13280990719795227, 7.370932102203369, 0.8839327692985535, 6.372718811035156, 0.29453805088996887, -2.8816142082214355, -0.28512483835220337, -0.92431640625, -0.01611328125, -0.361572265625, 
306, 2929842359, 0.8984841108322144, -0.011133670806884766, -0.41832059621810913, -0.13281387090682983, 7.389315128326416, 0.8208436965942383, 6.4416937828063965, 1.621201753616333, -2.156782627105713, -0.6300205588340759, -0.92333984375, -0.0166015625, -0.361328125, 
307, 2929850692, 0.8984424471855164, -0.01095302402973175, -0.4184243381023407, -0.13278424739837646, 7.421058177947998, 0.8225283622741699, 6.45470666885376, 2.4574809074401855, -1.7091739177703857, -0.5571480393409729, -0.92578125, -0.017333984375, -0.360595703125, 
308, 2929859025, 0.8984040021896362, -0.010810062289237976, -0.4185209274291992, -0.13275080919265747, 7.464138507843018, 0.8906859159469604, 6.471551895141602, 2.0390210151672363, -1.6875041723251343, -0.26586294174194336, -0.92333984375, -0.018798828125, -0.36181640625, 
309, 2929867358, 0.898367166519165, -0.010821044445037842, -0.4185899496078491, -0.13278180360794067, 7.480650424957275, 0.9723145365715027, 6.460934162139893, -0.32223987579345703, -1.5961381196975708, -0.19017286598682404, -0.92431640625, -0.0166015625, -0.361083984375, 
310, 2929875691, 0.8983566761016846, -0.01092478632926941, -0.418584406375885, -0.13286146521568298, 7.451300621032715, 0.9590228796005249, 6.448891639709473, -1.838858723640442, -0.6982312202453613, -0.1736004650592804, -0.92529296875, -0.017822265625, -0.362060546875, 
311, 2929884024, 0.8983666300773621, -0.011054664850234985, -0.41853177547454834, -0.13295000791549683, 7.411503791809082, 0.9325929880142212, 6.461559772491455, -2.337158203125, -0.030186377465724945, -0.11297159641981125, -0.92626953125, -0.018798828125, -0.362548828125, 
312, 2929892357, 0.8983933925628662, -0.011135846376419067, -0.41845616698265076, -0.1330002248287201, 7.414258003234863, 0.873662531375885, 6.428596019744873, -1.4743938446044922, 0.421968936920166, 0.17107748985290527, -0.92724609375, -0.015869140625, -0.363037109375, 
313, 2929900690, 0.8984315991401672, -0.011141851544380188, -0.41837066411972046, -0.13301047682762146, 7.369574069976807, 0.8691776990890503, 6.398990631103516, -0.4120946228504181, 0.7524693608283997, 0.1982029378414154, -0.92578125, -0.015625, -0.361572265625, 
314, 2929909023, 0.8984564542770386, -0.011180713772773743, -0.41829878091812134, -0.13306504487991333, 7.314117908477783, 0.8998491168022156, 6.388497352600098, -1.0043212175369263, 0.4395146369934082, -0.1584368497133255, -0.92578125, -0.017333984375, -0.361572265625, 
315, 2929917356, 0.8984509706497192, -0.011210665106773376, -0.41828760504722595, -0.13313475251197815, 7.3185529708862305, 0.8903357982635498, 6.315423965454102, -0.9204347133636475, -0.4530005156993866, -0.49019238352775574, -0.92333984375, -0.017822265625, -0.3623046875, 
316, 2929925689, 0.8984102606773376, -0.011201560497283936, -0.41836053133010864, -0.1331806778907776, 7.346525192260742, 0.8748698234558105, 6.352416515350342, -0.15244311094284058, -1.625389575958252, -0.49733880162239075, -0.9248046875, -0.01708984375, -0.361083984375, 
317, 2929934022, 0.8983414173126221, -0.011167213320732117, -0.41850578784942627, -0.13319215178489685, 7.36039400100708, 0.867565929889679, 6.376773834228516, 0.5310856103897095, -2.6541855335235596, -0.25256916880607605, -0.92333984375, -0.01806640625, -0.36083984375, 
318, 2929942355, 0.8982832431793213, -0.011144325137138367, -0.4186250567436218, -0.1332114040851593, 7.39133882522583, 0.8937452435493469, 6.427382946014404, 0.3184361457824707, -2.288670301437378, -0.24135012924671173, -0.92626953125, -0.01513671875, -0.360107421875, 
319, 2929950688, 0.8982564210891724, -0.011159688234329224, -0.4186718463897705, -0.13324418663978577, 7.429623126983643, 0.9188110828399658, 6.408382892608643, -0.42500418424606323, -1.2708117961883545, -0.1655319780111313, -0.92724609375, -0.017333984375, -0.363525390625, 
320, 2929959021, 0.8982377052307129, -0.011209383606910706, -0.41869646310806274, -0.13328835368156433, 7.449707508087158, 0.9106069803237915, 6.3933610916137695, -0.9090620875358582, -1.0251201391220093, -0.0629982128739357, -0.92529296875, -0.017578125, -0.359619140625, 
321, 2929967354, 0.8982301950454712, -0.01127767562866211, -0.4187024235725403, -0.13331452012062073, 7.436474800109863, 0.9038974046707153, 6.40266752243042, -1.1129770278930664, -0.7524309754371643, 0.26303255558013916, -0.92333984375, -0.01611328125, -0.362548828125, 
322, 2929975687, 0.8982335329055786, -0.011359378695487976, -0.4186827540397644, -0.1333470642566681, 7.4019551277160645, 0.8986188173294067, 6.441721439361572, -1.3071839809417725, -0.4096100330352783, 0.31784698367118835, -0.9248046875, -0.017578125, -0.360595703125, 
323, 2929984020, 0.898250937461853, -0.011440247297286987, -0.4186299741268158, -0.13338863849639893, 7.380568027496338, 0.8787911534309387, 6.422730922698975, -1.4599984884262085, 0.09497758001089096, 0.20096929371356964, -0.9248046875, -0.016845703125, -0.362060546875, 
324, 2929992353, 0.8982540369033813, -0.011530295014381409, -0.41860073804855347, -0.13345158100128174, 7.3424577713012695, 0.8669317364692688, 6.402152061462402, -1.60371994972229, -0.30308040976524353, -0.008055676706135273, -0.9248046875, -0.0146484375, -0.356201171875, 
325, 2930000686, 0.8982306718826294, -0.011582165956497192, -0.4186379313468933, -0.13348811864852905, 7.318452835083008, 0.842912495136261, 6.420756816864014, -0.9141592383384705, -1.1986820697784424, 0.006301101762801409, -0.92578125, -0.0166015625, -0.361572265625, 
326, 2930009019, 0.8981888294219971, -0.011555507779121399, -0.41873282194137573, -0.1334739625453949, 7.310102462768555, 0.8245229721069336, 6.4243011474609375, 0.4937400221824646, -1.8953126668930054, 0.16582655906677246, -0.92431640625, -0.01806640625, -0.361328125, 
327, 2930017352, 0.8981271982192993, -0.01153138279914856, -0.41887396574020386, -0.13344797492027283, 7.3496413230896, 0.8612807393074036, 6.487259387969971, 0.5694556832313538, -2.5724759101867676, 0.25360652804374695, -0.92626953125, -0.016845703125, -0.362548828125, 
328, 2930025685, 0.8980731964111328, -0.011560365557670593, -0.41898661851882935, -0.13345587253570557, 7.418136119842529, 0.8992630243301392, 6.46008825302124, -0.29191264510154724, -2.2830607891082764, 0.18411512672901154, -0.92431640625, -0.01806640625, -0.3603515625, 
329, 2930034018, 0.8980567455291748, -0.01156608760356903, -0.4190213680267334, -0.1334569752216339, 7.477675914764404, 0.9132464528083801, 6.429462432861328, -0.14327320456504822, -1.0493510961532593, 0.1927471160888672, -0.9267578125, -0.0166015625, -0.360107421875, 
330, 2930042351, 0.8980481028556824, -0.011588722467422485, -0.41904252767562866, -0.1334460973739624, 7.4630842208862305, 0.9032539129257202, 6.424441337585449, -0.2486245483160019, -0.8807838559150696, 0.49220311641693115, -0.923828125, -0.017578125, -0.35986328125, 
331, 2930050684, 0.898045003414154, -0.011648193001747131, -0.4190535545349121, -0.13342705368995667, 7.468369007110596, 0.9000994563102722, 6.396337032318115, -0.7330409288406372, -0.7800174951553345, 0.7780067324638367, -0.927734375, -0.013671875, -0.357666015625, 
332, 2930059017, 0.8980634212493896, -0.01169346272945404, -0.41900891065597534, -0.1334390938282013, 7.310462951660156, 0.9295119643211365, 6.429790496826172, -0.7780707478523254, 0.048538971692323685, 0.39906978607177734, -0.923828125, -0.017578125, -0.361328125, 
333, 2930067350, 0.8980728387832642, -0.01170109212398529, -0.41899049282073975, -0.13343292474746704, 7.257968425750732, 0.8780186176300049, 6.463845252990723, -0.21896328032016754, -0.24888069927692413, 0.34761080145835876, -0.92529296875, -0.0166015625, -0.360595703125, 
334, 2930075683, 0.8980700969696045, -0.011591970920562744, -0.4190167784690857, -0.1333790123462677, 7.321091651916504, 0.7805112600326538, 6.350498199462891, 1.609649658203125, -0.6788924932479858, 0.25224897265434265, -0.9248046875, -0.017822265625, -0.362060546875, 
335, 2930084016, 0.8980491161346436, -0.011472120881080627, -0.41906648874282837, -0.13337433338165283, 7.324794769287109, 0.8597785234451294, 6.306276321411133, 1.466491937637329, -1.0300124883651733, -0.471622109413147, -0.9248046875, -0.015625, -0.362548828125, 
336, 2930092349, 0.8979611992835999, -0.01150617003440857, -0.4192332625389099, -0.13343939185142517, 7.295769691467285, 0.9217221736907959, 6.3306565284729, -0.583172082901001, -3.1472082138061523, -0.5563796162605286, -0.92529296875, -0.0185546875, -0.359130859375, 
337, 2930100682, 0.8978667855262756, -0.011655211448669434, -0.419399619102478, -0.13353919982910156, 7.378731727600098, 0.9226921200752258, 6.4343953132629395, -2.254321336746216, -3.3707945346832275, -0.36578401923179626, -0.9267578125, -0.0146484375, -0.359130859375, 
338, 2930109015, 0.897822380065918, -0.01178915798664093, -0.4194702208042145, -0.1336042881011963, 7.426663875579834, 0.8844634890556335, 6.4757280349731445, -2.033834218978882, -1.87766432762146, 0.08258029818534851, -0.92578125, -0.015625, -0.359130859375, 
339, 2930117348, 0.8978246450424194, -0.01181824505329132, -0.4194723069667816, -0.13357976078987122, 7.3904242515563965, 0.8463887572288513, 6.427945613861084, -0.3237767219543457, -0.6015630960464478, 0.6866407990455627, -0.9228515625, -0.01708984375, -0.3583984375, 
340, 2930125681, 0.8977979421615601, -0.011818990111351013, -0.41954362392425537, -0.13353487849235535, 7.302623748779297, 0.8354337215423584, 6.381387233734131, 0.2926938831806183, -1.5724964141845703, 0.733566164970398, -0.9267578125, -0.0166015625, -0.356689453125, 
341, 2930134014, 0.8977203965187073, -0.011816531419754028, -0.4197232127189636, -0.13349252939224243, 7.300074577331543, 0.8343217968940735, 6.354160308837891, 0.4646678566932678, -3.181633949279785, 0.5446867346763611, -0.92578125, -0.017578125, -0.358642578125, 
342, 2930142347, 0.8976227045059204, -0.011788830161094666, -0.41994673013687134, -0.13344928622245789, 7.349971771240234, 0.836013913154602, 6.345712184906006, 0.892425537109375, -3.809105634689331, 0.38513562083244324, -0.9267578125, -0.017578125, -0.359619140625, 
343, 2930150680, 0.8975030183792114, -0.011745452880859375, -0.42021191120147705, -0.13342338800430298, 7.369836330413818, 0.8858840465545654, 6.421222686767578, 1.0225459337234497, -4.402766704559326, 0.013242560438811779, -0.9248046875, -0.01904296875, -0.359375, 
344, 2930159013, 0.8973729610443115, -0.01167750358581543, -0.4204954206943512, -0.1334097683429718, 7.390047550201416, 0.9171575903892517, 6.480586051940918, 1.350946068763733, -4.654759883880615, -0.258819043636322, -0.9267578125, -0.0166015625, -0.356689453125, 
345, 2930167346, 0.8972721099853516, -0.01154385507106781, -0.4207260012626648, -0.13337424397468567, 7.437471389770508, 0.8958207964897156, 6.448601245880127, 2.1327950954437256, -3.7059829235076904, -0.3501338064670563, -0.92578125, -0.017578125, -0.356689453125, 
346, 2930175679, 0.8971983194351196, -0.011423572897911072, -0.4208885729312897, -0.1333666443824768, 7.43760347366333, 0.8604049682617188, 6.4105143547058105, 1.7352874279022217, -2.7413508892059326, -0.5258474946022034, -0.92578125, -0.017578125, -0.359130859375, 
347, 2930184012, 0.8971197605133057, -0.011355474591255188, -0.4210585951805115, -0.13336461782455444, 7.379692554473877, 0.884533703327179, 6.373948574066162, 1.023647427558899, -2.942371129989624, -0.33251115679740906, -0.92724609375, -0.0185546875, -0.354248046875, 
348, 2930192345, 0.8970192074775696, -0.011312171816825867, -0.42127588391304016, -0.13335832953453064, 7.376668930053711, 0.9019176363945007, 6.3894500732421875, 0.9042593240737915, -3.709440231323242, -0.1280839741230011, -0.9287109375, -0.01513671875, -0.355224609375, 
349, 2930200678, 0.8969112634658813, -0.011285185813903809, -0.4215165972709656, -0.1333256959915161, 7.347248077392578, 0.8958815336227417, 6.406672954559326, 0.8168891668319702, -4.065042972564697, 0.2171318680047989, -0.92529296875, -0.0166015625, -0.356689453125, 
350, 2930209011, 0.8968206644058228, -0.011280477046966553, -0.4217304587364197, -0.13325971364974976, 7.360124588012695, 0.8289665579795837, 6.356475830078125, 0.7519314885139465, -3.691945791244507, 0.8347423076629639, -0.9306640625, -0.0166015625, -0.355712890625, 
351, 2930217344, 0.8967263698577881, -0.01129983365535736, -0.4219605326652527, -0.13316461443901062, 7.375125885009766, 0.7694404721260071, 6.3639068603515625, 0.5919194221496582, -3.9495744705200195, 1.2847844362258911, -0.92529296875, -0.02001953125, -0.35693359375, 
352, 2930225677, 0.8966141939163208, -0.011373549699783325, -0.4222288727760315, -0.13306233286857605, 7.3940110206604, 0.7693223357200623, 6.342062950134277, 0.07243705540895462, -4.638699531555176, 1.6732243299484253, -0.927734375, -0.0185546875, -0.353759765625, 
353, 2930234010, 0.8964835405349731, -0.01143018901348114, -0.42254194617271423, -0.13294407725334167, 7.433927059173584, 0.7997817993164062, 6.362206935882568, 0.41279903054237366, -5.255438804626465, 1.7068557739257812, -0.92919921875, -0.017578125, -0.354736328125, 
354, 2930242343, 0.8963743448257446, -0.011394798755645752, -0.4228197932243347, -0.13280043005943298, 7.447811126708984, 0.8578145503997803, 6.332698822021484, 1.6831371784210205, -4.545284271240234, 1.5604448318481445, -0.9267578125, -0.015625, -0.352294921875, 
355, 2930250676, 0.896297812461853, -0.01123899221420288, -0.42304444313049316, -0.13261431455612183, 7.485493183135986, 0.8595985174179077, 6.280830383300781, 3.272397994995117, -3.4744303226470947, 1.4200788736343384, -0.92919921875, -0.01806640625, -0.350830078125, 
356, 2930259009, 0.8962395787239075, -0.011060312390327454, -0.4232332110404968, -0.13242033123970032, 7.543757438659668, 0.8566363453865051, 6.2495832443237305, 3.604640483856201, -2.8963170051574707, 1.4664661884307861, -0.93017578125, -0.0185546875, -0.353759765625, 
357, 2930267342, 0.8961330652236938, -0.010998353362083435, -0.423500120639801, -0.13229289650917053, 7.516702175140381, 0.9062507748603821, 6.260470390319824, 1.8475805521011353, -4.329996585845947, 1.184222936630249, -0.93017578125, -0.01708984375, -0.350341796875, 
358, 2930275675, 0.8959919214248657, -0.011026501655578613, -0.42381808161735535, -0.13222834467887878, 7.464458465576172, 0.9797632694244385, 6.293056011199951, 0.5374378561973572, -5.327081680297852, 0.9173738360404968, -0.931640625, -0.017578125, -0.351318359375, 
359, 2930284008, 0.8958733677864075, -0.011045694351196289, -0.42408856749534607, -0.13216322660446167, 7.4729766845703125, 1.0155671834945679, 6.320601940155029, 0.4893856346607208, -4.582015514373779, 0.8644549250602722, -0.9306640625, -0.01806640625, -0.352783203125, 
360, 2930292341, 0.8957890868186951, -0.01100584864616394, -0.42429232597351074, -0.13208290934562683, 7.529026031494141, 0.943513810634613, 6.319224834442139, 1.2529714107513428, -3.468231439590454, 0.8249064087867737, -0.9287109375, -0.0166015625, -0.350830078125, 
361, 2930300674, 0.895703911781311, -0.011005863547325134, -0.4244955778121948, -0.13200819492340088, 7.540702819824219, 0.8847638964653015, 6.355165004730225, 0.6644076108932495, -3.527733087539673, 0.9426550269126892, -0.9306640625, -0.0166015625, -0.349365234375, 
362, 2930309007, 0.8956101536750793, -0.011034324765205383, -0.4247051477432251, -0.13196781277656555, 7.483482837677002, 0.8631728887557983, 6.385380744934082, 0.16856727004051208, -3.715280532836914, 0.6944018602371216, -0.92919921875, -0.015625, -0.351806640625, 
363, 2930317340, 0.8955408334732056, -0.011009573936462402, -0.4248775839805603, -0.13188469409942627, 7.463315010070801, 0.8852792382240295, 6.347719192504883, 0.9640172719955444, -3.009941577911377, 0.933843731880188, -0.9287109375, -0.01708984375, -0.349365234375, 
364, 2930325673, 0.8954913020133972, -0.010955587029457092, -0.42503106594085693, -0.1317320466041565, 7.494753837585449, 0.8716002106666565, 6.312056541442871, 1.7589808702468872, -2.6336944103240967, 1.6968151330947876, -0.93115234375, -0.015625, -0.349365234375, 
365, 2930334006, 0.8954373598098755, -0.010905936360359192, -0.4252047538757324, -0.13154184818267822, 7.531817436218262, 0.8868955373764038, 6.277401924133301, 1.9012418985366821, -2.9067158699035645, 2.1372768878936768, -0.931640625, -0.01953125, -0.348388671875, 
366, 2930342339, 0.8953917026519775, -0.010956883430480957, -0.4253511428833008, -0.13137510418891907, 7.535715103149414, 0.9067992568016052, 6.278402805328369, 0.561284601688385, -2.7106645107269287, 2.510373830795288, -0.93017578125, -0.01708984375, -0.347900390625, 
367, 2930350672, 0.895353376865387, -0.01108446717262268, -0.42547407746315, -0.13122719526290894, 7.522749423980713, 0.9251556992530823, 6.289489269256592, -0.6179049611091614, -2.505033493041992, 2.6869077682495117, -0.9326171875, -0.0166015625, -0.349853515625, 
368, 2930359005, 0.8953095078468323, -0.011264175176620483, -0.4255942106246948, -0.1311219036579132, 7.468435764312744, 0.9162720441818237, 6.293796062469482, -1.4616121053695679, -2.603827476501465, 2.4924440383911133, -0.93115234375, -0.016357421875, -0.345947265625, 
369, 2930367338, 0.895256519317627, -0.01140064001083374, -0.42573708295822144, -0.1310078203678131, 7.420326232910156, 0.8937290906906128, 6.321648120880127, -0.8903378248214722, -2.849954843521118, 2.2930374145507812, -0.9306640625, -0.015380859375, -0.346923828125, 
370, 2930375671, 0.8952070474624634, -0.011419236660003662, -0.4258858561515808, -0.13086041808128357, 7.4606451988220215, 0.8702635765075684, 6.335790634155273, 0.766659677028656, -2.690993070602417, 2.0181455612182617, -0.93115234375, -0.015625, -0.348876953125, 
371, 2930384004, 0.8951694965362549, -0.011370286345481873, -0.42601513862609863, -0.1307017207145691, 7.502231121063232, 0.8561593294143677, 6.290462017059326, 1.678961992263794, -2.276580333709717, 1.8156651258468628, -0.93017578125, -0.015380859375, -0.344482421875, 
372, 2930392337, 0.8951270580291748, -0.011309310793876648, -0.4261467754840851, -0.1305670142173767, 7.486363410949707, 0.8492729663848877, 6.293960094451904, 1.6820613145828247, -2.311441421508789, 1.435370683670044, -0.93310546875, -0.014404296875, -0.34716796875, 
373, 2930400670, 0.8950713276863098, -0.011266559362411499, -0.42630594968795776, -0.13043364882469177, 7.479702472686768, 0.8836107850074768, 6.271996021270752, 1.4575525522232056, -2.743604898452759, 1.47312593460083, -0.93310546875, -0.0166015625, -0.34619140625, 
374, 2930409003, 0.8950057029724121, -0.011250153183937073, -0.42648690938949585, -0.13029402494430542, 7.505730152130127, 0.868831217288971, 6.272553443908691, 1.2724127769470215, -3.1325314044952393, 1.7277312278747559, -0.93212890625, -0.015380859375, -0.343505859375, 
375, 2930417336, 0.8949503898620605, -0.011275321245193481, -0.4266499876976013, -0.13013717532157898, 7.525728702545166, 0.8485652804374695, 6.2526068687438965, 0.7646873593330383, -2.9148101806640625, 2.1618926525115967, -0.9306640625, -0.017333984375, -0.345458984375, 
376, 2930425669, 0.894904375076294, -0.01130513846874237, -0.4267997145652771, -0.12995991110801697, 7.489686012268066, 0.8619043231010437, 6.252431869506836, 0.8775436878204346, -2.7211410999298096, 2.5036122798919678, -0.93408203125, -0.017578125, -0.34326171875, 
377, 2930434002, 0.8948479294776917, -0.011349841952323914, -0.4269627332687378, -0.12980952858924866, 7.443235874176025, 0.9138070344924927, 6.25221061706543, 0.48613253235816956, -2.953308343887329, 2.194422483444214, -0.93505859375, -0.014892578125, -0.34375, 
378, 2930442335, 0.89476478099823, -0.011376649141311646, -0.4271774888038635, -0.1296737790107727, 7.416958332061768, 0.8966912627220154, 6.255446910858154, 0.7784422636032104, -3.727703332901001, 1.8993725776672363, -0.9345703125, -0.01611328125, -0.34521484375, 
379, 2930450668, 0.8946601152420044, -0.01135583221912384, -0.4274411201477051, -0.1295291781425476, 7.4519805908203125, 0.846548318862915, 6.300707817077637, 1.4306319952011108, -4.358889579772949, 1.6368521451950073, -0.93212890625, -0.014892578125, -0.34375, 
380, 2930459001, 0.894546389579773, -0.011302202939987183, -0.42772918939590454, -0.1293679177761078, 7.482395648956299, 0.8296816349029541, 6.327270030975342, 2.0285449028015137, -4.6707940101623535, 1.6585216522216797, -0.934814453125, -0.013427734375, -0.34228515625, 
381, 2930467334, 0.8944453597068787, -0.011248067021369934, -0.42798590660095215, -0.12922224402427673, 7.495481014251709, 0.8081817626953125, 6.331877708435059, 1.8340818881988525, -4.19324254989624, 1.4629058837890625, -0.93212890625, -0.015869140625, -0.343505859375, 
382, 2930475667, 0.8943579196929932, -0.011219114065170288, -0.4282059073448181, -0.12910082936286926, 7.496389389038086, 0.8252331018447876, 6.316539764404297, 1.3792498111724854, -3.715895414352417, 1.377303123474121, -0.9345703125, -0.014404296875, -0.34326171875, 
383, 2930484000, 0.8942586183547974, -0.011190593242645264, -0.4284447729587555, -0.1289990246295929, 7.481191635131836, 0.8691074252128601, 6.303585529327393, 1.2299957275390625, -4.002595901489258, 1.0779495239257812, -0.93505859375, -0.015380859375, -0.34326171875, 
384, 2930492333, 0.8941575884819031, -0.011152729392051697, -0.4286828637123108, -0.12891167402267456, 7.50153112411499, 0.9344743490219116, 6.285760879516602, 1.3213104009628296, -3.9972422122955322, 0.8819750547409058, -0.93408203125, -0.013916015625, -0.34033203125, 
385, 2930500666, 0.8940693736076355, -0.011105969548225403, -0.4288911521434784, -0.12883499264717102, 7.5301971435546875, 0.9701569676399231, 6.277251243591309, 1.255379319190979, -3.5240702629089355, 0.685257613658905, -0.9345703125, -0.017333984375, -0.3408203125, 
386, 2930508999, 0.8940047025680542, -0.011060431599617004, -0.4290468394756317, -0.1287682056427002, 7.534120559692383, 0.9857140183448792, 6.2640061378479, 1.202101469039917, -2.7474725246429443, 0.6996015310287476, -0.93603515625, -0.015380859375, -0.33935546875, 
387, 2930517332, 0.8939441442489624, -0.011018931865692139, -0.42919445037841797, -0.12870067358016968, 7.5091376304626465, 0.9212772846221924, 6.214346408843994, 1.0321511030197144, -2.623089551925659, 0.6639465093612671, -0.93603515625, -0.016845703125, -0.3369140625, 
388, 2930525665, 0.8938604593276978, -0.011059463024139404, -0.4293723702430725, -0.1286848485469818, 7.514744281768799, 0.8603428602218628, 6.209047794342041, -0.18896900117397308, -3.286754608154297, 0.48907822370529175, -0.934814453125, -0.013427734375, -0.34033203125, 
389, 2930533998, 0.8937451839447021, -0.0110970139503479, -0.42961299419403076, -0.1286788284778595, 7.525620937347412, 0.8177863955497742, 6.239404678344727, -0.14637255668640137, -4.21908712387085, 0.26239222288131714, -0.935546875, -0.016357421875, -0.33837890625, 
390, 2930542331, 0.8936407566070557, -0.011127814650535583, -0.4298316538333893, -0.1286723017692566, 7.505186080932617, 0.8304663896560669, 6.262052536010742, -0.026933366432785988, -3.887587547302246, 0.29589560627937317, -0.9345703125, -0.016357421875, -0.3388671875, 
391, 2930550664, 0.8935325145721436, -0.011144399642944336, -0.4300628900527954, -0.12865003943443298, 7.501969337463379, 0.8543491959571838, 6.27362060546875, 0.19156883656978607, -4.029413223266602, 0.3527336120605469, -0.93603515625, -0.014404296875, -0.33837890625, 
392, 2930558997, 0.8934186100959778, -0.011133432388305664, -0.43030479550361633, -0.12863361835479736, 7.50062894821167, 0.8779841661453247, 6.2953338623046875, 0.5149485468864441, -4.142884731292725, 0.10524889081716537, -0.9345703125, -0.013916015625, -0.33740234375, 
393, 2930567330, 0.8932939767837524, -0.011106088757514954, -0.4305705428123474, -0.12861186265945435, 7.538195610046387, 0.8674404621124268, 6.287609100341797, 0.8445782661437988, -4.487089157104492, 0.08757507055997849, -0.93603515625, -0.015869140625, -0.3369140625, 
394, 2930575663, 0.8931751251220703, -0.010994911193847656, -0.4308364987373352, -0.12855592370033264, 7.61130428314209, 0.852057933807373, 6.215873718261719, 2.0851526260375977, -4.311273097991943, 0.025563009083271027, -0.93408203125, -0.015625, -0.33544921875, 
395, 2930583996, 0.8930760622024536, -0.010823830962181091, -0.43107154965400696, -0.12847033143043518, 7.7252397537231445, 0.8899748921394348, 6.205016136169434, 2.881345748901367, -3.6993231773376465, 0.03552694618701935, -0.9365234375, -0.015380859375, -0.3359375, 
396, 2930592329, 0.8929558992385864, -0.01075492799282074, -0.43132686614990234, -0.1284540593624115, 7.709071636199951, 0.8779608607292175, 6.217188835144043, 1.3023303747177124, -4.25602388381958, -0.2185278683900833, -0.93603515625, -0.015869140625, -0.33642578125, 
397, 2930600662, 0.8928229212760925, -0.010784849524497986, -0.4315813481807709, -0.12852150201797485, 7.726628303527832, 0.9494050741195679, 6.2335944175720215, -0.4649367928504944, -4.471823215484619, -0.7160844802856445, -0.935546875, -0.015625, -0.333984375, 
398, 2930608995, 0.892745316028595, -0.010874703526496887, -0.43170833587646484, -0.12862691283226013, 7.668816566467285, 0.974039614200592, 6.274579048156738, -1.5842020511627197, -2.691838502883911, -0.671489953994751, -0.93701171875, -0.01513671875, -0.33349609375, 
399, 2930617328, 0.8927308320999146, -0.01096312701702118, -0.4317091107368469, -0.12871742248535156, 7.655195236206055, 0.9521049857139587, 6.246172904968262, -1.7517446279525757, -0.7527639269828796, -0.40410298109054565, -0.93603515625, -0.015625, -0.33251953125, 
400, 2930625661, 0.8927438259124756, -0.011041507124900818, -0.43166279792785645, -0.12877553701400757, 7.654858112335205, 0.8602868318557739, 6.141016960144043, -1.5136348009109497, 0.0018954535480588675, -0.0103865722194314, -0.9365234375, -0.016357421875, -0.33447265625, 
401, 2930633994, 0.8927581310272217, -0.011059731245040894, -0.4316299557685852, -0.12878486514091492, 7.676538467407227, 0.8319114446640015, 5.996757507324219, -0.4045896530151367, -0.07145090401172638, 0.2688213884830475, -0.93408203125, -0.01708984375, -0.33349609375, 
402, 2930642327, 0.8926814794540405, -0.011111721396446228, -0.43176332116127014, -0.1288650631904602, 7.561281204223633, 0.8294024467468262, 6.098647117614746, -0.9520938992500305, -2.7005982398986816, -0.5828903317451477, -0.935546875, -0.015869140625, -0.3369140625, 
403, 2930650660, 0.8925127387046814, -0.011281922459602356, -0.4320683479309082, -0.12899604439735413, 7.515847206115723, 0.8288715481758118, 6.245558738708496, -2.481110095977783, -5.540320873260498, -0.7355512380599976, -0.935546875, -0.016845703125, -0.33447265625, 
404, 2930658993, 0.8924028873443604, -0.01127423346042633, -0.43228578567504883, -0.12902817130088806, 7.644784450531006, 0.85929274559021, 6.169084548950195, 0.21057461202144623, -3.830749750137329, -0.41998377442359924, -0.939453125, -0.017333984375, -0.33203125, 
405, 2930667326, 0.8923574686050415, -0.01108446717262268, -0.4323928654193878, -0.12900018692016602, 7.710671424865723, 0.9308681488037109, 6.123149871826172, 2.5496666431427, -1.7675485610961914, -0.6736159324645996, -0.936767578125, -0.0126953125, -0.33349609375, 
406, 2930675659, 0.8923090696334839, -0.010952740907669067, -0.4324907064437866, -0.12901803851127625, 7.660861492156982, 0.9949017763137817, 6.021609306335449, 1.5484830141067505, -1.7657815217971802, -0.8959732055664062, -0.9384765625, -0.015869140625, -0.33203125, 
407, 2930683992, 0.892241358757019, -0.010987728834152222, -0.4325929880142212, -0.12914040684700012, 7.671016693115234, 0.9679612517356873, 6.038827896118164, -1.078320860862732, -2.232421398162842, -1.2018070220947266, -0.9375, -0.016357421875, -0.33251953125, 
408, 2930692325, 0.89216148853302, -0.011188194155693054, -0.4327073097229004, -0.12929221987724304, 7.750149726867676, 0.832126259803772, 6.147836208343506, -3.2412636280059814, -2.740070104598999, -0.5870910882949829, -0.9384765625, -0.018310546875, -0.33349609375, 
409, 2930700658, 0.8921341300010681, -0.011341050267219543, -0.4327320158481598, -0.1293841004371643, 7.789990425109863, 0.8135061860084534, 6.135161876678467, -2.510899543762207, -1.2365654706954956, -0.06115398555994034, -0.93701171875, -0.016845703125, -0.33203125, 
410, 2930708991, 0.8921211957931519, -0.011403799057006836, -0.4327389597892761, -0.12944424152374268, 7.683004856109619, 0.9061081409454346, 6.112812042236328, -1.1752452850341797, -0.791210949420929, -0.13743318617343903, -0.93798828125, -0.016845703125, -0.3310546875, 
411, 2930717324, 0.8920661211013794, -0.011474579572677612, -0.432829886674881, -0.1295139491558075, 7.63870906829834, 0.9235022664070129, 6.064064979553223, -1.258286476135254, -2.0735363960266113, -0.33935022354125977, -0.935546875, -0.018310546875, -0.3310546875, 
412, 2930725657, 0.89200359582901, -0.011549532413482666, -0.43292608857154846, -0.12961673736572266, 7.686207294464111, 0.8570851683616638, 6.08306884765625, -1.4286210536956787, -2.1954345703125, -0.687857449054718, -0.9404296875, -0.017333984375, -0.333984375, 
413, 2930733990, 0.891958475112915, -0.011585846543312073, -0.43299615383148193, -0.12968972325325012, 7.718892574310303, 0.8245818614959717, 6.191539287567139, -0.8898258209228516, -1.6950349807739258, -0.5637820959091187, -0.9375, -0.01611328125, -0.3310546875, 
414, 2930742323, 0.8919309377670288, -0.011540144681930542, -0.43305331468582153, -0.12969276309013367, 7.68011474609375, 0.8720746040344238, 6.201564788818359, 0.5125665068626404, -1.298833966255188, -0.16035792231559753, -0.9375, -0.016845703125, -0.33203125, 
415, 2930750656, 0.8919044137001038, -0.011452019214630127, -0.4331229031085968, -0.12965020537376404, 7.621827125549316, 0.928500771522522, 6.156435489654541, 1.3927483558654785, -1.3874846696853638, 0.18995516002178192, -0.9375, -0.017822265625, -0.3330078125, 
416, 2930758989, 0.8918752074241638, -0.011409029364585876, -0.43319547176361084, -0.1296122968196869, 7.654433250427246, 0.9379822015762329, 6.1053147315979, 0.8427851796150208, -1.5161961317062378, 0.41643622517585754, -0.93896484375, -0.016845703125, -0.33203125, 
417, 2930767322, 0.8918403387069702, -0.011488586664199829, -0.4332585334777832, -0.12963470816612244, 7.678752422332764, 0.9287775754928589, 6.116908550262451, -1.1291395425796509, -1.635379433631897, 0.33441945910453796, -0.93896484375, -0.016357421875, -0.33056640625, 
418, 2930775655, 0.8918154239654541, -0.011616110801696777, -0.43329206109046936, -0.12968286871910095, 7.6780619621276855, 0.9107921123504639, 6.161513805389404, -1.8526134490966797, -1.3044689893722534, 0.37209799885749817, -0.93896484375, -0.017822265625, -0.33349609375, 
419, 2930783988, 0.8918002247810364, -0.011706769466400146, -0.4333092272281647, -0.1297224462032318, 7.665073871612549, 0.8745623230934143, 6.190245628356934, -1.4470890760421753, -0.9704850316047668, 0.2333713173866272, -0.9384765625, -0.018310546875, -0.32958984375, 
420, 2930792321, 0.8918102383613586, -0.011738136410713196, -0.433279812335968, -0.12974798679351807, 7.650681018829346, 0.8745709657669067, 6.239431858062744, -0.6355531811714172, -0.15795016288757324, 0.15683595836162567, -0.9375, -0.01513671875, -0.330078125, 
421, 2930800654, 0.8918551802635193, -0.011718899011611938, -0.4331900179386139, -0.12974059581756592, 7.659614562988281, 0.881645143032074, 6.2139105796813965, -0.000934919691644609, 0.887430727481842, 0.2774021625518799, -0.93896484375, -0.019775390625, -0.33251953125, 
422, 2930808987, 0.8919210433959961, -0.01171182096004486, -0.4330574870109558, -0.1297311782836914, 7.637041091918945, 0.8658729791641235, 6.204584121704102, -0.11256173253059387, 1.5053997039794922, 0.48674723505973816, -0.939453125, -0.016357421875, -0.3310546875, 
423, 2930817320, 0.8919801712036133, -0.011724874377250671, -0.43293851613998413, -0.12972059845924377, 7.536849498748779, 0.8818740248680115, 6.215598106384277, -0.427488774061203, 1.2725151777267456, 0.5391539931297302, -0.93798828125, -0.018798828125, -0.33251953125, 
424, 2930825653, 0.8920267820358276, -0.011755034327507019, -0.4328390955924988, -0.1297290325164795, 7.525763511657715, 0.8615956902503967, 6.227429389953613, -0.6546870470046997, 0.9180653691291809, 0.4236082136631012, -0.93896484375, -0.018798828125, -0.3310546875, 
425, 2930833986, 0.8920689821243286, -0.01178528368473053, -0.4327472448348999, -0.12974205613136292, 7.540269374847412, 0.8682194352149963, 6.210055828094482, -0.7330153584480286, 0.8120224475860596, 0.3176421523094177, -0.93994140625, -0.016357421875, -0.33447265625, 
426, 2930842319, 0.8921171426773071, -0.011853903532028198, -0.43263930082321167, -0.12976443767547607, 7.574088096618652, 0.867267906665802, 6.211121082305908, -1.262999415397644, 0.9599959254264832, 0.4564456343650818, -0.9384765625, -0.016357421875, -0.3330078125, 
427, 2930850652, 0.892173171043396, -0.011943981051445007, -0.43251168727874756, -0.12979742884635925, 7.555147171020508, 0.8811039924621582, 6.189481735229492, -1.6470335721969604, 1.227510929107666, 0.45839235186576843, -0.93701171875, -0.017333984375, -0.3310546875, 
428, 2930858985, 0.8922216296195984, -0.012041553854942322, -0.43238765001296997, -0.12986913323402405, 7.575942516326904, 0.8866000771522522, 6.167374610900879, -1.9640612602233887, 1.133890986442566, 0.015189241617918015, -0.93896484375, -0.017333984375, -0.33203125, 
429, 2930867318, 0.8922755718231201, -0.012139871716499329, -0.4322502613067627, -0.12994548678398132, 7.573410987854004, 0.8897054195404053, 6.112090110778809, -1.9386519193649292, 1.3202600479125977, 0.03416939079761505, -0.93896484375, -0.015380859375, -0.333984375, 
430, 2930875651, 0.8923247456550598, -0.012241199612617493, -0.4321253299713135, -0.1300143599510193, 7.54825496673584, 0.8583659529685974, 6.131157875061035, -1.9368587732315063, 1.1268980503082275, 0.10891170799732208, -0.93701171875, -0.016357421875, -0.33349609375, 
431, 2930883984, 0.8923592567443848, -0.012342721223831177, -0.43203696608543396, -0.13006216287612915, 7.535616397857666, 0.8574734330177307, 6.125233173370361, -1.810093879699707, 0.6008074283599854, 0.30163320899009705, -0.9365234375, -0.018310546875, -0.33349609375, 
432, 2930892317, 0.8923534154891968, -0.012418076395988464, -0.43203675746917725, -0.13009530305862427, 7.552693843841553, 0.8735552430152893, 6.144477844238281, -1.1929701566696167, -0.6887027025222778, 0.2728171944618225, -0.9365234375, -0.01708984375, -0.3310546875, 
433, 2930900650, 0.8923244476318359, -0.012494593858718872, -0.4320870041847229, -0.13011932373046875, 7.579593181610107, 0.8712854981422424, 6.235870361328125, -1.1238373517990112, -1.4360748529434204, 0.3060644865036011, -0.93896484375, -0.017822265625, -0.33251953125, 
434, 2930908983, 0.8923128843307495, -0.012544229626655579, -0.43210142850875854, -0.13014614582061768, 7.559131622314453, 0.9022667407989502, 6.252758026123047, -0.7815030813217163, -0.8527874946594238, 0.21395568549633026, -0.93603515625, -0.016357421875, -0.3359375, 
435, 2930917316, 0.8923226594924927, -0.01254226267337799, -0.4320746958255768, -0.1301681101322174, 7.565740585327148, 0.9015944004058838, 6.261949062347412, -0.28030937910079956, -0.1226537749171257, -0.05188163369894028, -0.93701171875, -0.01611328125, -0.33154296875, 
436, 2930925649, 0.8923445343971252, -0.012539893388748169, -0.43202197551727295, -0.1301928460597992, 7.63427209854126, 0.8792489171028137, 6.235555171966553, -0.2838185131549835, 0.25747427344322205, -0.03118533082306385, -0.9375, -0.016845703125, -0.33447265625, 
437, 2930933982, 0.8923758268356323, -0.012540683150291443, -0.43195444345474243, -0.13020232319831848, 7.701230049133301, 0.8395649194717407, 6.240225791931152, -0.3090485632419586, 0.5001435875892639, 0.16439217329025269, -0.93603515625, -0.0166015625, -0.33203125, 
438, 2930942315, 0.8924392461776733, -0.012527182698249817, -0.431827187538147, -0.1301911175251007, 7.759196758270264, 0.8500509858131409, 6.181308269500732, -0.03564221039414406, 1.4343459606170654, 0.450400710105896, -0.9384765625, -0.016845703125, -0.33203125, 
439, 2930950648, 0.8925402164459229, -0.012527614831924438, -0.4316113591194153, -0.13021457195281982, 7.653556823730469, 0.9527764320373535, 6.208323955535889, -0.6422896981239319, 2.736675977706909, 0.13849617540836334, -0.93798828125, -0.016845703125, -0.3310546875, 
440, 2930958981, 0.8926236629486084, -0.01262734830379486, -0.4314154386520386, -0.1302819550037384, 7.560464859008789, 0.9141446948051453, 6.274537086486816, -2.060652256011963, 2.201646089553833, 0.1683879941701889, -0.9365234375, -0.017333984375, -0.3349609375, 
441, 2930967314, 0.8927077054977417, -0.012695029377937317, -0.43122127652168274, -0.13034269213676453, 7.538183212280273, 0.907183825969696, 6.116142272949219, -1.6531041860580444, 2.2563581466674805, 0.046310536563396454, -0.93798828125, -0.016357421875, -0.333984375, 
442, 2930975647, 0.8927844762802124, -0.012695804238319397, -0.43104827404022217, -0.1303894817829132, 7.513914585113525, 0.9021663069725037, 6.055765628814697, -0.6439803242683411, 2.059051513671875, -0.14957429468631744, -0.9365234375, -0.015869140625, -0.33447265625, 
443, 2930983980, 0.8927810788154602, -0.01279360055923462, -0.43103140592575073, -0.13045930862426758, 7.491313457489014, 0.8788347840309143, 6.117970943450928, -1.7736449241638184, -0.4914218783378601, -0.07385864853858948, -0.9375, -0.015380859375, -0.33642578125, 
