sep=,
PacketCounter,SampleTimeFine,Quat_W,Quat_X,Quat_Y,Quat_Z,Acc_X,Acc_Y,Acc_Z,Gyr_X,Gyr_Y,Gyr_Z,Mag_X,Mag_Y,Mag_Z,
0, 3599015591, 0.861338198184967, 0.15765224397182465, -0.41560450196266174, 0.2460516095161438, 0, 0, 0, 0, 0, 0, -0.74755859375, 0.368408203125, -0.4580078125, 
1, 3599023924, 0.8614132404327393, 0.15757369995117188, -0.41546159982681274, 0.2460806667804718, 7.849546909332275, 0.7228705286979675, 6.036884784698486, -0.6210811138153076, 1.949781060218811, 0.44248589873313904, -0.7490234375, 0.368408203125, -0.45654296875, 
2, 3599032257, 0.8615022897720337, 0.15754160284996033, -0.41525301337242126, 0.24614150822162628, 7.769618034362793, 0.6507703065872192, 5.963542938232422, 0.18634356558322906, 2.6967947483062744, 0.2148522138595581, -0.7451171875, 0.369384765625, -0.4599609375, 
3, 3599040590, 0.8615714311599731, 0.15755760669708252, -0.4150668978691101, 0.24620337784290314, 7.741333961486816, 0.6135698556900024, 5.94399881362915, 0.8460637331008911, 2.1777989864349365, 0.21692697703838348, -0.74658203125, 0.36865234375, -0.46142578125, 
4, 3599048923, 0.8616064786911011, 0.15759889781475067, -0.414948046207428, 0.24625475704669952, 7.721895217895508, 0.6055670976638794, 5.8994140625, 0.845090389251709, 1.058226466178894, 0.08414275199174881, -0.74853515625, 0.3662109375, -0.46142578125, 
5, 3599057256, 0.8616177439689636, 0.15763060748577118, -0.4149132966995239, 0.24625340104103088, 7.719340801239014, 0.5905458927154541, 5.915079116821289, 0.28375446796417236, -0.13607561588287354, -0.09829462319612503, -0.74755859375, 0.36865234375, -0.45947265625, 
6, 3599065589, 0.8616171479225159, 0.15763454139232635, -0.41492995619773865, 0.2462245374917984, 7.727573871612549, 0.6041362881660461, 5.909085273742676, -0.4162697196006775, -0.7963593602180481, -0.224060520529747, -0.748046875, 0.370849609375, -0.4599609375, 
7, 3599073922, 0.8615968823432922, 0.1576494723558426, -0.41498062014579773, 0.24620060622692108, 7.742086887359619, 0.6377045512199402, 5.933769702911377, -0.2650432884693146, -1.319453239440918, 0.02259175479412079, -0.74853515625, 0.369140625, -0.4609375, 
8, 3599082255, 0.8615484237670898, 0.15771804749965668, -0.41504451632499695, 0.2462185174226761, 7.7757391929626465, 0.6422969102859497, 5.8887529373168945, 0.5499120354652405, -1.7475441694259644, 0.21795153617858887, -0.74755859375, 0.369140625, -0.4619140625, 
9, 3599090588, 0.8614963889122009, 0.15776579082012177, -0.41513165831565857, 0.24622321128845215, 7.785431385040283, 0.6223785281181335, 5.9609150886535645, 0.23308952152729034, -1.9828873872756958, 0.3597775101661682, -0.74755859375, 0.3681640625, -0.458984375, 
10, 3599098921, 0.8614628314971924, 0.15777599811553955, -0.41519543528556824, 0.24622654914855957, 7.829902648925781, 0.6137210726737976, 5.954763412475586, -0.18066999316215515, -1.474726676940918, 0.44573891162872314, -0.74951171875, 0.36865234375, -0.4619140625, 
11, 3599107254, 0.8614330887794495, 0.1577877700328827, -0.4152384400367737, 0.24625055491924286, 7.834043979644775, 0.580832302570343, 5.937453269958496, -0.04399244487285614, -1.188154697418213, 0.5179710388183594, -0.7470703125, 0.3681640625, -0.4599609375, 
12, 3599115587, 0.8613978624343872, 0.15781137347221375, -0.41528230905532837, 0.24628475308418274, 7.850380897521973, 0.5857391357421875, 5.962416648864746, 0.14359338581562042, -1.2473491430282593, 0.575961709022522, -0.748046875, 0.36865234375, -0.45849609375, 
13, 3599123920, 0.8613699674606323, 0.15779511630535126, -0.4153386652469635, 0.24629786610603333, 7.869579315185547, 0.5643020868301392, 5.969798564910889, -0.4257213771343231, -1.243686318397522, 0.6775221228599548, -0.75, 0.36767578125, -0.46240234375, 
14, 3599132253, 0.8613695502281189, 0.1577405333518982, -0.41536054015159607, 0.2462976574897766, 7.877511978149414, 0.5813758969306946, 5.969176292419434, -0.9536563158035278, -0.5978490114212036, 0.4686892330646515, -0.74755859375, 0.36962890625, -0.4609375, 
15, 3599140586, 0.8613935112953186, 0.15766103565692902, -0.41534754633903503, 0.24628660082817078, 7.878320217132568, 0.5940865278244019, 5.95998477935791, -1.1906136274337769, 0.037268705666065216, 0.4254780411720276, -0.7470703125, 0.368408203125, -0.458984375, 
16, 3599148919, 0.8613930344581604, 0.1576014906167984, -0.4153527021408081, 0.2463170439004898, 7.921931266784668, 0.5988146066665649, 5.95402717590332, -0.8030958771705627, -0.3182440400123596, 0.8087694048881531, -0.74951171875, 0.3681640625, -0.46044921875, 
17, 3599157252, 0.8613672256469727, 0.1575920730829239, -0.41535791754722595, 0.2464047074317932, 7.914670944213867, 0.5947517156600952, 5.947939395904541, 0.250122994184494, -0.48676010966300964, 1.403455138206482, -0.75048828125, 0.3681640625, -0.4599609375, 
18, 3599165585, 0.8613535165786743, 0.1576092690229416, -0.4152774214744568, 0.24657760560512543, 7.9228596687316895, 0.6508094072341919, 5.986076831817627, 1.2359124422073364, 0.6696841716766357, 1.9141261577606201, -0.7490234375, 0.369873046875, -0.458984375, 
19, 3599173918, 0.861393928527832, 0.15757961571216583, -0.4151484966278076, 0.24667251110076904, 7.786378860473633, 0.6359632611274719, 6.10382080078125, 0.3629281222820282, 1.562903881072998, 1.0889378786087036, -0.74951171875, 0.370849609375, -0.458984375, 
20, 3599182251, 0.8614464998245239, 0.15755432844161987, -0.4149785041809082, 0.24679061770439148, 7.898101806640625, 0.5912266373634338, 5.917255878448486, 0.6577736139297485, 2.1422719955444336, 1.1490033864974976, -0.7509765625, 0.3701171875, -0.460693359375, 
21, 3599190584, 0.8615404963493347, 0.15747573971748352, -0.4147413372993469, 0.24691163003444672, 7.903798580169678, 0.6460128426551819, 5.798902988433838, 0.18432003259658813, 3.3730361461639404, 1.261014461517334, -0.74365234375, 0.370849609375, -0.4599609375, 
22, 3599198917, 0.8615714907646179, 0.15739503502845764, -0.4146677851676941, 0.24697840213775635, 7.696136951446533, 0.6729537844657898, 5.986392974853516, -0.6925703883171082, 0.9434491395950317, 1.0476734638214111, -0.748046875, 0.36865234375, -0.4638671875, 
23, 3599207250, 0.861579418182373, 0.1572972536087036, -0.4146938920021057, 0.24696935713291168, 7.643186569213867, 0.6376991868019104, 6.121216297149658, -1.493322730064392, -0.45264196395874023, 0.6918404698371887, -0.74560546875, 0.371337890625, -0.45947265625, 
24, 3599215583, 0.8616164326667786, 0.1573163866996765, -0.4145492613315582, 0.24707084894180298, 7.7277607917785645, 0.6535778641700745, 5.965053081512451, 0.9789760708808899, 1.5612132549285889, 0.7632529735565186, -0.7490234375, 0.369140625, -0.46142578125, 
25, 3599223916, 0.8616309762001038, 0.15739570558071136, -0.4144395887851715, 0.2471538782119751, 7.719422340393066, 0.6940951943397522, 5.940104007720947, 1.5768121480941772, 0.7909163236618042, 0.4572140872478485, -0.74853515625, 0.36962890625, -0.46435546875, 
26, 3599232249, 0.8616037368774414, 0.15737669169902802, -0.4144907295703888, 0.24717438220977783, 7.703518867492676, 0.7131599187850952, 5.941465854644775, -0.45886626839637756, -1.1708139181137085, 0.6633062362670898, -0.744140625, 0.369384765625, -0.46142578125, 
27, 3599240582, 0.8615996241569519, 0.15733766555786133, -0.4145130217075348, 0.24717630445957184, 7.830052852630615, 0.7202197313308716, 5.94044303894043, -0.6962589025497437, -0.6525610685348511, 0.5206349492073059, -0.74609375, 0.36962890625, -0.4638671875, 
28, 3599248915, 0.8616483211517334, 0.15729287266731262, -0.4144116938114166, 0.24720498919487, 7.855602741241455, 0.7118008732795715, 5.9807281494140625, -0.40430787205696106, 1.1710827350616455, 0.28874924778938293, -0.7470703125, 0.3701171875, -0.4619140625, 
29, 3599257248, 0.861723780632019, 0.15722796320915222, -0.4142681658267975, 0.2472238540649414, 7.84712028503418, 0.7030256390571594, 5.983592987060547, -0.51455157995224, 1.8904328346252441, 0.23844289779663086, -0.7451171875, 0.369873046875, -0.46240234375, 
30, 3599265581, 0.8617918491363525, 0.15714547038078308, -0.4141579866409302, 0.24722370505332947, 7.838748455047607, 0.6318013072013855, 5.989279270172119, -1.0274507999420166, 1.451942801475525, 0.07820025831460953, -0.74462890625, 0.370849609375, -0.462890625, 
31, 3599273914, 0.861911416053772, 0.15699239075183868, -0.41399815678596497, 0.24717195332050323, 7.861260414123535, 0.602857768535614, 6.057791233062744, -2.001483678817749, 2.48330020904541, -0.2814876437187195, -0.74462890625, 0.36865234375, -0.46142578125, 
32, 3599282247, 0.8620799779891968, 0.15682990849018097, -0.41372251510620117, 0.24714884161949158, 7.878354549407959, 0.5997418165206909, 6.041451454162598, -1.662351131439209, 4.228475093841553, -0.30497586727142334, -0.74658203125, 0.3701171875, -0.46142578125, 
33, 3599290580, 0.8622736930847168, 0.1566692739725113, -0.4133654236793518, 0.2471723109483719, 7.862771987915039, 0.578028678894043, 5.966580867767334, -1.2315964698791504, 5.411776065826416, -0.1410704255104065, -0.74462890625, 0.3681640625, -0.4619140625, 
34, 3599298913, 0.8624871373176575, 0.15651744604110718, -0.4129500687122345, 0.24721777439117432, 7.8958234786987305, 0.5476803779602051, 5.909835338592529, -0.8226396441459656, 6.23430061340332, -0.10582521557807922, -0.74658203125, 0.37060546875, -0.46435546875, 
35, 3599307246, 0.8626964688301086, 0.15635348856449127, -0.4125514030456543, 0.24725684523582458, 7.9086689949035645, 0.5380051732063293, 5.88548469543457, -0.9958688020706177, 6.058125972747803, 0.0366283617913723, -0.7451171875, 0.36865234375, -0.4658203125, 
36, 3599315579, 0.8628726005554199, 0.15619203448295593, -0.412210613489151, 0.2473127692937851, 7.942438125610352, 0.5155229568481445, 5.956046104431152, -1.0634132623672485, 5.192748069763184, 0.35040274262428284, -0.7451171875, 0.369140625, -0.466796875, 
37, 3599323912, 0.8630149960517883, 0.15608122944831848, -0.41189178824424744, 0.24741700291633606, 8.013359069824219, 0.5021330714225769, 6.090023517608643, -0.12262816727161407, 4.689479827880859, 0.9074867963790894, -0.74462890625, 0.3701171875, -0.466796875, 
38, 3599332245, 0.8631510734558105, 0.15604235231876373, -0.41150879859924316, 0.24760422110557556, 7.974822521209717, 0.4210178256034851, 6.214807510375977, 1.3643165826797485, 5.333293437957764, 1.2577868700027466, -0.74267578125, 0.370361328125, -0.46435546875, 
39, 3599340578, 0.8633001446723938, 0.1560409516096115, -0.41105514764785767, 0.24783894419670105, 7.960989475250244, 0.3665803372859955, 6.301126003265381, 2.3588407039642334, 6.236092567443848, 1.525378942489624, -0.74365234375, 0.37060546875, -0.466796875, 
40, 3599348911, 0.8634864687919617, 0.15603145956993103, -0.4104903042316437, 0.24813145399093628, 7.953320026397705, 0.32540616393089294, 6.291306018829346, 2.7986369132995605, 7.8970232009887695, 1.76364266872406, -0.7412109375, 0.37109375, -0.4697265625, 
41, 3599357244, 0.8636907339096069, 0.1560232788324356, -0.40986210107803345, 0.2484641671180725, 7.932201862335205, 0.33218619227409363, 6.247611045837402, 3.3091540336608887, 8.853048324584961, 2.164044141769409, -0.740234375, 0.36962890625, -0.469970703125, 
42, 3599365577, 0.8639035224914551, 0.1559983789920807, -0.4091840982437134, 0.24885722994804382, 7.872140884399414, 0.41734230518341064, 6.170895099639893, 3.4934492111206055, 9.658642768859863, 2.6943106651306152, -0.74072265625, 0.3701171875, -0.470947265625, 
43, 3599373910, 0.8641273975372314, 0.15591241419315338, -0.4085015058517456, 0.24925529956817627, 7.800595760345459, 0.5407437086105347, 6.098757266998291, 2.8963558673858643, 10.017447471618652, 3.194582223892212, -0.73876953125, 0.36865234375, -0.472412109375, 
44, 3599382243, 0.8643484711647034, 0.15579037368297577, -0.40782755613327026, 0.24966827034950256, 7.743823051452637, 0.6136347055435181, 6.047642707824707, 2.4526400566101074, 10.034172058105469, 3.4824860095977783, -0.73828125, 0.36865234375, -0.474853515625, 
45, 3599390576, 0.8645597696304321, 0.1556253880262375, -0.4071865379810333, 0.2500852942466736, 7.660166263580322, 0.6479048132896423, 6.02774715423584, 1.9481931924819946, 9.763225555419922, 3.995154857635498, -0.7373046875, 0.37109375, -0.474853515625, 
46, 3599398909, 0.8647322058677673, 0.15544170141220093, -0.40663596987724304, 0.2504987120628357, 7.586630821228027, 0.6536469459533691, 6.034632682800293, 1.4218465089797974, 8.510458946228027, 4.2793965339660645, -0.7353515625, 0.3720703125, -0.475341796875, 
47, 3599407242, 0.8648838400840759, 0.15524542331695557, -0.40614786744117737, 0.2508889436721802, 7.542901039123535, 0.6367104649543762, 6.0374755859375, 1.0275661945343018, 7.660884380340576, 4.383850574493408, -0.736328125, 0.37255859375, -0.477294921875, 
48, 3599415575, 0.8650013208389282, 0.15509533882141113, -0.4057087004184723, 0.25128644704818726, 7.441161155700684, 0.6236512064933777, 6.051124572753906, 1.4184908866882324, 6.724839687347412, 4.293304920196533, -0.73681640625, 0.369140625, -0.478271484375, 
49, 3599423908, 0.8651167750358582, 0.1549389362335205, -0.4052993655204773, 0.2516458332538605, 7.424494743347168, 0.594115138053894, 6.08411979675293, 1.1349157094955444, 6.319647312164307, 4.087674617767334, -0.73486328125, 0.37353515625, -0.477294921875, 
50, 3599432241, 0.8652121424674988, 0.1548023819923401, -0.40494096279144287, 0.25197869539260864, 7.400488376617432, 0.5857622623443604, 6.065182209014893, 0.9860967397689819, 5.4547810554504395, 3.695852041244507, -0.7353515625, 0.37255859375, -0.479736328125, 
51, 3599440574, 0.8652633428573608, 0.15473295748233795, -0.4046846330165863, 0.2522575259208679, 7.3618879318237305, 0.5964480638504028, 6.096192836761475, 1.3278419971466064, 3.667343854904175, 3.193070650100708, -0.73388671875, 0.37109375, -0.479248046875, 
52, 3599448907, 0.8652713894844055, 0.1546507477760315, -0.40456849336624146, 0.2524661421775818, 7.401585578918457, 0.6405356526374817, 6.090147495269775, 0.33324116468429565, 1.6380046606063843, 2.771383285522461, -0.733642578125, 0.377197265625, -0.480224609375, 
53, 3599457240, 0.8652409911155701, 0.15458907186985016, -0.4045778810977936, 0.2525933086872101, 7.452297687530518, 0.6648063659667969, 6.1154704093933105, -0.1713208109140396, -0.2975733280181885, 2.194960594177246, -0.73193359375, 0.375, -0.480712890625, 
54, 3599465573, 0.8652093410491943, 0.1545487642288208, -0.4046027660369873, 0.2526862323284149, 7.5083770751953125, 0.7082169651985168, 6.1331071853637695, -0.23405006527900696, -0.6542515754699707, 1.5855467319488525, -0.73046875, 0.375244140625, -0.480224609375, 
55, 3599473906, 0.8652021288871765, 0.15446723997592926, -0.404622346162796, 0.2527296543121338, 7.565676212310791, 0.7281737327575684, 6.120444297790527, -0.9581900835037231, -0.39895451068878174, 1.2479511499404907, -0.7353515625, 0.37255859375, -0.482666015625, 
56, 3599482239, 0.8652294874191284, 0.15439914166927338, -0.4045577645301819, 0.25278061628341675, 7.565726280212402, 0.697037398815155, 6.12939977645874, -0.603945255279541, 0.7468598484992981, 0.8535431623458862, -0.733642578125, 0.376708984375, -0.479248046875, 
57, 3599490572, 0.8652910590171814, 0.15432332456111908, -0.4044322073459625, 0.25281715393066406, 7.528111457824707, 0.6167699694633484, 6.158628940582275, -0.5710821747779846, 1.6768358945846558, 0.5893323421478271, -0.7314453125, 0.375, -0.481689453125, 
58, 3599498905, 0.8653650283813477, 0.15423732995986938, -0.40428614616394043, 0.25285011529922485, 7.520055294036865, 0.56281977891922, 6.112193584442139, -0.6813258528709412, 2.001342535018921, 0.4454827606678009, -0.734130859375, 0.37646484375, -0.480224609375, 
59, 3599507238, 0.865423858165741, 0.15416502952575684, -0.40417852997779846, 0.2528647482395172, 7.491823196411133, 0.5515413880348206, 6.1087422370910645, -0.707068145275116, 1.3914164304733276, 0.355986624956131, -0.73193359375, 0.37353515625, -0.480224609375, 
60, 3599515571, 0.8654094338417053, 0.1541263461112976, -0.4042263329029083, 0.252861350774765, 7.478847980499268, 0.50595623254776, 6.158762454986572, -0.8818084597587585, -1.0433318614959717, 0.40893128514289856, -0.7314453125, 0.37451171875, -0.480224609375, 
61, 3599523904, 0.8653402328491211, 0.15412744879722595, -0.40440332889556885, 0.2528148591518402, 7.52738618850708, 0.5116444230079651, 6.192355155944824, -0.8917980790138245, -3.094007730484009, 0.2680273652076721, -0.73193359375, 0.373046875, -0.481201171875, 
62, 3599532237, 0.8652582168579102, 0.15414299070835114, -0.40459150075912476, 0.25278496742248535, 7.602339267730713, 0.5194172263145447, 6.2179856300354, -0.7340400218963623, -3.3344743251800537, 0.3190509080886841, -0.73095703125, 0.373046875, -0.480224609375, 
63, 3599540570, 0.8652032613754272, 0.15415175259113312, -0.4047277271747589, 0.2527496814727783, 7.699283123016357, 0.552163302898407, 6.2301106452941895, -0.6265882849693298, -2.5320568084716797, 0.22432948648929596, -0.732666015625, 0.37646484375, -0.481201171875, 
64, 3599548903, 0.8651814460754395, 0.15413759648799896, -0.4048033356666565, 0.25271183252334595, 7.710700035095215, 0.597615659236908, 6.239041805267334, -0.7727174758911133, -1.5550788640975952, 0.07648411393165588, -0.734375, 0.37451171875, -0.479736328125, 
65, 3599557236, 0.8651791214942932, 0.15407094359397888, -0.4048693776130676, 0.25265464186668396, 7.673574447631836, 0.6613935828208923, 6.2845845222473145, -1.6853013038635254, -1.2158693075180054, -0.14475885033607483, -0.732177734375, 0.377197265625, -0.481201171875, 
66, 3599565569, 0.8651930689811707, 0.15394946932792664, -0.4049485921859741, 0.25255370140075684, 7.6405768394470215, 0.6546518206596375, 6.326302528381348, -2.642172336578369, -1.1808546781539917, -0.37218764424324036, -0.73193359375, 0.37451171875, -0.479248046875, 
67, 3599573902, 0.8652263283729553, 0.1537979394197464, -0.4050021171569824, 0.25244617462158203, 7.599250793457031, 0.6126309037208557, 6.328065872192383, -2.835329294204712, -0.6539185643196106, -0.2248033583164215, -0.73291015625, 0.374755859375, -0.477783203125, 
68, 3599582235, 0.8652664422988892, 0.15365511178970337, -0.4050162136554718, 0.25237351655960083, 7.616924285888672, 0.5975713729858398, 6.24901008605957, -2.485849142074585, -0.12301237881183624, -0.08133801072835922, -0.7333984375, 0.3759765625, -0.481689453125, 
69, 3599590568, 0.8653048276901245, 0.15357637405395508, -0.4049515426158905, 0.25239354372024536, 7.683934211730957, 0.6289566159248352, 6.027064323425293, -0.8596263527870178, 0.7979345917701721, 0.6184556484222412, -0.73095703125, 0.376708984375, -0.479248046875, 
70, 3599598901, 0.8653301000595093, 0.1535758376121521, -0.40492549538612366, 0.25234872102737427, 7.594423770904541, 0.6420391798019409, 6.064080238342285, -0.556456446647644, -0.16986079514026642, -0.6471307873725891, -0.73193359375, 0.375, -0.481201171875, 
71, 3599607234, 0.8652771711349487, 0.15352346003055573, -0.4052160680294037, 0.2520957589149475, 7.538241863250732, 0.49263015389442444, 6.294676780700684, -3.106942653656006, -4.604683876037598, -1.7090200185775757, -0.735595703125, 0.376708984375, -0.476806640625, 
72, 3599615567, 0.8652706742286682, 0.15340697765350342, -0.40540599822998047, 0.25188347697257996, 7.73049259185791, 0.4609418511390686, 6.172562122344971, -3.428734540939331, -2.859253168106079, -1.3274449110031128, -0.735595703125, 0.375732421875, -0.477294921875, 
73, 3599623900, 0.8653963804244995, 0.15322169661521912, -0.4052627384662628, 0.25179481506347656, 7.834244728088379, 0.5798293352127075, 6.047030448913574, -2.6446311473846436, 2.3591220378875732, -0.5483367443084717, -0.734375, 0.374755859375, -0.477294921875, 
74, 3599632233, 0.865539014339447, 0.1530636101961136, -0.4050644040107727, 0.251720130443573, 7.536594390869141, 0.6383978724479675, 6.021095275878906, -2.1530683040618896, 3.024733781814575, -0.8156724572181702, -0.73583984375, 0.375, -0.480224609375, 
75, 3599640566, 0.8656095266342163, 0.152938574552536, -0.40507805347442627, 0.2515312135219574, 7.458046913146973, 0.5524204969406128, 6.119863033294678, -2.9139904975891113, -0.23338410258293152, -1.5556933879852295, -0.732421875, 0.37451171875, -0.478759765625, 
76, 3599648899, 0.8656018376350403, 0.1528426557779312, -0.4052574932575226, 0.2513270378112793, 7.548731327056885, 0.47540801763534546, 6.111067295074463, -3.1592729091644287, -2.798957109451294, -1.4150456190109253, -0.7333984375, 0.3759765625, -0.480224609375, 
77, 3599657232, 0.8655954003334045, 0.15279437601566315, -0.4053517282009125, 0.2512267827987671, 7.6860175132751465, 0.5683460831642151, 6.037974834442139, -1.622546672821045, -1.7037181854248047, -0.4922672212123871, -0.73486328125, 0.374755859375, -0.476318359375, 
78, 3599665565, 0.865563154220581, 0.1527792066335678, -0.40547195076942444, 0.25115275382995605, 7.6106743812561035, 0.64509516954422, 6.107804775238037, -1.2267041206359863, -2.236340045928955, -0.3639398217201233, -0.732177734375, 0.376708984375, -0.477294921875, 
79, 3599673898, 0.8654811978340149, 0.152791365981102, -0.40572068095207214, 0.2510262131690979, 7.592331886291504, 0.662535548210144, 6.1460371017456055, -1.4259315729141235, -4.227207183837891, -0.5566613078117371, -0.7353515625, 0.37548828125, -0.478271484375, 
80, 3599682231, 0.8654084801673889, 0.1528603732585907, -0.4059094786643982, 0.2509295344352722, 7.736791133880615, 0.5775816440582275, 6.176413059234619, -0.48834824562072754, -3.613412618637085, -0.8074759244918823, -0.734130859375, 0.376220703125, -0.478759765625, 
81, 3599690564, 0.8653667569160461, 0.1530044823884964, -0.40597066283226013, 0.2508869469165802, 7.723463535308838, 0.5246687531471252, 6.211947917938232, 1.1768205165863037, -2.050022602081299, -0.8258413076400757, -0.73388671875, 0.3740234375, -0.478759765625, 
82, 3599698897, 0.8653759360313416, 0.15307678282260895, -0.4059463143348694, 0.2508504390716553, 7.715028762817383, 0.515076220035553, 6.222293853759766, 0.46497517824172974, -0.5053304433822632, -0.8288381695747375, -0.733642578125, 0.377197265625, -0.476806640625, 
83, 3599707230, 0.865420401096344, 0.15307682752609253, -0.4059121310710907, 0.2507522702217102, 7.714506149291992, 0.5392313599586487, 6.145286560058594, -0.7009207010269165, -0.05321357026696205, -1.1825963258743286, -0.736328125, 0.375, -0.477783203125, 
84, 3599715563, 0.8654348254203796, 0.1530689150094986, -0.40594935417175293, 0.25064709782600403, 7.6200642585754395, 0.5296360850334167, 6.173698425292969, -1.092588186264038, -1.0760926008224487, -1.0832133293151855, -0.73486328125, 0.37451171875, -0.477294921875, 
85, 3599723896, 0.8654102683067322, 0.1530812531709671, -0.4060519337654114, 0.2505585253238678, 7.621026992797852, 0.5532221794128418, 6.192041397094727, -0.8270964026451111, -2.088571786880493, -0.6096315383911133, -0.734375, 0.37548828125, -0.478271484375, 
86, 3599732229, 0.8653767108917236, 0.15311267971992493, -0.4061316251754761, 0.25052595138549805, 7.674532413482666, 0.5611540079116821, 6.155996322631836, -0.18966060876846313, -1.8129884004592896, -0.06814667582511902, -0.736328125, 0.37451171875, -0.477783203125, 
87, 3599740562, 0.8653596043586731, 0.15313582122325897, -0.4061688184738159, 0.2505102753639221, 7.6724324226379395, 0.54848712682724, 6.1393351554870605, -0.12752045691013336, -1.169661045074463, -0.05869501829147339, -0.734375, 0.374755859375, -0.477294921875, 
88, 3599748895, 0.8653631806373596, 0.1531417965888977, -0.40615588426589966, 0.2505152225494385, 7.670071125030518, 0.5660402774810791, 6.09454345703125, -0.11368879675865173, -0.35722893476486206, 0.08483435213565826, -0.736572265625, 0.378173828125, -0.478515625, 
89, 3599757228, 0.8653607964515686, 0.15318851172924042, -0.4061335623264313, 0.25053104758262634, 7.6934332847595215, 0.5323292016983032, 6.073085784912109, 0.549194872379303, -0.3755687475204468, 0.10051026195287704, -0.73486328125, 0.374755859375, -0.476806640625, 
90, 3599765561, 0.8653413653373718, 0.1532599776983261, -0.40612101554870605, 0.25057482719421387, 7.702732086181641, 0.5165850520133972, 6.0897650718688965, 0.9011088013648987, -0.6350921392440796, 0.23805870115756989, -0.7353515625, 0.373291015625, -0.473388671875, 
91, 3599773894, 0.865337073802948, 0.15328577160835266, -0.40612074732780457, 0.2505742013454437, 7.737308979034424, 0.5196182727813721, 6.057728290557861, 0.1361396461725235, -0.6127052903175354, 0.07658655941486359, -0.734375, 0.3740234375, -0.477294921875, 
92, 3599782227, 0.8653521537780762, 0.15326888859272003, -0.4060981869697571, 0.25056907534599304, 7.7378740310668945, 0.487666517496109, 6.096975803375244, -0.44529062509536743, -0.12111690640449524, 0.020670687779784203, -0.73583984375, 0.374755859375, -0.475830078125, 
93, 3599790560, 0.8653713464736938, 0.15325631201267242, -0.40606480836868286, 0.25056445598602295, 7.6917524337768555, 0.4565587043762207, 6.120923042297363, -0.27872133255004883, 0.03724310174584389, 0.09149404615163803, -0.73486328125, 0.374755859375, -0.476806640625, 
94, 3599798893, 0.8653770685195923, 0.15329106152057648, -0.40600642561912537, 0.25061845779418945, 7.680529594421387, 0.45646584033966064, 6.130601406097412, 0.6470668315887451, 0.20148158073425293, 0.3968413472175598, -0.73681640625, 0.3720703125, -0.477783203125, 
95, 3599807226, 0.865382969379425, 0.15334950387477875, -0.4059337079524994, 0.25067979097366333, 7.670751571655273, 0.4729531407356262, 6.1529541015625, 1.0982872247695923, 0.3256593942642212, 0.44394588470458984, -0.73486328125, 0.37353515625, -0.476806640625, 
96, 3599815559, 0.8653804063796997, 0.15342049300670624, -0.40587282180786133, 0.25074389576911926, 7.654843807220459, 0.5204909443855286, 6.154985427856445, 1.1579939126968384, 0.08042868971824646, 0.33552086353302, -0.73583984375, 0.37548828125, -0.477294921875, 
97, 3599823892, 0.8653536438941956, 0.15348638594150543, -0.40588417649269104, 0.25077739357948303, 7.6374192237854, 0.5622063279151917, 6.181723117828369, 0.8110491037368774, -0.9414127469062805, 0.3588297963142395, -0.732421875, 0.37353515625, -0.477783203125, 
98, 3599832225, 0.8652991056442261, 0.15355364978313446, -0.4059501588344574, 0.2508179247379303, 7.6422200202941895, 0.6179037690162659, 6.202348709106445, 0.660744845867157, -1.7563554048538208, 0.529625654220581, -0.734375, 0.37451171875, -0.477294921875, 
99, 3599840558, 0.8652496933937073, 0.15360544621944427, -0.40602707862854004, 0.2508320212364197, 7.6490278244018555, 0.6183934807777405, 6.229836940765381, 0.3565245270729065, -1.8428032398223877, 0.42383873462677, -0.7353515625, 0.37548828125, -0.477294921875, 
100, 3599848891, 0.8652449250221252, 0.15359029173851013, -0.40605229139328003, 0.25081706047058105, 7.673655986785889, 0.6026341915130615, 6.2189178466796875, -0.5180351138114929, -0.8058110475540161, 0.1876498907804489, -0.735595703125, 0.376708984375, -0.473388671875, 
101, 3599857224, 0.8652758598327637, 0.15355294942855835, -0.40599894523620605, 0.2508194148540497, 7.670358180999756, 0.5896160006523132, 6.193518161773682, -0.5707748532295227, 0.42025279998779297, 0.10898856073617935, -0.73681640625, 0.37548828125, -0.477294921875, 
102, 3599865557, 0.8653311133384705, 0.15350256860256195, -0.40590497851371765, 0.25081199407577515, 7.641489505767822, 0.5982423424720764, 6.125108242034912, -0.6893942952156067, 1.0638103485107422, -0.10239290446043015, -0.735107421875, 0.376220703125, -0.478271484375, 
103, 3599873890, 0.8653793334960938, 0.15345963835716248, -0.40582242608070374, 0.2508052587509155, 7.611289978027344, 0.5964398384094238, 6.102848529815674, -0.5425991415977478, 0.8841265439987183, 0.03101883828639984, -0.734375, 0.375, -0.477783203125, 
104, 3599882223, 0.8653953075408936, 0.15345297753810883, -0.4057821035385132, 0.2508193850517273, 7.571563243865967, 0.5864616632461548, 6.092619895935059, -0.17447137832641602, 0.10122746974229813, 0.13872672617435455, -0.73486328125, 0.37255859375, -0.477783203125, 
105, 3599890556, 0.8653778433799744, 0.15351560711860657, -0.40575990080833435, 0.250877320766449, 7.541535377502441, 0.6509659290313721, 6.113592147827148, 1.003232717514038, -0.42900004982948303, 0.5658441185951233, -0.7373046875, 0.3720703125, -0.478271484375, 
106, 3599898889, 0.8653653264045715, 0.15358208119869232, -0.4057777523994446, 0.25085049867630005, 7.464027404785156, 0.6656721830368042, 6.166916370391846, 0.3141585886478424, -1.0916658639907837, -0.5452630519866943, -0.7373046875, 0.3720703125, -0.476318359375, 
107, 3599907222, 0.8653352856636047, 0.15366095304489136, -0.4058544337749481, 0.25078219175338745, 7.606223106384277, 0.5877670645713806, 6.0279541015625, 0.17850561439990997, -1.9967962503433228, -0.7757655382156372, -0.73779296875, 0.37451171875, -0.479248046875, 
108, 3599915555, 0.865302562713623, 0.15368954837322235, -0.405974805355072, 0.25068292021751404, 7.696573734283447, 0.605643630027771, 5.968696594238281, -0.807732105255127, -2.4446353912353516, -0.8733558058738708, -0.7353515625, 0.373046875, -0.476806640625, 
109, 3599923888, 0.8652371168136597, 0.1536792814731598, -0.40623822808265686, 0.25048843026161194, 7.642967224121094, 0.6480672955513, 6.170739650726318, -2.15506649017334, -4.375718116760254, -1.2625640630722046, -0.73486328125, 0.37353515625, -0.476318359375, 
110, 3599932221, 0.8651928305625916, 0.15369674563407898, -0.4064188599586487, 0.25033700466156006, 7.7193217277526855, 0.6070145964622498, 6.1549859046936035, -1.4348195791244507, -3.29766583442688, -1.2802377939224243, -0.736572265625, 0.375732421875, -0.476318359375, 
111, 3599940554, 0.8651984930038452, 0.15373463928699493, -0.40644270181655884, 0.2502553462982178, 7.741650581359863, 0.577406108379364, 6.161029815673828, -0.2775174081325531, -1.0560108423233032, -0.9401063919067383, -0.73583984375, 0.375244140625, -0.475341796875, 
112, 3599948887, 0.8652182817459106, 0.15372315049171448, -0.4064483046531677, 0.25018489360809326, 7.701258659362793, 0.5655681490898132, 6.1551713943481445, -0.849790632724762, -0.5856054425239563, -0.735986590385437, -0.73583984375, 0.375, -0.476806640625, 
113, 3599957220, 0.8652441501617432, 0.1536712348461151, -0.40647637844085693, 0.2500816285610199, 7.7038750648498535, 0.5921089053153992, 6.160457611083984, -1.5233681201934814, -0.7308125495910645, -0.7563755512237549, -0.736328125, 0.37451171875, -0.475830078125, 
114, 3599965553, 0.8652681708335876, 0.15363702178001404, -0.4065075218677521, 0.2499689757823944, 7.689765930175781, 0.5863192081451416, 6.198440074920654, -1.4414796829223633, -0.8758916258811951, -1.0634135007858276, -0.73828125, 0.37451171875, -0.474853515625, 
115, 3599973886, 0.8653000593185425, 0.15360920131206512, -0.406528502702713, 0.2498418092727661, 7.664905071258545, 0.5684333443641663, 6.2078938484191895, -1.358412504196167, -0.7467190027236938, -1.210644006729126, -0.734375, 0.37353515625, -0.475830078125, 
116, 3599982219, 0.8653154969215393, 0.15360420942306519, -0.4065682888031006, 0.2497267723083496, 7.662017345428467, 0.5575770139694214, 6.206379413604736, -1.1314448118209839, -1.1349027156829834, -1.2195578813552856, -0.7353515625, 0.373046875, -0.474853515625, 
117, 3599990552, 0.8653352856636047, 0.15355950593948364, -0.40663278102874756, 0.2495804876089096, 7.665460109710693, 0.5518490076065063, 6.2316131591796875, -1.7918312549591064, -1.3109749555587769, -1.210054874420166, -0.7392578125, 0.373046875, -0.474853515625, 
118, 3599998885, 0.8653695583343506, 0.15348252654075623, -0.40669137239456177, 0.24941343069076538, 7.65086555480957, 0.5696032047271729, 6.228870868682861, -2.3476855754852295, -1.1130025386810303, -1.4305421113967896, -0.73388671875, 0.374267578125, -0.475341796875, 
119, 3600007218, 0.8654158115386963, 0.15341448783874512, -0.4067113995552063, 0.2492625117301941, 7.6781768798828125, 0.5843738913536072, 6.231141567230225, -1.9973082542419434, -0.5659080743789673, -1.3200167417526245, -0.736328125, 0.373046875, -0.475341796875, 
120, 3600015551, 0.8654721975326538, 0.15337316691875458, -0.4066815972328186, 0.24914029240608215, 7.6902313232421875, 0.5878428220748901, 6.19439697265625, -1.4413257837295532, 0.033503420650959015, -1.3785196542739868, -0.737060546875, 0.377685546875, -0.47314453125, 
121, 3600023884, 0.8655404448509216, 0.15331576764583588, -0.4066358506679535, 0.24901333451271057, 7.696699142456055, 0.5686951875686646, 6.172178268432617, -1.5574607849121094, 0.3546290695667267, -1.3086439371109009, -0.73779296875, 0.3740234375, -0.477294921875, 
122, 3600032217, 0.8656057119369507, 0.15324121713638306, -0.40660014748573303, 0.24889053404331207, 7.649960517883301, 0.5352336168289185, 6.155472278594971, -1.8263078927993774, 0.2665417194366455, -1.2343372106552124, -0.73583984375, 0.373046875, -0.475341796875, 
123, 3600040550, 0.8656631708145142, 0.1531841903924942, -0.40656766295433044, 0.24877935647964478, 7.625793933868408, 0.4799063503742218, 6.199333190917969, -1.4887635707855225, 0.16756832599639893, -1.057086706161499, -0.73828125, 0.3740234375, -0.474365234375, 
124, 3600048883, 0.8657068610191345, 0.15316282212734222, -0.40652716159820557, 0.2487064003944397, 7.627583980560303, 0.4301074147224426, 6.206722736358643, -0.8705893754959106, 0.12425464391708374, -0.8887242674827576, -0.739013671875, 0.375732421875, -0.4716796875, 
125, 3600057216, 0.8657416105270386, 0.1531924605369568, -0.40648096799850464, 0.2486426830291748, 7.637048244476318, 0.4226973056793213, 6.205034255981445, -0.09514408558607101, 0.0076842703856527805, -0.928580105304718, -0.73779296875, 0.373046875, -0.475341796875, 
126, 3600065549, 0.8657585382461548, 0.15323880314826965, -0.40645936131477356, 0.248590350151062, 7.614674091339111, 0.4499565660953522, 6.205441951751709, 0.04915371537208557, -0.4374271035194397, -0.884933352470398, -0.73876953125, 0.37353515625, -0.475341796875, 
127, 3600073882, 0.8657766580581665, 0.15328837931156158, -0.40644264221191406, 0.24852406978607178, 7.601484298706055, 0.4931955635547638, 6.228688716888428, 0.061755917966365814, -0.5093774795532227, -0.9509155750274658, -0.73828125, 0.37158203125, -0.476806640625, 
128, 3600082215, 0.8657773733139038, 0.1533706784248352, -0.40643075108528137, 0.2484898865222931, 7.613142490386963, 0.5294319987297058, 6.222365379333496, 0.6120008826255798, -0.7253310680389404, -0.7677738666534424, -0.73828125, 0.37255859375, -0.475830078125, 
129, 3600090548, 0.8657676577568054, 0.1534540057182312, -0.4064408838748932, 0.24845586717128754, 7.6153244972229, 0.5182020664215088, 6.184741497039795, 0.6102079153060913, -1.0329324007034302, -0.6032024025917053, -0.73583984375, 0.37109375, -0.474365234375, 
130, 3600098881, 0.8657622933387756, 0.15350770950317383, -0.4064463675022125, 0.2484326958656311, 7.630431175231934, 0.5865259766578674, 6.169105529785156, 0.25183913111686707, -0.8485099077224731, -0.4493377208709717, -0.73876953125, 0.37109375, -0.473876953125, 
131, 3600107214, 0.8657686710357666, 0.15352806448936462, -0.4064476490020752, 0.24839550256729126, 7.6161112785339355, 0.5933497548103333, 6.150264739990234, -0.16122879087924957, -0.6301230192184448, -0.36265915632247925, -0.73779296875, 0.37353515625, -0.476318359375, 
132, 3600115547, 0.8657848238945007, 0.15352411568164825, -0.4064312279224396, 0.24836860597133636, 7.586040496826172, 0.6117111444473267, 6.1513519287109375, -0.4596346616744995, -0.2813083231449127, -0.3185257911682129, -0.740234375, 0.37060546875, -0.473876953125, 
133, 3600123880, 0.8658014535903931, 0.15352989733219147, -0.4064085781574249, 0.24834409356117249, 7.60839319229126, 0.5773127675056458, 6.098936080932617, -0.20387651026248932, -0.20874319970607758, -0.2155565768480301, -0.73779296875, 0.37255859375, -0.476318359375, 
134, 3600132213, 0.8658074140548706, 0.15353703498840332, -0.40639251470565796, 0.24834522604942322, 7.625508785247803, 0.5423787832260132, 6.109278202056885, -0.14744833111763, -0.322214275598526, -0.0079532191157341, -0.73876953125, 0.37353515625, -0.475830078125, 
135, 3600140546, 0.8657861948013306, 0.15356454253196716, -0.40643373131752014, 0.24833467602729797, 7.637261867523193, 0.5466846227645874, 6.114099979400635, -0.0059040808118879795, -1.226524829864502, 0.09205755591392517, -0.74072265625, 0.3720703125, -0.47509765625, 
136, 3600148879, 0.8657495379447937, 0.15358689427375793, -0.40650486946105957, 0.2483319640159607, 7.658864498138428, 0.5290600061416626, 6.136760711669922, -0.1476532518863678, -1.6541286706924438, 0.23009264469146729, -0.7373046875, 0.37158203125, -0.474853515625, 
137, 3600157212, 0.8657097816467285, 0.15363210439682007, -0.40656667947769165, 0.248341366648674, 7.6669535636901855, 0.550053596496582, 6.185099124908447, 0.2858036458492279, -1.5945501327514648, 0.3377237021923065, -0.73828125, 0.37255859375, -0.475830078125, 
138, 3600165545, 0.8656734228134155, 0.15371741354465485, -0.4065900444984436, 0.24837729334831238, 7.6569037437438965, 0.5705822706222534, 6.202888011932373, 0.9483669996261597, -1.220146656036377, 0.21193213760852814, -0.73486328125, 0.37255859375, -0.475341796875, 
139, 3600173878, 0.865646481513977, 0.15379413962364197, -0.40659788250923157, 0.24841047823429108, 7.630595684051514, 0.5596956610679626, 6.182559967041016, 0.9508516788482666, -0.9355983734130859, 0.2862134873867035, -0.73876953125, 0.373046875, -0.476806640625, 
140, 3600182211, 0.8656185865402222, 0.1538676768541336, -0.40660905838012695, 0.24844388663768768, 7.673584461212158, 0.5840367674827576, 6.162252902984619, 0.9057449102401733, -0.9707410931587219, 0.3169761300086975, -0.73779296875, 0.37109375, -0.475341796875, 
141, 3600190544, 0.8655821084976196, 0.1539197713136673, -0.40664419531822205, 0.2484820932149887, 7.6777472496032715, 0.6290567517280579, 6.138970375061035, 0.5513207912445068, -1.2418676614761353, 0.4695345163345337, -0.73779296875, 0.37255859375, -0.475830078125, 
142, 3600198877, 0.8655522465705872, 0.1539400964975357, -0.406684011220932, 0.24850797653198242, 7.685243129730225, 0.6344714760780334, 6.118048191070557, 0.04546526446938515, -1.179343342781067, 0.4648727774620056, -0.73828125, 0.36962890625, -0.476318359375, 
143, 3600207210, 0.8655350208282471, 0.15394626557826996, -0.40670421719551086, 0.24853086471557617, 7.665315628051758, 0.6308020949363708, 6.100552558898926, -0.009029017761349678, -0.8089359998703003, 0.5524477958679199, -0.73974609375, 0.3720703125, -0.476806640625, 
144, 3600215543, 0.8655245900154114, 0.1539357751607895, -0.40671050548553467, 0.24856334924697876, 7.6613240242004395, 0.6049016118049622, 6.113077163696289, -0.2044912576675415, -0.5527424216270447, 0.5829287767410278, -0.7373046875, 0.37060546875, -0.473876953125, 
145, 3600223876, 0.865508496761322, 0.15394024550914764, -0.40672439336776733, 0.24859389662742615, 7.624407768249512, 0.5831425189971924, 6.128005504608154, 0.032811835408210754, -0.7067351937294006, 0.635899007320404, -0.73974609375, 0.3720703125, -0.474853515625, 
146, 3600232209, 0.8654768466949463, 0.15395595133304596, -0.40675848722457886, 0.24863865971565247, 7.575246810913086, 0.5611262321472168, 6.148562431335449, 0.15796299278736115, -1.0627986192703247, 0.7379717230796814, -0.73876953125, 0.37353515625, -0.473388671875, 
147, 3600240542, 0.8654247522354126, 0.15400467813014984, -0.4068346917629242, 0.24866503477096558, 7.572681903839111, 0.5592687726020813, 6.1815690994262695, 0.39896729588508606, -1.8104780912399292, 0.5938916206359863, -0.73876953125, 0.373046875, -0.474365234375, 
148, 3600248875, 0.8653600215911865, 0.15407301485538483, -0.4069344699382782, 0.24868489801883698, 7.617083549499512, 0.5406950116157532, 6.169602870941162, 0.4711226522922516, -2.2624926567077637, 0.38631391525268555, -0.73779296875, 0.369140625, -0.474365234375, 
149, 3600257208, 0.8652904033660889, 0.154134601354599, -0.40705904364585876, 0.24868541955947876, 7.6757402420043945, 0.565613329410553, 6.174318790435791, 0.27891337871551514, -2.583617925643921, 0.37604257464408875, -0.740234375, 0.37109375, -0.475341796875, 
150, 3600265541, 0.8652260303497314, 0.15418888628482819, -0.4071735441684723, 0.24868804216384888, 7.699657917022705, 0.613076388835907, 6.140997886657715, 0.15724579989910126, -2.42496395111084, 0.29003000259399414, -0.73828125, 0.37255859375, -0.475830078125, 
151, 3600273874, 0.865175187587738, 0.1542309820652008, -0.40727439522743225, 0.24867376685142517, 7.742223739624023, 0.643871009349823, 6.138278007507324, 0.005993731785565615, -2.1591646671295166, 0.1944376826286316, -0.7421875, 0.37060546875, -0.4755859375, 
152, 3600282207, 0.8651257157325745, 0.15427130460739136, -0.4073614776134491, 0.24867816269397736, 7.75155782699585, 0.6529250144958496, 6.123125076293945, 0.0058400449343025684, -1.96943998336792, 0.2359839528799057, -0.740234375, 0.3701171875, -0.471923828125, 
153, 3600290540, 0.8651029467582703, 0.1542876958847046, -0.4074067175388336, 0.24867327511310577, 7.763874530792236, 0.6597925424575806, 6.122747898101807, -0.11653195321559906, -1.2333382368087769, 0.23634253442287445, -0.7412109375, 0.3720703125, -0.474609375, 
154, 3600298873, 0.8650981187820435, 0.154276043176651, -0.407421350479126, 0.24867352843284607, 7.746830463409424, 0.6571030020713806, 6.132040023803711, -0.3547443747520447, -0.6613467931747437, 0.3274523913860321, -0.73876953125, 0.37353515625, -0.474365234375, 
155, 3600307206, 0.8651057481765747, 0.15423613786697388, -0.4074188768863678, 0.24867549538612366, 7.7113800048828125, 0.6437130570411682, 6.09550142288208, -0.7242297530174255, -0.31073909997940063, 0.31367194652557373, -0.74072265625, 0.37158203125, -0.47412109375, 
156, 3600315539, 0.8650990724563599, 0.15422286093235016, -0.4074305593967438, 0.2486877143383026, 7.6855010986328125, 0.6352869272232056, 6.117197036743164, -0.34319227933883667, -0.6254867315292358, 0.38388049602508545, -0.7392578125, 0.37060546875, -0.474365234375, 
157, 3600323872, 0.8650704622268677, 0.15423110127449036, -0.4074804484844208, 0.24870046973228455, 7.662890911102295, 0.6176193952560425, 6.100688457489014, -0.11817126721143723, -1.256365418434143, 0.5215314030647278, -0.7392578125, 0.3720703125, -0.472900390625, 
158, 3600332205, 0.8650184869766235, 0.15427343547344208, -0.4075665771961212, 0.24871399998664856, 7.662681579589844, 0.6332222819328308, 6.111659049987793, 0.15596507489681244, -1.9528419971466064, 0.393870085477829, -0.73876953125, 0.374267578125, -0.47119140625, 
159, 3600340538, 0.8649682402610779, 0.15431584417819977, -0.4076576828956604, 0.24871331453323364, 7.693514823913574, 0.7035742402076721, 6.128758430480957, 0.11782548576593399, -2.012676954269409, 0.33157628774642944, -0.74072265625, 0.37109375, -0.472412109375, 
160, 3600348871, 0.8649300932884216, 0.15435950458049774, -0.4077323079109192, 0.24869579076766968, 7.697251796722412, 0.7235186696052551, 6.105064868927002, 0.033221662044525146, -1.8080450296401978, -0.03451518341898918, -0.739013671875, 0.375732421875, -0.47314453125, 
161, 3600357204, 0.8649107813835144, 0.1543726623058319, -0.4077935516834259, 0.24865472316741943, 7.762479782104492, 0.7381590604782104, 6.086289882659912, -0.41977888345718384, -1.469091534614563, -0.15418487787246704, -0.7412109375, 0.37158203125, -0.4736328125, 
162, 3600365537, 0.8649154305458069, 0.15434397757053375, -0.40782430768013, 0.24860581755638123, 7.749633312225342, 0.7365639805793762, 6.065138816833496, -0.9828566312789917, -0.8682841062545776, -0.2722921073436737, -0.740234375, 0.37451171875, -0.47265625, 
163, 3600373870, 0.8649467825889587, 0.15427926182746887, -0.4078132212162018, 0.24855519831180573, 7.748388767242432, 0.7174086570739746, 6.056540012359619, -1.2597721815109253, -0.07918640971183777, -0.15746350586414337, -0.740234375, 0.37109375, -0.471923828125, 
164, 3600382203, 0.8649837970733643, 0.15419699251651764, -0.4077855944633484, 0.24852290749549866, 7.763910293579102, 0.6867231130599976, 6.0152482986450195, -1.3943235874176025, 0.22578945755958557, -0.005468638613820076, -0.74072265625, 0.37255859375, -0.47216796875, 
165, 3600390536, 0.8650166392326355, 0.15411190688610077, -0.40777266025543213, 0.2484825849533081, 7.736064434051514, 0.6910004019737244, 6.0160346031188965, -1.441095232963562, 0.04285261407494545, 0.07097704708576202, -0.740234375, 0.37255859375, -0.47412109375, 
166, 3600398869, 0.8650275468826294, 0.15403805673122406, -0.40780070424079895, 0.24844427406787872, 7.7247843742370605, 0.6743415594100952, 6.063349723815918, -1.4531338214874268, -0.6224130392074585, 0.0892656072974205, -0.74072265625, 0.37353515625, -0.47265625, 
167, 3600407202, 0.8650332093238831, 0.15397755801677704, -0.40784481167793274, 0.24838986992835999, 7.744797706604004, 0.672188401222229, 6.077427387237549, -1.3649697303771973, -0.9031451344490051, -0.020811565220355988, -0.74072265625, 0.373046875, -0.47314453125, 
168, 3600415535, 0.8650333881378174, 0.15392163395881653, -0.40790626406669617, 0.24832302331924438, 7.749462604522705, 0.6324208378791809, 6.095418930053711, -1.4828721284866333, -1.200244665145874, -0.2367139458656311, -0.74072265625, 0.373779296875, -0.4697265625, 
169, 3600423868, 0.8650356531143188, 0.15386368334293365, -0.407977432012558, 0.2482343316078186, 7.743257522583008, 0.6134352684020996, 6.1326680183410645, -1.6124544143676758, -1.3238332271575928, -0.3754918575286865, -0.7392578125, 0.373046875, -0.472412109375, 
170, 3600432201, 0.8650580644607544, 0.15378355979919434, -0.40801742672920227, 0.24813979864120483, 7.739459037780762, 0.5662129521369934, 6.159745216369629, -1.921105980873108, -0.7967435717582703, -0.5664972066879272, -0.740234375, 0.3740234375, -0.47216796875, 
171, 3600440534, 0.8650994300842285, 0.1536971777677536, -0.4080265462398529, 0.24803426861763, 7.768879413604736, 0.5388271808624268, 6.162622451782227, -1.9165465831756592, -0.3076397478580475, -0.6793791055679321, -0.74169921875, 0.37451171875, -0.474609375, 
172, 3600448867, 0.8651502132415771, 0.15360994637012482, -0.40800297260284424, 0.24794906377792358, 7.715078830718994, 0.5245152115821838, 6.176527500152588, -1.8371937274932861, 0.15942299365997314, -0.680557370185852, -0.736328125, 0.37158203125, -0.472900390625, 
173, 3600457200, 0.8652070164680481, 0.15350863337516785, -0.40797895193099976, 0.24785329401493073, 7.6943583488464355, 0.5255154967308044, 6.151090621948242, -1.9587079286575317, 0.2465370148420334, -0.6034329533576965, -0.739013671875, 0.37548828125, -0.474609375, 
174, 3600465533, 0.8652573227882385, 0.1534138172864914, -0.40795648097991943, 0.24777346849441528, 7.684319972991943, 0.5399976968765259, 6.125229835510254, -1.870261788368225, 0.1823989748954773, -0.5444689989089966, -0.73828125, 0.372314453125, -0.470947265625, 
175, 3600473866, 0.8653017282485962, 0.15332205593585968, -0.4079490303993225, 0.24768757820129395, 7.666173934936523, 0.540477991104126, 6.102349281311035, -1.8194177150726318, -0.031339019536972046, -0.4631694257259369, -0.74169921875, 0.373046875, -0.47119140625, 
176, 3600482199, 0.865334689617157, 0.15325385332107544, -0.40794944763183594, 0.24761393666267395, 7.658420085906982, 0.5414201617240906, 6.087312698364258, -1.4733691215515137, -0.24493610858917236, -0.39173123240470886, -0.740234375, 0.3720703125, -0.4736328125, 
177, 3600490532, 0.8653528094291687, 0.15321284532546997, -0.40796080231666565, 0.24755710363388062, 7.648298740386963, 0.5359914302825928, 6.083413600921631, -1.1020395755767822, -0.5323534607887268, -0.35720330476760864, -0.7412109375, 0.373046875, -0.47265625, 
178, 3600498865, 0.865355372428894, 0.1531943380832672, -0.4079929292201996, 0.24750670790672302, 7.637319087982178, 0.5163995027542114, 6.10535192489624, -0.862777054309845, -0.931397557258606, -0.32936063408851624, -0.740234375, 0.3720703125, -0.470458984375, 
179, 3600507198, 0.8653470873832703, 0.15318560600280762, -0.4080514907836914, 0.24744443595409393, 7.661752223968506, 0.5082027316093445, 6.1169891357421875, -0.8129574060440063, -1.3455028533935547, -0.3286178410053253, -0.7392578125, 0.3720703125, -0.471923828125, 
180, 3600515531, 0.8653309345245361, 0.15317502617835999, -0.4081342816352844, 0.24737071990966797, 7.623092174530029, 0.5236682891845703, 6.1471028327941895, -1.043434500694275, -1.7166789770126343, -0.49047422409057617, -0.7392578125, 0.374267578125, -0.4697265625, 
181, 3600523864, 0.8653172254562378, 0.15315845608711243, -0.4082261621952057, 0.24727779626846313, 7.633108615875244, 0.5141059756278992, 6.1832194328308105, -1.1804192066192627, -1.8110160827636719, -0.5609645843505859, -0.7421875, 0.37255859375, -0.4716796875, 
182, 3600532197, 0.8653097152709961, 0.1531374454498291, -0.4083050787448883, 0.24718622863292694, 7.632954120635986, 0.5216119885444641, 6.203341007232666, -1.2436350584030151, -1.6206766366958618, -0.660014808177948, -0.74072265625, 0.3720703125, -0.470703125, 
183, 3600540530, 0.8653015494346619, 0.15313340723514557, -0.4083825349807739, 0.247089684009552, 7.636855125427246, 0.5273556113243103, 6.217239856719971, -1.0142852067947388, -1.659584641456604, -0.7240504026412964, -0.740478515625, 0.375244140625, -0.4716796875, 
184, 3600548863, 0.8652900457382202, 0.15313802659511566, -0.40845611691474915, 0.24700558185577393, 7.6500043869018555, 0.515617311000824, 6.203794956207275, -0.9192051887512207, -1.6563829183578491, -0.7515856623649597, -0.73974609375, 0.3720703125, -0.470947265625, 
185, 3600557196, 0.8652922511100769, 0.15313486754894257, -0.4085093140602112, 0.24691179394721985, 7.695594310760498, 0.5018876791000366, 6.161588668823242, -0.9281959533691406, -1.3087466955184937, -0.7805810570716858, -0.7421875, 0.3740234375, -0.47119140625, 
186, 3600565529, 0.865304708480835, 0.1531233787536621, -0.40852686762809753, 0.24684616923332214, 7.6939697265625, 0.511650025844574, 6.102927207946777, -0.8231006860733032, -0.7576562166213989, -0.6070189476013184, -0.7412109375, 0.37255859375, -0.47021484375, 
187, 3600573862, 0.8653134703636169, 0.15312278270721436, -0.40855273604393005, 0.24677321314811707, 7.644021511077881, 0.5382514595985413, 6.113034248352051, -0.7013306021690369, -0.9116747975349426, -0.628048300743103, -0.740234375, 0.37353515625, -0.47216796875, 
188, 3600582195, 0.8653119206428528, 0.1531088650226593, -0.40859735012054443, 0.2467135787010193, 7.642376899719238, 0.5386452674865723, 6.109335899353027, -0.9448450803756714, -1.1438164710998535, -0.4669346809387207, -0.742431640625, 0.374755859375, -0.46728515625, 
189, 3600590528, 0.8653008937835693, 0.1530996710062027, -0.40867292881011963, 0.2466326653957367, 7.633988857269287, 0.5436283946037292, 6.094631195068359, -0.975556492805481, -1.599672794342041, -0.5015907287597656, -0.7421875, 0.3740234375, -0.4716796875, 
190, 3600598861, 0.8652710318565369, 0.15310081839561462, -0.4087753891944885, 0.24656659364700317, 7.599661827087402, 0.5153396725654602, 6.116166114807129, -0.8969465494155884, -2.052046060562134, -0.37646523118019104, -0.74267578125, 0.373046875, -0.47021484375, 
191, 3600607194, 0.865230917930603, 0.15311166644096375, -0.4089040160179138, 0.24648785591125488, 7.584109783172607, 0.49296510219573975, 6.1511640548706055, -0.8434128165245056, -2.4593639373779297, -0.3788473904132843, -0.739990234375, 0.375244140625, -0.47119140625, 
192, 3600615527, 0.86518394947052, 0.15315134823322296, -0.40902841091156006, 0.24642133712768555, 7.597819805145264, 0.4972137212753296, 6.153563976287842, -0.4936503767967224, -2.5422768592834473, -0.5080199837684631, -0.743896484375, 0.375, -0.47021484375, 
193, 3600623860, 0.8651301860809326, 0.15317386388778687, -0.40918081998825073, 0.2463436722755432, 7.599724292755127, 0.48211023211479187, 6.161316394805908, -0.7496647238731384, -2.8570504188537598, -0.3355337083339691, -0.7412109375, 0.373046875, -0.47021484375, 
194, 3600632193, 0.865066647529602, 0.15317019820213318, -0.4093720316886902, 0.24625065922737122, 7.62516975402832, 0.49922651052474976, 6.2162251472473145, -1.3523163795471191, -3.339238405227661, -0.38266387581825256, -0.73974609375, 0.374755859375, -0.46923828125, 
195, 3600640526, 0.8650018572807312, 0.15316544473171234, -0.40956154465675354, 0.24616630375385284, 7.6662373542785645, 0.5090885758399963, 6.212128162384033, -1.2150753736495972, -3.2814269065856934, -0.1455528885126114, -0.7421875, 0.37353515625, -0.4736328125, 
196, 3600648859, 0.8649394512176514, 0.1531933844089508, -0.40972405672073364, 0.246097594499588, 7.684680938720703, 0.5584213733673096, 6.149153232574463, -0.6700043082237244, -3.042548418045044, -0.27923357486724854, -0.7421875, 0.373291015625, -0.46728515625, 
197, 3600657192, 0.8648431301116943, 0.153349831700325, -0.40984541177749634, 0.2461365908384323, 7.73117733001709, 0.5276835560798645, 5.93879508972168, 1.6947404146194458, -2.9347128868103027, 0.37594014406204224, -0.744140625, 0.373291015625, -0.46728515625, 
198, 3600665525, 0.864740788936615, 0.153572216629982, -0.4099529981613159, 0.24617832899093628, 7.754724502563477, 0.5630387663841248, 5.952558517456055, 2.509862184524536, -3.0397050380706787, -0.059360988438129425, -0.7412109375, 0.3720703125, -0.47021484375, 
199, 3600673858, 0.8645669221878052, 0.15371988713741302, -0.41036486625671387, 0.24601072072982788, 7.643529415130615, 0.47030559182167053, 6.215109348297119, -0.39436957240104675, -7.233165264129639, -1.154958724975586, -0.7431640625, 0.372314453125, -0.466796875, 
200, 3600682191, 0.8644230365753174, 0.15378005802631378, -0.4107332229614258, 0.24586424231529236, 7.8581132888793945, 0.4954758882522583, 6.118701457977295, -1.295222282409668, -6.227960586547852, -0.7074011564254761, -0.744873046875, 0.374267578125, -0.466796875, 
201, 3600690524, 0.8644246459007263, 0.15377488732337952, -0.41074138879776, 0.24584829807281494, 7.9760565757751465, 0.6313671469688416, 6.00167179107666, -0.3598927855491638, -0.6050978302955627, 0.06388189643621445, -0.74365234375, 0.373779296875, -0.466796875, 
202, 3600698857, 0.8644589185714722, 0.15372934937477112, -0.4107014238834381, 0.24582284688949585, 7.6929612159729, 0.6359735727310181, 6.035103797912598, -0.8773258924484253, 0.2470749169588089, -0.14634694159030914, -0.74169921875, 0.372314453125, -0.46435546875, 
203, 3600707190, 0.8644351363182068, 0.15362557768821716, -0.41087597608566284, 0.24567952752113342, 7.6658148765563965, 0.546497106552124, 6.147069931030273, -2.759997844696045, -2.6624844074249268, -0.45661213994026184, -0.744140625, 0.37109375, -0.46533203125, 
204, 3600715523, 0.8643937110900879, 0.15350353717803955, -0.41108468174934387, 0.2455521672964096, 7.761767864227295, 0.5098623037338257, 6.069060325622559, -3.0288448333740234, -3.093341588973999, -0.13407772779464722, -0.7421875, 0.371826171875, -0.46630859375, 
205, 3600723856, 0.8643628358840942, 0.1534913033246994, -0.4111502468585968, 0.2455589920282364, 7.820067405700684, 0.5537874102592468, 5.985062599182129, -0.43975797295570374, -1.400547981262207, 0.6041629910469055, -0.74462890625, 0.37109375, -0.46484375, 
206, 3600732189, 0.8642899394035339, 0.1535257250070572, -0.41127485036849976, 0.24558483064174652, 7.680295944213867, 0.560354471206665, 6.0459418296813965, 0.04397963732481003, -2.474245548248291, 0.7287249565124512, -0.744140625, 0.3720703125, -0.46630859375, 
207, 3600740522, 0.8641847372055054, 0.15356966853141785, -0.4114822447299957, 0.24558033049106598, 7.7352094650268555, 0.5606067180633545, 6.032861709594727, -0.1594870239496231, -3.7188920974731445, 0.7026240825653076, -0.744384765625, 0.3779296875, -0.46142578125, 
208, 3600748855, 0.864108681678772, 0.15367598831653595, -0.4115707576274872, 0.2456330955028534, 7.864596843719482, 0.5577220916748047, 5.9801459312438965, 1.2456715106964111, -2.2315759658813477, 0.681876540184021, -0.744140625, 0.373779296875, -0.46240234375, 
209, 3600757188, 0.8640533089637756, 0.15378685295581818, -0.41158220171928406, 0.24573925137519836, 7.752602577209473, 0.5948953032493591, 6.022334098815918, 1.807673454284668, -1.1163835525512695, 0.9944981932640076, -0.74462890625, 0.37158203125, -0.46484375, 
210, 3600765521, 0.8640109896659851, 0.15388882160186768, -0.4115799069404602, 0.24582825601100922, 7.712289333343506, 0.6554422974586487, 6.0108113288879395, 1.571279525756836, -0.8894414901733398, 0.7283920049667358, -0.7451171875, 0.372802734375, -0.46484375, 
211, 3600773854, 0.8639660477638245, 0.15398532152175903, -0.4116154909133911, 0.24586638808250427, 7.709385395050049, 0.6707983613014221, 5.962803363800049, 1.1590440273284912, -1.4243947267532349, 0.3457409143447876, -0.74462890625, 0.372802734375, -0.46142578125, 
212, 3600782187, 0.8638907074928284, 0.15409433841705322, -0.41172850131988525, 0.24587365984916687, 7.72121524810791, 0.6607609391212463, 6.004793167114258, 0.8909911513328552, -2.643350601196289, 0.08701155334711075, -0.744140625, 0.374267578125, -0.46484375, 
213, 3600790520, 0.8638030290603638, 0.15419717133045197, -0.41187784075737, 0.24586710333824158, 7.78782320022583, 0.6623529195785522, 6.055051803588867, 0.6865382790565491, -3.131711721420288, 0.16516059637069702, -0.744140625, 0.374267578125, -0.46630859375, 
214, 3600798853, 0.863736629486084, 0.15430815517902374, -0.41196364164352417, 0.24588671326637268, 7.823135852813721, 0.6610713601112366, 6.083996772766113, 0.9920394420623779, -2.254065752029419, 0.08357924968004227, -0.74462890625, 0.37158203125, -0.4658203125, 
215, 3600807186, 0.8637131452560425, 0.15441355109214783, -0.41195330023765564, 0.24592047929763794, 7.836819171905518, 0.6246076822280884, 6.08659029006958, 1.3505874872207642, -0.7947969436645508, 0.07307741045951843, -0.7431640625, 0.373779296875, -0.4677734375, 
216, 3600815519, 0.8637098073959351, 0.15450666844844818, -0.41188856959342957, 0.24598172307014465, 7.8273773193359375, 0.583342969417572, 6.077262878417969, 1.4184651374816895, 0.04249401390552521, 0.16987359523773193, -0.7451171875, 0.372802734375, -0.462890625, 
217, 3600823852, 0.8636901378631592, 0.15464866161346436, -0.41182956099510193, 0.24606068432331085, 7.815471649169922, 0.5549303293228149, 6.056918144226074, 2.197291612625122, -0.2240348756313324, 0.28721240162849426, -0.7451171875, 0.372802734375, -0.4638671875, 
218, 3600832185, 0.8636499643325806, 0.1548396199941635, -0.4117701053619385, 0.24618107080459595, 7.776381969451904, 0.5347463488578796, 6.019895553588867, 3.002910614013672, -0.43076738715171814, 0.47368407249450684, -0.744140625, 0.371826171875, -0.46533203125, 
219, 3600840518, 0.8636206984519958, 0.15498319268226624, -0.41172268986701965, 0.2462727129459381, 7.773438453674316, 0.5368920564651489, 5.9704461097717285, 2.2684733867645264, -0.39480501413345337, 0.486593633890152, -0.74560546875, 0.373779296875, -0.466796875, 
220, 3600848851, 0.863586962223053, 0.15510918200016022, -0.41169530153274536, 0.24635744094848633, 7.752501010894775, 0.5642896294593811, 5.905468940734863, 1.8725030422210693, -0.6354763507843018, 0.4361847937107086, -0.7451171875, 0.37255859375, -0.466796875, 
221, 3600857184, 0.8635461926460266, 0.15522249042987823, -0.411703497171402, 0.24641507863998413, 7.72416877746582, 0.5827112793922424, 5.932506084442139, 1.5531961917877197, -1.0897705554962158, 0.4119793772697449, -0.7451171875, 0.372314453125, -0.46337890625, 
222, 3600865517, 0.8634738326072693, 0.15534888207912445, -0.41177257895469666, 0.24647367000579834, 7.694478988647461, 0.5983046889305115, 5.962973594665527, 1.4831924438476562, -2.056554079055786, 0.46072325110435486, -0.74755859375, 0.37255859375, -0.46484375, 
223, 3600873850, 0.8633701205253601, 0.1554674506187439, -0.4119318723678589, 0.24649620056152344, 7.725949764251709, 0.6083927750587463, 6.0262556076049805, 1.0388365983963013, -3.3328089714050293, 0.5000923275947571, -0.74462890625, 0.373291015625, -0.466796875, 
224, 3600882183, 0.8632577657699585, 0.15558280050754547, -0.41211482882499695, 0.2465115189552307, 7.769867420196533, 0.6612471342086792, 6.0607781410217285, 0.7669414281845093, -3.6926376819610596, 0.35803577303886414, -0.74658203125, 0.37060546875, -0.46533203125, 
225, 3600890516, 0.8631764650344849, 0.15569202601909637, -0.41223546862602234, 0.24652528762817383, 7.787492752075195, 0.6691186428070068, 6.1014885902404785, 0.9618914127349854, -2.73484468460083, 0.28941524028778076, -0.74560546875, 0.37109375, -0.46533203125, 
226, 3600898849, 0.8631311655044556, 0.15577413141727448, -0.4122832119464874, 0.24655182659626007, 7.788473129272461, 0.6426476836204529, 6.099034786224365, 0.809947669506073, -1.5662720203399658, 0.20934513211250305, -0.743408203125, 0.376220703125, -0.46240234375, 
227, 3600907182, 0.8631290793418884, 0.15584838390350342, -0.41223227977752686, 0.246597558259964, 7.820725440979004, 0.620673656463623, 6.035139560699463, 1.139628529548645, -0.0617431178689003, 0.23024635016918182, -0.74853515625, 0.37255859375, -0.46533203125, 
228, 3600915515, 0.8631414175033569, 0.15589861571788788, -0.4121643602848053, 0.24663567543029785, 7.805304050445557, 0.5859322547912598, 6.039803504943848, 0.7840772867202759, 0.2667466402053833, 0.0991014689207077, -0.7470703125, 0.3701171875, -0.46142578125, 
229, 3600923848, 0.8631585240364075, 0.15590782463550568, -0.41211801767349243, 0.2466476559638977, 7.750069618225098, 0.595195472240448, 6.028780937194824, 0.11946478486061096, 0.13995617628097534, 0.14464358985424042, -0.74658203125, 0.3720703125, -0.46484375, 
230, 3600932181, 0.8631682991981506, 0.15594780445098877, -0.4120666980743408, 0.24667391180992126, 7.744289875030518, 0.6080631613731384, 5.988539695739746, 0.5989888906478882, 0.08414275199174881, 0.15296821296215057, -0.74462890625, 0.373291015625, -0.4638671875, 
231, 3600940514, 0.8631555438041687, 0.15600712597370148, -0.4120481610298157, 0.24671220779418945, 7.655208587646484, 0.637225329875946, 5.980649471282959, 0.7594875693321228, -0.49201104044914246, 0.2256101667881012, -0.74560546875, 0.373779296875, -0.46435546875, 
232, 3600948847, 0.8631205558776855, 0.1560440957546234, -0.4121018052101135, 0.2467210292816162, 7.668004035949707, 0.6552217602729797, 5.980863094329834, 0.15406960248947144, -1.4619964361190796, 0.2509170472621918, -0.74560546875, 0.373779296875, -0.46240234375, 
233, 3600957180, 0.8630551099777222, 0.1561128795146942, -0.4121977388858795, 0.24674667418003082, 7.715572357177734, 0.6708195805549622, 5.971132755279541, 0.5992193818092346, -2.1895430088043213, 0.5547018647193909, -0.74365234375, 0.371826171875, -0.4638671875, 
234, 3600965513, 0.8629955649375916, 0.15621593594551086, -0.4122304618358612, 0.24683493375778198, 7.753169536590576, 0.7322166562080383, 6.008091926574707, 1.4622141122817993, -1.4094103574752808, 0.81773442029953, -0.7451171875, 0.372802734375, -0.46484375, 
235, 3600973846, 0.8629703521728516, 0.1562725156545639, -0.4122529625892639, 0.24685004353523254, 7.647317886352539, 0.710527241230011, 6.123126029968262, 0.5570839643478394, -1.0702780485153198, 0.20404300093650818, -0.7451171875, 0.37109375, -0.46435546875, 
236, 3600982179, 0.8629606366157532, 0.15628522634506226, -0.41225844621658325, 0.2468665987253189, 7.743804454803467, 0.6475756764411926, 6.035655498504639, 0.004303191788494587, -0.6484884023666382, 0.28162848949432373, -0.74560546875, 0.371337890625, -0.46240234375, 
237, 3600990512, 0.86297607421875, 0.1562390774488449, -0.4122527539730072, 0.24685144424438477, 7.792263984680176, 0.6929531097412109, 5.954949855804443, -0.8259181976318359, -0.22188329696655273, 0.22827404737472534, -0.7451171875, 0.373291015625, -0.46484375, 
238, 3600998845, 0.8629358410835266, 0.15621797740459442, -0.41238322854042053, 0.2467876821756363, 7.711435794830322, 0.6501836776733398, 6.092211723327637, -1.1997835636138916, -2.3609023094177246, -0.10001078248023987, -0.74560546875, 0.373291015625, -0.462890625, 
239, 3601007178, 0.8628765344619751, 0.1562279760837555, -0.4125400483608246, 0.24672700464725494, 7.730941295623779, 0.5790488123893738, 6.127314567565918, -0.8082700371742249, -2.863556146621704, -0.027189509943127632, -0.74609375, 0.371826171875, -0.46337890625, 
240, 3601015511, 0.8628841638565063, 0.15628251433372498, -0.4124702215194702, 0.24678196012973785, 7.8518900871276855, 0.593900740146637, 5.984675884246826, 0.950211226940155, 0.28646960854530334, 0.2891334593296051, -0.74609375, 0.371826171875, -0.4638671875, 
241, 3601023844, 0.8628844618797302, 0.15634126961231232, -0.4124263525009155, 0.246816948056221, 7.728954315185547, 0.5944584608078003, 5.99431848526001, 0.8671956062316895, -0.10405784100294113, 0.19845911860466003, -0.7470703125, 0.37109375, -0.46533203125, 
242, 3601032177, 0.8628425002098083, 0.1563507467508316, -0.4125179350376129, 0.24680474400520325, 7.698143482208252, 0.6170803308486938, 6.03177547454834, -0.4223659634590149, -1.903944730758667, 0.25081461668014526, -0.74560546875, 0.372314453125, -0.46337890625, 
243, 3601040510, 0.8627980351448059, 0.1564081311225891, -0.4126015603542328, 0.24678421020507812, 7.784961700439453, 0.6257462501525879, 6.035387992858887, 0.19848470389842987, -1.985167145729065, -0.02619055286049843, -0.7470703125, 0.372314453125, -0.46337890625, 
244, 3601048843, 0.8627730011940002, 0.15646198391914368, -0.4126438498497009, 0.24676677584648132, 7.742830753326416, 0.6496068835258484, 6.113348960876465, 0.27161332964897156, -1.364713430404663, -0.12470290064811707, -0.74658203125, 0.37158203125, -0.4658203125, 
245, 3601057176, 0.8627511262893677, 0.15649136900901794, -0.4126948118209839, 0.24673905968666077, 7.7519426345825195, 0.6510876417160034, 6.094822406768799, -0.1739078313112259, -1.4072844982147217, -0.19795961678028107, -0.74853515625, 0.3720703125, -0.4638671875, 
246, 3601065509, 0.8627371191978455, 0.15650559961795807, -0.41274258494377136, 0.24669939279556274, 7.803801536560059, 0.6521747708320618, 6.0499677658081055, -0.40553733706474304, -1.2986544370651245, -0.2698587477207184, -0.7490234375, 0.373046875, -0.465087890625, 
247, 3601073842, 0.8627463579177856, 0.15649141371250153, -0.4127652943134308, 0.246637761592865, 7.816183090209961, 0.6030418872833252, 6.052392482757568, -0.7934136986732483, -0.8030446767807007, -0.420777827501297, -0.7451171875, 0.371337890625, -0.46142578125, 
248, 3601082175, 0.8627727031707764, 0.15647095441818237, -0.41274333000183105, 0.24659575521945953, 7.820289134979248, 0.5851883888244629, 6.09349250793457, -0.6547895073890686, -0.12585553526878357, -0.3683454990386963, -0.74755859375, 0.373291015625, -0.46240234375, 
249, 3601090508, 0.8628319501876831, 0.156443253159523, -0.4126501679420471, 0.2465617060661316, 7.804216384887695, 0.5855531692504883, 6.070889472961426, -0.5115033984184265, 0.959381103515625, -0.4358645975589752, -0.74755859375, 0.37109375, -0.462890625, 
250, 3601098841, 0.8629066944122314, 0.15640202164649963, -0.4125244617462158, 0.24653643369674683, 7.764890193939209, 0.6076626181602478, 6.04248571395874, -0.5912149548530579, 1.482065200805664, -0.46416839957237244, -0.7470703125, 0.370849609375, -0.4609375, 
251, 3601107174, 0.8629738092422485, 0.15637652575969696, -0.41241031885147095, 0.24650876224040985, 7.7502055168151855, 0.5910251140594482, 5.9997687339782715, -0.3954710066318512, 1.2612193822860718, -0.44500890374183655, -0.74658203125, 0.372314453125, -0.46337890625, 
252, 3601115507, 0.8630245327949524, 0.15634576976299286, -0.41233381628990173, 0.2464788854122162, 7.748631954193115, 0.5649104118347168, 5.9985175132751465, -0.5830696225166321, 0.7174803018569946, -0.37182900309562683, -0.74609375, 0.3701171875, -0.46435546875, 
253, 3601123840, 0.8630669713020325, 0.15635009109973907, -0.4122451841831207, 0.24647577106952667, 7.720356464385986, 0.5665122866630554, 5.982430458068848, 0.06529068201780319, 0.771065354347229, -0.1830265074968338, -0.74609375, 0.373779296875, -0.46533203125, 
254, 3601132173, 0.863100528717041, 0.15637077391147614, -0.4121531844139099, 0.2464991807937622, 7.670951843261719, 0.6041935086250305, 5.984719276428223, 0.3077806234359741, 0.7353590130805969, -0.09194229543209076, -0.748046875, 0.37158203125, -0.46435546875, 
255, 3601140506, 0.8631258010864258, 0.1563841849565506, -0.4120962917804718, 0.2464974820613861, 7.667970180511475, 0.6066611409187317, 5.975464344024658, 0.10993628948926926, 0.26900067925453186, -0.09237773716449738, -0.744140625, 0.374267578125, -0.462890625, 
256, 3601148839, 0.8631279468536377, 0.1564129889011383, -0.41207295656204224, 0.24651023745536804, 7.683741092681885, 0.6045439839363098, 6.005612850189209, 0.24756154417991638, -0.30405375361442566, 0.044082097709178925, -0.74658203125, 0.37255859375, -0.46435546875, 
257, 3601157172, 0.8630995750427246, 0.15647780895233154, -0.41210833191871643, 0.2465091347694397, 7.714969635009766, 0.6050444841384888, 6.026848793029785, 0.5259882807731628, -1.3022148609161377, 0.0036372211761772633, -0.74462890625, 0.37158203125, -0.46533203125, 
258, 3601165505, 0.863061785697937, 0.15655189752578735, -0.4121572971343994, 0.24651259183883667, 7.739147186279297, 0.6173404455184937, 6.050511360168457, 0.5902288556098938, -1.5590232610702515, -0.019325939938426018, -0.7470703125, 0.37158203125, -0.46484375, 
259, 3601173838, 0.8630390167236328, 0.1565944403409958, -0.4121958911418915, 0.2465011179447174, 7.73615026473999, 0.6135136485099792, 6.086876392364502, 0.17965824902057648, -1.2565704584121704, -0.0058528524823486805, -0.74609375, 0.373046875, -0.46630859375, 
260, 3601182171, 0.8630393743515015, 0.15661948919296265, -0.4121854901313782, 0.24650144577026367, 7.749941825866699, 0.626753568649292, 6.105259895324707, 0.0662384107708931, -0.4821239113807678, -0.06883825361728668, -0.7451171875, 0.370849609375, -0.46337890625, 
261, 3601190504, 0.8630679845809937, 0.15662142634391785, -0.4121294617652893, 0.2464936375617981, 7.766749858856201, 0.6251084208488464, 6.10452938079834, -0.07101546972990036, 0.3018893599510193, -0.1103077083826065, -0.74755859375, 0.37060546875, -0.4619140625, 
262, 3601198837, 0.8630958199501038, 0.15661796927452087, -0.4120663106441498, 0.24650350213050842, 7.738188743591309, 0.6406729817390442, 6.0579142570495605, -0.03674361854791641, 0.4218151867389679, 0.046822819858789444, -0.74462890625, 0.371337890625, -0.46435546875, 
263, 3601207170, 0.8631193041801453, 0.15661941468715668, -0.41201478242874146, 0.2465064525604248, 7.706050872802734, 0.6588554978370667, 6.059573650360107, -0.02037612348794937, 0.24569174647331238, 0.049691617488861084, -0.74560546875, 0.372802734375, -0.46435546875, 
264, 3601215503, 0.8631383180618286, 0.15658599138259888, -0.4119836986064911, 0.24651311337947845, 7.71909761428833, 0.6691198348999023, 6.046576976776123, -0.4994391202926636, 0.08567962050437927, 0.27696672081947327, -0.74658203125, 0.37060546875, -0.4658203125, 
265, 3601223836, 0.8631539344787598, 0.15656638145446777, -0.4119507372379303, 0.2465260624885559, 7.719641208648682, 0.6502506732940674, 5.9993896484375, -0.2596130967140198, 0.07251390069723129, 0.3531946837902069, -0.74609375, 0.37158203125, -0.466796875, 
266, 3601232169, 0.8631496429443359, 0.15657444298267365, -0.4119371771812439, 0.24655863642692566, 7.735434532165527, 0.6420031785964966, 6.0065789222717285, 0.05174075439572334, -0.34467798471450806, 0.4059344232082367, -0.74560546875, 0.37158203125, -0.46630859375, 
267, 3601240502, 0.8631318211555481, 0.15657833218574524, -0.4119685888290405, 0.24656617641448975, 7.735105991363525, 0.6407802700996399, 6.009181976318359, -0.1582319438457489, -0.9717144966125488, 0.4081372320652008, -0.74658203125, 0.3720703125, -0.4638671875, 
268, 3601248835, 0.8631173372268677, 0.1565767526626587, -0.4119890630245209, 0.24658383429050446, 7.777207374572754, 0.6549143195152283, 6.036977767944336, -0.19104376435279846, -0.8019176125526428, 0.42962753772735596, -0.7490234375, 0.37109375, -0.462890625, 
269, 3601257168, 0.8631157279014587, 0.15658040344715118, -0.41197508573532104, 0.24661043286323547, 7.774290084838867, 0.6083210706710815, 6.046398162841797, 0.06580296903848648, -0.29946884512901306, 0.4831613004207611, -0.7451171875, 0.371337890625, -0.4638671875, 
270, 3601265501, 0.8631223440170288, 0.15657939016819, -0.41193437576293945, 0.24665597081184387, 7.7776007652282715, 0.6143720149993896, 6.031684875488281, 0.10027971863746643, 0.09759023040533066, 0.5260907411575317, -0.74609375, 0.373291015625, -0.46435546875, 
271, 3601273834, 0.8631505370140076, 0.15652874112129211, -0.4118759334087372, 0.24668706953525543, 7.766871452331543, 0.6185993552207947, 6.017236232757568, -0.4657052457332611, 0.5906386971473694, 0.6471949815750122, -0.748046875, 0.373046875, -0.4638671875, 
272, 3601282167, 0.8631678819656372, 0.15649811923503876, -0.411819726228714, 0.2467396855354309, 7.722831726074219, 0.5776063799858093, 6.025447845458984, -0.15285293757915497, 0.46185025572776794, 0.7328232526779175, -0.74609375, 0.37255859375, -0.46484375, 
273, 3601290500, 0.8631771206855774, 0.15645982325077057, -0.41179272532463074, 0.24677690863609314, 7.689284801483154, 0.5809538960456848, 6.034274101257324, -0.3495446443557739, 0.08178624510765076, 0.7805425524711609, -0.74365234375, 0.371826171875, -0.46435546875, 
274, 3601298833, 0.863178551197052, 0.15640805661678314, -0.41178351640701294, 0.2468194216489792, 7.681265354156494, 0.5993437767028809, 6.004274845123291, -0.5749243497848511, -0.13679282367229462, 0.8961396217346191, -0.74658203125, 0.3720703125, -0.466796875, 
275, 3601307166, 0.8631691932678223, 0.15637104213237762, -0.41179487109184265, 0.24685703217983246, 7.688941478729248, 0.6266605854034424, 6.005777359008789, -0.42269885540008545, -0.4825593829154968, 0.9226503372192383, -0.7451171875, 0.37060546875, -0.46728515625, 
276, 3601315499, 0.8631460070610046, 0.15633442997932434, -0.4118388593196869, 0.2468877136707306, 7.676974296569824, 0.6349149942398071, 6.002859115600586, -0.6325819492340088, -0.9853667616844177, 0.8361510634422302, -0.7451171875, 0.373046875, -0.46630859375, 
277, 3601323832, 0.8631104230880737, 0.1562713086605072, -0.4119446873664856, 0.2468756139278412, 7.683785915374756, 0.6584793925285339, 6.029164791107178, -1.27888023853302, -1.7713395357131958, 0.772653341293335, -0.74560546875, 0.372314453125, -0.46484375, 
278, 3601332165, 0.8630710244178772, 0.1562248021364212, -0.4120427072048187, 0.24687911570072174, 7.72529411315918, 0.6380083560943604, 6.031059265136719, -1.0170515775680542, -1.741089105606079, 0.7685551643371582, -0.74755859375, 0.372802734375, -0.4638671875, 
279, 3601340498, 0.8630483746528625, 0.15617075562477112, -0.4121130704879761, 0.2468755543231964, 7.767566680908203, 0.6448850631713867, 6.052967071533203, -1.028782844543457, -1.2901504039764404, 0.7024959325790405, -0.74755859375, 0.37158203125, -0.4638671875, 
280, 3601348831, 0.8630371689796448, 0.15610921382904053, -0.41215741634368896, 0.24687904119491577, 7.749011516571045, 0.6503223180770874, 6.080395221710205, -1.0822911262512207, -0.893642246723175, 0.636206328868866, -0.74658203125, 0.373291015625, -0.4638671875, 
281, 3601357164, 0.8630384802818298, 0.15606524050235748, -0.4121764898300171, 0.24687066674232483, 7.7509565353393555, 0.6245075464248657, 6.085531711578369, -0.8154164552688599, -0.589883029460907, 0.39835259318351746, -0.7470703125, 0.3720703125, -0.46484375, 
282, 3601365497, 0.8630453944206238, 0.15602706372737885, -0.41217729449272156, 0.24686914682388306, 7.701702117919922, 0.6084995269775391, 6.113506317138672, -0.7186458110809326, -0.3635300397872925, 0.2912082374095917, -0.74609375, 0.3720703125, -0.46484375, 
283, 3601373830, 0.8630563020706177, 0.1559845358133316, -0.41217535734176636, 0.24686121940612793, 7.719955921173096, 0.5682433843612671, 6.124441623687744, -0.744567334651947, -0.2911185622215271, 0.3181288242340088, -0.74462890625, 0.372314453125, -0.4638671875, 
284, 3601382163, 0.8630602359771729, 0.15596415102481842, -0.41217002272605896, 0.24686923623085022, 7.724082946777344, 0.5637943148612976, 6.068091869354248, -0.4238002896308899, -0.3483920097351074, 0.3037591874599457, -0.74658203125, 0.372802734375, -0.4638671875, 
285, 3601390496, 0.8630532026290894, 0.15596045553684235, -0.412175714969635, 0.2468864917755127, 7.724054336547852, 0.5512551665306091, 6.044281482696533, -0.1276741623878479, -0.5590691566467285, 0.4727875590324402, -0.7470703125, 0.37060546875, -0.46435546875, 
286, 3601398829, 0.8630356192588806, 0.15595586597919464, -0.41220131516456604, 0.24690812826156616, 7.738603591918945, 0.5461195707321167, 6.025404930114746, -0.20659160614013672, -0.8620854616165161, 0.525732159614563, -0.74462890625, 0.373291015625, -0.46484375, 
287, 3601407162, 0.8630082011222839, 0.1559543013572693, -0.4122537672519684, 0.2469174861907959, 7.745663642883301, 0.5637370347976685, 6.018495082855225, -0.262942910194397, -1.2538552284240723, 0.5361059308052063, -0.7451171875, 0.371826171875, -0.4638671875, 
288, 3601415495, 0.8629668951034546, 0.15596891939640045, -0.4123223125934601, 0.24693810939788818, 7.798179626464844, 0.5661832690238953, 6.0204691886901855, -0.09504162520170212, -1.5738025903701782, 0.5624117255210876, -0.74755859375, 0.3720703125, -0.462890625, 
289, 3601423828, 0.8629194498062134, 0.15598535537719727, -0.41240641474723816, 0.24695302546024323, 7.805726528167725, 0.5777662396430969, 6.044100284576416, -0.08238819241523743, -1.7917031049728394, 0.6384348273277283, -0.74951171875, 0.372802734375, -0.462158203125, 
290, 3601432161, 0.8628686666488647, 0.15600255131721497, -0.41250187158584595, 0.24696072936058044, 7.815303325653076, 0.5816289186477661, 6.100054740905762, -0.16128003597259521, -1.9823753833770752, 0.522197425365448, -0.748291015625, 0.373779296875, -0.463134765625, 
291, 3601440494, 0.862819254398346, 0.15602238476276398, -0.4125921130180359, 0.2469698190689087, 7.847649097442627, 0.5626922249794006, 6.095129013061523, -0.09122509509325027, -1.8984118700027466, 0.5684822797775269, -0.743408203125, 0.375244140625, -0.462890625, 
292, 3601448827, 0.8627856373786926, 0.15602855384349823, -0.412651002407074, 0.24698510766029358, 7.869321823120117, 0.5396891832351685, 6.166959285736084, -0.21161198616027832, -1.4007272720336914, 0.49963122606277466, -0.74658203125, 0.372802734375, -0.4638671875, 
293, 3601457160, 0.8627737164497375, 0.15602505207061768, -0.41266313195228577, 0.2470085471868515, 7.883470058441162, 0.573185920715332, 6.152853965759277, -0.10290519148111343, -0.6487957239151001, 0.5767045021057129, -0.7451171875, 0.372802734375, -0.46337890625, 
294, 3601465493, 0.8627721071243286, 0.15601781010627747, -0.41264569759368896, 0.24704745411872864, 7.84520959854126, 0.5885144472122192, 6.14226770401001, -0.053802698850631714, -0.2181692123413086, 0.5756542682647705, -0.744873046875, 0.374755859375, -0.46240234375, 
295, 3601473826, 0.8627814650535583, 0.15601301193237305, -0.41260644793510437, 0.24708342552185059, 7.829766750335693, 0.6011034846305847, 6.100724220275879, 0.08137643337249756, 0.11203667521476746, 0.5505524277687073, -0.74609375, 0.373291015625, -0.46240234375, 
296, 3601482159, 0.8627887964248657, 0.15600568056106567, -0.4125736951828003, 0.24711713194847107, 7.7819437980651855, 0.6067113876342773, 6.060582160949707, -0.015816789120435715, 0.007325669750571251, 0.4776798486709595, -0.74853515625, 0.373291015625, -0.46337890625, 
297, 3601490492, 0.86279296875, 0.15598776936531067, -0.41256052255630493, 0.24713565409183502, 7.783980369567871, 0.6444423794746399, 6.031076431274414, -0.24972596764564514, -0.219859778881073, 0.4901283383369446, -0.74658203125, 0.371337890625, -0.462890625, 
298, 3601498825, 0.862797200679779, 0.15595605969429016, -0.41255033016204834, 0.24715784192085266, 7.787307262420654, 0.6578112244606018, 6.0073652267456055, -0.40333452820777893, -0.20034171640872955, 0.6195827126502991, -0.74658203125, 0.37353515625, -0.466796875, 
299, 3601507158, 0.8628119826316833, 0.15589416027069092, -0.41252967715263367, 0.24718059599399567, 7.7620649337768555, 0.6635263562202454, 5.976493835449219, -0.7862929701805115, 0.0673910528421402, 0.6594384908676147, -0.745361328125, 0.374267578125, -0.46533203125, 
300, 3601515491, 0.8628227114677429, 0.1558292806148529, -0.4125131070613861, 0.24721118807792664, 7.740234375, 0.6587339043617249, 5.978739261627197, -0.8268659114837646, 0.021131742745637894, 0.7545697093009949, -0.745849609375, 0.374755859375, -0.46240234375, 
301, 3601523824, 0.8628474473953247, 0.15574200451374054, -0.4124890863895416, 0.24722005426883698, 7.726028919219971, 0.661266028881073, 5.937596321105957, -1.1347745656967163, 0.23908324539661407, 0.6768817901611328, -0.744140625, 0.373779296875, -0.46484375, 
302, 3601532157, 0.8628665208816528, 0.1556835025548935, -0.41244861483573914, 0.24725766479969025, 7.73620080947876, 0.6671456098556519, 5.912075519561768, -0.6226180195808411, 0.3472265601158142, 0.742992103099823, -0.74658203125, 0.372314453125, -0.462890625, 
303, 3601540490, 0.8628808856010437, 0.1556365042924881, -0.4124206006526947, 0.24728408455848694, 7.694849491119385, 0.6536840200424194, 5.9236626625061035, -0.5214930772781372, 0.1293518990278244, 0.6837207674980164, -0.744873046875, 0.374755859375, -0.462890625, 
304, 3601548823, 0.8628838658332825, 0.1555781215429306, -0.4124281704425812, 0.24729815125465393, 7.712281227111816, 0.6565451622009277, 5.91090202331543, -0.8567065000534058, -0.364272803068161, 0.6412779688835144, -0.7470703125, 0.373291015625, -0.46337890625, 
305, 3601557156, 0.8628786206245422, 0.15552933514118195, -0.4124529957771301, 0.24730554223060608, 7.6975250244140625, 0.6110673546791077, 5.928884029388428, -0.7878042459487915, -0.6440571546554565, 0.6466057896614075, -0.74609375, 0.373779296875, -0.46337890625, 
306, 3601565489, 0.8628616333007812, 0.15550154447555542, -0.41248950362205505, 0.24732127785682678, 7.692081451416016, 0.6063607931137085, 5.960728645324707, -0.5574041604995728, -0.9204603433609009, 0.6065962910652161, -0.746826171875, 0.374755859375, -0.46484375, 
307, 3601573822, 0.8628337979316711, 0.1554800271987915, -0.4125604033470154, 0.2473137080669403, 7.720170497894287, 0.5993009209632874, 5.9764933586120605, -0.6581449508666992, -1.4430164098739624, 0.4907687306404114, -0.74462890625, 0.372314453125, -0.4619140625, 
308, 3601582155, 0.862795352935791, 0.15547168254852295, -0.4126436710357666, 0.24731433391571045, 7.774348735809326, 0.5758557915687561, 5.973366737365723, -0.5423429012298584, -1.6974680423736572, 0.47460615634918213, -0.74462890625, 0.372802734375, -0.4638671875, 
309, 3601590488, 0.862760066986084, 0.15547308325767517, -0.4127175509929657, 0.247312992811203, 7.788337230682373, 0.5459522604942322, 5.986318111419678, -0.3448828160762787, -1.5856107473373413, 0.46543624997138977, -0.74462890625, 0.374267578125, -0.4658203125, 
310, 3601598821, 0.8627323508262634, 0.15546850860118866, -0.412771075963974, 0.24732375144958496, 7.810611248016357, 0.5563338398933411, 5.999639987945557, -0.40932825207710266, -1.2780606746673584, 0.43767035007476807, -0.7470703125, 0.371826171875, -0.46240234375, 
311, 3601607154, 0.8627088069915771, 0.15544579923152924, -0.41282179951667786, 0.247335284948349, 7.862783908843994, 0.5505829453468323, 5.99582052230835, -0.5050230026245117, -1.1348514556884766, 0.6658932566642761, -0.745361328125, 0.374755859375, -0.4619140625, 
312, 3601615487, 0.8626732230186462, 0.15541866421699524, -0.41288191080093384, 0.24737608432769775, 7.868191719055176, 0.5544597506523132, 6.080910682678223, -0.4551521837711334, -1.2561861276626587, 1.0076384544372559, -0.747314453125, 0.374755859375, -0.46337890625, 
313, 3601623820, 0.8626611232757568, 0.15539519488811493, -0.4128892719745636, 0.24742062389850616, 7.894306659698486, 0.5577501058578491, 6.06728458404541, -0.20308245718479156, -0.4817653298377991, 0.9298734664916992, -0.745361328125, 0.374755859375, -0.46142578125, 
314, 3601632153, 0.8626880049705505, 0.15537631511688232, -0.41280630230903625, 0.24747711420059204, 7.890329837799072, 0.5369925498962402, 6.001106262207031, 0.09144283086061478, 0.8014438152313232, 0.629725992679596, -0.74658203125, 0.373779296875, -0.462890625, 
315, 3601640486, 0.8627051711082458, 0.1553613692522049, -0.41274359822273254, 0.24753135442733765, 7.871553421020508, 0.5014142990112305, 5.959383964538574, 0.12814800441265106, 0.5083144307136536, 0.7492163181304932, -0.745849609375, 0.374267578125, -0.4619140625, 
316, 3601648819, 0.862734854221344, 0.15532110631465912, -0.41265493631362915, 0.24760107696056366, 7.909470558166504, 0.5633364319801331, 5.8331074714660645, -0.07180950790643692, 0.9864811301231384, 0.8889932036399841, -0.74658203125, 0.371826171875, -0.46240234375, 
317, 3601657152, 0.862774133682251, 0.15525886416435242, -0.4126366674900055, 0.24753335118293762, 7.768194675445557, 0.5729857087135315, 5.88681173324585, -1.3228598833084106, 0.005968116223812103, -0.41048088669776917, -0.7451171875, 0.374267578125, -0.46337890625, 
318, 3601665485, 0.8627986311912537, 0.1550823301076889, -0.41276949644088745, 0.24733689427375793, 7.771231174468994, 0.44565290212631226, 5.878076553344727, -3.954312801361084, -1.7756428718566895, -1.0140804052352905, -0.745361328125, 0.374755859375, -0.462890625, 
319, 3601673818, 0.8628718256950378, 0.15479624271392822, -0.41279760003089905, 0.24721398949623108, 7.965041160583496, 0.4219398498535156, 5.777990341186523, -4.521899223327637, 0.2929244041442871, 0.18918673694133759, -0.743896484375, 0.376220703125, -0.46337890625, 
320, 3601682151, 0.8629428148269653, 0.15444709360599518, -0.4128126800060272, 0.24715915322303772, 7.9384541511535645, 0.5501335263252258, 5.929451942443848, -4.8924336433410645, 0.7761625647544861, 1.2400363683700562, -0.746337890625, 0.374267578125, -0.4658203125, 
321, 3601690484, 0.8629571795463562, 0.1541379988193512, -0.41296064853668213, 0.24705472588539124, 7.824593544006348, 0.5408533215522766, 6.153143405914307, -4.972785949707031, -1.3463481664657593, 0.9919368624687195, -0.746337890625, 0.374755859375, -0.45947265625, 
322, 3601698817, 0.8629772663116455, 0.15394778549671173, -0.41299644112586975, 0.24704353511333466, 7.897046089172363, 0.481888085603714, 6.097504138946533, -2.6889443397521973, -0.20318493247032166, 1.0986714363098145, -0.744873046875, 0.375732421875, -0.46337890625, 
323, 3601707150, 0.8630707859992981, 0.15385377407073975, -0.41277214884757996, 0.24715042114257812, 7.9460625648498535, 0.4660438299179077, 5.996653079986572, -0.12298677861690521, 3.235564708709717, 1.2223371267318726, -0.743408203125, 0.374755859375, -0.46533203125, 
324, 3601715483, 0.8631595373153687, 0.15381138026714325, -0.4125347137451172, 0.24726375937461853, 7.843974590301514, 0.48498374223709106, 5.9492411613464355, 0.5272433757781982, 3.188178062438965, 0.9016210436820984, -0.746337890625, 0.377685546875, -0.465087890625, 
325, 3601723816, 0.8631911873817444, 0.15375085175037384, -0.412485808134079, 0.2472725212574005, 7.861324787139893, 0.5510550141334534, 5.915136337280273, -0.7479740977287292, 0.4835711419582367, 0.4484284520149231, -0.745361328125, 0.379638671875, -0.463134765625, 
326, 3601732149, 0.8631923794746399, 0.15363049507141113, -0.41257649660110474, 0.24719102680683136, 7.907021522521973, 0.5685507655143738, 5.985691547393799, -2.493558168411255, -1.3527259826660156, -0.02196420356631279, -0.744384765625, 0.376708984375, -0.46240234375, 
327, 3601740482, 0.8632603287696838, 0.15341892838478088, -0.4125998020172119, 0.24704615771770477, 7.871051788330078, 0.6061144471168518, 6.013864040374756, -3.7339789867401123, 0.020901214331388474, -0.48950082063674927, -0.745361328125, 0.37744140625, -0.46044921875, 
328, 3601748815, 0.8634383082389832, 0.1531352698802948, -0.4124046862125397, 0.24692603945732117, 7.863801002502441, 0.6558616161346436, 5.938453674316406, -3.9838969707489014, 3.521496057510376, -0.7025087475776672, -0.743408203125, 0.378173828125, -0.46484375, 
329, 3601757148, 0.8637199401855469, 0.15280379354953766, -0.4120340645313263, 0.24676528573036194, 7.829790115356445, 0.7336723208427429, 5.817717552185059, -4.359940528869629, 6.283480644226074, -1.555283784866333, -0.745361328125, 0.377197265625, -0.46240234375, 
330, 3601765481, 0.864056408405304, 0.1524074822664261, -0.4116336405277252, 0.24650083482265472, 7.7579755783081055, 0.7566974759101868, 5.734865188598633, -5.775511741638184, 6.935440540313721, -2.7492918968200684, -0.742919921875, 0.377197265625, -0.46337890625, 
331, 3601773814, 0.8643822073936462, 0.1520477682352066, -0.4112831652164459, 0.2461654394865036, 7.708263397216797, 0.7196977138519287, 5.69600772857666, -5.846257209777832, 6.025313377380371, -3.576298236846924, -0.744873046875, 0.377197265625, -0.46484375, 
332, 3601782147, 0.8646547198295593, 0.15173938870429993, -0.41103610396385193, 0.24581074714660645, 7.644499778747559, 0.6428182721138, 5.830414295196533, -5.642829418182373, 4.26425838470459, -3.793379068374634, -0.742919921875, 0.378173828125, -0.46533203125, 
333, 3601790480, 0.8649014234542847, 0.15144972503185272, -0.4108305275440216, 0.24546493589878082, 7.635578632354736, 0.49080905318260193, 6.006389141082764, -5.396189212799072, 3.5941643714904785, -3.525991678237915, -0.741943359375, 0.37890625, -0.462890625, 
334, 3601798813, 0.8651397228240967, 0.1512729674577713, -0.41053563356399536, 0.24522759020328522, 7.665012836456299, 0.3278992772102356, 6.1457319259643555, -3.1608095169067383, 4.443352699279785, -3.107813596725464, -0.743408203125, 0.377197265625, -0.462890625, 
335, 3601807146, 0.8654298186302185, 0.1511983871459961, -0.41006404161453247, 0.24503901600837708, 7.7307000160217285, 0.2666131556034088, 6.124259948730469, -1.1429967880249023, 6.60478401184082, -3.570124864578247, -0.742431640625, 0.376708984375, -0.466796875, 
336, 3601815479, 0.8657351732254028, 0.15122684836387634, -0.4095146954059601, 0.24486154317855835, 7.82441520690918, 0.3567221164703369, 5.983687400817871, 0.3358025848865509, 7.280717849731445, -4.311990261077881, -0.742431640625, 0.377685546875, -0.46484375, 
337, 3601823812, 0.8660168647766113, 0.15131278336048126, -0.40906789898872375, 0.24455904960632324, 7.74553108215332, 0.45871275663375854, 5.965304374694824, 0.06057767570018768, 5.485417366027832, -5.751689910888672, -0.740478515625, 0.377685546875, -0.46728515625, 
338, 3601832145, 0.8662592172622681, 0.1513112187385559, -0.4088139533996582, 0.24412599205970764, 7.693317413330078, 0.4940606653690338, 6.014854907989502, -2.3044745922088623, 2.97947359085083, -6.347066879272461, -0.740966796875, 0.376220703125, -0.466796875, 
339, 3601840478, 0.8664996027946472, 0.15117806196212769, -0.4086378514766693, 0.24364931881427765, 7.7328972816467285, 0.5870896577835083, 6.0509138107299805, -4.352999687194824, 2.4038453102111816, -5.890442848205566, -0.744873046875, 0.375732421875, -0.466796875, 
340, 3601848811, 0.8667386770248413, 0.15097495913505554, -0.40844619274139404, 0.24324582517147064, 7.792372226715088, 0.6630870699882507, 6.104402542114258, -4.755115985870361, 2.9559595584869385, -4.729117393493652, -0.743896484375, 0.375244140625, -0.46728515625, 
341, 3601857144, 0.86700838804245, 0.15072095394134521, -0.4081626534461975, 0.24291813373565674, 7.815290451049805, 0.6435703635215759, 6.181437969207764, -4.657449245452881, 4.561793327331543, -3.758338451385498, -0.7431640625, 0.373291015625, -0.466796875, 
342, 3601865477, 0.8673246502876282, 0.150496244430542, -0.40770986676216125, 0.24268901348114014, 7.854895114898682, 0.6437356472015381, 6.224426746368408, -3.3125734329223633, 6.935591697692871, -3.3257393836975098, -0.741943359375, 0.375244140625, -0.47119140625, 
343, 3601873810, 0.8676894903182983, 0.1503424495458603, -0.407103955745697, 0.24249666929244995, 7.892519474029541, 0.624921977519989, 6.259839057922363, -1.8247452974319458, 8.887601852416992, -3.690870761871338, -0.740478515625, 0.375732421875, -0.46875, 
344, 3601882143, 0.8680864572525024, 0.1503138542175293, -0.40637916326522827, 0.24230974912643433, 7.914373874664307, 0.6207290887832642, 6.224907398223877, -0.007184793706983328, 10.065882682800293, -4.760264873504639, -0.74072265625, 0.374267578125, -0.47021484375, 
345, 3601890476, 0.8684973120689392, 0.15035992860794067, -0.40563276410102844, 0.2420598715543747, 7.893767833709717, 0.6518545150756836, 6.175515651702881, 0.6132816672325134, 10.03483772277832, -5.939774990081787, -0.73974609375, 0.375, -0.47412109375, 
346, 3601898809, 0.8689036965370178, 0.1503722220659256, -0.4049900770187378, 0.24166931211948395, 7.752762317657471, 0.7311477065086365, 6.147756099700928, -0.9991729259490967, 8.577054977416992, -7.3241987228393555, -0.7392578125, 0.37353515625, -0.4755859375, 
347, 3601907142, 0.8693270087242126, 0.15028735995292664, -0.40440845489501953, 0.24117276072502136, 7.677370548248291, 0.7826653718948364, 6.065182209014893, -2.8999030590057373, 8.061031341552734, -7.85753870010376, -0.73828125, 0.37158203125, -0.473388671875, 
348, 3601915475, 0.8697459697723389, 0.15016251802444458, -0.4038582742214203, 0.24066168069839478, 7.67255163192749, 0.7822278141975403, 6.058609485626221, -3.628833055496216, 7.748767852783203, -7.8402485847473145, -0.73876953125, 0.3720703125, -0.475341796875, 
349, 3601923808, 0.8701693415641785, 0.1500493437051773, -0.4032711684703827, 0.24018576741218567, 7.659947872161865, 0.7627364993095398, 6.1792826652526855, -3.1067123413085938, 8.265432357788086, -7.465256690979004, -0.73876953125, 0.3720703125, -0.477783203125, 
350, 3601932141, 0.8706095814704895, 0.14995519816875458, -0.4025610387325287, 0.2398403435945511, 7.665634632110596, 0.795375406742096, 6.261033058166504, -1.931198239326477, 10.013553619384766, -6.486536502838135, -0.73681640625, 0.3701171875, -0.477783203125, 
351, 3601940474, 0.8711103200912476, 0.14990226924419403, -0.4016421139240265, 0.23959586024284363, 7.721208095550537, 0.8054428100585938, 6.255014419555664, -0.16686396300792694, 12.942158699035645, -5.968976020812988, -0.73828125, 0.3701171875, -0.478271484375, 
352, 3601948807, 0.8716081380844116, 0.14993640780448914, -0.4006142020225525, 0.23948520421981812, 7.769680023193359, 0.781825602054596, 6.183360576629639, 1.979724645614624, 14.220359802246094, -5.060694694519043, -0.73974609375, 0.368896484375, -0.479248046875, 
353, 3601957140, 0.8720683455467224, 0.15005768835544586, -0.3996402323246002, 0.23936058580875397, 7.538532257080078, 0.7198064923286438, 6.384808540344238, 2.797305107116699, 13.040157318115234, -5.5638346672058105, -0.7353515625, 0.369140625, -0.478271484375, 
354, 3601965473, 0.8724904656410217, 0.1502070128917694, -0.3987351357936859, 0.2392382174730301, 7.581341743469238, 0.6644905805587769, 6.3647236824035645, 2.9752726554870605, 11.913130760192871, -5.4403228759765625, -0.73583984375, 0.369384765625, -0.483154296875, 
355, 3601973806, 0.8729580640792847, 0.15035420656204224, -0.39771559834480286, 0.23913690447807312, 7.721748352050781, 0.7306081652641296, 6.18281888961792, 3.421140432357788, 13.602544784545898, -5.45548677444458, -0.732421875, 0.367919921875, -0.48486328125, 
356, 3601982139, 0.8733934760093689, 0.15057337284088135, -0.3967820405960083, 0.238959401845932, 7.607244491577148, 0.8126658797264099, 6.237541675567627, 3.490478038787842, 11.977859497070312, -6.660534858703613, -0.731689453125, 0.364990234375, -0.48779296875, 
357, 3601990472, 0.8737613558769226, 0.15076178312301636, -0.39611271023750305, 0.23860593140125275, 7.560312271118164, 0.8712601065635681, 6.259026050567627, 1.5936665534973145, 8.193918228149414, -7.655929088592529, -0.729248046875, 0.365478515625, -0.490234375, 
358, 3601998805, 0.8740909695625305, 0.1509367674589157, -0.39557111263275146, 0.23818695545196533, 7.599499702453613, 0.8971570730209351, 6.26978063583374, 0.6650480628013611, 6.343878269195557, -8.085352897644043, -0.731689453125, 0.365234375, -0.48876953125, 
359, 3602007138, 0.8744083642959595, 0.1511855125427246, -0.39494821429252625, 0.237897589802742, 7.687032699584961, 0.8556684255599976, 6.342631816864014, 2.619542360305786, 7.297470569610596, -6.953535079956055, -0.734130859375, 0.3642578125, -0.490234375, 
360, 3602015471, 0.8747832179069519, 0.15147940814495087, -0.3940421938896179, 0.23783542215824127, 7.7164201736450195, 0.760254979133606, 6.4549880027771, 5.098924160003662, 11.320443153381348, -5.374904155731201, -0.730712890625, 0.36328125, -0.4912109375, 
361, 3602023804, 0.8752092719078064, 0.15175800025463104, -0.39292359352111816, 0.23794087767601013, 7.739696025848389, 0.6337345838546753, 6.560698509216309, 6.51487922668457, 14.572504043579102, -3.751141309738159, -0.731201171875, 0.3603515625, -0.4931640625, 
362, 3602032137, 0.8756769299507141, 0.1520508974790573, -0.3915773928165436, 0.23825189471244812, 7.648556232452393, 0.5801657438278198, 6.524353504180908, 8.357466697692871, 17.899694442749023, -2.098177671432495, -0.727783203125, 0.35986328125, -0.495361328125, 
363, 3602040470, 0.8761782646179199, 0.15237624943256378, -0.3900693953037262, 0.23867438733577728, 7.543519020080566, 0.5504390597343445, 6.474179744720459, 9.906975746154785, 20.17516326904297, -1.2481437921524048, -0.7294921875, 0.359619140625, -0.496337890625, 
364, 3602048803, 0.8767003417015076, 0.15261447429656982, -0.3885716199874878, 0.23904742300510406, 7.41341495513916, 0.5427171587944031, 6.40447473526001, 8.45234203338623, 20.331432342529297, -1.523983359336853, -0.7275390625, 0.358642578125, -0.500732421875, 
365, 3602057136, 0.8771581649780273, 0.15281477570533752, -0.3872983455657959, 0.23930682241916656, 7.22968053817749, 0.5698460340499878, 6.251087665557861, 6.847659587860107, 17.179779052734375, -1.9092985391616821, -0.7236328125, 0.357177734375, -0.503662109375, 
366, 3602065469, 0.8775171041488647, 0.1530354619026184, -0.3863067924976349, 0.23945210874080658, 7.106429576873779, 0.6395159959793091, 6.28206729888916, 5.638923168182373, 12.92932415008545, -2.633284330368042, -0.725830078125, 0.3603515625, -0.508544921875, 
367, 3602073802, 0.8777342438697815, 0.15327568352222443, -0.38573962450027466, 0.23941656947135925, 7.056034088134766, 0.6787292957305908, 6.366927146911621, 3.942568302154541, 6.631909370422363, -3.40278697013855, -0.72314453125, 0.3544921875, -0.5078125, 
368, 3602082135, 0.8778548240661621, 0.1535080224275589, -0.38540270924568176, 0.23936811089515686, 7.141269207000732, 0.6469771265983582, 6.481581211090088, 3.0939688682556152, 3.315045118331909, -2.872751235961914, -0.72314453125, 0.357421875, -0.509033203125, 
369, 3602090468, 0.8779657483100891, 0.15380124747753143, -0.38500821590423584, 0.23940828442573547, 7.246787071228027, 0.6109733581542969, 6.597894191741943, 4.639147758483887, 3.968285322189331, -2.0567586421966553, -0.72119140625, 0.35400390625, -0.50830078125, 
370, 3602098801, 0.8780856132507324, 0.15419168770313263, -0.38450366258621216, 0.23952871561050415, 7.323727607727051, 0.6634025573730469, 6.665592670440674, 6.459653854370117, 5.171898365020752, -2.017056941986084, -0.72216796875, 0.35595703125, -0.509765625, 
371, 3602107134, 0.8782546520233154, 0.1545957326889038, -0.383966863155365, 0.23950956761837006, 7.404244422912598, 0.7784780263900757, 6.558151721954346, 6.008382797241211, 5.5030388832092285, -3.851292610168457, -0.720703125, 0.3544921875, -0.51171875, 
372, 3602115467, 0.8784024119377136, 0.15510544180870056, -0.3834787607192993, 0.23941971361637115, 7.446256637573242, 0.8998606204986572, 6.472807884216309, 6.582218647003174, 4.270021915435791, -5.326647758483887, -0.7216796875, 0.35302734375, -0.5107421875, 
373, 3602123800, 0.8784983158111572, 0.1557677835226059, -0.38307249546051025, 0.23928868770599365, 7.352714538574219, 0.7840274572372437, 6.6031951904296875, 8.2636137008667, 2.451615333557129, -6.046380996704102, -0.724365234375, 0.350341796875, -0.51171875, 
374, 3602132133, 0.8786022663116455, 0.156437948346138, -0.382667601108551, 0.23911747336387634, 7.281219959259033, 0.7226392030715942, 6.803243637084961, 8.12545108795166, 2.3654236793518066, -6.596806049346924, -0.722900390625, 0.350341796875, -0.51025390625, 
375, 3602140466, 0.8787156343460083, 0.15720443427562714, -0.3821656405925751, 0.2390008121728897, 7.202235698699951, 0.8244757056236267, 6.7679033279418945, 9.808664321899414, 3.3728315830230713, -6.790116310119629, -0.724365234375, 0.349365234375, -0.51123046875, 
376, 3602148799, 0.8788497447967529, 0.1581450253725052, -0.3815021216869354, 0.23894710838794708, 7.155807018280029, 0.9202496409416199, 6.737975120544434, 12.718213081359863, 4.993649482727051, -7.374736309051514, -0.722412109375, 0.346435546875, -0.5146484375, 
377, 3602157132, 0.8790004849433899, 0.15922361612319946, -0.38076236844062805, 0.23885655403137207, 7.191053867340088, 1.0714762210845947, 6.6310529708862305, 14.484952926635742, 5.489105701446533, -8.644126892089844, -0.721923828125, 0.345947265625, -0.5146484375, 
378, 3602165465, 0.8791703581809998, 0.16034290194511414, -0.3799706995487213, 0.23874297738075256, 7.21674108505249, 1.1356408596038818, 6.618547439575195, 14.902057647705078, 6.010176181793213, -9.43478775024414, -0.721435546875, 0.34521484375, -0.5166015625, 
379, 3602173798, 0.8793773055076599, 0.16141104698181152, -0.37915751338005066, 0.2385537475347519, 7.227427005767822, 1.0189309120178223, 6.658444881439209, 13.960042953491211, 6.487600326538086, -10.130829811096191, -0.720703125, 0.3408203125, -0.518798828125, 
380, 3602182131, 0.8795609474182129, 0.16257895529270172, -0.37830618023872375, 0.2384350746870041, 7.1979217529296875, 1.0588237047195435, 6.651040554046631, 15.605295181274414, 6.630245685577393, -9.947457313537598, -0.72412109375, 0.339111328125, -0.519287109375, 
381, 3602190464, 0.879762589931488, 0.16384634375572205, -0.37743493914604187, 0.23820456862449646, 7.1290364265441895, 1.0994515419006348, 6.681990146636963, 16.35658836364746, 6.414088249206543, -11.778286933898926, -0.72314453125, 0.337158203125, -0.520263671875, 
382, 3602198797, 0.8799405694007874, 0.16520603001117706, -0.37662866711616516, 0.2378838211297989, 7.111185073852539, 1.0904598236083984, 6.6156158447265625, 16.75200080871582, 4.974287033081055, -13.258357048034668, -0.719482421875, 0.33349609375, -0.5234375, 
383, 3602207130, 0.880106508731842, 0.16660135984420776, -0.37584245204925537, 0.23754052817821503, 7.054845809936523, 1.1102640628814697, 6.59120512008667, 17.122406005859375, 4.528419017791748, -13.497566223144531, -0.721923828125, 0.33203125, -0.522216796875, 
384, 3602215463, 0.8802688121795654, 0.1680600941181183, -0.37504541873931885, 0.23717080056667328, 7.106619834899902, 1.1144293546676636, 6.567998886108398, 17.726774215698242, 4.347685813903809, -14.268198013305664, -0.722412109375, 0.327880859375, -0.5283203125, 
385, 3602223796, 0.8804301023483276, 0.16956955194473267, -0.37424322962760925, 0.23676423728466034, 7.204248428344727, 1.121004581451416, 6.6208062171936035, 18.239957809448242, 4.177760601043701, -14.874617576599121, -0.72119140625, 0.324462890625, -0.52685546875, 
386, 3602232129, 0.8805791735649109, 0.1710730791091919, -0.3734288811683655, 0.23641392588615417, 7.155111312866211, 1.1166788339614868, 6.816716194152832, 18.417593002319336, 4.38172721862793, -14.296427726745605, -0.7216796875, 0.322021484375, -0.52734375, 
387, 3602240462, 0.8807262182235718, 0.17261631786823273, -0.3726046085357666, 0.23604491353034973, 7.103060245513916, 1.1665222644805908, 6.939765930175781, 18.94765281677246, 4.350092887878418, -14.598751068115234, -0.72314453125, 0.3212890625, -0.529296875, 
388, 3602248795, 0.8808839321136475, 0.174252450466156, -0.37173929810523987, 0.2356179654598236, 7.0405426025390625, 1.1499065160751343, 6.903500556945801, 19.88370132446289, 4.463411331176758, -15.909255981445312, -0.721923828125, 0.31640625, -0.529541015625, 
389, 3602257128, 0.8810328245162964, 0.17604424059391022, -0.3707720637321472, 0.2352534383535385, 6.99974250793457, 1.1638286113739014, 6.717197418212891, 22.372154235839844, 5.268518447875977, -16.270902633666992, -0.724365234375, 0.310302734375, -0.531005859375, 
390, 3602265461, 0.8811492323875427, 0.1778935194015503, -0.36989346146583557, 0.2348083108663559, 6.959329605102539, 1.1642026901245117, 6.651854515075684, 22.43255043029785, 3.6458559036254883, -17.239763259887695, -0.72119140625, 0.308837890625, -0.531982421875, 
391, 3602273794, 0.8812596797943115, 0.17970678210258484, -0.3690256178379059, 0.23437871038913727, 6.898434162139893, 1.3567496538162231, 6.504408836364746, 22.13863182067871, 3.670701742172241, -16.6957950592041, -0.72412109375, 0.30517578125, -0.534912109375, 
392, 3602282127, 0.8813543319702148, 0.18143849074840546, -0.3681683838367462, 0.23403629660606384, 6.892944812774658, 1.5220057964324951, 6.587258338928223, 21.525754928588867, 3.907991886138916, -15.264006614685059, -0.72509765625, 0.301025390625, -0.537841796875, 
393, 3602290460, 0.8813969492912292, 0.18301060795783997, -0.367586225271225, 0.2335665076971054, 6.867427349090576, 1.6005595922470093, 6.657732963562012, 18.26398277282715, 0.5391287207603455, -15.031119346618652, -0.724365234375, 0.298095703125, -0.5361328125, 
394, 3602298793, 0.8813690543174744, 0.18449285626411438, -0.3671608567237854, 0.23317407071590424, 6.751529693603516, 1.648484468460083, 6.829867362976074, 17.15644645690918, -1.2720160484313965, -13.142218589782715, -0.722412109375, 0.29541015625, -0.53857421875, 
395, 3602307126, 0.8812277913093567, 0.18609634041786194, -0.36696845293045044, 0.23273693025112152, 6.777745246887207, 1.5479636192321777, 7.114469051361084, 18.023849487304688, -5.133415222167969, -13.21750259399414, -0.72265625, 0.291015625, -0.5400390625, 
396, 3602315459, 0.8810252547264099, 0.18770748376846313, -0.3669174015522003, 0.23228904604911804, 6.919831275939941, 1.2941814661026, 7.292891979217529, 17.70223617553711, -7.241416931152344, -12.932698249816895, -0.7236328125, 0.287841796875, -0.5380859375, 
397, 3602323792, 0.8808024525642395, 0.1893400251865387, -0.3668062090873718, 0.23198479413986206, 7.115002632141113, 1.016028642654419, 7.30918550491333, 18.995243072509766, -6.277450084686279, -11.286393165588379, -0.7265625, 0.283203125, -0.54052734375, 
398, 3602332125, 0.8806273341178894, 0.19106988608837128, -0.3664490282535553, 0.23179566860198975, 7.306992530822754, 0.9936491250991821, 7.183388710021973, 21.373863220214844, -3.101642370223999, -11.264493942260742, -0.7265625, 0.283447265625, -0.53662109375, 
399, 3602340458, 0.8805093765258789, 0.19302129745483398, -0.3657740354537964, 0.2316930592060089, 7.316300868988037, 1.288771629333496, 6.867643356323242, 25.396989822387695, 0.5887691974639893, -12.261785507202148, -0.728759765625, 0.28125, -0.53857421875, 
400, 3602348791, 0.880424976348877, 0.1951080709695816, -0.3649864196777344, 0.23150785267353058, 7.185225963592529, 1.635396957397461, 6.564375400543213, 26.81046485900879, 1.428378939628601, -14.470017433166504, -0.726806640625, 0.275390625, -0.538818359375, 
401, 3602357124, 0.8802773356437683, 0.19724087417125702, -0.3644190728664398, 0.2311558872461319, 6.998254299163818, 1.794022798538208, 6.300905704498291, 26.07856559753418, -2.1068878173828125, -15.805160522460938, -0.72705078125, 0.274169921875, -0.542236328125, 
402, 3602365457, 0.8800484538078308, 0.19920650124549866, -0.36426645517349243, 0.23058098554611206, 6.980072021484375, 1.6693345308303833, 6.170331954956055, 21.74416732788086, -7.6569061279296875, -16.421411514282227, -0.73046875, 0.270751953125, -0.539306640625, 
403, 3602373790, 0.879837691783905, 0.20098984241485596, -0.3641447126865387, 0.2300294041633606, 7.071311950683594, 1.5651705265045166, 6.091048717498779, 19.60340690612793, -7.24951171875, -15.060294151306152, -0.73046875, 0.26708984375, -0.541259765625, 
404, 3602382123, 0.8795698881149292, 0.20263031125068665, -0.3642132580280304, 0.22950558364391327, 7.16934061050415, 1.3581937551498413, 6.4394307136535645, 17.487537384033203, -9.352875709533691, -13.42761516571045, -0.731201171875, 0.26416015625, -0.543701171875, 
405, 3602390456, 0.8791752457618713, 0.20421603322029114, -0.3647404909133911, 0.22877347469329834, 7.226520538330078, 1.3338195085525513, 6.8151960372924805, 14.77022647857666, -15.898956298828125, -13.870077133178711, -0.733642578125, 0.257080078125, -0.5400390625, 
406, 3602398789, 0.878760039806366, 0.20588631927967072, -0.36531245708465576, 0.22795775532722473, 7.212629795074463, 1.5284814834594727, 6.847599983215332, 15.225905418395996, -17.08656120300293, -15.224176406860352, -0.734130859375, 0.256103515625, -0.541015625, 
407, 3602407122, 0.8783498406410217, 0.2078244537115097, -0.3657487630844116, 0.22707869112491608, 7.217954158782959, 1.5288236141204834, 6.888558387756348, 18.619924545288086, -16.397363662719727, -17.62618064880371, -0.7353515625, 0.25341796875, -0.54052734375, 
408, 3602415455, 0.8779252767562866, 0.20988819003105164, -0.3662182688713074, 0.22606319189071655, 7.336729526519775, 1.4299226999282837, 6.755995273590088, 19.283283233642578, -17.708866119384766, -19.909000396728516, -0.73828125, 0.24853515625, -0.53662109375, 
409, 3602423788, 0.8776625990867615, 0.21194258332252502, -0.3661420941352844, 0.2252887785434723, 7.303215980529785, 1.525194525718689, 6.543468475341797, 21.719297409057617, -9.527259826660156, -18.887527465820312, -0.740234375, 0.24755859375, -0.5341796875, 
410, 3602432121, 0.8774895668029785, 0.21403872966766357, -0.36570727825164795, 0.2246868908405304, 7.268143177032471, 1.684905767440796, 6.582736968994141, 23.859783172607422, -4.4224934577941895, -18.461103439331055, -0.739990234375, 0.241455078125, -0.5361328125, 
411, 3602440454, 0.8772328495979309, 0.21623684465885162, -0.3654417395591736, 0.22401556372642517, 7.293236255645752, 1.8860807418823242, 6.558365345001221, 24.546070098876953, -7.356146335601807, -18.932153701782227, -0.7412109375, 0.237548828125, -0.53466796875, 
412, 3602448787, 0.8770023584365845, 0.2184881865978241, -0.3650405704975128, 0.2233872413635254, 7.184037208557129, 2.0338351726531982, 6.375189304351807, 25.67386245727539, -5.673980236053467, -19.279273986816406, -0.74267578125, 0.2333984375, -0.53466796875, 
413, 3602457120, 0.8765654563903809, 0.22086510062217712, -0.36525779962539673, 0.22240711748600006, 7.293438911437988, 1.9128105640411377, 6.502121448516846, 24.211881637573242, -15.558141708374023, -21.546499252319336, -0.7412109375, 0.22998046875, -0.536865234375, 
414, 3602465453, 0.8758951425552368, 0.22318747639656067, -0.36635661125183105, 0.22091640532016754, 7.56642484664917, 1.9177794456481934, 6.458324432373047, 18.905075073242188, -28.8045711517334, -24.174278259277344, -0.748291015625, 0.225341796875, -0.53173828125, 
415, 3602473786, 0.8751422166824341, 0.22559717297554016, -0.3675957918167114, 0.21938872337341309, 7.460762977600098, 2.12353515625, 6.115087509155273, 19.694921493530273, -31.228328704833984, -24.23757553100586, -0.752685546875, 0.2216796875, -0.5322265625, 
416, 3602482119, 0.8745482563972473, 0.22812539339065552, -0.368190735578537, 0.21814218163490295, 7.256649017333984, 2.2538034915924072, 6.026539325714111, 23.908540725708008, -22.212120056152344, -24.05875587463379, -0.75146484375, 0.2177734375, -0.529052734375, 
417, 3602490452, 0.8740184307098389, 0.23081794381141663, -0.36834296584129333, 0.21717466413974762, 7.398927688598633, 2.2393569946289062, 6.434492588043213, 28.50971221923828, -16.12750244140625, -22.99007797241211, -0.753662109375, 0.209716796875, -0.528076171875, 
418, 3602498785, 0.873336136341095, 0.23359228670597076, -0.3690604567527771, 0.2157299965620041, 7.480810642242432, 2.1952061653137207, 6.421420574188232, 25.871191024780273, -25.45110321044922, -26.889062881469727, -0.757080078125, 0.208251953125, -0.525146484375, 
419, 3602507118, 0.8726779818534851, 0.2365497350692749, -0.3694189190864563, 0.21455417573451996, 7.412791728973389, 2.41013240814209, 5.9798665046691895, 30.329025268554688, -20.757492065429688, -25.947355270385742, -0.7568359375, 0.19921875, -0.524658203125, 
420, 3602515451, 0.872208833694458, 0.23965173959732056, -0.3689356744289398, 0.21384882926940918, 7.149098873138428, 2.420139789581299, 6.005848407745361, 36.33374786376953, -8.591041564941406, -24.321971893310547, -0.76123046875, 0.194580078125, -0.523193359375, 
421, 3602523784, 0.8717132210731506, 0.24269384145736694, -0.36862072348594666, 0.21298111975193024, 7.348310470581055, 2.260521650314331, 6.223219394683838, 34.46582794189453, -11.044659614562988, -25.209379196166992, -0.761962890625, 0.190185546875, -0.5224609375, 
422, 3602532117, 0.871213972568512, 0.2454969733953476, -0.3685770034790039, 0.21188318729400635, 7.407427787780762, 2.200399160385132, 5.62550687789917, 29.599140167236328, -14.431120872497559, -25.940998077392578, -0.7626953125, 0.1826171875, -0.52197265625, 
423, 3602540450, 0.8708996176719666, 0.24788612127304077, -0.36816760897636414, 0.2111048698425293, 7.297608852386475, 2.4845476150512695, 5.257805347442627, 26.753944396972656, -6.7794928550720215, -21.689043045043945, -0.7666015625, 0.180419921875, -0.52099609375, 
424, 3602548783, 0.8705099821090698, 0.25008878111839294, -0.3679356276988983, 0.2105175405740738, 7.254085540771484, 2.770927667617798, 5.687417507171631, 25.16562271118164, -8.14509105682373, -17.74016571044922, -0.764892578125, 0.174072265625, -0.5205078125, 
425, 3602557116, 0.8699543476104736, 0.25211837887763977, -0.3683323562145233, 0.20969831943511963, 7.12655782699585, 2.8413901329040527, 5.940179824829102, 20.734745025634766, -16.754709243774414, -16.891029357910156, -0.769775390625, 0.1708984375, -0.51953125, 
426, 3602565449, 0.8693215250968933, 0.2540227174758911, -0.36900249123573303, 0.20884448289871216, 7.195790767669678, 2.669557571411133, 5.863277435302734, 18.50005340576172, -20.221342086791992, -15.587981224060059, -0.768798828125, 0.16796875, -0.51611328125, 
427, 3602573782, 0.8687752485275269, 0.25597989559173584, -0.36922454833984375, 0.20833472907543182, 7.419723033905029, 2.699058771133423, 5.620970249176025, 21.901081085205078, -13.3284912109375, -13.467242240905762, -0.7724609375, 0.16455078125, -0.51513671875, 
428, 3602582115, 0.8685329556465149, 0.2576698362827301, -0.3688884973526001, 0.20785674452781677, 7.64348030090332, 2.6207427978515625, 5.625704288482666, 19.356481552124023, -4.288528919219971, -14.658994674682617, -0.771484375, 0.1630859375, -0.515625, 
429, 3602590448, 0.8684946298599243, 0.2592393159866333, -0.36822041869163513, 0.20724919438362122, 7.833237648010254, 2.49072265625, 5.433464527130127, 17.529647827148438, 0.6439422369003296, -17.26337432861328, -0.77197265625, 0.157958984375, -0.515380859375, 
430, 3602598781, 0.8686982989311218, 0.2604529857635498, -0.3673880696296692, 0.20634858310222626, 7.941084861755371, 2.6244213581085205, 5.3762431144714355, 11.348955154418945, 3.749234199523926, -20.33603286743164, -0.772216796875, 0.154296875, -0.515869140625, 
431, 3602607114, 0.8692151308059692, 0.26104721426963806, -0.36647000908851624, 0.2050497829914093, 7.9677653312683105, 2.5329864025115967, 5.4186835289001465, 1.11183762550354, 6.740414619445801, -23.060443878173828, -0.772705078125, 0.150390625, -0.517333984375, 
432, 3602615447, 0.8698036074638367, 0.26130443811416626, -0.3657725155353546, 0.2034660279750824, 7.789369583129883, 2.3963239192962646, 5.73501443862915, -5.296116828918457, 4.335467338562012, -24.287212371826172, -0.771240234375, 0.1494140625, -0.51953125, 
433, 3602623780, 0.8704447746276855, 0.2613050937652588, -0.3652442395687103, 0.20166410505771637, 7.790032386779785, 2.1868896484375, 6.13227653503418, -10.060112953186035, 2.5662405490875244, -25.0358943939209, -0.77001953125, 0.145263671875, -0.5185546875, 
434, 3602632113, 0.8710681796073914, 0.26132792234420776, -0.3647443652153015, 0.19983944296836853, 7.759594917297363, 2.0073001384735107, 6.2985100746154785, -9.981731414794922, 1.9419186115264893, -25.376638412475586, -0.7724609375, 0.145751953125, -0.52001953125, 
435, 3602640446, 0.871749222278595, 0.26165154576301575, -0.36389243602752686, 0.19799064099788666, 7.494488716125488, 1.8933839797973633, 5.765925407409668, -5.681203365325928, 5.586059093475342, -28.49064826965332, -0.77294921875, 0.140380859375, -0.51904296875, 
436, 3602648779, 0.8721517324447632, 0.2632221579551697, -0.3622446358203888, 0.19715580344200134, 7.28745174407959, 2.5668344497680664, 5.089294910430908, 17.456682205200195, 13.935336112976074, -24.786602020263672, -0.771240234375, 0.13671875, -0.5205078125, 
437, 3602657112, 0.8723828792572021, 0.2657564580440521, -0.36023154854774475, 0.19642123579978943, 6.932175159454346, 2.6000583171844482, 5.3011794090271, 31.17814064025879, 15.26275634765625, -29.13612937927246, -0.771240234375, 0.13623046875, -0.5234375, 
438, 3602665445, 0.8724002242088318, 0.26839691400527954, -0.359048068523407, 0.19491475820541382, 6.730986595153809, 3.009136438369751, 5.44266414642334, 27.13031005859375, 1.1004149913787842, -35.40978240966797, -0.76806640625, 0.129150390625, -0.526123046875, 
439, 3602673778, 0.8721147179603577, 0.27113163471221924, -0.35874229669570923, 0.19296127557754517, 6.641107559204102, 3.8174428939819336, 5.446476459503174, 24.857200622558594, -12.783228874206543, -37.08949279785156, -0.772216796875, 0.12060546875, -0.5224609375, 
440, 3602682111, 0.8717978596687317, 0.2738730311393738, -0.35846972465515137, 0.19101782143115997, 6.655745983123779, 4.036534309387207, 5.9361467361450195, 24.953155517578125, -13.37082290649414, -36.908329010009766, -0.772705078125, 0.116455078125, -0.5234375, 
441, 3602690444, 0.8715119957923889, 0.27639949321746826, -0.3582940399646759, 0.18900279700756073, 6.885115146636963, 3.843794822692871, 6.357302188873291, 21.715450286865234, -14.030617713928223, -36.31052780151367, -0.775390625, 0.107421875, -0.52294921875, 
442, 3602698777, 0.8710085153579712, 0.27891451120376587, -0.3585491180419922, 0.18713566660881042, 7.001331806182861, 3.3662335872650146, 6.612371921539307, 22.01380729675293, -19.670907974243164, -32.27735900878906, -0.774658203125, 0.1025390625, -0.518798828125, 
443, 3602707110, 0.8704963326454163, 0.28113800287246704, -0.35876381397247314, 0.18577590584754944, 7.10687780380249, 3.521728277206421, 6.1407151222229, 21.116064071655273, -16.587553024291992, -24.994873046875, -0.778076171875, 0.098388671875, -0.521240234375, 
444, 3602715443, 0.8700882196426392, 0.2832859754562378, -0.3584185838699341, 0.18508924543857574, 7.130709648132324, 3.710359573364258, 5.873965740203857, 24.524267196655273, -6.5951714515686035, -19.022798538208008, -0.779296875, 0.093017578125, -0.519775390625, 
445, 3602723776, 0.8697072267532349, 0.2855565547943115, -0.3576931953430176, 0.18479403853416443, 7.067428112030029, 4.12140417098999, 5.294713020324707, 28.863351821899414, -0.6276902556419373, -16.36783218383789, -0.77783203125, 0.08935546875, -0.517333984375, 
446, 3602732109, 0.8693113327026367, 0.2878674268722534, -0.3569716811180115, 0.18446658551692963, 6.925288677215576, 4.331197738647461, 5.190238952636719, 29.179561614990234, -1.0373135805130005, -17.00352668762207, -0.777099609375, 0.08447265625, -0.51904296875, 
447, 3602740442, 0.8689116835594177, 0.28992506861686707, -0.35672909021377563, 0.18359389901161194, 7.018895626068115, 4.2926154136657715, 5.299536228179932, 22.331815719604492, -8.23684024810791, -20.268726348876953, -0.779296875, 0.078369140625, -0.5185546875, 
448, 3602748775, 0.8684285283088684, 0.2918975353240967, -0.35695990920066833, 0.1823013573884964, 7.108949184417725, 4.429354667663574, 5.457674503326416, 18.31175994873047, -15.834747314453125, -22.887760162353516, -0.78076171875, 0.076416015625, -0.51806640625, 
449, 3602757108, 0.867952823638916, 0.293939471244812, -0.35716012120246887, 0.18088796734809875, 6.928431510925293, 4.233441352844238, 5.609551429748535, 18.675642013549805, -16.017841339111328, -24.693878173828125, -0.78271484375, 0.07177734375, -0.5146484375, 
450, 3602765441, 0.8676154017448425, 0.29580798745155334, -0.35707297921180725, 0.17962832748889923, 6.872898578643799, 3.9016029834747314, 5.781661510467529, 17.447635650634766, -10.922776222229004, -23.620685577392578, -0.781494140625, 0.06982421875, -0.513671875, 
