sep=,
PacketCounter,SampleTimeFine,Quat_W,Quat_X,Quat_Y,Quat_Z,Acc_X,Acc_Y,Acc_Z,Gyr_X,Gyr_Y,Gyr_Z,Mag_X,Mag_Y,Mag_Z,
0, 3283869864, 0.8665428161621094, -0.05349482595920563, -0.46394914388656616, -0.17611801624298096, 0, 0, 0, 0, 0, 0, -0.901611328125, 0.123291015625, -0.19873046875, 
1, 3283878197, 0.8664999008178711, -0.053647756576538086, -0.463980108499527, -0.1762009561061859, 8.030288696289062, 0.7017380595207214, 5.547773361206055, -2.3717498779296875, -1.4290692806243896, 0.14665429294109344, -0.899658203125, 0.12451171875, -0.19921875, 
2, 3283886530, 0.8663868308067322, -0.05384247004985809, -0.46412980556488037, -0.17630329728126526, 7.996204376220703, 0.7320547699928284, 5.635770320892334, -2.8375706672668457, -3.407794952392578, -0.14700010418891907, -0.900146484375, 0.125, -0.197265625, 
3, 3283894863, 0.8662337064743042, -0.05406017601490021, -0.46435368061065674, -0.17639952898025513, 8.066380500793457, 0.7567734122276306, 5.587848663330078, -2.9943554401397705, -4.5924530029296875, -0.1141626387834549, -0.898681640625, 0.12548828125, -0.1982421875, 
4, 3283903196, 0.866118311882019, -0.05425018072128296, -0.4645117521286011, -0.1764911711215973, 8.162214279174805, 0.788270890712738, 5.526640892028809, -2.6961803436279297, -3.5173470973968506, -0.059937313199043274, -0.89892578125, 0.12646484375, -0.197265625, 
5, 3283911529, 0.8660526275634766, -0.05447322130203247, -0.4645583927631378, -0.17662307620048523, 8.182428359985352, 0.8068622350692749, 5.459478855133057, -3.463505506515503, -1.8929941654205322, -0.029507597908377647, -0.901123046875, 0.12548828125, -0.19775390625, 
6, 3283919862, 0.8660191893577576, -0.05473099648952484, -0.46452584862709045, -0.17679306864738464, 8.101055145263672, 0.7910333871841431, 5.4284796714782715, -4.403214931488037, -0.8306952714920044, -0.21961645781993866, -0.898681640625, 0.125, -0.19873046875, 
7, 3283928195, 0.8659645915031433, -0.055020347237586975, -0.46451669931411743, -0.17699342966079712, 8.014849662780762, 0.7540751099586487, 5.389817714691162, -4.738658905029297, -1.2602459192276, -0.29809847474098206, -0.897705078125, 0.1240234375, -0.19775390625, 
8, 3283936528, 0.8658748865127563, -0.05531534552574158, -0.4645783603191376, -0.17717918753623962, 8.053243637084961, 0.713153600692749, 5.401110649108887, -4.761379241943359, -2.390627861022949, -0.3760170042514801, -0.903564453125, 0.1240234375, -0.197021484375, 
9, 3283944861, 0.8657435178756714, -0.05558989942073822, -0.46471846103668213, -0.17736700177192688, 8.055485725402832, 0.6772629022598267, 5.434045314788818, -4.328985214233398, -3.51519513130188, -0.6500380039215088, -0.900634765625, 0.123046875, -0.1962890625, 
10, 3283953194, 0.8655693531036377, -0.05587106943130493, -0.4649326205253601, -0.17756831645965576, 8.081531524658203, 0.6544924974441528, 5.471307277679443, -4.388588905334473, -4.699751377105713, -0.9744678735733032, -0.897705078125, 0.12548828125, -0.19384765625, 
11, 3283961527, 0.86537766456604, -0.056134387850761414, -0.46518218517303467, -0.1777656376361847, 8.116130828857422, 0.6290624141693115, 5.501479148864746, -4.238924980163574, -5.187266826629639, -1.2029470205307007, -0.899169921875, 0.12451171875, -0.197265625, 
12, 3283969860, 0.8652102947235107, -0.05633290112018585, -0.46539539098739624, -0.17795920372009277, 8.175631523132324, 0.5953019261360168, 5.538843154907227, -3.351545810699463, -4.447681427001953, -1.3914164304733276, -0.900146484375, 0.12548828125, -0.19384765625, 
13, 3283978193, 0.8650870323181152, -0.056484296917915344, -0.46554428339004517, -0.17812052369117737, 8.189656257629395, 0.5703431367874146, 5.57131814956665, -2.743720054626465, -3.2939906120300293, -1.159863829612732, -0.901123046875, 0.12451171875, -0.1923828125, 
14, 3283986526, 0.8650065660476685, -0.05661007761955261, -0.46562135219573975, -0.17827028036117554, 8.20996379852295, 0.5415729284286499, 5.5451836585998535, -2.474181652069092, -2.1298749446868896, -1.0176279544830322, -0.899169921875, 0.12353515625, -0.1943359375, 
15, 3283994859, 0.8649439811706543, -0.05674971640110016, -0.46566081047058105, -0.1784261167049408, 8.235254287719727, 0.5747548937797546, 5.505336284637451, -2.6258177757263184, -1.564799189567566, -0.8247015476226807, -0.902587890625, 0.1240234375, -0.1943359375, 
16, 3284003192, 0.8648967742919922, -0.05689173936843872, -0.4656762480735779, -0.178569495677948, 8.216445922851562, 0.5787322521209717, 5.476734161376953, -2.7504048347473145, -1.2276644706726074, -0.709001898765564, -0.901611328125, 0.123046875, -0.193359375, 
17, 3284011525, 0.8648499250411987, -0.057005107402801514, -0.46570175886154175, -0.17869332432746887, 8.187726020812988, 0.5571579337120056, 5.4895853996276855, -2.302027940750122, -1.2730786800384521, -0.6806470155715942, -0.90087890625, 0.12646484375, -0.1943359375, 
18, 3284019858, 0.8648203015327454, -0.057076483964920044, -0.4657052755355835, -0.17880487442016602, 8.199965476989746, 0.5578588843345642, 5.500539779663086, -1.722839117050171, -0.8243430256843567, -0.7301594614982605, -0.9033203125, 0.126953125, -0.193603515625, 
19, 3284028191, 0.8647936582565308, -0.05712653696537018, -0.4657002091407776, -0.17893117666244507, 8.20234489440918, 0.5703912973403931, 5.482224941253662, -1.4367023706436157, -0.6075952053070068, -0.9136340618133545, -0.90185546875, 0.126953125, -0.195068359375, 
20, 3284036524, 0.8647746443748474, -0.05712014436721802, -0.46569859981536865, -0.17902937531471252, 8.173310279846191, 0.576318621635437, 5.4763312339782715, -0.7156873941421509, -0.515281617641449, -1.0388365983963013, -0.901123046875, 0.123046875, -0.19287109375, 
21, 3284044857, 0.8647602796554565, -0.05707521736621857, -0.4657045304775238, -0.1790977120399475, 8.156079292297363, 0.5926416516304016, 5.480937480926514, -0.0712587982416153, -0.48559466004371643, -0.9288233518600464, -0.901611328125, 0.1259765625, -0.194091796875, 
22, 3284053190, 0.8647466897964478, -0.05700191855430603, -0.46571844816207886, -0.1791500747203827, 8.17382526397705, 0.6038572788238525, 5.485393524169922, 0.41591110825538635, -0.5349532961845398, -0.9217025637626648, -0.901611328125, 0.1240234375, -0.19287109375, 
23, 3284061523, 0.8647371530532837, -0.05692102015018463, -0.4657294750213623, -0.1791936159133911, 8.163740158081055, 0.6151015758514404, 5.486366271972656, 0.5121694207191467, -0.4477623999118805, -0.8696544766426086, -0.901611328125, 0.12353515625, -0.193359375, 
24, 3284069856, 0.8647363185882568, -0.05687147378921509, -0.4657212197780609, -0.17923477292060852, 8.163783073425293, 0.596890389919281, 5.521808624267578, 0.15879543125629425, -0.25885745882987976, -0.5877185463905334, -0.903564453125, 0.12451171875, -0.194091796875, 
25, 3284078189, 0.8647474050521851, -0.05682085454463959, -0.46569979190826416, -0.17925265431404114, 8.163997650146484, 0.6204662322998047, 5.50856876373291, 0.26698997616767883, -0.02151595614850521, -0.28352394700050354, -0.902099609375, 0.123046875, -0.1943359375, 
26, 3284086522, 0.8647809028625488, -0.05676253139972687, -0.4656398594379425, -0.17926520109176636, 8.176300048828125, 0.6509371399879456, 5.481810569763184, 0.34716248512268066, 0.5748217701911926, -0.17837750911712646, -0.899658203125, 0.12353515625, -0.193359375, 
27, 3284094855, 0.8648204803466797, -0.05671708285808563, -0.4655681848526001, -0.17927509546279907, 8.15060043334961, 0.6467600464820862, 5.488691329956055, 0.1358194798231125, 0.7363708019256592, -0.060167837888002396, -0.900146484375, 0.12548828125, -0.19384765625, 
28, 3284103188, 0.8648616671562195, -0.05669471621513367, -0.46548470854759216, -0.17930009961128235, 8.141623497009277, 0.6505939960479736, 5.479857444763184, -0.21167604625225067, 0.8257389664649963, -0.060526441782712936, -0.903076171875, 0.1220703125, -0.1943359375, 
29, 3284111521, 0.8648982644081116, -0.056684911251068115, -0.46540510654449463, -0.17933303117752075, 8.105472564697266, 0.6538985967636108, 5.488240718841553, -0.4049610495567322, 0.7466933727264404, -0.07171985507011414, -0.901611328125, 0.123046875, -0.193359375, 
30, 3284119854, 0.8649187088012695, -0.05665920674800873, -0.4653645157814026, -0.17934802174568176, 8.087190628051758, 0.6922521591186523, 5.521729946136475, -0.019133832305669785, 0.18284720182418823, -0.04538842290639877, -0.902587890625, 0.1220703125, -0.1943359375, 
31, 3284128187, 0.8649275302886963, -0.056634753942489624, -0.4653456509113312, -0.1793617606163025, 8.07946491241455, 0.6918229460716248, 5.493061542510986, 0.009669373743236065, -0.13355261087417603, -0.061525389552116394, -0.902099609375, 0.12255859375, -0.1943359375, 
32, 3284136520, 0.8649249076843262, -0.0566297322511673, -0.4653436839580536, -0.17938163876533508, 8.074037551879883, 0.6723597645759583, 5.498963356018066, -0.21953962743282318, -0.4716605246067047, -0.057760097086429596, -0.901611328125, 0.123046875, -0.19287109375, 
33, 3284144853, 0.8648979663848877, -0.056656643748283386, -0.4653695225715637, -0.17943519353866577, 8.077118873596191, 0.68625807762146, 5.55217981338501, -0.7659936547279358, -0.9884532690048218, -0.32519829273223877, -0.901611328125, 0.12255859375, -0.19384765625, 
34, 3284153186, 0.8648406267166138, -0.05676770210266113, -0.46542495489120483, -0.17953327298164368, 8.107405662536621, 0.6968134641647339, 5.61803674697876, -2.0006768703460693, -1.7295501232147217, -0.42409494519233704, -0.903564453125, 0.1220703125, -0.1923828125, 
35, 3284161519, 0.8647972345352173, -0.0569235235452652, -0.46544480323791504, -0.1796417236328125, 8.158055305480957, 0.6677201986312866, 5.672287940979004, -2.7631871700286865, -1.3060954809188843, -0.24533316493034363, -0.900146484375, 0.12451171875, -0.19287109375, 
36, 3284169852, 0.8647973537445068, -0.057044222950935364, -0.4653988182544708, -0.17972227931022644, 8.186344146728516, 0.6664485931396484, 5.64692497253418, -2.2089715003967285, -0.19300325214862823, 0.06525225937366486, -0.902099609375, 0.123046875, -0.19482421875, 
37, 3284178185, 0.8648316860198975, -0.05703046917915344, -0.46533891558647156, -0.1797156035900116, 8.13498592376709, 0.6625821590423584, 5.479585647583008, -0.08286204934120178, 0.47400420904159546, 0.3345603048801422, -0.901611328125, 0.12158203125, -0.19091796875, 
38, 3284186518, 0.8648884892463684, -0.05686900019645691, -0.4652840495109558, -0.17963561415672302, 8.125833511352539, 0.7367990612983704, 5.33596658706665, 2.1963822841644287, 0.8461791276931763, 0.31724509596824646, -0.902099609375, 0.1240234375, -0.193359375, 
39, 3284194851, 0.8648151755332947, -0.05689100921154022, -0.4653836488723755, -0.1797238290309906, 8.068680763244629, 0.6495269536972046, 5.578335762023926, -0.8339738845825195, -2.1289782524108887, -0.9752106666564941, -0.901123046875, 0.123046875, -0.1953125, 
40, 3284203184, 0.864615797996521, -0.05707210302352905, -0.4656781852245331, -0.1798621118068695, 8.090364456176758, 0.5592789649963379, 5.650074481964111, -2.6108591556549072, -5.622786521911621, -0.9946008324623108, -0.899658203125, 0.12548828125, -0.19482421875, 
41, 3284211517, 0.8646129369735718, -0.05704706907272339, -0.4656807780265808, -0.17987769842147827, 8.266719818115234, 0.6555362939834595, 5.469449996948242, -0.3161308765411377, -0.49105048179626465, -0.37883448600769043, -0.902099609375, 0.12255859375, -0.193359375, 
42, 3284219850, 0.8647306561470032, -0.05697205662727356, -0.46546995639801025, -0.17988136410713196, 8.185323715209961, 0.7688887715339661, 5.410015106201172, 0.29514002799987793, 2.943882465362549, 0.1470385193824768, -0.903076171875, 0.12255859375, -0.19140625, 
43, 3284228183, 0.8647712469100952, -0.05700598657131195, -0.4653574526309967, -0.17996680736541748, 8.017585754394531, 0.7347829341888428, 5.409416198730469, -1.192752480506897, 1.1071624755859375, -0.28124430775642395, -0.901123046875, 0.12158203125, -0.193359375, 
44, 3284236516, 0.8647068738937378, -0.05721640586853027, -0.46538805961608887, -0.18013036251068115, 8.065323829650879, 0.6606724858283997, 5.523848533630371, -3.667548656463623, -1.6736853122711182, -0.5644865036010742, -0.904541015625, 0.1240234375, -0.192138671875, 
45, 3284244849, 0.8646110892295837, -0.05749426782131195, -0.4654732048511505, -0.18028178811073303, 8.139636039733887, 0.6227210760116577, 5.55480432510376, -4.197660446166992, -2.673280954360962, -0.04054733365774155, -0.899169921875, 0.1201171875, -0.193359375, 
46, 3284253182, 0.8645987510681152, -0.05754092335700989, -0.46549370884895325, -0.18027326464653015, 8.096431732177734, 0.642997682094574, 5.551693439483643, -0.6029334664344788, -0.9505698084831238, 0.569442868232727, -0.901611328125, 0.12158203125, -0.19482421875, 
47, 3284261515, 0.8645943403244019, -0.05746927857398987, -0.4655371904373169, -0.18020424246788025, 8.028158187866211, 0.639878511428833, 5.5835371017456055, 1.2491421699523926, -0.9085880517959595, 0.5418562889099121, -0.900146484375, 0.123046875, -0.19189453125, 
48, 3284269848, 0.8645224571228027, -0.05742715299129486, -0.4656897485256195, -0.18016871809959412, 8.093177795410156, 0.617448627948761, 5.492074489593506, 0.9052711725234985, -2.7028398513793945, 0.0689663365483284, -0.901611328125, 0.12353515625, -0.19384765625, 
49, 3284278181, 0.8644307255744934, -0.05737540125846863, -0.4658816456794739, -0.1801295280456543, 8.215039253234863, 0.6429558992385864, 5.442651748657227, 1.032266616821289, -3.2651238441467285, -0.07873816043138504, -0.902587890625, 0.1240234375, -0.1953125, 
50, 3284286514, 0.8643773198127747, -0.05727684497833252, -0.466012179851532, -0.18007957935333252, 8.223814010620117, 0.6657052636146545, 5.521302700042725, 1.628566026687622, -2.1939873695373535, -0.05778571590781212, -0.902587890625, 0.1240234375, -0.1923828125, 
51, 3284294847, 0.8643856048583984, -0.05712704360485077, -0.46604061126708984, -0.18001273274421692, 8.213515281677246, 0.7148303389549255, 5.516315937042236, 2.1548614501953125, -0.45116910338401794, 0.07047756761312485, -0.903564453125, 0.125, -0.190673828125, 
52, 3284303180, 0.8644345998764038, -0.056987419724464417, -0.4659890830516815, -0.17995572090148926, 8.181574821472168, 0.7122222185134888, 5.484532833099365, 1.7913188934326172, 0.7219756841659546, 0.16002492606639862, -0.902099609375, 0.1240234375, -0.19091796875, 
53, 3284311513, 0.8644536733627319, -0.056917622685432434, -0.46598294377326965, -0.17990157008171082, 8.15994930267334, 0.6861366033554077, 5.481281280517578, 0.8940008282661438, -0.1721276491880417, 0.3818697929382324, -0.903076171875, 0.1201171875, -0.19287109375, 
54, 3284319846, 0.8644311428070068, -0.05690591037273407, -0.4660406708717346, -0.17986395955085754, 8.123899459838867, 0.7152630686759949, 5.5064239501953125, 0.36089175939559937, -1.3362433910369873, 0.4874260425567627, -0.904541015625, 0.123046875, -0.190673828125, 
55, 3284328179, 0.864406406879425, -0.056870996952056885, -0.46611037850379944, -0.179813414812088, 8.148426055908203, 0.6798920035362244, 5.523510932922363, 0.6601172089576721, -1.4329370260238647, 0.43107470870018005, -0.902099609375, 0.12158203125, -0.1923828125, 
56, 3284336512, 0.8644226789474487, -0.05678917467594147, -0.46611496806144714, -0.1797495186328888, 8.163368225097656, 0.6547498106956482, 5.528339385986328, 1.2613345384597778, -0.30299076437950134, 0.4859916567802429, -0.901611328125, 0.12158203125, -0.19580078125, 
57, 3284344845, 0.8644760251045227, -0.056691452860832214, -0.4660501480102539, -0.17969155311584473, 8.145901679992676, 0.6407625675201416, 5.506078720092773, 1.5177075862884521, 0.8449752330780029, 0.6400358080863953, -0.901123046875, 0.12255859375, -0.19287109375, 
58, 3284353178, 0.8645273447036743, -0.05660116672515869, -0.46599137783050537, -0.17962583899497986, 8.111824989318848, 0.6574320793151855, 5.474120616912842, 1.2454794645309448, 0.6935438513755798, 0.590523362159729, -0.901123046875, 0.1220703125, -0.1923828125, 
59, 3284361511, 0.8645347356796265, -0.056532904505729675, -0.46600788831710815, -0.17956912517547607, 8.072662353515625, 0.6704931855201721, 5.4338860511779785, 1.0760923624038696, -0.5102355480194092, 0.4694961607456207, -0.902587890625, 0.123046875, -0.1943359375, 
60, 3284369844, 0.8645159006118774, -0.05648750066757202, -0.4660612642765045, -0.17953500151634216, 8.097640991210938, 0.6851493716239929, 5.439801216125488, 0.730940580368042, -1.1748992204666138, 0.24081222712993622, -0.900634765625, 0.12158203125, -0.19287109375, 
61, 3284378177, 0.864483118057251, -0.056475862860679626, -0.46613064408302307, -0.17951709032058716, 8.116388320922852, 0.675156831741333, 5.4550371170043945, 0.2235226184129715, -1.5089343786239624, 0.20879442989826202, -0.899658203125, 0.123046875, -0.193359375, 
62, 3284386510, 0.8644683361053467, -0.05646432936191559, -0.46616706252098083, -0.1794969141483307, 8.13310432434082, 0.6513164043426514, 5.44877815246582, 0.19959890842437744, -1.0202916860580444, 0.3165278732776642, -0.902099609375, 0.12353515625, -0.19140625, 
63, 3284394843, 0.8644550442695618, -0.056439727544784546, -0.46620652079582214, -0.1794660985469818, 8.102805137634277, 0.6518099904060364, 5.459671974182129, 0.5086090564727783, -0.996675431728363, 0.42543962597846985, -0.901123046875, 0.1220703125, -0.19091796875, 
64, 3284403176, 0.8644354939460754, -0.05642370879650116, -0.4662644863128662, -0.1794145703315735, 8.168560981750488, 0.6361738443374634, 5.4789204597473145, 0.5044339299201965, -1.3205418586730957, 0.6326587796211243, -0.904541015625, 0.12158203125, -0.190673828125, 
65, 3284411509, 0.8644084930419922, -0.05641967058181763, -0.46632811427116394, -0.17938050627708435, 8.161394119262695, 0.6437200903892517, 5.507281303405762, 0.4219304621219635, -1.4178247451782227, 0.6017680764198303, -0.901611328125, 0.12255859375, -0.19189453125, 
66, 3284419842, 0.86439049243927, -0.056403160095214844, -0.46638238430023193, -0.17933130264282227, 8.14968490600586, 0.6886542439460754, 5.529784202575684, 0.4862990081310272, -1.263140320777893, 0.6078642010688782, -0.903076171875, 0.12451171875, -0.192138671875, 
67, 3284428175, 0.8643798232078552, -0.05639217793941498, -0.4664228558540344, -0.1792808473110199, 8.149720191955566, 0.6814799308776855, 5.5317583084106445, 0.343781441450119, -1.0527451038360596, 0.6575301885604858, -0.903076171875, 0.12451171875, -0.191162109375, 
68, 3284436508, 0.8643789291381836, -0.05639225244522095, -0.46644309163093567, -0.17923292517662048, 8.170900344848633, 0.6692914962768555, 5.5052642822265625, 0.2096140831708908, -0.7888415455818176, 0.766518771648407, -0.901611328125, 0.12158203125, -0.1943359375, 
69, 3284444841, 0.8644014596939087, -0.05635698139667511, -0.4664306044578552, -0.1791677176952362, 8.201593399047852, 0.6952990889549255, 5.4823760986328125, 0.5910356640815735, -0.16446898877620697, 0.7815030813217163, -0.903076171875, 0.1240234375, -0.193603515625, 
70, 3284453174, 0.8644455671310425, -0.05629187822341919, -0.4663904905319214, -0.1790800392627716, 8.182644844055176, 0.679992139339447, 5.424830436706543, 1.127679467201233, 0.34688079357147217, 0.9795523285865784, -0.902099609375, 0.123046875, -0.19384765625, 
71, 3284461507, 0.8644903302192688, -0.05624009668827057, -0.4663480520248413, -0.17899015545845032, 8.126773834228516, 0.7351690530776978, 5.518975734710693, 1.0030406713485718, 0.36642444133758545, 1.1234019994735718, -0.902099609375, 0.12158203125, -0.1923828125, 
72, 3284469840, 0.8645248413085938, -0.056206703186035156, -0.46631431579589844, -0.17892181873321533, 8.101738929748535, 0.7211496233940125, 5.57127046585083, 0.6345798373222351, 0.1454504430294037, 0.9242767691612244, -0.901123046875, 0.1259765625, -0.19287109375, 
73, 3284478173, 0.8645776510238647, -0.056110307574272156, -0.46626320481300354, -0.1788303554058075, 8.126144409179688, 0.679841160774231, 5.488656997680664, 1.412048578262329, 0.6196467280387878, 0.8050169348716736, -0.901123046875, 0.12353515625, -0.1943359375, 
74, 3284486506, 0.8646649122238159, -0.05602787435054779, -0.4661348760128021, -0.17876854538917542, 8.113409996032715, 0.6829226613044739, 5.398444175720215, 0.9832919836044312, 1.735223412513733, 0.7349364757537842, -0.900146484375, 0.1240234375, -0.193359375, 
75, 3284494839, 0.8646708726882935, -0.05600939691066742, -0.46613842248916626, -0.17873656749725342, 8.060953140258789, 0.6921663284301758, 5.46148157119751, 0.2586909532546997, -0.47178858518600464, 0.47851234674453735, -0.901611328125, 0.12451171875, -0.1923828125, 
76, 3284503172, 0.8645827770233154, -0.056052982807159424, -0.4662970304489136, -0.1787351369857788, 8.046639442443848, 0.6386135220527649, 5.573610305786133, -0.3310639560222626, -3.0644357204437256, 0.17293450236320496, -0.90380859375, 0.1259765625, -0.193115234375, 
77, 3284511505, 0.8645491003990173, -0.0559951514005661, -0.46639111638069153, -0.178670734167099, 8.124786376953125, 0.6300687193870544, 5.522554874420166, 0.9790144562721252, -1.7439451217651367, 0.3429105579853058, -0.901611328125, 0.1220703125, -0.1923828125, 
78, 3284519838, 0.8645761013031006, -0.05586729943752289, -0.4663982093334198, -0.17856168746948242, 8.163812637329102, 0.6351916790008545, 5.5276570320129395, 2.112086057662964, -0.18642041087150574, 0.7518418431282043, -0.902099609375, 0.12548828125, -0.193115234375, 
79, 3284528171, 0.8645923137664795, -0.055819690227508545, -0.46640658378601074, -0.17847654223442078, 8.114778518676758, 0.6742200255393982, 5.5335822105407715, 0.920998215675354, -0.4375167489051819, 0.9125198721885681, -0.901611328125, 0.1240234375, -0.193359375, 
80, 3284536504, 0.8645799160003662, -0.05581262707710266, -0.4664493799209595, -0.1784268319606781, 8.105751991271973, 0.6894339323043823, 5.548853874206543, 0.35387343168258667, -1.114936351776123, 0.6977957487106323, -0.905029296875, 0.1220703125, -0.192138671875, 
81, 3284544837, 0.8645550608634949, -0.0558028519153595, -0.46650922298431396, -0.17839372158050537, 8.116487503051758, 0.6961644887924194, 5.587192058563232, 0.3668854832649231, -1.3537122011184692, 0.487349271774292, -0.902099609375, 0.1220703125, -0.1943359375, 
82, 3284553170, 0.8645312786102295, -0.05577884614467621, -0.46657055616378784, -0.17835623025894165, 8.133875846862793, 0.6996335983276367, 5.606132984161377, 0.5149869918823242, -1.3560175895690918, 0.40177205204963684, -0.902099609375, 0.123046875, -0.19384765625, 
83, 3284561503, 0.8645235300064087, -0.05571657419204712, -0.46661001443862915, -0.17830967903137207, 8.133633613586426, 0.7084605097770691, 5.544461727142334, 0.9182063341140747, -0.8954224586486816, 0.2850736379623413, -0.901123046875, 0.125, -0.19287109375, 
84, 3284569836, 0.8645293712615967, -0.05567149817943573, -0.4666079580783844, -0.17830049991607666, 8.13911247253418, 0.7153276801109314, 5.528804779052734, 0.44772401452064514, -0.3389531672000885, 0.049858108162879944, -0.903564453125, 0.12548828125, -0.189697265625, 
85, 3284578169, 0.8645432591438293, -0.055651888251304626, -0.46658605337142944, -0.17829665541648865, 8.133870124816895, 0.6869018077850342, 5.471266746520996, -0.09274914860725403, -0.10719558596611023, 0.08697313815355301, -0.902587890625, 0.12548828125, -0.194091796875, 
86, 3284586502, 0.864550769329071, -0.05563656985759735, -0.4665701985359192, -0.1783064603805542, 8.117476463317871, 0.6778391003608704, 5.468985557556152, -0.058041855692863464, -0.22312559187412262, 0.030519356951117516, -0.902099609375, 0.123046875, -0.193359375, 
87, 3284594835, 0.8645604252815247, -0.05562908947467804, -0.4665493667125702, -0.17831707000732422, 8.100966453552246, 0.6964864730834961, 5.477189540863037, -0.17261433601379395, -0.1514313519001007, 0.09119948744773865, -0.902099609375, 0.12109375, -0.19287109375, 
88, 3284603168, 0.8645558953285217, -0.055626899003982544, -0.46655428409576416, -0.1783265471458435, 8.098814964294434, 0.6711367964744568, 5.456332206726074, -0.16897711157798767, -0.5793427228927612, 0.07355127483606339, -0.903076171875, 0.12451171875, -0.191650390625, 
89, 3284611501, 0.8645225167274475, -0.055664658546447754, -0.46660149097442627, -0.1783532202243805, 8.087468147277832, 0.6549932956695557, 5.515162944793701, -0.7459889650344849, -1.3410844802856445, -0.01367800123989582, -0.902587890625, 0.12353515625, -0.1904296875, 
90, 3284619834, 0.864464282989502, -0.05573670566082001, -0.4666857123374939, -0.17839297652244568, 8.09950065612793, 0.650536060333252, 5.528757572174072, -1.0946499109268188, -2.0265982151031494, -0.0029456368647515774, -0.901123046875, 0.1240234375, -0.19384765625, 
91, 3284628167, 0.8644070625305176, -0.05577702820301056, -0.4667826294898987, -0.17840367555618286, 8.14085578918457, 0.6723191142082214, 5.516150951385498, -0.659515380859375, -2.111330270767212, 0.032875873148441315, -0.904052734375, 0.1240234375, -0.193115234375, 
92, 3284636500, 0.8643553256988525, -0.05582477152347565, -0.46686992049217224, -0.1784105896949768, 8.146770477294922, 0.6548304557800293, 5.513724327087402, -0.5820066332817078, -1.9871265888214111, 0.24626804888248444, -0.902587890625, 0.12158203125, -0.18994140625, 
93, 3284644833, 0.8643208146095276, -0.05585312843322754, -0.466929167509079, -0.17841419577598572, 8.167803764343262, 0.695671021938324, 5.524484634399414, -0.5036271214485168, -1.4903130531311035, 0.1562340259552002, -0.902587890625, 0.123046875, -0.19091796875, 
94, 3284653166, 0.864303469657898, -0.0558864027261734, -0.46695148944854736, -0.17842936515808105, 8.147103309631348, 0.6891762018203735, 5.507740020751953, -0.596504271030426, -0.9523628354072571, 0.18925076723098755, -0.902587890625, 0.12451171875, -0.191162109375, 
95, 3284661499, 0.8642967343330383, -0.055900782346725464, -0.4669605493545532, -0.17843389511108398, 8.137580871582031, 0.6936470866203308, 5.4908647537231445, -0.34097668528556824, -0.6703757047653198, 0.23066899180412292, -0.902587890625, 0.12255859375, -0.19287109375, 
96, 3284669832, 0.864282488822937, -0.05590507388114929, -0.4669817388057709, -0.1784457564353943, 8.13526439666748, 0.7156133055686951, 5.421883583068848, -0.2320137321949005, -0.8503156900405884, 0.050959520041942596, -0.904541015625, 0.123046875, -0.190185546875, 
97, 3284678165, 0.8642323017120361, -0.05592900514602661, -0.46705254912376404, -0.17849606275558472, 8.160377502441406, 0.7145549058914185, 5.42457914352417, -0.5869758129119873, -1.669228434562683, -0.37637555599212646, -0.903076171875, 0.1240234375, -0.191650390625, 
98, 3284686498, 0.8641633987426758, -0.05599398910999298, -0.4671374559402466, -0.17858704924583435, 8.185083389282227, 0.6731424331665039, 5.464297294616699, -1.3462586402893066, -2.0455269813537598, -0.6833110451698303, -0.903076171875, 0.125, -0.191650390625, 
99, 3284694831, 0.8641096949577332, -0.05604627728462219, -0.4671938121318817, -0.17868348956108093, 8.192744255065918, 0.6802917718887329, 5.4722900390625, -1.3062747716903687, -1.558113932609558, -0.7706299424171448, -0.902587890625, 0.1240234375, -0.19482421875, 
100, 3284703164, 0.8640874624252319, -0.05606454610824585, -0.4672015309333801, -0.1787649393081665, 8.20753002166748, 0.6914724707603455, 5.491852760314941, -0.8822566866874695, -0.7219628691673279, -0.6954777240753174, -0.903564453125, 0.12451171875, -0.190673828125, 
101, 3284711497, 0.8640846610069275, -0.0560796856880188, -0.4671745300292969, -0.17884418368339539, 8.180577278137207, 0.6819806694984436, 5.4871673583984375, -0.9426805377006531, -0.16329073905944824, -0.6305968165397644, -0.902099609375, 0.123046875, -0.19091796875, 
102, 3284719830, 0.8640878200531006, -0.056105658411979675, -0.46713751554489136, -0.17891761660575867, 8.143017768859863, 0.681587278842926, 5.466696262359619, -1.0115317106246948, -0.05297023430466652, -0.45444777607917786, -0.902099609375, 0.123046875, -0.19091796875, 
103, 3284728163, 0.8640888333320618, -0.05614902079105377, -0.4671013355255127, -0.17899340391159058, 8.129434585571289, 0.6663874387741089, 5.473677158355713, -1.214524507522583, -0.09697549045085907, -0.35060763359069824, -0.902587890625, 0.12548828125, -0.190673828125, 
104, 3284736496, 0.8640952110290527, -0.056193962693214417, -0.46705955266952515, -0.1790580451488495, 8.098577499389648, 0.7058781981468201, 5.448169708251953, -1.1912153959274292, -0.02940514124929905, -0.21623533964157104, -0.900146484375, 0.123046875, -0.19189453125, 
105, 3284744829, 0.8640936613082886, -0.05623616278171539, -0.4670371115207672, -0.17911040782928467, 8.093985557556152, 0.6801782250404358, 5.481086730957031, -1.121314287185669, -0.30071115493774414, -0.1674402505159378, -0.903076171875, 0.12548828125, -0.189697265625, 
106, 3284753162, 0.864075779914856, -0.05629462003707886, -0.46703895926475525, -0.1791735589504242, 8.082819938659668, 0.6722314953804016, 5.474849700927734, -1.2535605430603027, -0.7369983196258545, -0.20686055719852448, -0.904052734375, 0.12255859375, -0.189697265625, 
107, 3284761495, 0.864046573638916, -0.0563647598028183, -0.46706199645996094, -0.17923244833946228, 8.0889253616333, 0.6643829941749573, 5.476598739624023, -1.3287129402160645, -1.0777701139450073, -0.11754371225833893, -0.905517578125, 0.1240234375, -0.191650390625, 
108, 3284769828, 0.8640223741531372, -0.05644059181213379, -0.4670802652835846, -0.17927783727645874, 8.098291397094727, 0.674856424331665, 5.476874828338623, -1.311371922492981, -1.0297178030014038, 0.0885355994105339, -0.902587890625, 0.123046875, -0.1923828125, 
109, 3284778161, 0.8640025854110718, -0.05651085078716278, -0.4670899510383606, -0.1793251931667328, 8.110523223876953, 0.6765155792236328, 5.470315933227539, -1.1933159828186035, -0.8597418665885925, 0.11374000459909439, -0.904052734375, 0.123046875, -0.191162109375, 
110, 3284786494, 0.863976001739502, -0.05658070743083954, -0.4671139717102051, -0.1793690025806427, 8.113105773925781, 0.6725607514381409, 5.487224578857422, -1.2168042659759521, -1.1002850532531738, 0.058054666966199875, -0.903564453125, 0.12060546875, -0.189453125, 
111, 3284794827, 0.8639488816261292, -0.056666299700737, -0.46713560819625854, -0.17941609025001526, 8.180182456970215, 0.6593535542488098, 5.468514442443848, -1.4203860759735107, -1.0927032232284546, 0.14247918128967285, -0.902587890625, 0.123046875, -0.1904296875, 
112, 3284803160, 0.8639315962791443, -0.05674965679645538, -0.4671413004398346, -0.1794581115245819, 8.206463813781738, 0.6683187484741211, 5.493819713592529, -1.4023537635803223, -0.8564887642860413, 0.2034410536289215, -0.901611328125, 0.12451171875, -0.18994140625, 
113, 3284811493, 0.863915741443634, -0.05686101317405701, -0.4671388864517212, -0.17950540781021118, 8.172534942626953, 0.6974050402641296, 5.515253067016602, -1.802883505821228, -0.79998379945755, 0.3359178602695465, -0.904052734375, 0.1220703125, -0.19091796875, 
114, 3284819826, 0.8639005422592163, -0.05697716772556305, -0.46713578701019287, -0.1795501410961151, 8.136585235595703, 0.6894797682762146, 5.514791011810303, -1.8302139043807983, -0.8177857398986816, 0.3944208025932312, -0.900634765625, 0.12353515625, -0.19140625, 
115, 3284828159, 0.8638914823532104, -0.05707930028438568, -0.46711352467536926, -0.1796189844608307, 8.137382507324219, 0.7114811539649963, 5.523940086364746, -1.6848530769348145, -0.4658972918987274, 0.17885138094425201, -0.903564453125, 0.12158203125, -0.19091796875, 
116, 3284836492, 0.863884687423706, -0.057169437408447266, -0.4670909345149994, -0.17968159914016724, 8.157553672790527, 0.7049459218978882, 5.522312164306641, -1.6782702207565308, -0.45429402589797974, 0.05072898790240288, -0.903076171875, 0.1240234375, -0.187255859375, 
117, 3284844825, 0.8638820648193359, -0.05725191533565521, -0.46705999970436096, -0.17974862456321716, 8.16401481628418, 0.7049616575241089, 5.526556968688965, -1.6938183307647705, -0.29328301548957825, -0.06400997191667557, -0.903564453125, 0.125, -0.191162109375, 
118, 3284853158, 0.8638883829116821, -0.05736824870109558, -0.4669976234436035, -0.17984285950660706, 8.159308433532715, 0.6842061877250671, 5.506829738616943, -2.2799999713897705, 0.06340803951025009, -0.09128913283348083, -0.903076171875, 0.1240234375, -0.191162109375, 
119, 3284861491, 0.863910436630249, -0.05748136341571808, -0.46690526604652405, -0.1799406111240387, 8.154458045959473, 0.6658434271812439, 5.510598659515381, -2.3755922317504883, 0.5430346131324768, -0.1147005558013916, -0.903564453125, 0.1240234375, -0.191162109375, 
120, 3284869824, 0.863953709602356, -0.057593584060668945, -0.4667723774909973, -0.18004214763641357, 8.147384643554688, 0.6615812182426453, 5.484624862670898, -2.4231064319610596, 1.1543951034545898, -0.057299043983221054, -0.902099609375, 0.12255859375, -0.19091796875, 
121, 3284878157, 0.864016056060791, -0.05769333243370056, -0.46660539507865906, -0.18014398217201233, 8.119490623474121, 0.6805347800254822, 5.449122428894043, -2.380587100982666, 1.7265146970748901, -0.08012133091688156, -0.902587890625, 0.125, -0.189208984375, 
122, 3284886490, 0.8640820980072021, -0.057809993624687195, -0.46642163395881653, -0.1802656054496765, 8.122065544128418, 0.6698635816574097, 5.457582473754883, -2.7143917083740234, 1.9093749523162842, -0.17345960438251495, -0.90234375, 0.12646484375, -0.192138671875, 
123, 3284894823, 0.8641321659088135, -0.057948872447013855, -0.4662635326385498, -0.1803896427154541, 8.107487678527832, 0.6594918966293335, 5.4770355224609375, -2.993561267852783, 1.460561990737915, -0.1434653401374817, -0.902099609375, 0.12353515625, -0.1923828125, 
124, 3284903156, 0.8641797304153442, -0.05808396637439728, -0.46611201763153076, -0.18050932884216309, 8.104402542114258, 0.7090710997581482, 5.511283874511719, -2.8546042442321777, 1.3611021041870117, -0.10081762820482254, -0.904052734375, 0.12548828125, -0.192138671875, 
125, 3284911489, 0.8642325401306152, -0.05818076431751251, -0.46596550941467285, -0.18060410022735596, 8.118012428283691, 0.7382108569145203, 5.531507968902588, -2.3272581100463867, 1.4177606105804443, -0.10217517614364624, -0.904052734375, 0.125, -0.192138671875, 
126, 3284919822, 0.8642683029174805, -0.05827037990093231, -0.46584242582321167, -0.18072137236595154, 8.138031959533691, 0.7279440760612488, 5.551565170288086, -2.238812208175659, 1.0584187507629395, -0.4168460965156555, -0.901123046875, 0.1259765625, -0.19384765625, 
127, 3284928155, 0.8642978668212891, -0.058384478092193604, -0.46572455763816833, -0.1808471977710724, 8.19090461730957, 0.6915999054908752, 5.6079301834106445, -2.8040928840637207, 0.8995335698127747, -0.5258089900016785, -0.901123046875, 0.12353515625, -0.19140625, 
128, 3284936488, 0.8643547296524048, -0.058537572622299194, -0.46553629636764526, -0.18101009726524353, 8.24522590637207, 0.646763801574707, 5.654265880584717, -3.4295918941497803, 1.8466452360153198, -0.4477367699146271, -0.904052734375, 0.12451171875, -0.191650390625, 
129, 3284944821, 0.8644764423370361, -0.05860544741153717, -0.4652532935142517, -0.18113479018211365, 8.20175552368164, 0.6251420378684998, 5.597171783447266, -2.4404218196868896, 3.5783472061157227, -0.34825119376182556, -0.900634765625, 0.12548828125, -0.193359375, 
130, 3284953154, 0.8646382093429565, -0.058524683117866516, -0.4649505913257599, -0.18116599321365356, 8.146949768066406, 0.6221221089363098, 5.402976036071777, -0.007479357533156872, 4.3545098304748535, -0.025306865572929382, -0.903564453125, 0.125, -0.195068359375, 
131, 3284961487, 0.8648114204406738, -0.05838100612163544, -0.46465200185775757, -0.18115171790122986, 8.111197471618652, 0.6515752077102661, 5.335031509399414, 0.8999434113502502, 4.5025858879089355, 0.04514509439468384, -0.904052734375, 0.12451171875, -0.193603515625, 
132, 3284969820, 0.8648190498352051, -0.058486372232437134, -0.46457308530807495, -0.18128347396850586, 7.999634265899658, 0.6274633407592773, 5.564212322235107, -2.4300994873046875, 0.3256722390651703, -0.59609454870224, -0.901611328125, 0.12548828125, -0.193359375, 
133, 3284978153, 0.8647421598434448, -0.058671727776527405, -0.46463340520858765, -0.18143615126609802, 8.015763282775879, 0.5849349498748779, 5.617677211761475, -3.209745407104492, -2.035153388977051, -0.6298027634620667, -0.902587890625, 0.1240234375, -0.1962890625, 
134, 3284986486, 0.8648366928100586, -0.0586811900138855, -0.4644302427768707, -0.18150290846824646, 8.23807144165039, 0.6702595353126526, 5.4385271072387695, -1.114706039428711, 2.545017719268799, -0.11872199177742004, -0.901611328125, 0.12548828125, -0.19580078125, 
135, 3284994819, 0.8649903535842896, -0.058680564165115356, -0.4641362130641937, -0.18152201175689697, 8.121603012084961, 0.7299068570137024, 5.387084007263184, -1.0769761800765991, 3.9891226291656494, 0.4716220498085022, -0.901611328125, 0.12548828125, -0.19482421875, 
136, 3285003152, 0.8650307655334473, -0.05883023142814636, -0.46398866176605225, -0.181658536195755, 7.921675682067871, 0.6701869368553162, 5.453821182250977, -3.1329286098480225, 1.2432767152786255, -0.2350618690252304, -0.903076171875, 0.12548828125, -0.192626953125, 
137, 3285011485, 0.8649338483810425, -0.059179410338401794, -0.46404290199279785, -0.18186843395233154, 7.983371257781982, 0.6283977031707764, 5.624593734741211, -5.4790120124816895, -2.446363925933838, -0.25788408517837524, -0.902099609375, 0.12548828125, -0.195556640625, 
138, 3285019818, 0.8648927211761475, -0.059376105666160583, -0.4640614688396454, -0.18195226788520813, 8.102779388427734, 0.6260958909988403, 5.518459320068359, -3.004523992538452, -1.4120358228683472, 0.35407838225364685, -0.904296875, 0.12548828125, -0.193115234375, 
139, 3285028151, 0.8649330139160156, -0.05928833782672882, -0.46402016282081604, -0.1818942129611969, 8.027929306030273, 0.6232486367225647, 5.50666618347168, 1.1336989402770996, 0.42672038078308105, 0.4452650845050812, -0.901611328125, 0.12548828125, -0.19677734375, 
140, 3285036484, 0.8648819327354431, -0.05924460291862488, -0.46413466334342957, -0.18185955286026, 7.9642252922058105, 0.5700542330741882, 5.5274739265441895, 0.8419270515441895, -2.1130974292755127, 0.12785343825817108, -0.90234375, 0.1259765625, -0.196044921875, 
141, 3285044817, 0.8647257685661316, -0.05929282307624817, -0.46441054344177246, -0.18188154697418213, 8.1050443649292, 0.5768138766288757, 5.45608377456665, -0.4236082136631012, -4.87923002243042, -0.4308314323425293, -0.902587890625, 0.12548828125, -0.194091796875, 
142, 3285053150, 0.8645834922790527, -0.0593271404504776, -0.46466565132141113, -0.18189558386802673, 8.267555236816406, 0.6032267212867737, 5.54680871963501, -0.12092480808496475, -4.522808074951172, -0.2965616285800934, -0.901611328125, 0.12451171875, -0.19482421875, 
143, 3285061483, 0.8645277619361877, -0.05929987132549286, -0.46479105949401855, -0.18184909224510193, 8.23533821105957, 0.6542801260948181, 5.598776340484619, 0.7705146670341492, -2.30297589302063, 0.37918031215667725, -0.90087890625, 0.126708984375, -0.191650390625, 
144, 3285069816, 0.8645550012588501, -0.0592215359210968, -0.46478426456451416, -0.18176212906837463, 8.187508583068848, 0.6881750226020813, 5.574239253997803, 1.3469117879867554, -0.1254841387271881, 0.8215381503105164, -0.902099609375, 0.12548828125, -0.191650390625, 
145, 3285078149, 0.8645937442779541, -0.059170499444007874, -0.46473729610443115, -0.1817147433757782, 8.132647514343262, 0.7092475295066833, 5.500322341918945, 0.7258689999580383, 0.40963566303253174, 0.6279969811439514, -0.900146484375, 0.125, -0.19189453125, 
146, 3285086482, 0.8645864725112915, -0.05923256278038025, -0.46474528312683105, -0.1817086637020111, 8.104886054992676, 0.7238247990608215, 5.472382545471191, -0.8304390907287598, -0.8067715167999268, 0.658990204334259, -0.901123046875, 0.12353515625, -0.197265625, 
147, 3285094815, 0.8645373582839966, -0.05933390557765961, -0.46482303738594055, -0.18171042203903198, 8.095549583435059, 0.6664127111434937, 5.517479419708252, -1.239037275314331, -1.9823113679885864, 0.6449023485183716, -0.901611328125, 0.1220703125, -0.193359375, 
148, 3285103148, 0.8644992113113403, -0.05940954387187958, -0.4648860991001129, -0.18170538544654846, 8.069287300109863, 0.6375271081924438, 5.583725929260254, -0.88527911901474, -1.691179871559143, 0.6109890937805176, -0.902587890625, 0.12548828125, -0.193115234375, 
149, 3285111481, 0.864499568939209, -0.05945533514022827, -0.46488437056541443, -0.181693434715271, 8.093442916870117, 0.6213103532791138, 5.593788146972656, -0.5572121143341064, -0.5857719779014587, 0.7024832367897034, -0.903564453125, 0.123046875, -0.192138671875, 
150, 3285119814, 0.8645297288894653, -0.05947032570838928, -0.46483445167541504, -0.18167242407798767, 8.06546688079834, 0.5963181853294373, 5.505514621734619, -0.2882113754749298, 0.22636578977108002, 0.6765103340148926, -0.902099609375, 0.12451171875, -0.19384765625, 
151, 3285128147, 0.8645347356796265, -0.05949100852012634, -0.4648328125476837, -0.18164631724357605, 8.050926208496094, 0.6415959596633911, 5.459793567657471, -0.19220921397209167, -0.5091854333877563, 0.7034821510314941, -0.901123046875, 0.125, -0.19091796875, 
152, 3285136480, 0.864494800567627, -0.05951671302318573, -0.4649132192134857, -0.18162211775779724, 8.045161247253418, 0.6321664452552795, 5.468662738800049, -0.12576588988304138, -1.8002451658248901, 0.5026921629905701, -0.90234375, 0.1259765625, -0.196533203125, 
153, 3285144813, 0.8644317388534546, -0.05958522856235504, -0.46502038836479187, -0.1816253364086151, 8.075081825256348, 0.6462987065315247, 5.519477367401123, -0.49253609776496887, -2.313861846923828, 0.5647298097610474, -0.904052734375, 0.125, -0.194580078125, 
154, 3285153146, 0.8643882274627686, -0.05966557562351227, -0.4650920629501343, -0.181622713804245, 8.112223625183105, 0.6203214526176453, 5.522238731384277, -0.9384799599647522, -1.8382822275161743, 0.593904435634613, -0.901123046875, 0.125, -0.19287109375, 
155, 3285161479, 0.8643614649772644, -0.05974338948726654, -0.4651317894458771, -0.181622713804245, 8.140082359313965, 0.6241518259048462, 5.510361194610596, -1.0263367891311646, -1.3304288387298584, 0.6010251641273499, -0.902587890625, 0.125, -0.192626953125, 
156, 3285169812, 0.8643304705619812, -0.05983567237854004, -0.4651806950569153, -0.18161514401435852, 8.14089584350586, 0.6473628282546997, 5.496858596801758, -1.0972113609313965, -1.5218696594238281, 0.7774560451507568, -0.901611328125, 0.12451171875, -0.18994140625, 
157, 3285178145, 0.8642926216125488, -0.059931397438049316, -0.4652301073074341, -0.18163621425628662, 8.155981063842773, 0.6775997281074524, 5.516174793243408, -1.2961571216583252, -1.5379811525344849, 0.4696497917175293, -0.902587890625, 0.1259765625, -0.190185546875, 
158, 3285186478, 0.8642626404762268, -0.05998906493186951, -0.465268611907959, -0.1816617250442505, 8.154991149902344, 0.6851139068603516, 5.513739585876465, -0.9215489029884338, -1.2783039808273315, 0.17388223111629486, -0.901611328125, 0.12548828125, -0.19140625, 
159, 3285194811, 0.8642301559448242, -0.06003554165363312, -0.4653007984161377, -0.18171793222427368, 8.138211250305176, 0.6689982414245605, 5.537867069244385, -0.9988015294075012, -1.1502840518951416, -0.2505072057247162, -0.904052734375, 0.1240234375, -0.191650390625, 
160, 3285203144, 0.8641921877861023, -0.06008128821849823, -0.4653431177139282, -0.18177548050880432, 8.145206451416016, 0.6428617835044861, 5.554368495941162, -0.983202338218689, -1.3182622194290161, -0.30708903074264526, -0.903076171875, 0.12548828125, -0.195068359375, 
161, 3285211477, 0.8641624450683594, -0.06010955572128296, -0.46538659930229187, -0.18179643154144287, 8.14439868927002, 0.6339135766029358, 5.535391807556152, -0.8983938097953796, -1.279328465461731, -0.20378686487674713, -0.90283203125, 0.1259765625, -0.193115234375, 
162, 3285219810, 0.8641412258148193, -0.06013278663158417, -0.4654114842414856, -0.18182557821273804, 8.182209014892578, 0.6317891478538513, 5.47475004196167, -0.5635900497436523, -0.970523476600647, -0.056786760687828064, -0.90478515625, 0.1279296875, -0.192138671875, 
163, 3285228143, 0.8641375303268433, -0.06013163924217224, -0.4654179811477661, -0.18182653188705444, 8.192523002624512, 0.6727463603019714, 5.40159797668457, -0.14436182379722595, -0.5881284475326538, 0.17849276959896088, -0.904296875, 0.12548828125, -0.192138671875, 
164, 3285236476, 0.8641244173049927, -0.06019926071166992, -0.46540582180023193, -0.18189764022827148, 8.080001831054688, 0.667195737361908, 5.540091514587402, -1.4437974691390991, -0.5549579858779907, -0.22084592282772064, -0.902587890625, 0.123046875, -0.19140625, 
165, 3285244809, 0.8640810251235962, -0.06031005084514618, -0.46543648838996887, -0.18198919296264648, 8.074233055114746, 0.5737356543540955, 5.5750861167907715, -1.9930946826934814, -1.333579659461975, -0.2782474160194397, -0.902587890625, 0.125, -0.192626953125, 
166, 3285253142, 0.8641088604927063, -0.06035594642162323, -0.4653734564781189, -0.18200275301933289, 8.13944149017334, 0.5586799383163452, 5.477604389190674, -0.9122510552406311, 0.3190637230873108, 0.4695986211299896, -0.901611328125, 0.12451171875, -0.19482421875, 
167, 3285261475, 0.8641860485076904, -0.06037116050720215, -0.4652271866798401, -0.1820051670074463, 8.080792427062988, 0.6399692893028259, 5.42200231552124, -0.6203254461288452, 1.7077393531799316, 0.6225667595863342, -0.90380859375, 0.1259765625, -0.192138671875, 
168, 3285269808, 0.8641488552093506, -0.06046329438686371, -0.4652654528617859, -0.18205344676971436, 8.022228240966797, 0.6249090433120728, 5.4139628410339355, -1.483371615409851, -1.3891111612319946, 0.10603012144565582, -0.900634765625, 0.125, -0.19189453125, 
169, 3285278141, 0.8640239238739014, -0.06063196063041687, -0.4654384255409241, -0.18214818835258484, 8.05672550201416, 0.543058454990387, 5.444133281707764, -2.4125025272369385, -3.686067819595337, -0.26774561405181885, -0.903564453125, 0.12451171875, -0.192626953125, 
170, 3285286474, 0.8638729453086853, -0.060790032148361206, -0.4656699299812317, -0.18221977353096008, 8.135154724121094, 0.5478941798210144, 5.498042106628418, -2.0263679027557373, -4.558770656585693, -0.19502680003643036, -0.902099609375, 0.12548828125, -0.192138671875, 
171, 3285294807, 0.8637732267379761, -0.0608510822057724, -0.46583959460258484, -0.1822386384010315, 8.159112930297852, 0.5674077868461609, 5.470379829406738, -0.7033669948577881, -3.285768508911133, -0.038959257304668427, -0.901123046875, 0.12548828125, -0.19140625, 
172, 3285303140, 0.8636871576309204, -0.0609128475189209, -0.4659790098667145, -0.18226870894432068, 8.142005920410156, 0.573932945728302, 5.5388946533203125, -0.795142650604248, -2.8413615226745605, -0.07814902812242508, -0.904052734375, 0.12548828125, -0.192626953125, 
173, 3285311473, 0.8635910153388977, -0.0609910786151886, -0.4661232829093933, -0.18233004212379456, 8.150280952453613, 0.6089982390403748, 5.515336990356445, -1.213423252105713, -2.9661285877227783, -0.383009672164917, -0.903076171875, 0.12548828125, -0.192626953125, 
174, 3285319806, 0.8634956479072571, -0.061055660247802734, -0.4662698209285736, -0.18238532543182373, 8.16379165649414, 0.6348453760147095, 5.518008708953857, -0.9791041016578674, -2.9723782539367676, -0.3891058564186096, -0.904296875, 0.12548828125, -0.191650390625, 
175, 3285328139, 0.8634182810783386, -0.0611041784286499, -0.4663814306259155, -0.18245020508766174, 8.177842140197754, 0.6120243072509766, 5.537960529327393, -0.8132007122039795, -2.36993145942688, -0.45078498125076294, -0.904052734375, 0.12548828125, -0.191650390625, 
176, 3285336472, 0.8633792996406555, -0.061147019267082214, -0.46642887592315674, -0.1824992299079895, 8.176815032958984, 0.6108956933021545, 5.513225555419922, -0.8832045197486877, -1.3849360942840576, -0.23083549737930298, -0.90625, 0.12548828125, -0.188720703125, 
177, 3285344805, 0.8633676171302795, -0.06119431555271149, -0.46642082929611206, -0.18255850672721863, 8.184569358825684, 0.5935426950454712, 5.473928451538086, -0.9917574524879456, -0.528626561164856, -0.11377841234207153, -0.904052734375, 0.125, -0.188232421875, 
178, 3285353138, 0.8633716702461243, -0.0612657368183136, -0.46638238430023193, -0.18261390924453735, 8.177437782287598, 0.5834502577781677, 5.437626838684082, -1.4401347637176514, -0.15547840297222137, 0.0592329204082489, -0.903564453125, 0.125, -0.188720703125, 
179, 3285361471, 0.8633719682693481, -0.0613444447517395, -0.4663543701171875, -0.18265733122825623, 8.164719581604004, 0.5875487923622131, 5.447305679321289, -1.4156219959259033, -0.31556740403175354, 0.24514104425907135, -0.905029296875, 0.12548828125, -0.187744140625, 
180, 3285369804, 0.8633630275726318, -0.061404749751091, -0.46635231375694275, -0.18268445134162903, 8.14134407043457, 0.60035240650177, 5.44220495223999, -1.045982837677002, -0.6668153405189514, 0.25948500633239746, -0.902587890625, 0.125244140625, -0.189208984375, 
181, 3285378137, 0.8633460998535156, -0.06142571568489075, -0.46637076139450073, -0.18271103501319885, 8.148497581481934, 0.6015183329582214, 5.468563079833984, -0.49763333797454834, -0.8457564115524292, 0.007389706093817949, -0.904296875, 0.126708984375, -0.189208984375, 
182, 3285386470, 0.8633192181587219, -0.061428532004356384, -0.4664115905761719, -0.18273237347602844, 8.144221305847168, 0.5865543484687805, 5.495458602905273, -0.23434461653232574, -1.151180624961853, -0.12230798602104187, -0.903076171875, 0.12255859375, -0.1884765625, 
183, 3285394803, 0.8632831573486328, -0.061377525329589844, -0.4664768576622009, -0.18275359272956848, 8.166558265686035, 0.5986786484718323, 5.486838340759277, 0.4663968086242676, -1.3496654033660889, -0.494559645652771, -0.9052734375, 0.1259765625, -0.189697265625, 
184, 3285403136, 0.8632754683494568, -0.06126490235328674, -0.46650731563568115, -0.18275007605552673, 8.224517822265625, 0.6068185567855835, 5.475486755371094, 1.284669041633606, -0.6369235515594482, -0.5109527707099915, -0.90478515625, 0.126953125, -0.189208984375, 
185, 3285411469, 0.8632794618606567, -0.06110657751560211, -0.4665268659591675, -0.18273422122001648, 8.200313568115234, 0.6179649829864502, 5.497078895568848, 1.747313380241394, -0.3232772648334503, -0.7079005837440491, -0.90576171875, 0.1259765625, -0.189208984375, 
186, 3285419802, 0.8633146286010742, -0.060935646295547485, -0.46648287773132324, -0.18273776769638062, 8.179219245910645, 0.6723020076751709, 5.481874942779541, 1.7812777757644653, 0.6746404767036438, -0.79847252368927, -0.902099609375, 0.125732421875, -0.188720703125, 
187, 3285428135, 0.8633739352226257, -0.060705557465553284, -0.4664008319377899, -0.1827434003353119, 8.144721031188965, 0.6849959492683411, 5.437339782714844, 2.3318049907684326, 1.4426320791244507, -1.1440343856811523, -0.90478515625, 0.127197265625, -0.186767578125, 
188, 3285436468, 0.8634134531021118, -0.060472503304481506, -0.4663469195365906, -0.18277177214622498, 8.151001930236816, 0.7437919974327087, 5.4490132331848145, 2.33825945854187, 0.997840940952301, -1.4710766077041626, -0.906005859375, 0.12255859375, -0.190185546875, 
189, 3285444801, 0.8634117841720581, -0.0602724552154541, -0.4663389325141907, -0.18286585807800293, 8.162946701049805, 0.7358757257461548, 5.40547513961792, 1.549622893333435, 0.170040100812912, -2.2127113342285156, -0.904541015625, 0.12451171875, -0.191650390625, 
190, 3285453134, 0.8633877635002136, -0.0601651668548584, -0.4663410484790802, -0.18300855159759521, 8.172266960144043, 0.6730034947395325, 5.420541286468506, 0.2004186064004898, -0.29558831453323364, -2.229642391204834, -0.904541015625, 0.12353515625, -0.188720703125, 
191, 3285461467, 0.8633722066879272, -0.0601360946893692, -0.4663136601448059, -0.18316149711608887, 8.174033164978027, 0.6411529779434204, 5.452013969421387, -0.9164004325866699, -0.06831316649913788, -1.832595944404602, -0.904052734375, 0.12255859375, -0.189697265625, 
192, 3285469800, 0.8634039163589478, -0.06012579798698425, -0.4662092924118042, -0.18328145146369934, 8.145276069641113, 0.6552174687385559, 5.515081405639648, -1.0284115076065063, 1.0615179538726807, -1.1087889671325684, -0.904052734375, 0.12451171875, -0.189208984375, 
193, 3285478133, 0.8634771108627319, -0.0600641667842865, -0.46605244278907776, -0.18335556983947754, 8.103687286376953, 0.6628791689872742, 5.516358375549316, -0.11295878887176514, 2.0677475929260254, -0.6625890135765076, -0.902587890625, 0.12451171875, -0.190185546875, 
194, 3285486466, 0.8635633587837219, -0.059963375329971313, -0.4658871293067932, -0.18340221047401428, 8.074944496154785, 0.6506984829902649, 5.519800186157227, 0.40820127725601196, 2.3031935691833496, -0.6289575695991516, -0.902099609375, 0.12451171875, -0.18994140625, 
195, 3285494799, 0.8636317253112793, -0.059857070446014404, -0.46575602889060974, -0.18344828486442566, 8.033618927001953, 0.6457765102386475, 5.4837799072265625, 0.529843270778656, 1.8088388442993164, -0.7373313903808594, -0.903076171875, 0.1220703125, -0.19140625, 
196, 3285503132, 0.8636676669120789, -0.05978235602378845, -0.46567779779434204, -0.18350207805633545, 8.042520523071289, 0.6609799265861511, 5.496351718902588, 0.23166793584823608, 0.8868544697761536, -0.7467573881149292, -0.906494140625, 0.1240234375, -0.190673828125, 
197, 3285511465, 0.8636734485626221, -0.05975225567817688, -0.46565404534339905, -0.1835445761680603, 8.008008003234863, 0.6769593358039856, 5.505629062652588, -0.10886050760746002, -0.05998854339122772, -0.43759363889694214, -0.905029296875, 0.123046875, -0.193115234375, 
198, 3285519798, 0.8636637926101685, -0.05973619222640991, -0.4656619131565094, -0.1835753619670868, 8.009775161743164, 0.7043619155883789, 5.49288272857666, -0.1397000402212143, -0.5945832133293152, -0.2839081883430481, -0.906005859375, 0.12353515625, -0.190185546875, 
199, 3285528131, 0.863653302192688, -0.05974820256233215, -0.46566516160964966, -0.18361231684684753, 8.059329986572266, 0.6919087767601013, 5.501680850982666, -0.44681474566459656, -0.5892042517662048, -0.11298440396785736, -0.906005859375, 0.12353515625, -0.192626953125, 
200, 3285536464, 0.863631010055542, -0.059763312339782715, -0.4656945466995239, -0.1836378276348114, 8.063950538635254, 0.700756847858429, 5.5174455642700195, -0.4300117790699005, -1.0144261121749878, -0.07118196040391922, -0.903564453125, 0.12353515625, -0.190673828125, 
201, 3285544797, 0.8635990619659424, -0.05978773534297943, -0.46574199199676514, -0.18365973234176636, 8.119712829589844, 0.7365856766700745, 5.499405384063721, -0.6138451099395752, -1.313241720199585, -0.0902133360505104, -0.903076171875, 0.12255859375, -0.193359375, 
202, 3285553130, 0.8635558485984802, -0.05979618430137634, -0.4658130705356598, -0.18368032574653625, 8.110572814941406, 0.7541957497596741, 5.5046706199646, -0.23101477324962616, -1.631140112876892, -0.14249198138713837, -0.902587890625, 0.12158203125, -0.18994140625, 
203, 3285561463, 0.8635044097900391, -0.059826433658599854, -0.46589240431785583, -0.18371102213859558, 8.171168327331543, 0.7380724549293518, 5.518435001373291, -0.5581853985786438, -1.814896583557129, -0.15135450661182404, -0.903564453125, 0.12353515625, -0.191650390625, 
204, 3285569796, 0.8634798526763916, -0.05987045168876648, -0.4659190773963928, -0.18374404311180115, 8.151172637939453, 0.7795457243919373, 5.519197463989258, -0.830720841884613, -1.0638103485107422, 0.0214519202709198, -0.904052734375, 0.12451171875, -0.192138671875, 
205, 3285578129, 0.8634853363037109, -0.059894949197769165, -0.4658978581428528, -0.18376368284225464, 8.180691719055176, 0.7666488885879517, 5.5311784744262695, -0.9030809998512268, -0.2741491496562958, -0.020337702706456184, -0.906005859375, 0.1240234375, -0.191650390625, 
206, 3285586462, 0.8634974956512451, -0.059964120388031006, -0.46584147214889526, -0.1838272511959076, 8.163346290588379, 0.7234600186347961, 5.5576372146606445, -1.5065780878067017, 0.12019478529691696, -0.020901214331388474, -0.904541015625, 0.12548828125, -0.191162109375, 
207, 3285594795, 0.8635178804397583, -0.060010865330696106, -0.46577852964401245, -0.18387556076049805, 8.16466236114502, 0.7042471766471863, 5.554432392120361, -1.1151156425476074, 0.3116611838340759, 0.07800815254449844, -0.904052734375, 0.12109375, -0.19140625, 
208, 3285603128, 0.8635579347610474, -0.06004534661769867, -0.46568578481674194, -0.1839110553264618, 8.160078048706055, 0.6914367079734802, 5.515364170074463, -0.9823314547538757, 0.7943870425224304, 0.19281113147735596, -0.902587890625, 0.12158203125, -0.19091796875, 
209, 3285611461, 0.8635954260826111, -0.06007269024848938, -0.4656033217906952, -0.18393456935882568, 8.12153148651123, 0.7064505219459534, 5.525764465332031, -0.8070533275604248, 0.6767153143882751, 0.27779918909072876, -0.904541015625, 0.12353515625, -0.189697265625, 
210, 3285619794, 0.8636202216148376, -0.06010766327381134, -0.46554136276245117, -0.18396392464637756, 8.111696243286133, 0.6892839670181274, 5.532424449920654, -0.8850229978561401, 0.32513427734375, 0.2033386081457138, -0.902099609375, 0.12158203125, -0.1943359375, 
211, 3285628127, 0.8636330366134644, -0.06012961268424988, -0.46551191806793213, -0.18397122621536255, 8.0974760055542, 0.6882322430610657, 5.534461975097656, -0.6097212433815002, -0.11718511581420898, 0.2709602117538452, -0.904541015625, 0.12060546875, -0.18994140625, 
212, 3285636460, 0.8636378049850464, -0.060145437717437744, -0.4655004143714905, -0.18397268652915955, 8.093670845031738, 0.6539415121078491, 5.542165756225586, -0.3657456338405609, -0.377374529838562, 0.3213946223258972, -0.902587890625, 0.1240234375, -0.189453125, 
213, 3285644793, 0.863645613193512, -0.060147881507873535, -0.4654901623725891, -0.18396133184432983, 8.098040580749512, 0.6481977701187134, 5.5474019050598145, -0.18493476510047913, -0.3401826322078705, 0.36045628786087036, -0.904052734375, 0.123046875, -0.193603515625, 
214, 3285653126, 0.8636436462402344, -0.060163870453834534, -0.4654958248138428, -0.18395096063613892, 8.099385261535645, 0.6443423628807068, 5.526106834411621, -0.25547635555267334, -0.6346182823181152, 0.4301782548427582, -0.904541015625, 0.123046875, -0.190673828125, 
215, 3285661459, 0.8636353611946106, -0.06019267439842224, -0.46550968289375305, -0.18394529819488525, 8.09212589263916, 0.660801112651825, 5.548760890960693, -0.5026793479919434, -0.7929654121398926, 0.38901618123054504, -0.904052734375, 0.1240234375, -0.192138671875, 
216, 3285669792, 0.8636345863342285, -0.06026187539100647, -0.4655022621154785, -0.18394532799720764, 8.118025779724121, 0.6845701336860657, 5.5519938468933105, -0.9864298105239868, -0.5974264144897461, 0.662320077419281, -0.905029296875, 0.123046875, -0.191650390625, 
217, 3285678125, 0.8636441230773926, -0.060384467244148254, -0.4654601514339447, -0.1839672029018402, 8.140483856201172, 0.6677013635635376, 5.585956573486328, -1.8661763668060303, -0.22417578101158142, 0.7901350259780884, -0.903564453125, 0.12255859375, -0.1904296875, 
218, 3285686458, 0.8636783361434937, -0.060509100556373596, -0.4653718173503876, -0.18398943543434143, 8.100597381591797, 0.6212854981422424, 5.53886604309082, -1.961768627166748, 0.466012567281723, 0.9080117344856262, -0.903564453125, 0.12451171875, -0.189208984375, 
219, 3285694791, 0.8636905550956726, -0.060599833726882935, -0.4653363525867462, -0.18399178981781006, 8.08338451385498, 0.59193354845047, 5.492081642150879, -1.2348878383636475, -0.21349464356899261, 0.8955376744270325, -0.903564453125, 0.12451171875, -0.191162109375, 
220, 3285703124, 0.863693356513977, -0.06064102053642273, -0.4653588831424713, -0.18390768766403198, 8.15217113494873, 0.6342349648475647, 5.374562740325928, -0.03583431616425514, -0.9284392595291138, 1.465198278427124, -0.904541015625, 0.12353515625, -0.192626953125, 
221, 3285711457, 0.863645076751709, -0.06070999801158905, -0.46545523405075073, -0.1838679015636444, 8.104781150817871, 0.6488710641860962, 5.516264915466309, -0.5204044580459595, -2.1550793647766113, 0.9237902760505676, -0.903564453125, 0.12109375, -0.189453125, 
222, 3285719790, 0.8635159730911255, -0.060892969369888306, -0.4656447768211365, -0.1839335858821869, 8.076395988464355, 0.5799150466918945, 5.629607200622559, -2.366678476333618, -3.9894943237304688, 0.12134744971990585, -0.905029296875, 0.12353515625, -0.190185546875, 
223, 3285728123, 0.8634682893753052, -0.06101346015930176, -0.4657036066055298, -0.18396899104118347, 8.21239948272705, 0.5474982857704163, 5.469366073608398, -1.7210716009140015, -1.7727611064910889, 0.38535335659980774, -0.901611328125, 0.1240234375, -0.189453125, 
224, 3285736456, 0.8635565042495728, -0.061076775193214417, -0.4655381441116333, -0.1839524805545807, 8.29161548614502, 0.6842771172523499, 5.355286121368408, -1.1343520879745483, 1.8495142459869385, 1.1792923212051392, -0.905517578125, 0.123046875, -0.189697265625, 
225, 3285744789, 0.8635733127593994, -0.06124649941921234, -0.46546870470046997, -0.18399327993392944, 8.080039024353027, 0.7375282645225525, 5.459464073181152, -2.6188504695892334, 0.043403320014476776, 0.9025815725326538, -0.904296875, 0.12646484375, -0.190185546875, 
226, 3285753122, 0.8634778261184692, -0.06150121986865997, -0.4655797481536865, -0.18407592177391052, 8.019936561584473, 0.636073648929596, 5.569190979003906, -3.497802972793579, -3.0108253955841064, 0.5291004776954651, -0.903564453125, 0.12353515625, -0.188232421875, 
227, 3285761455, 0.8634309768676758, -0.06169818341732025, -0.46563583612442017, -0.1840868890285492, 8.142546653747559, 0.6231822967529297, 5.527080535888672, -2.438910722732544, -1.9461185932159424, 1.196223258972168, -0.9052734375, 0.1259765625, -0.190185546875, 
228, 3285769788, 0.8634446859359741, -0.06173253059387207, -0.4656379818916321, -0.18400585651397705, 8.091209411621094, 0.6632828712463379, 5.483169078826904, -0.01631626859307289, -0.598118007183075, 1.4294921159744263, -0.9033203125, 0.126220703125, -0.189208984375, 
229, 3285778121, 0.8633949160575867, -0.061694011092185974, -0.4657765030860901, -0.183901846408844, 8.006214141845703, 0.6464174389839172, 5.481291770935059, 1.194507122039795, -2.4537415504455566, 0.9060907959938049, -0.905029296875, 0.123046875, -0.187255859375, 
230, 3285786454, 0.8632489442825317, -0.06169182062149048, -0.46606647968292236, -0.18385344743728638, 8.143092155456543, 0.5738950967788696, 5.4342265129089355, 0.800918698310852, -4.919291019439697, 0.15966632962226868, -0.904541015625, 0.123046875, -0.188720703125, 
231, 3285794787, 0.8630814552307129, -0.06170903146266937, -0.4663802981376648, -0.1838381290435791, 8.24597454071045, 0.5713410973548889, 5.480165481567383, 0.36360687017440796, -5.349200248718262, -0.19802366197109222, -0.904541015625, 0.12451171875, -0.188720703125, 
232, 3285803120, 0.8629788160324097, -0.061711385846138, -0.4665846824645996, -0.18380090594291687, 8.249067306518555, 0.5900135636329651, 5.535470008850098, 0.49713388085365295, -3.6275646686553955, 0.23978763818740845, -0.90380859375, 0.126220703125, -0.187744140625, 
233, 3285811453, 0.8629862070083618, -0.06164062023162842, -0.46661654114723206, -0.18370813131332397, 8.250246047973633, 0.6165321469306946, 5.521443843841553, 1.256109356880188, -0.7323622107505798, 0.7809395790100098, -0.904541015625, 0.125244140625, -0.187255859375, 
234, 3285819786, 0.8630592823028564, -0.061529889702796936, -0.46653684973716736, -0.18360483646392822, 8.188467979431152, 0.6410184502601624, 5.443257808685303, 1.6919100284576416, 1.1009126901626587, 0.9818833470344543, -0.902587890625, 0.125732421875, -0.186279296875, 
235, 3285828119, 0.8631130456924438, -0.06145969033241272, -0.4664822518825531, -0.18351393938064575, 8.142481803894043, 0.6273758411407471, 5.370454788208008, 1.0542945861816406, 0.5922138690948486, 0.9492506384849548, -0.906005859375, 0.12451171875, -0.187255859375, 
236, 3285836452, 0.8630988597869873, -0.06145821511745453, -0.4665347635746002, -0.18344751000404358, 8.113749504089355, 0.6306236386299133, 5.38749361038208, 0.41916409134864807, -1.272361397743225, 0.9126992225646973, -0.905029296875, 0.125244140625, -0.185791015625, 
237, 3285844785, 0.8630603551864624, -0.061456382274627686, -0.4666348397731781, -0.18337559700012207, 8.114269256591797, 0.6053406596183777, 5.426422119140625, 0.5421124696731567, -1.9837713241577148, 0.8740729093551636, -0.904541015625, 0.12353515625, -0.187744140625, 
238, 3285853118, 0.8630392551422119, -0.06143340468406677, -0.46670976281166077, -0.18329167366027832, 8.120652198791504, 0.5930922031402588, 5.451850414276123, 0.837931215763092, -1.5423098802566528, 0.9474577307701111, -0.904052734375, 0.125, -0.190673828125, 
239, 3285861451, 0.8630399703979492, -0.061401620507240295, -0.46674275398254395, -0.18321478366851807, 8.137567520141602, 0.5853385925292969, 5.4056396484375, 0.6818637251853943, -0.8730867505073547, 0.8183107376098633, -0.906005859375, 0.1240234375, -0.190673828125, 
240, 3285869784, 0.8630359172821045, -0.061382442712783813, -0.466779887676239, -0.18314528465270996, 8.143840789794922, 0.5985355973243713, 5.386648654937744, 0.6193393468856812, -0.9822802543640137, 0.87581467628479, -0.904296875, 0.127685546875, -0.187255859375, 
241, 3285878117, 0.8630193471908569, -0.06136640906333923, -0.46684443950653076, -0.18306437134742737, 8.173213005065918, 0.612835705280304, 5.393607139587402, 0.6058919429779053, -1.4006632566452026, 0.9116746783256531, -0.904541015625, 0.12548828125, -0.188232421875, 
242, 3285886450, 0.8629922866821289, -0.061353057622909546, -0.46692124009132385, -0.18300068378448486, 8.153326034545898, 0.6249335408210754, 5.4517951011657715, 0.592828631401062, -1.609931468963623, 0.7532762289047241, -0.901611328125, 0.126220703125, -0.186767578125, 
243, 3285894783, 0.8629801273345947, -0.06133261322975159, -0.4669703543186188, -0.1829392910003662, 8.178996086120605, 0.6378186345100403, 5.455615520477295, 0.5251045823097229, -1.1593769788742065, 0.6930314302444458, -0.90380859375, 0.125732421875, -0.188232421875, 
244, 3285903116, 0.8629800081253052, -0.061318978667259216, -0.4669913053512573, -0.1828908920288086, 8.195863723754883, 0.6087498664855957, 5.46575927734375, 0.37900105118751526, -0.7619210481643677, 0.6829651594161987, -0.903564453125, 0.124267578125, -0.187255859375, 
245, 3285911449, 0.8629838228225708, -0.061300963163375854, -0.4670085906982422, -0.1828346848487854, 8.192630767822266, 0.617591142654419, 5.4707159996032715, 0.4590967297554016, -0.675011932849884, 0.7556070685386658, -0.904296875, 0.126220703125, -0.187255859375, 
246, 3285919782, 0.8629879355430603, -0.061278775334358215, -0.46702033281326294, -0.1827930510044098, 8.185834884643555, 0.6592420339584351, 5.467461585998535, 0.418498158454895, -0.5974776148796082, 0.5682902336120605, -0.90478515625, 0.126708984375, -0.183349609375, 
247, 3285928115, 0.8629881739616394, -0.06125657260417938, -0.467026025056839, -0.18278446793556213, 8.163926124572754, 0.6402867436408997, 5.501823902130127, 0.48173969984054565, -0.48531290888786316, 0.3753637671470642, -0.90576171875, 0.1259765625, -0.187255859375, 
248, 3285936448, 0.8629952073097229, -0.06121686100959778, -0.4670272469520569, -0.1827617883682251, 8.173174858093262, 0.6233771443367004, 5.528561115264893, 0.48038214445114136, -0.39489465951919556, 0.24639610946178436, -0.903564453125, 0.125732421875, -0.184326171875, 
249, 3285944781, 0.8630055785179138, -0.06117568910121918, -0.4670141637325287, -0.18275979161262512, 8.182509422302246, 0.6373469233512878, 5.523382186889648, 0.561604917049408, -0.14951027929782867, 0.1740359216928482, -0.90576171875, 0.126220703125, -0.185791015625, 
250, 3285953114, 0.8630223870277405, -0.06111997365951538, -0.4669952988624573, -0.182747483253479, 8.206571578979492, 0.6370965838432312, 5.520413875579834, 0.5638846158981323, -0.04382595419883728, 0.0631006732583046, -0.905029296875, 0.12451171875, -0.188232421875, 
251, 3285961447, 0.8630450963973999, -0.061058759689331055, -0.4669698476791382, -0.18272554874420166, 8.179211616516113, 0.6368319392204285, 5.461216926574707, 0.6096827983856201, 0.08653769642114639, 0.12201341986656189, -0.903076171875, 0.125732421875, -0.186767578125, 
252, 3285969780, 0.8630842566490173, -0.06097190082073212, -0.4669227600097656, -0.18269041180610657, 8.193617820739746, 0.6481403112411499, 5.390948295593262, 1.025350570678711, 0.4935990869998932, 0.21140708029270172, -0.905029296875, 0.125, -0.189208984375, 
253, 3285978113, 0.8631348609924316, -0.06087431311607361, -0.4668601155281067, -0.18264368176460266, 8.169448852539062, 0.6587915420532227, 5.381298065185547, 1.2092864513397217, 0.7823739051818848, 0.3359947204589844, -0.90380859375, 0.126220703125, -0.189208984375, 
254, 3285986446, 0.8631212711334229, -0.06088261306285858, -0.4668668210506439, -0.18268778920173645, 8.05402946472168, 0.5978703498840332, 5.63167667388916, -0.5215571522712708, -0.6556220054626465, -0.29310372471809387, -0.905029296875, 0.1240234375, -0.186767578125, 
255, 3285994779, 0.8630979061126709, -0.060897424817085266, -0.4669002592563629, -0.18270817399024963, 8.111207962036133, 0.5191107392311096, 5.618628978729248, -0.4490431547164917, -1.0631699562072754, -0.054097265005111694, -0.904296875, 0.125732421875, -0.187255859375, 
256, 3286003112, 0.8631875514984131, -0.06083245575428009, -0.4667525887489319, -0.1826838254928589, 8.179001808166504, 0.6168814301490784, 5.4553351402282715, 0.48804083466529846, 1.9654185771942139, 0.4367355406284332, -0.901123046875, 0.124267578125, -0.189453125, 
257, 3286011445, 0.8632690906524658, -0.060729727149009705, -0.4666270911693573, -0.18265271186828613, 8.06393814086914, 0.6889415383338928, 5.395233631134033, 1.1183302402496338, 1.7608376741409302, 0.3042074739933014, -0.904052734375, 0.12548828125, -0.189697265625, 
258, 3286019778, 0.8632117509841919, -0.060735419392585754, -0.4667269289493561, -0.18266695737838745, 8.045745849609375, 0.6360272169113159, 5.43730354309082, -0.10015164315700531, -2.060716390609741, -0.14653903245925903, -0.903564453125, 0.124755859375, -0.187255859375, 
259, 3286028111, 0.8631150126457214, -0.060793548822402954, -0.4668827950954437, -0.18270665407180786, 8.130109786987305, 0.5945310592651367, 5.46067476272583, -0.7132796049118042, -3.0705063343048096, -0.20253174006938934, -0.904052734375, 0.1240234375, -0.186767578125, 
260, 3286036444, 0.8630707263946533, -0.060796141624450684, -0.4669630825519562, -0.18270954489707947, 8.194289207458496, 0.5893007516860962, 5.541240692138672, -0.02907215617597103, -1.7465577125549316, 0.019838225096464157, -0.90576171875, 0.126708984375, -0.185302734375, 
261, 3286044777, 0.8631031513214111, -0.06074079871177673, -0.4669330418109894, -0.18265163898468018, 8.160492897033691, 0.5953311324119568, 5.502331733703613, 0.6606294512748718, 0.14977921545505524, 0.5437517166137695, -0.904296875, 0.127685546875, -0.185791015625, 
262, 3286053110, 0.8631267547607422, -0.06072796881198883, -0.4669010043144226, -0.1826266050338745, 8.145472526550293, 0.5815905928611755, 5.459071159362793, 0.10764381289482117, 0.03784503415226936, 0.5156273245811462, -0.905029296875, 0.1240234375, -0.187744140625, 
263, 3286061443, 0.8630779981613159, -0.06084446609020233, -0.4669623374938965, -0.18266147375106812, 8.142962455749512, 0.5948633551597595, 5.498219013214111, -1.6255817413330078, -1.7960187196731567, 0.3917056620121002, -0.905517578125, 0.1240234375, -0.186279296875, 
264, 3286069776, 0.8630104064941406, -0.0609574168920517, -0.46706297993659973, -0.1826854944229126, 8.170848846435547, 0.6195315718650818, 5.527194499969482, -1.4431571960449219, -2.3966469764709473, 0.3997485339641571, -0.9052734375, 0.127685546875, -0.186279296875, 
265, 3286078109, 0.8629782795906067, -0.0609995573759079, -0.4671080410480499, -0.1827084720134735, 8.204975128173828, 0.6172189712524414, 5.573465824127197, -0.6118984818458557, -1.3120123147964478, 0.1681702584028244, -0.903564453125, 0.124755859375, -0.186279296875, 
266, 3286086442, 0.862964391708374, -0.061023637652397156, -0.4671165347099304, -0.18274396657943726, 8.188682556152344, 0.5987433791160583, 5.554632663726807, -0.6475534439086914, -0.7258817553520203, -0.09472143650054932, -0.903564453125, 0.125732421875, -0.187744140625, 
267, 3286094775, 0.8629475831985474, -0.0610787570476532, -0.46711742877960205, -0.182803213596344, 8.144462585449219, 0.6076695322990417, 5.5067667961120605, -1.1892945766448975, -0.6998832821846008, -0.16687673330307007, -0.905517578125, 0.124755859375, -0.185302734375, 
268, 3286103108, 0.8629094958305359, -0.06115615367889404, -0.4671438932418823, -0.18288958072662354, 8.152165412902832, 0.6274413466453552, 5.514174461364746, -1.582831621170044, -1.1864769458770752, -0.43098509311676025, -0.90380859375, 0.126708984375, -0.186767578125, 
269, 3286111441, 0.8628607988357544, -0.06121441721916199, -0.46719956398010254, -0.18295720219612122, 8.12728214263916, 0.6192666292190552, 5.516124248504639, -1.2758195400238037, -1.5634160041809082, -0.4470196068286896, -0.902587890625, 0.124755859375, -0.185791015625, 
270, 3286119774, 0.862834095954895, -0.06125742197036743, -0.46722108125686646, -0.18301361799240112, 8.115172386169434, 0.5839871168136597, 5.532172679901123, -0.9850466847419739, -0.9934225082397461, -0.26303261518478394, -0.9033203125, 0.127685546875, -0.188720703125, 
271, 3286128107, 0.8628454208374023, -0.061280637979507446, -0.4671750068664551, -0.18306970596313477, 8.137367248535156, 0.5567771196365356, 5.518796920776367, -0.8379440307617188, 0.12101445347070694, -0.19487309455871582, -0.903564453125, 0.125732421875, -0.184814453125, 
272, 3286136440, 0.8628453612327576, -0.061316028237342834, -0.4671555459499359, -0.18310821056365967, 8.153876304626465, 0.5352617502212524, 5.466888427734375, -0.8613811731338501, -0.33275458216667175, 0.0001664925366640091, -0.9033203125, 0.126220703125, -0.187255859375, 
273, 3286144773, 0.8628182411193848, -0.06136828660964966, -0.4672030508518219, -0.18309706449508667, 8.152909278869629, 0.5290172696113586, 5.446231365203857, -0.6915842890739441, -1.3787630796432495, 0.5160884261131287, -0.904296875, 0.126708984375, -0.188232421875, 
274, 3286153106, 0.8627986907958984, -0.06143230199813843, -0.4672451615333557, -0.18305981159210205, 8.08448600769043, 0.43089455366134644, 5.506284713745117, -0.575090765953064, -1.3229496479034424, 0.9837276339530945, -0.90478515625, 0.126220703125, -0.188232421875, 
275, 3286161439, 0.8627945184707642, -0.06145584583282471, -0.46728166937828064, -0.18297895789146423, 8.116989135742188, 0.38380008935928345, 5.526758670806885, 0.15600349009037018, -1.0824317932128906, 1.273245096206665, -0.9033203125, 0.129150390625, -0.185302734375, 
276, 3286169772, 0.8628154993057251, -0.06139804422855377, -0.4672873020172119, -0.18288511037826538, 8.185370445251465, 0.4290563464164734, 5.419072151184082, 1.1764745712280273, -0.37109899520874023, 1.0029637813568115, -0.904052734375, 0.125244140625, -0.184814453125, 
277, 3286178105, 0.8627937436103821, -0.06135891377925873, -0.46735507249832153, -0.1828276515007019, 8.138641357421875, 0.5366997122764587, 5.375419616699219, 0.7704634070396423, -1.3930814266204834, 0.49183177947998047, -0.90478515625, 0.126220703125, -0.186279296875, 
278, 3286186438, 0.862686038017273, -0.06142811477184296, -0.46753859519958496, -0.18284356594085693, 8.185726165771484, 0.6282198429107666, 5.305617809295654, -0.6981415748596191, -3.5349440574645996, 0.04588790237903595, -0.90625, 0.126220703125, -0.186279296875, 
279, 3286194771, 0.8625069856643677, -0.061563000082969666, -0.46781614422798157, -0.18293267488479614, 8.264779090881348, 0.7041373252868652, 5.282923221588135, -1.7284231185913086, -5.197717666625977, -0.6251153945922852, -0.905029296875, 0.125244140625, -0.185302734375, 
280, 3286203104, 0.8623224496841431, -0.0617077499628067, -0.4680860638618469, -0.18306365609169006, 8.271087646484375, 0.6901450157165527, 5.40543270111084, -2.181718349456787, -5.146847724914551, -1.100489854812622, -0.90380859375, 0.127197265625, -0.184326171875, 
281, 3286211437, 0.8621875643730164, -0.061871811747550964, -0.46824032068252563, -0.18324846029281616, 8.189997673034668, 0.5544772744178772, 5.558953762054443, -2.971097469329834, -3.4437055587768555, -1.361447811126709, -0.90478515625, 0.128173828125, -0.183837890625, 
282, 3286219770, 0.8621477484703064, -0.06198680400848389, -0.46822503209114075, -0.18343648314476013, 8.256234169006348, 0.45977261662483215, 5.6356987953186035, -2.791080951690674, -0.7100778222084045, -1.361575961112976, -0.90576171875, 0.125732421875, -0.183349609375, 
283, 3286228103, 0.8621970415115356, -0.0620369017124176, -0.46806880831718445, -0.18358635902404785, 8.26318073272705, 0.4201184809207916, 5.570988655090332, -2.098830461502075, 1.6750301122665405, -1.0071004629135132, -0.90576171875, 0.126220703125, -0.184326171875, 
284, 3286236436, 0.8622738718986511, -0.06206133961677551, -0.46786850690841675, -0.18372803926467896, 8.163859367370605, 0.37834224104881287, 5.524397373199463, -1.7850306034088135, 2.423478126525879, -0.9411694407463074, -0.904296875, 0.126708984375, -0.183837890625, 
285, 3286244769, 0.8623098134994507, -0.062071844935417175, -0.46772319078445435, -0.18392521142959595, 8.178071975708008, 0.372382253408432, 5.451303482055664, -1.8057267665863037, 1.6072804927825928, -1.7906910181045532, -0.9052734375, 0.126708984375, -0.185791015625, 
286, 3286253102, 0.8622636795043945, -0.06204313039779663, -0.46770811080932617, -0.18418940901756287, 8.224316596984863, 0.4057741165161133, 5.362364768981934, -1.5815765857696533, -0.324634850025177, -3.206159830093384, -0.904052734375, 0.125244140625, -0.184326171875, 
287, 3286261435, 0.8621112108230591, -0.062005653977394104, -0.46785253286361694, -0.18454918265342712, 8.21100902557373, 0.4687668979167938, 5.305675029754639, -1.7427924871444702, -2.781552314758301, -4.775210380554199, -0.904541015625, 0.124267578125, -0.186279296875, 
288, 3286269768, 0.8619034290313721, -0.061970219016075134, -0.4680776000022888, -0.18495997786521912, 8.181117057800293, 0.5266802310943604, 5.27357816696167, -1.9734745025634766, -4.069077491760254, -5.601142406463623, -0.906005859375, 0.125244140625, -0.183349609375, 
289, 3286278101, 0.8616816997528076, -0.06187880039215088, -0.46832072734832764, -0.18540769815444946, 8.238054275512695, 0.5540004372596741, 5.191921710968018, -1.5215370655059814, -4.1878252029418945, -6.4544291496276855, -0.907958984375, 0.12451171875, -0.183837890625, 
290, 3286286434, 0.8614692091941833, -0.0617336630821228, -0.4685291349887848, -0.1859164535999298, 8.280171394348145, 0.5532205104827881, 5.1768693923950195, -1.34915292263031, -3.5401432514190674, -7.467010498046875, -0.905517578125, 0.122802734375, -0.182373046875, 
291, 3286294767, 0.8612147569656372, -0.061587199568748474, -0.46879521012306213, -0.18647214770317078, 8.203951835632324, 0.5687589645385742, 5.202944278717041, -1.665693998336792, -4.448681354522705, -8.279136657714844, -0.904052734375, 0.122314453125, -0.181396484375, 
292, 3286303100, 0.8609191179275513, -0.06149391829967499, -0.46910250186920166, -0.18709498643875122, 8.181078910827637, 0.5307077169418335, 5.2339348793029785, -2.5187251567840576, -5.283833026885986, -8.780739784240723, -0.907958984375, 0.12158203125, -0.183349609375, 
293, 3286311433, 0.8605972528457642, -0.061451807618141174, -0.4694404602050781, -0.18774020671844482, 8.251495361328125, 0.5543006062507629, 5.270959377288818, -3.2460670471191406, -5.917452812194824, -8.83096981048584, -0.905517578125, 0.121826171875, -0.181884765625, 
294, 3286319766, 0.8602483868598938, -0.06146334111690521, -0.4698050618171692, -0.1884225308895111, 8.282421112060547, 0.5713198781013489, 5.313116073608398, -4.039493560791016, -6.526021480560303, -8.992569923400879, -0.906005859375, 0.119140625, -0.18115234375, 
295, 3286328099, 0.8598809242248535, -0.06148047745227814, -0.4702000021934509, -0.18910712003707886, 8.216059684753418, 0.6102116703987122, 5.39735221862793, -4.315589427947998, -7.025216579437256, -9.228117942810059, -0.90625, 0.115234375, -0.181640625, 
296, 3286336432, 0.8594987392425537, -0.0614900141954422, -0.4706154465675354, -0.18980681896209717, 8.12429428100586, 0.6510341167449951, 5.484236717224121, -4.023869037628174, -7.322240352630615, -9.34317684173584, -0.908447265625, 0.1171875, -0.179443359375, 
297, 3286344765, 0.8590811491012573, -0.06139853596687317, -0.47110995650291443, -0.190498948097229, 8.192516326904297, 0.6452265977859497, 5.521213054656982, -2.6653919219970703, -8.220352172851562, -10.103561401367188, -0.9072265625, 0.115234375, -0.17919921875, 
298, 3286353098, 0.858654260635376, -0.0611543208360672, -0.4716441333293915, -0.19117915630340576, 8.279862403869629, 0.649937629699707, 5.4949188232421875, -0.6265755295753479, -8.366994857788086, -10.970656394958496, -0.9111328125, 0.11376953125, -0.177490234375, 
299, 3286361431, 0.8581498861312866, -0.06087605655193329, -0.4723219871520996, -0.1918579339981079, 8.279903411865234, 0.6609123349189758, 5.6135029792785645, 0.06783931702375412, -10.467642784118652, -11.5175199508667, -0.9091796875, 0.11328125, -0.177734375, 
300, 3286369764, 0.8575788736343384, -0.060655102133750916, -0.4730769991874695, -0.192620187997818, 8.321760177612305, 0.6761340498924255, 5.646500110626221, -0.9743402600288391, -11.901683807373047, -12.354466438293457, -0.91015625, 0.11083984375, -0.17431640625, 
301, 3286378097, 0.8570059537887573, -0.06035591661930084, -0.47383278608322144, -0.19340434670448303, 8.413399696350098, 0.7250789403915405, 5.56742525100708, -0.23352502286434174, -11.690287590026855, -13.153193473815918, -0.910400390625, 0.108154296875, -0.17529296875, 
302, 3286386430, 0.8564051389694214, -0.05998809635639191, -0.47462502121925354, -0.19423532485961914, 8.391963005065918, 0.7791988253593445, 5.539246559143066, 0.38343238830566406, -12.089308738708496, -14.228559494018555, -0.911865234375, 0.105224609375, -0.17333984375, 
303, 3286394763, 0.8557705283164978, -0.05961768329143524, -0.47546616196632385, -0.19508737325668335, 8.324443817138672, 0.8651406168937683, 5.429963111877441, 0.3557690978050232, -12.850948333740234, -14.640027046203613, -0.912353515625, 0.105712890625, -0.171875, 
304, 3286403096, 0.8550957441329956, -0.05930134654045105, -0.47634178400039673, -0.196004718542099, 8.296557426452637, 0.9173100590705872, 5.351415157318115, -0.6236811876296997, -13.620118141174316, -15.176156044006348, -0.911865234375, 0.104248046875, -0.17041015625, 
305, 3286411429, 0.8543765544891357, -0.058970168232917786, -0.47729820013046265, -0.19691145420074463, 8.253915786743164, 0.9615247845649719, 5.285136699676514, -0.33582839369773865, -14.83203125, -15.423233032226562, -0.912353515625, 0.102294921875, -0.166015625, 
306, 3286419762, 0.8535729050636292, -0.058734506368637085, -0.47834572196006775, -0.1979234516620636, 8.218050956726074, 1.062911033630371, 5.2347941398620605, -1.8330836296081543, -16.627079010009766, -16.246707916259766, -0.91162109375, 0.099853515625, -0.166015625, 
307, 3286428095, 0.8526756167411804, -0.05859765410423279, -0.4795239269733429, -0.19897761940956116, 8.157266616821289, 1.0990395545959473, 5.242830276489258, -2.787419080734253, -18.97920799255371, -16.31796646118164, -0.9140625, 0.097412109375, -0.1630859375, 
308, 3286436428, 0.8517121076583862, -0.0584469735622406, -0.4808279871940613, -0.1999986469745636, 8.307289123535156, 1.1171625852584839, 5.170240879058838, -2.318909168243408, -20.91321563720703, -16.438739776611328, -0.9150390625, 0.094482421875, -0.16162109375, 
309, 3286444761, 0.8505847454071045, -0.0582621693611145, -0.482433021068573, -0.2009831964969635, 8.360519409179688, 1.134700059890747, 5.120091915130615, -0.7121274471282959, -25.414947509765625, -16.756689071655273, -0.91357421875, 0.093505859375, -0.156982421875, 
310, 3286453094, 0.8495159149169922, -0.05818690359592438, -0.48386502265930176, -0.2020798623561859, 8.17337703704834, 1.090099573135376, 5.18242883682251, -3.437535047531128, -23.25861358642578, -17.212522506713867, -0.916259765625, 0.090087890625, -0.152587890625, 
311, 3286461427, 0.8484190702438354, -0.05810536444187164, -0.4853610396385193, -0.20312055945396423, 8.20198917388916, 1.1899762153625488, 5.194878578186035, -2.7318367958068848, -24.197221755981445, -16.66122817993164, -0.920166015625, 0.0869140625, -0.15185546875, 
312, 3286469760, 0.8473020195960999, -0.058014437556266785, -0.48687711358070374, -0.2041785717010498, 8.336149215698242, 1.2161991596221924, 5.12462854385376, -2.801969051361084, -24.548139572143555, -17.0651912689209, -0.917724609375, 0.084228515625, -0.149169921875, 
313, 3286478093, 0.8461848497390747, -0.05788625776767731, -0.488381028175354, -0.20525315403938293, 8.255017280578613, 1.1980869770050049, 5.188553333282471, -2.651280164718628, -24.2940673828125, -17.5810604095459, -0.921142578125, 0.083740234375, -0.141357421875, 
314, 3286486426, 0.8451088070869446, -0.05778442323207855, -0.48978567123413086, -0.2063654065132141, 8.236566543579102, 1.2642393112182617, 5.131706714630127, -3.3210160732269287, -22.90329360961914, -17.56553840637207, -0.919921875, 0.080810546875, -0.140380859375, 
315, 3286494759, 0.8440367579460144, -0.0575551837682724, -0.4912266731262207, -0.20738881826400757, 8.406891822814941, 1.3696506023406982, 4.922953128814697, -1.1409101486206055, -22.99734878540039, -17.408395767211914, -0.92236328125, 0.077880859375, -0.136474609375, 
316, 3286503092, 0.8428871631622314, -0.05715906620025635, -0.4928189516067505, -0.2083941102027893, 8.396520614624023, 1.338952898979187, 4.835869312286377, 1.2945828437805176, -24.825748443603516, -18.666671752929688, -0.92236328125, 0.077392578125, -0.136474609375, 
317, 3286511425, 0.8415753245353699, -0.05696648359298706, -0.49457240104675293, -0.2095915675163269, 8.255616188049316, 1.1911489963531494, 5.097126483917236, -2.0480141639709473, -28.21503448486328, -20.108915328979492, -0.922607421875, 0.07177734375, -0.131103515625, 
318, 3286519758, 0.8402580618858337, -0.05686099827289581, -0.4963143765926361, -0.2107839286327362, 8.403975486755371, 1.1797127723693848, 4.961311340332031, -3.0435631275177, -28.385005950927734, -19.464096069335938, -0.922607421875, 0.06982421875, -0.128662109375, 
319, 3286528091, 0.8390594720840454, -0.05667942762374878, -0.49788764119148254, -0.21189382672309875, 8.59957504272461, 1.2837282419204712, 4.8398003578186035, -1.9821597337722778, -25.45555305480957, -18.53770637512207, -0.925537109375, 0.068115234375, -0.122314453125, 
320, 3286536424, 0.8378386497497559, -0.056525006890296936, -0.49949589371681213, -0.21297797560691833, 8.6627197265625, 1.456800103187561, 4.794746398925781, -2.0514719486236572, -26.123985290527344, -18.161100387573242, -0.92724609375, 0.06494140625, -0.120849609375, 
321, 3286544757, 0.8363497853279114, -0.056405678391456604, -0.5015482306480408, -0.21403566002845764, 8.708643913269043, 1.4743458032608032, 4.845081329345703, -1.1781281232833862, -33.193092346191406, -18.736501693725586, -0.92822265625, 0.06201171875, -0.114990234375, 
322, 3286553090, 0.8348071575164795, -0.056541815400123596, -0.5035876631736755, -0.21523058414459229, 8.65178108215332, 1.338420033454895, 4.921665191650391, -5.144983768463135, -34.07310104370117, -18.71099090576172, -0.9267578125, 0.059814453125, -0.11328125, 
323, 3286561423, 0.8335486650466919, -0.05644327402114868, -0.5051839351654053, -0.21638962626457214, 8.532608985900879, 1.3066542148590088, 4.825660705566406, -3.382516860961914, -26.35243797302246, -18.782962799072266, -0.92822265625, 0.058837890625, -0.1064453125, 
324, 3286569756, 0.8324094414710999, -0.05609424412250519, -0.5066434741020203, -0.2174513041973114, 8.553753852844238, 1.2626758813858032, 4.786603927612305, -0.06229386851191521, -23.286712646484375, -18.901832580566406, -0.928466796875, 0.053955078125, -0.1044921875, 
325, 3286578089, 0.8312972784042358, -0.05574531853199005, -0.5080432295799255, -0.2185271680355072, 8.411317825317383, 1.1476402282714844, 4.808712959289551, -0.2671566903591156, -22.382272720336914, -18.90167999267578, -0.929443359375, 0.0517578125, -0.1025390625, 
326, 3286586422, 0.8301900625228882, -0.05524630844593048, -0.5094821453094482, -0.21951094269752502, 8.507375717163086, 1.2088407278060913, 4.572640895843506, 2.1617534160614014, -22.436140060424805, -18.946250915527344, -0.927490234375, 0.050537109375, -0.1005859375, 
327, 3286594755, 0.8291440606117249, -0.05487878620624542, -0.5107868313789368, -0.22052165865898132, 8.51634693145752, 1.2258738279342651, 4.558701038360596, 0.07119480520486832, -20.84441566467285, -18.06439971923828, -0.9287109375, 0.048583984375, -0.0947265625, 
328, 3286603088, 0.8280861973762512, -0.054500043392181396, -0.5121504068374634, -0.22142639756202698, 8.72960090637207, 1.3817296028137207, 4.545600891113281, 1.155292272567749, -21.651443481445312, -16.998050689697266, -0.93115234375, 0.04443359375, -0.09521484375, 
329, 3286611421, 0.8269447088241577, -0.05406004190444946, -0.5136398673057556, -0.2223483920097351, 8.721123695373535, 1.4577265977859497, 4.524445056915283, 1.973258376121521, -23.47528648376465, -18.010740280151367, -0.928955078125, 0.040771484375, -0.088623046875, 
330, 3286619754, 0.8259032368659973, -0.05366075038909912, -0.5149536728858948, -0.2232753038406372, 8.678021430969238, 1.4366060495376587, 4.620821952819824, 1.0906164646148682, -20.891111373901367, -17.306781768798828, -0.93115234375, 0.041259765625, -0.088134765625, 
331, 3286628087, 0.8248192071914673, -0.05330270528793335, -0.516355037689209, -0.22412988543510437, 8.741168975830078, 1.42612624168396, 4.640870571136475, 1.3437620401382446, -22.359603881835938, -16.3980655670166, -0.932861328125, 0.03466796875, -0.086669921875, 
332, 3286636420, 0.8236138820648193, -0.052872270345687866, -0.5179911255836487, -0.22488829493522644, 8.825432777404785, 1.3647866249084473, 4.515964508056641, 3.5100884437561035, -25.73853874206543, -16.35746955871582, -0.933349609375, 0.03466796875, -0.081787109375, 
333, 3286644753, 0.8226300477981567, -0.05242210626602173, -0.5192344784736633, -0.22572556138038635, 8.606924057006836, 1.3151448965072632, 4.616642951965332, 2.0995614528656006, -19.584064483642578, -16.424726486206055, -0.930908203125, 0.033203125, -0.079833984375, 
334, 3286653086, 0.8218318223953247, -0.0518791526556015, -0.5202163457870483, -0.22649601101875305, 8.618058204650879, 1.3303204774856567, 4.492374420166016, 2.968191623687744, -15.070322036743164, -15.561805725097656, -0.9326171875, 0.0283203125, -0.073974609375, 
335, 3286661419, 0.82118159532547, -0.05127902328968048, -0.5209776163101196, -0.2272408902645111, 8.5795316696167, 1.4324042797088623, 4.33899450302124, 3.16872501373291, -11.356125831604004, -15.083638191223145, -0.93310546875, 0.029296875, -0.073486328125, 
336, 3286669752, 0.8205491304397583, -0.050670325756073, -0.5217092633247375, -0.22798240184783936, 8.532374382019043, 1.5150375366210938, 4.329619407653809, 3.2560698986053467, -10.872632026672363, -15.01073932647705, -0.93310546875, 0.0244140625, -0.07421875, 
337, 3286678085, 0.8197773694992065, -0.05011194944381714, -0.522682785987854, -0.2286507487297058, 8.52414608001709, 1.5731711387634277, 4.246082782745361, 3.823066473007202, -14.806159973144531, -14.451786041259766, -0.935302734375, 0.02294921875, -0.0703125, 
338, 3286686418, 0.8189598321914673, -0.04960112273693085, -0.5237224698066711, -0.22931212186813354, 8.481419563293457, 1.5541553497314453, 4.264429569244385, 3.5664374828338623, -16.04092025756836, -14.198333740234375, -0.934326171875, 0.019287109375, -0.07080078125, 
339, 3286694751, 0.818131685256958, -0.04917728900909424, -0.5247756242752075, -0.22995078563690186, 8.521723747253418, 1.542615532875061, 4.352767467498779, 2.884586811065674, -16.526208877563477, -13.301376342773438, -0.933349609375, 0.01953125, -0.068359375, 
340, 3286703084, 0.8173785209655762, -0.04880039393901825, -0.5256979465484619, -0.23060232400894165, 8.675139427185059, 1.6143672466278076, 4.378638744354248, 1.800386667251587, -14.683853149414062, -12.84083080291748, -0.936767578125, 0.017578125, -0.06591796875, 
341, 3286711417, 0.8167332410812378, -0.048330873250961304, -0.5264594554901123, -0.23124882578849792, 8.721614837646484, 1.630774736404419, 4.340585231781006, 2.483236312866211, -11.786238670349121, -12.97481632232666, -0.93505859375, 0.014404296875, -0.06494140625, 
342, 3286719750, 0.8160232305526733, -0.047826096415519714, -0.5273534655570984, -0.23182272911071777, 8.890920639038086, 1.6382111310958862, 4.32232141494751, 3.74112606048584, -13.700289726257324, -12.736348152160645, -0.93603515625, 0.01513671875, -0.0634765625, 
343, 3286728083, 0.815150260925293, -0.04742427170276642, -0.5284594297409058, -0.23245641589164734, 8.870542526245117, 1.6395560503005981, 4.286102294921875, 2.8336141109466553, -17.513328552246094, -13.256754875183105, -0.93359375, 0.01123046875, -0.058837890625, 
344, 3286736416, 0.8143157958984375, -0.04701860249042511, -0.5295084714889526, -0.23307639360427856, 8.830159187316895, 1.635168194770813, 4.288655757904053, 2.707181930541992, -16.628202438354492, -13.034857749938965, -0.935546875, 0.009765625, -0.0556640625, 
345, 3286744749, 0.8137692213058472, -0.046612903475761414, -0.530097246170044, -0.23372763395309448, 8.803627014160156, 1.5478702783584595, 4.379436016082764, 1.0260168313980103, -9.375017166137695, -12.23776626586914, -0.93408203125, 0.009765625, -0.054931640625, 
346, 3286753082, 0.813299298286438, -0.04614928364753723, -0.5306134819984436, -0.2342827022075653, 8.861980438232422, 1.5929850339889526, 4.382558822631836, 2.3569586277008057, -7.861549377441406, -11.216656684875488, -0.935302734375, 0.004150390625, -0.054443359375, 
347, 3286761415, 0.8130080103874207, -0.04563719034194946, -0.5308666825294495, -0.23481985926628113, 8.736007690429688, 1.6334056854248047, 4.269879341125488, 2.2080371379852295, -3.4761080741882324, -10.664129257202148, -0.936279296875, 0.003173828125, -0.053466796875, 
348, 3286769748, 0.8127931356430054, -0.04507535696029663, -0.5310518741607666, -0.23525357246398926, 8.737797737121582, 1.6535626649856567, 4.185871124267578, 3.4346773624420166, -2.0582833290100098, -9.5453519821167, -0.936279296875, 0.002197265625, -0.053955078125, 
349, 3286778081, 0.8124744892120361, -0.04447953402996063, -0.5314362645149231, -0.23559871315956116, 8.7152099609375, 1.695755124092102, 4.060856819152832, 4.930394649505615, -4.99644136428833, -9.310697555541992, -0.937744140625, 0.000732421875, -0.052001953125, 
350, 3286786414, 0.8120917677879333, -0.043978139758110046, -0.5319039821624756, -0.235956609249115, 8.74367618560791, 1.781145453453064, 4.113575458526611, 4.123597621917725, -6.684523105621338, -8.973027229309082, -0.9365234375, -0.001220703125, -0.052490234375, 
351, 3286794747, 0.8115207552909851, -0.04364030063152313, -0.5326135754585266, -0.2363835871219635, 8.746332168579102, 1.8091310262680054, 4.2232842445373535, 2.576676845550537, -11.215551376342773, -9.243639945983887, -0.936767578125, -0.000732421875, -0.051513671875, 
352, 3286803080, 0.8110083341598511, -0.043368399143218994, -0.533203125, -0.23686254024505615, 8.68843936920166, 1.7826659679412842, 4.173674583435059, 0.9906691312789917, -9.66494369506836, -9.140901565551758, -0.935546875, -0.003662109375, -0.050537109375, 
353, 3286811413, 0.8106228709220886, -0.0429215282201767, -0.533666729927063, -0.23721879720687866, 8.737494468688965, 1.8365336656570435, 4.076859951019287, 3.503784656524658, -6.821609973907471, -8.561635971069336, -0.935546875, -0.004150390625, -0.0498046875, 
354, 3286819746, 0.8102356195449829, -0.042577072978019714, -0.5340969562530518, -0.23763537406921387, 8.599187850952148, 1.8699687719345093, 4.181795597076416, 1.813423752784729, -6.773709774017334, -8.474084854125977, -0.93603515625, -0.005126953125, -0.048828125, 
355, 3286828079, 0.80988609790802, -0.0421842485666275, -0.5345010161399841, -0.2379882037639618, 8.594682693481445, 1.8071472644805908, 4.1871819496154785, 2.799034357070923, -6.0625834465026855, -7.952273368835449, -0.93603515625, -0.006591796875, -0.048828125, 
356, 3286836412, 0.8096820712089539, -0.04166188836097717, -0.5347253680229187, -0.23827052116394043, 8.707158088684082, 1.702714204788208, 4.160492897033691, 4.214656829833984, -2.6296088695526123, -7.565651893615723, -0.933837890625, -0.008544921875, -0.0478515625, 
357, 3286844745, 0.8094364404678345, -0.04108065366744995, -0.5350490212440491, -0.2384788990020752, 8.73680305480957, 1.7231227159500122, 4.225241661071777, 5.713268280029297, -3.8781490325927734, -7.366756916046143, -0.937255859375, -0.009521484375, -0.04443359375, 
358, 3286853078, 0.8090817928314209, -0.04061855375766754, -0.5355245471000671, -0.23869451880455017, 8.741275787353516, 1.8183377981185913, 4.17623233795166, 4.770997524261475, -6.770124435424805, -7.015175819396973, -0.937255859375, -0.01123046875, -0.04736328125, 
359, 3286861411, 0.8087218999862671, -0.04014359414577484, -0.5360304117202759, -0.2388586401939392, 8.698529243469238, 1.877973198890686, 4.207691192626953, 5.537426471710205, -7.089073181152344, -6.495949745178223, -0.936767578125, -0.01025390625, -0.04541015625, 
360, 3286869744, 0.8083524703979492, -0.039618298411369324, -0.5365743637084961, -0.23897546529769897, 8.700851440429688, 1.9157800674438477, 4.326448917388916, 6.419222831726074, -7.487246513366699, -6.471129894256592, -0.937255859375, -0.01220703125, -0.044921875, 
361, 3286878077, 0.8081549406051636, -0.03904728591442108, -0.5368630886077881, -0.23908933997154236, 8.699725151062012, 1.8925708532333374, 4.153911113739014, 6.2692766189575195, -3.2068002223968506, -6.032076358795166, -0.934814453125, -0.012939453125, -0.0419921875, 
362, 3286886410, 0.8080964088439941, -0.03834220767021179, -0.537001371383667, -0.23909035325050354, 8.762110710144043, 1.906784176826477, 4.061034202575684, 8.105125427246094, -0.15506857633590698, -5.268438339233398, -0.934814453125, -0.01318359375, -0.04296875, 
363, 3286894743, 0.8080123662948608, -0.03768448531627655, -0.5371807813644409, -0.23907583951950073, 8.698272705078125, 1.8865375518798828, 4.072824478149414, 7.8094096183776855, -0.9548987746238708, -4.850926876068115, -0.937255859375, -0.0146484375, -0.0400390625, 
364, 3286903076, 0.8078449964523315, -0.03710275888442993, -0.5374820828437805, -0.2390553057193756, 8.689453125, 1.914994478225708, 3.9530398845672607, 7.372430324554443, -3.1874356269836426, -4.56125545501709, -0.936767578125, -0.01318359375, -0.04443359375, 
365, 3286911409, 0.8076822757720947, -0.03658337891101837, -0.5377610921859741, -0.2390580177307129, 8.645500183105469, 1.876534342765808, 4.049171447753906, 6.428929805755615, -3.0866432189941406, -4.331649303436279, -0.936279296875, -0.0146484375, -0.0419921875, 
366, 3286919742, 0.8074834942817688, -0.03608556091785431, -0.5381101369857788, -0.23901978135108948, 8.728546142578125, 1.916407585144043, 4.169118404388428, 6.714169979095459, -4.23464822769165, -3.870182991027832, -0.937744140625, -0.015625, -0.0419921875, 
367, 3286928075, 0.8072957992553711, -0.03561398386955261, -0.538430392742157, -0.2390032708644867, 8.837124824523926, 1.9781780242919922, 4.20521879196167, 6.166870594024658, -3.8965909481048584, -3.8660330772399902, -0.935546875, -0.01708984375, -0.04052734375, 
368, 3286936408, 0.8070935606956482, -0.03510992228984833, -0.5387643575668335, -0.23900818824768066, 8.84020709991455, 2.013312816619873, 4.222616672515869, 6.413945198059082, -4.050737380981445, -4.399833679199219, -0.9375, -0.01904296875, -0.041015625, 
369, 3286944741, 0.8069576025009155, -0.034539297223091125, -0.5389995574951172, -0.2390207052230835, 8.853310585021973, 2.103522777557373, 4.169372081756592, 6.812400817871094, -2.2268245220184326, -4.702235698699951, -0.93701171875, -0.02001953125, -0.042236328125, 
370, 3286953074, 0.8068171143531799, -0.03392854332923889, -0.5392481684684753, -0.23902136087417603, 8.810371398925781, 2.054015636444092, 4.245031833648682, 7.378091812133789, -2.29775071144104, -4.899209976196289, -0.9375, -0.02099609375, -0.040283203125, 
371, 3286961407, 0.8066203594207764, -0.03326329588890076, -0.5395624041557312, -0.23906949162483215, 8.760908126831055, 2.0409462451934814, 4.112454891204834, 7.859332084655762, -3.219376802444458, -6.021394729614258, -0.93701171875, -0.021484375, -0.041259765625, 
372, 3286969740, 0.806444525718689, -0.032536253333091736, -0.5398317575454712, -0.23915481567382812, 8.666753768920898, 1.8992857933044434, 4.033212184906006, 8.090859413146973, -2.368241548538208, -6.826911926269531, -0.93701171875, -0.0224609375, -0.039794921875, 
373, 3286978073, 0.8062829375267029, -0.03176267445087433, -0.5400661826133728, -0.2392740547657013, 8.590843200683594, 1.8251956701278687, 3.985002040863037, 8.268697738647461, -1.6893614530563354, -7.4728264808654785, -0.9365234375, -0.02197265625, -0.038818359375, 
374, 3286986406, 0.8061413764953613, -0.03097306191921234, -0.5402224063873291, -0.2395026683807373, 8.471014976501465, 1.747487187385559, 3.972066640853882, 7.363901138305664, -0.590894877910614, -8.716985702514648, -0.9365234375, -0.024658203125, -0.039306640625, 
375, 3286994739, 0.8059893250465393, -0.030203521251678467, -0.5403965711593628, -0.23971927165985107, 8.552762031555176, 1.759314775466919, 4.046796798706055, 7.385110378265381, -0.9034910202026367, -8.42562484741211, -0.937255859375, -0.027587890625, -0.040283203125, 
376, 3287003072, 0.8057775497436523, -0.029498055577278137, -0.540650486946106, -0.23994651436805725, 8.672913551330566, 1.7860136032104492, 4.017932891845703, 6.735020160675049, -2.47269606590271, -8.349702835083008, -0.936767578125, -0.026611328125, -0.038330078125, 
377, 3287011405, 0.8056732416152954, -0.028841182589530945, -0.5407360792160034, -0.24018409848213196, 8.792972564697266, 1.8679999113082886, 3.9467384815216064, 5.838574409484863, 0.10303328186273575, -7.568777561187744, -0.936279296875, -0.028564453125, -0.038818359375, 
378, 3287019738, 0.8056288957595825, -0.028265252709388733, -0.5407556295394897, -0.24035686254501343, 8.875886917114258, 1.9743503332138062, 4.01475715637207, 4.998067855834961, 0.9194614887237549, -6.134251594543457, -0.938720703125, -0.029541015625, -0.038818359375, 
379, 3287028071, 0.8056247234344482, -0.02786320447921753, -0.5407141447067261, -0.2405107617378235, 8.91115665435791, 2.0160300731658936, 4.11185359954834, 3.0360937118530273, 1.3266764879226685, -4.46901798248291, -0.937744140625, -0.028076171875, -0.040283203125, 
380, 3287036404, 0.8056817054748535, -0.027520358562469482, -0.5406001806259155, -0.2406160533428192, 8.784841537475586, 2.0032339096069336, 4.085354328155518, 2.51497220993042, 2.354703903198242, -3.2680437564849854, -0.936767578125, -0.029541015625, -0.040283203125, 
381, 3287044737, 0.8057910203933716, -0.02719072997570038, -0.5404421091079712, -0.24064171314239502, 8.705594062805176, 2.0085690021514893, 4.128337383270264, 2.9335601329803467, 3.1971304416656494, -2.049574375152588, -0.93408203125, -0.032958984375, -0.03759765625, 
382, 3287053070, 0.8058753609657288, -0.02695344388484955, -0.5403313040733337, -0.2406352162361145, 8.654996871948242, 2.016923189163208, 4.082255840301514, 2.1988413333892822, 2.130758762359619, -1.1558167934417725, -0.935302734375, -0.031005859375, -0.04150390625, 
383, 3287061403, 0.8058584928512573, -0.02679617702960968, -0.5403648614883423, -0.2406342625617981, 8.63363265991211, 2.050142288208008, 4.071338176727295, 1.6359171867370605, -0.4887196123600006, -1.0423200130462646, -0.936279296875, -0.030029296875, -0.039794921875, 
384, 3287069736, 0.8056991100311279, -0.02674870193004608, -0.5405933856964111, -0.24065980315208435, 8.613255500793457, 2.142181634902954, 4.096325874328613, 0.8893390893936157, -4.054605484008789, -1.031843900680542, -0.936279296875, -0.030517578125, -0.039794921875, 
385, 3287078069, 0.8054645657539368, -0.026728764176368713, -0.5409248471260071, -0.24070248007774353, 8.573153495788574, 2.1966705322265625, 4.0611090660095215, 0.87353515625, -5.8006510734558105, -1.2532533407211304, -0.936279296875, -0.029541015625, -0.038330078125, 
386, 3287086402, 0.8052137494087219, -0.02664192020893097, -0.5412976741790771, -0.2407129406929016, 8.666119575500488, 2.2332401275634766, 4.094237804412842, 1.8808913230895996, -6.209018707275391, -1.5142621994018555, -0.936279296875, -0.032958984375, -0.03857421875, 
387, 3287094735, 0.8049618005752563, -0.026514932513237, -0.5416775941848755, -0.24071481823921204, 8.704267501831055, 2.234666109085083, 4.147991180419922, 2.27189302444458, -6.188911437988281, -1.7875149250030518, -0.933837890625, -0.031494140625, -0.037109375, 
388, 3287103068, 0.8047969937324524, -0.02635638415813446, -0.5419270992279053, -0.2407214641571045, 8.747244834899902, 2.260847568511963, 4.159069538116455, 2.3257856369018555, -3.968080759048462, -1.676656723022461, -0.935791015625, -0.031982421875, -0.0380859375, 
389, 3287111401, 0.8047195672988892, -0.026127561926841736, -0.542059600353241, -0.24070772528648376, 8.741025924682617, 2.246004104614258, 4.108767032623291, 2.9849934577941895, -1.761875033378601, -1.5997881889343262, -0.93603515625, -0.033935546875, -0.037109375, 
390, 3287119734, 0.8046737313270569, -0.025839492678642273, -0.5421658754348755, -0.24065271019935608, 8.70543384552002, 2.206552267074585, 4.023853302001953, 3.7882816791534424, -1.0889893770217896, -1.5137500762939453, -0.9345703125, -0.034912109375, -0.03564453125, 
391, 3287128067, 0.8045795559883118, -0.025624707341194153, -0.5423188805580139, -0.24064520001411438, 8.611265182495117, 2.1678309440612793, 4.055431842803955, 3.05607271194458, -2.1067452430725098, -1.527248740196228, -0.935546875, -0.033447265625, -0.03515625, 
392, 3287136400, 0.8044772148132324, -0.025404155254364014, -0.5424990653991699, -0.24060454964637756, 8.643014907836914, 2.1238155364990234, 4.036888122558594, 3.157479763031006, -2.5467467308044434, -1.38119637966156, -0.935546875, -0.033935546875, -0.03662109375, 
393, 3287144733, 0.8044057488441467, -0.025214895606040955, -0.5426492691040039, -0.24052482843399048, 8.694320678710938, 2.0454347133636475, 4.072464942932129, 2.998338222503662, -2.093886613845825, -0.6110275387763977, -0.93505859375, -0.034912109375, -0.03759765625, 
394, 3287153066, 0.8043550252914429, -0.025019511580467224, -0.5427910089492798, -0.24039509892463684, 8.711416244506836, 2.0737204551696777, 4.0278215408325195, 3.4361367225646973, -1.8491426706314087, -0.023693164810538292, -0.93603515625, -0.034423828125, -0.0361328125, 
395, 3287161399, 0.8042910099029541, -0.02482442557811737, -0.5429695844650269, -0.24022620916366577, 8.759377479553223, 2.1408097743988037, 4.009905815124512, 3.8396127223968506, -2.3619399070739746, 0.35387346148490906, -0.937744140625, -0.032470703125, -0.033447265625, 
396, 3287169732, 0.8042379021644592, -0.02464444935321808, -0.5431406497955322, -0.24003538489341736, 8.837346076965332, 2.1842379570007324, 3.9670770168304443, 3.817840576171875, -2.2641446590423584, 0.7495366334915161, -0.93603515625, -0.033935546875, -0.03515625, 
397, 3287178065, 0.8041689395904541, -0.024447515606880188, -0.5433483719825745, -0.239816814661026, 8.939472198486328, 2.169477701187134, 3.990016460418701, 4.253614902496338, -2.747997760772705, 0.8312715291976929, -0.937255859375, -0.033447265625, -0.034912109375, 
398, 3287186398, 0.8041290044784546, -0.02430383861064911, -0.5434983372688293, -0.2396257221698761, 9.004000663757324, 2.11307692527771, 4.08394718170166, 3.3535566329956055, -2.052929639816284, 1.0728651285171509, -0.936279296875, -0.031982421875, -0.033935546875, 
399, 3287194731, 0.8041990399360657, -0.02417534589767456, -0.5434929728507996, -0.2394152283668518, 9.061903953552246, 2.072305679321289, 4.1598992347717285, 2.7529025077819824, 0.41790902614593506, 1.7698537111282349, -0.9345703125, -0.034912109375, -0.03515625, 
400, 3287203064, 0.804426908493042, -0.02407592535018921, -0.5432603359222412, -0.23918816447257996, 9.004754066467285, 1.9817373752593994, 4.25481653213501, 1.9613457918167114, 4.020756244659424, 2.810432195663452, -0.93408203125, -0.032958984375, -0.03662109375, 
401, 3287211397, 0.804837703704834, -0.02392466366291046, -0.5428010821342468, -0.23886355757713318, 8.866583824157715, 1.9917422533035278, 4.219542026519775, 2.5266780853271484, 8.032971382141113, 4.156358242034912, -0.9365234375, -0.033935546875, -0.037109375, 
402, 3287219730, 0.8054021000862122, -0.023653507232666016, -0.5421712398529053, -0.23841828107833862, 8.709090232849121, 2.0216946601867676, 4.0815653800964355, 4.298210144042969, 11.423272132873535, 5.181081771850586, -0.937744140625, -0.033203125, -0.037353515625, 
403, 3287228063, 0.8059980273246765, -0.02340877056121826, -0.5415085554122925, -0.2379341423511505, 8.57129955291748, 1.9985756874084473, 4.0305891036987305, 4.3480305671691895, 11.970316886901855, 5.99397611618042, -0.937255859375, -0.031982421875, -0.037841796875, 
404, 3287236396, 0.8066147565841675, -0.02320094406604767, -0.5408406257629395, -0.2373831868171692, 8.507735252380371, 1.9984573125839233, 3.8736112117767334, 4.273824691772461, 11.992803573608398, 7.007171630859375, -0.935791015625, -0.030029296875, -0.039794921875, 
405, 3287244729, 0.8071581125259399, -0.023122385144233704, -0.5402651429176331, -0.2368534803390503, 8.51746654510498, 2.030210494995117, 3.8187038898468018, 2.9194726943969727, 10.00644588470459, 7.444202899932861, -0.934814453125, -0.028564453125, -0.042724609375, 
406, 3287253062, 0.8075170516967773, -0.023136168718338013, -0.5399494767189026, -0.23634794354438782, 8.555562973022461, 2.11651349067688, 3.8548107147216797, 2.5442750453948975, 5.4602508544921875, 7.1979217529296875, -0.933837890625, -0.029052734375, -0.0419921875, 
407, 3287261395, 0.8077133893966675, -0.023285970091819763, -0.5398350358009338, -0.23592323064804077, 8.624587059020996, 2.176722526550293, 3.928205966949463, 1.1191755533218384, 1.6331508159637451, 6.758789539337158, -0.936279296875, -0.02734375, -0.046142578125, 
408, 3287269728, 0.807877779006958, -0.02350422739982605, -0.5397635102272034, -0.23550200462341309, 8.634588241577148, 2.2002153396606445, 4.01905632019043, 0.37823259830474854, 0.6673916578292847, 7.069515705108643, -0.935302734375, -0.026123046875, -0.044677734375, 
409, 3287278061, 0.8081355094909668, -0.023788973689079285, -0.5395454168319702, -0.2350883185863495, 8.689510345458984, 2.3135457038879395, 4.216609001159668, -0.859588086605072, 2.786226749420166, 7.829387664794922, -0.9375, -0.024658203125, -0.043212890625, 
410, 3287286394, 0.8085500001907349, -0.023995131254196167, -0.5391109585762024, -0.23463833332061768, 8.657618522644043, 2.3411762714385986, 4.176297664642334, -0.36569446325302124, 6.584383487701416, 8.227639198303223, -0.93505859375, -0.025146484375, -0.045166015625, 
411, 3287294727, 0.809074878692627, -0.02426263689994812, -0.5385051965713501, -0.2341926097869873, 8.654115676879883, 2.291152000427246, 4.230100631713867, -1.6041940450668335, 9.12116527557373, 9.046679496765137, -0.93505859375, -0.024169921875, -0.045166015625, 
412, 3287303060, 0.8096508979797363, -0.024478599429130554, -0.5378490686416626, -0.23368674516677856, 8.58051586151123, 2.1847856044769287, 4.096831798553467, -0.7214249968528748, 10.196375846862793, 9.517162322998047, -0.93603515625, -0.020751953125, -0.050537109375, 
413, 3287311393, 0.8101950287818909, -0.02477434277534485, -0.5372394323348999, -0.23317095637321472, 8.525524139404297, 2.1207683086395264, 4.009278774261475, -1.293954610824585, 9.220038414001465, 10.149834632873535, -0.935546875, -0.021728515625, -0.050048828125, 
414, 3287319726, 0.8107361793518066, -0.02503114938735962, -0.5366894602775574, -0.232528418302536, 8.492315292358398, 2.1276121139526367, 3.8908097743988037, 0.16225342452526093, 8.57694149017334, 11.192822456359863, -0.9365234375, -0.019775390625, -0.049072265625, 
415, 3287328059, 0.8112202882766724, -0.02523641288280487, -0.5362438559532166, -0.23184478282928467, 8.430994987487793, 2.0893378257751465, 3.9040603637695312, 1.342839002609253, 7.153044700622559, 11.048354148864746, -0.93359375, -0.018798828125, -0.052001953125, 
416, 3287336392, 0.8115487098693848, -0.02564111351966858, -0.5359909534454346, -0.23123487830162048, 8.37996768951416, 2.037898302078247, 4.12280797958374, -0.8534407615661621, 3.236499786376953, 11.138772964477539, -0.93505859375, -0.017822265625, -0.052490234375, 
417, 3287344725, 0.8117949962615967, -0.026117146015167236, -0.5358749032020569, -0.2305857539176941, 8.521523475646973, 2.1593127250671387, 3.989208698272705, -0.9143002033233643, 0.8836272358894348, 11.81363296508789, -0.935302734375, -0.014404296875, -0.05078125, 
418, 3287353058, 0.8121439218521118, -0.026497840881347656, -0.5356355905532837, -0.22986865043640137, 8.73509693145752, 2.3702034950256348, 3.8871145248413086, 0.25633445382118225, 3.2722573280334473, 12.217107772827148, -0.933349609375, -0.0126953125, -0.052734375, 
419, 3287361391, 0.812475323677063, -0.026920035481452942, -0.5353822708129883, -0.2292376160621643, 8.726962089538574, 2.516019582748413, 3.88496994972229, -0.9172971844673157, 3.2064287662506104, 11.502163887023926, -0.937255859375, -0.0107421875, -0.05322265625, 
420, 3287369724, 0.8127701282501221, -0.027531340718269348, -0.535099983215332, -0.2287786602973938, 8.656193733215332, 2.420170307159424, 4.073225021362305, -4.376474380493164, 2.7229089736938477, 10.878046989440918, -0.934326171875, -0.009765625, -0.052734375, 
421, 3287378057, 0.8130396604537964, -0.028294637799263, -0.5348073244094849, -0.22841185331344604, 8.653569221496582, 2.2106053829193115, 4.240786552429199, -6.772250652313232, 2.2268636226654053, 10.903611183166504, -0.935302734375, -0.009765625, -0.0546875, 
422, 3287386390, 0.8135268688201904, -0.028921976685523987, -0.5342251062393188, -0.22796085476875305, 8.735233306884766, 1.9861555099487305, 4.159119606018066, -5.4807305335998535, 7.442025661468506, 11.628365516662598, -0.93505859375, -0.00634765625, -0.05419921875, 
423, 3287394723, 0.8141821622848511, -0.029361099004745483, -0.5334535837173462, -0.22737076878547668, 8.595771789550781, 1.8628002405166626, 4.178551197052002, -2.8458187580108643, 11.349041938781738, 12.424276351928711, -0.9345703125, -0.0048828125, -0.0556640625, 
424, 3287403056, 0.8148203492164612, -0.029865965247154236, -0.532710075378418, -0.22676095366477966, 8.494341850280762, 1.7597541809082031, 4.143882751464844, -3.3915302753448486, 10.675745964050293, 13.041376113891602, -0.9365234375, -0.00244140625, -0.057861328125, 
425, 3287411389, 0.8154363036155701, -0.030478134751319885, -0.5320019125938416, -0.2261272370815277, 8.564949035644531, 1.8129161596298218, 4.064868927001953, -4.27324914932251, 9.79438591003418, 14.037869453430176, -0.93603515625, -0.00146484375, -0.057373046875, 
426, 3287419722, 0.8160024881362915, -0.031134188175201416, -0.531400203704834, -0.22540894150733948, 8.665599822998047, 1.9249845743179321, 4.144220352172852, -3.8796346187591553, 8.043371200561523, 15.082367897033691, -0.9345703125, -0.0009765625, -0.063232421875, 
427, 3287428055, 0.8165073394775391, -0.031853944063186646, -0.5308890342712402, -0.22468388080596924, 8.748982429504395, 2.0429935455322266, 4.264365196228027, -4.142207622528076, 6.423731803894043, 15.47260570526123, -0.933837890625, 0.003662109375, -0.059326171875, 
428, 3287436388, 0.8170093297958374, -0.03257820010185242, -0.5303999185562134, -0.22390905022621155, 8.779967308044434, 2.1290829181671143, 4.2981133460998535, -3.9101924896240234, 6.074275016784668, 15.968823432922363, -0.934326171875, 0.005126953125, -0.063232421875, 
429, 3287444721, 0.8174834251403809, -0.033255577087402344, -0.5299506187438965, -0.2231411635875702, 8.748030662536621, 2.168732166290283, 4.417275428771973, -3.2976794242858887, 5.589372158050537, 15.461151123046875, -0.93701171875, 0.008056640625, -0.06396484375, 
430, 3287453054, 0.8179977536201477, -0.03390464186668396, -0.5294145941734314, -0.22243022918701172, 8.690674781799316, 1.9817566871643066, 4.478865146636963, -3.6697006225585938, 6.951409339904785, 14.759499549865723, -0.9365234375, 0.009033203125, -0.0634765625, 
431, 3287461387, 0.8186805248260498, -0.03436741232872009, -0.5286412239074707, -0.2216850221157074, 8.704363822937012, 1.696363091468811, 4.441170692443848, -2.076648712158203, 11.392380714416504, 14.367987632751465, -0.9345703125, 0.010986328125, -0.06396484375, 
432, 3287469720, 0.8195090293884277, -0.03474836051464081, -0.5276563167572021, -0.22091004252433777, 8.650066375732422, 1.4933764934539795, 4.453697204589844, -1.4100385904312134, 15.078042030334473, 14.701333045959473, -0.93505859375, 0.013427734375, -0.06689453125, 
433, 3287478053, 0.8203959465026855, -0.03514517843723297, -0.52656489610672, -0.22015786170959473, 8.630629539489746, 1.4981658458709717, 4.37191915512085, -1.7572909593582153, 16.735488891601562, 14.940775871276855, -0.933349609375, 0.016357421875, -0.06787109375, 
434, 3287486386, 0.8212007284164429, -0.03557339310646057, -0.5255900621414185, -0.21941742300987244, 8.544731140136719, 1.590212106704712, 4.270431041717529, -2.1759300231933594, 14.665295600891113, 14.576696395874023, -0.934814453125, 0.018310546875, -0.0703125, 
435, 3287494719, 0.821740448474884, -0.036086052656173706, -0.5250081419944763, -0.21870377659797668, 8.477337837219238, 1.7347421646118164, 4.226332664489746, -2.1349215507507324, 8.108251571655273, 13.964742660522461, -0.933349609375, 0.018798828125, -0.07080078125, 
436, 3287503052, 0.8220767974853516, -0.03671306371688843, -0.5247198939323425, -0.21802669763565063, 8.510095596313477, 1.8585535287857056, 4.274094104766846, -3.041024923324585, 2.9596357345581055, 13.547844886779785, -0.932861328125, 0.023193359375, -0.076171875, 
437, 3287511385, 0.8222993612289429, -0.037376344203948975, -0.5245785713195801, -0.21741366386413574, 8.625837326049805, 2.0037343502044678, 4.336784362792969, -3.1730148792266846, 0.47969064116477966, 12.857207298278809, -0.931396484375, 0.0224609375, -0.07470703125, 
438, 3287519718, 0.8225605487823486, -0.03804697096347809, -0.5243551135063171, -0.21684834361076355, 8.771013259887695, 2.0857455730438232, 4.437020778656006, -4.184879779815674, 1.610123872756958, 12.34074878692627, -0.9326171875, 0.0263671875, -0.07275390625, 
439, 3287528051, 0.8229137659072876, -0.0386575311422348, -0.5239697098731995, -0.2163315713405609, 8.818164825439453, 1.9773504734039307, 4.529666423797607, -4.09218168258667, 4.358710289001465, 11.823493957519531, -0.93310546875, 0.02587890625, -0.07421875, 
440, 3287536384, 0.8234255909919739, -0.03914554417133331, -0.5233504772186279, -0.21579387784004211, 8.855572700500488, 1.6637946367263794, 4.578989505767822, -3.3633551597595215, 8.452585220336914, 11.667862892150879, -0.93408203125, 0.02880859375, -0.072998046875, 
441, 3287544717, 0.824143648147583, -0.03953029215335846, -0.5224336981773376, -0.21520277857780457, 8.827210426330566, 1.3029948472976685, 4.662411689758301, -2.5717978477478027, 13.597434997558594, 12.312418937683105, -0.93115234375, 0.03076171875, -0.076904296875, 
442, 3287553050, 0.8250796794891357, -0.03986586630344391, -0.5212034583091736, -0.21453645825386047, 8.739221572875977, 1.0856282711029053, 4.616004467010498, -2.291348457336426, 18.8061466217041, 13.615266799926758, -0.931640625, 0.0322265625, -0.079833984375, 
443, 3287561383, 0.8261338472366333, -0.04022969305515289, -0.5198080539703369, -0.21379601955413818, 8.598556518554688, 1.0859851837158203, 4.507126331329346, -2.516906976699829, 21.413217544555664, 15.098767280578613, -0.931884765625, 0.035400390625, -0.080810546875, 
444, 3287569716, 0.8270375728607178, -0.04074417054653168, -0.5186343193054199, -0.21305379271507263, 8.463543891906738, 1.2219953536987305, 4.400649547576904, -3.6344568729400635, 17.366703033447266, 15.631514549255371, -0.931884765625, 0.037109375, -0.085693359375, 
