sep=,
PacketCounter,SampleTimeFine,Quat_W,Quat_X,Quat_Y,Quat_Z,Acc_X,Acc_Y,Acc_Z,Gyr_X,Gyr_Y,Gyr_Z,Mag_X,Mag_Y,Mag_Z,
0, 3636605754, 0.8837646245956421, 0.01450781524181366, -0.46301114559173584, -0.0663081705570221, 0, 0, 0, 0, 0, 0, -0.89990234375, 0.162353515625, -0.251708984375, 
1, 3636614087, 0.8839578032493591, 0.014430433511734009, -0.4626438021659851, -0.06631389260292053, 8.184640884399414, 0.8621536493301392, 5.792115211486816, -1.5324612855911255, 5.148410320281982, 0.664766252040863, -0.89990234375, 0.161376953125, -0.252197265625, 
2, 3636622420, 0.884252667427063, 0.014557182788848877, -0.4620892405509949, -0.06622135639190674, 8.16579532623291, 0.8786407709121704, 5.58843994140625, 1.3911603689193726, 8.249985694885254, 0.685257613658905, -0.900390625, 0.163330078125, -0.252197265625, 
3, 3636630753, 0.8845505118370056, 0.014736846089363098, -0.4615258574485779, -0.06613248586654663, 8.020740509033203, 0.8353078365325928, 5.565910816192627, 2.002776861190796, 8.448393821716309, 0.24179835617542267, -0.90283203125, 0.162109375, -0.253662109375, 
4, 3636639086, 0.8847212195396423, 0.01481156051158905, -0.4611944258213043, -0.06614488363265991, 7.945821762084961, 0.7314856052398682, 5.680973529815674, 0.32166358828544617, 4.6804890632629395, -0.32884836196899414, -0.900390625, 0.160400390625, -0.251708984375, 
5, 3636647419, 0.8848778009414673, 0.014918118715286255, -0.4608921706676483, -0.06613203883171082, 8.011507987976074, 0.7463773488998413, 5.585233211517334, 0.9506467580795288, 4.300937652587891, -0.25559166073799133, -0.9013671875, 0.16259765625, -0.255615234375, 
6, 3636655752, 0.885124146938324, 0.015069261193275452, -0.4604220390319824, -0.06607666611671448, 8.070730209350586, 0.8623464703559875, 5.5431952476501465, 1.538185954093933, 6.931083679199219, 0.050716184079647064, -0.900390625, 0.16064453125, -0.256103515625, 
7, 3636664085, 0.885374128818512, 0.015160083770751953, -0.4599440097808838, -0.06603559851646423, 7.945388317108154, 0.9139060974121094, 5.550441741943359, 0.7347187399864197, 7.019607067108154, 0.21813084185123444, -0.8994140625, 0.1630859375, -0.257568359375, 
8, 3636672418, 0.8855621218681335, 0.015167340636253357, -0.45957645773887634, -0.06607180833816528, 7.816030025482178, 0.8236396908760071, 5.598306179046631, -0.687626838684082, 5.1621904373168945, -0.1841791421175003, -0.89990234375, 0.16064453125, -0.258544921875, 
9, 3636680751, 0.8856878280639648, 0.015116408467292786, -0.45933014154434204, -0.06611132621765137, 7.854979991912842, 0.7610652446746826, 5.568869590759277, -1.2712215185165405, 3.266660213470459, 0.06293416768312454, -0.8994140625, 0.16162109375, -0.259521484375, 
10, 3636689084, 0.8857884407043457, 0.015163511037826538, -0.45913708209991455, -0.06609401106834412, 7.911440372467041, 0.779288113117218, 5.492985248565674, 0.31397929787635803, 2.5322489738464355, 0.17440731823444366, -0.89501953125, 0.1611328125, -0.2607421875, 
11, 3636697417, 0.8858156800270081, 0.015294954180717468, -0.45908626914024353, -0.06605151295661926, 7.835722923278809, 0.7974624633789062, 5.527976036071777, 1.6297056674957275, 0.443075031042099, -0.1642000377178192, -0.8974609375, 0.16357421875, -0.263916015625, 
12, 3636705750, 0.8857432007789612, 0.015440687537193298, -0.45922166109085083, -0.06604921817779541, 7.847300052642822, 0.7700986862182617, 5.539793014526367, 1.75413978099823, -2.4744505882263184, -0.720976710319519, -0.8974609375, 0.16064453125, -0.260498046875, 
13, 3636714083, 0.885615348815918, 0.01563131809234619, -0.4594612717628479, -0.066049724817276, 7.940582752227783, 0.7738989591598511, 5.58433198928833, 2.3864784240722656, -4.027646541595459, -1.1331610679626465, -0.8984375, 0.158203125, -0.258544921875, 
14, 3636722416, 0.8854695558547974, 0.015858471393585205, -0.4597332775592804, -0.06605833768844604, 8.006645202636719, 0.7827979326248169, 5.647426605224609, 2.817591667175293, -4.529890537261963, -1.4051328897476196, -0.89794921875, 0.1591796875, -0.260009765625, 
15, 3636730749, 0.8853592276573181, 0.01607327163219452, -0.45993655920028687, -0.06607025861740112, 8.041157722473145, 0.8138526678085327, 5.670562267303467, 2.580916166305542, -3.4537341594696045, -1.4098972082138062, -0.90087890625, 0.16064453125, -0.259521484375, 
16, 3636739082, 0.8853113651275635, 0.016244634985923767, -0.4600162208080292, -0.06611582636833191, 8.058050155639648, 0.8289212584495544, 5.690713882446289, 1.706599473953247, -1.627413272857666, -1.4567712545394897, -0.89990234375, 0.16015625, -0.258056640625, 
17, 3636747415, 0.8852952718734741, 0.016350120306015015, -0.4600335657596588, -0.0661838948726654, 8.01230525970459, 0.8419021964073181, 5.642002582550049, 0.7077468633651733, -0.7073754668235779, -1.355979084968567, -0.8994140625, 0.1591796875, -0.259521484375, 
18, 3636755748, 0.8852967023849487, 0.016423285007476807, -0.46001970767974854, -0.06624418497085571, 7.968961715698242, 0.8742992281913757, 5.606405258178711, 0.3222014605998993, -0.2704222798347473, -0.9907969832420349, -0.8984375, 0.15869140625, -0.258544921875, 
19, 3636764081, 0.885290801525116, 0.01649540662765503, -0.46002280712127686, -0.06628391146659851, 7.932102203369141, 0.8695996999740601, 5.564024925231934, 0.4668194353580475, -0.4918573498725891, -0.7917231321334839, -0.89697265625, 0.16015625, -0.256591796875, 
20, 3636772414, 0.8852775692939758, 0.01655024290084839, -0.46003851294517517, -0.06633767485618591, 7.933732986450195, 0.8716168403625488, 5.537945747375488, 0.17012974619865417, -0.7377282977104187, -0.802301824092865, -0.8984375, 0.15771484375, -0.258056640625, 
21, 3636780747, 0.8852270841598511, 0.016554757952690125, -0.46012353897094727, -0.06642010807991028, 7.9325852394104, 0.8407859206199646, 5.551456451416016, -0.5508213043212891, -1.8688273429870605, -0.8496626019477844, -0.89697265625, 0.1591796875, -0.260009765625, 
22, 3636789080, 0.8851339817047119, 0.01652403175830841, -0.46028727293014526, -0.06653362512588501, 7.992288589477539, 0.83673495054245, 5.538496017456055, -1.0732749700546265, -3.109478712081909, -1.0761181116104126, -0.89794921875, 0.16015625, -0.259521484375, 
23, 3636797413, 0.885005533695221, 0.01647917926311493, -0.4605163335800171, -0.06666970252990723, 8.019309997558594, 0.857702910900116, 5.574397563934326, -1.3735250234603882, -4.151670932769775, -1.3157905340194702, -0.8994140625, 0.15771484375, -0.258544921875, 
24, 3636805746, 0.8848615288734436, 0.01642945408821106, -0.46077054738998413, -0.06683731079101562, 8.044205665588379, 0.85073322057724, 5.616291522979736, -1.5748271942138672, -4.589058876037598, -1.5908616781234741, -0.8984375, 0.1572265625, -0.257568359375, 
25, 3636814079, 0.8847447037696838, 0.016344070434570312, -0.4609716236591339, -0.06701534986495972, 8.100322723388672, 0.8555810451507568, 5.6413397789001465, -2.1214606761932373, -3.779162883758545, -1.5369181632995605, -0.8994140625, 0.1591796875, -0.257568359375, 
26, 3636822412, 0.8846798539161682, 0.016268327832221985, -0.4610733389854431, -0.06719094514846802, 8.108651161193848, 0.8563575148582458, 5.648825168609619, -2.100174903869629, -2.2581634521484375, -1.484075903892517, -0.89697265625, 0.15869140625, -0.25732421875, 
27, 3636830745, 0.8846669793128967, 0.01621951162815094, -0.461076945066452, -0.06734749674797058, 8.109225273132324, 0.8515271544456482, 5.629868030548096, -1.7762575149536133, -0.6834262013435364, -1.4749317169189453, -0.897705078125, 0.1572265625, -0.25634765625, 
28, 3636839078, 0.8846760392189026, 0.01617187261581421, -0.46104004979133606, -0.06749334931373596, 8.084672927856445, 0.8124645948410034, 5.588804244995117, -1.7131952047348022, -0.07196319103240967, -1.2651766538619995, -0.89892578125, 0.15869140625, -0.256591796875, 
29, 3636847411, 0.884680986404419, 0.016101732850074768, -0.46101054549217224, -0.06764623522758484, 8.039362907409668, 0.8351624608039856, 5.576658725738525, -2.0409035682678223, -0.18384616076946259, -1.2826712131500244, -0.900634765625, 0.15625, -0.256591796875, 
30, 3636855744, 0.8846643567085266, 0.01598985493183136, -0.46101829409599304, -0.06783750653266907, 8.008981704711914, 0.8449482321739197, 5.550750255584717, -2.7370989322662354, -0.8450264930725098, -1.4242411851882935, -0.90087890625, 0.15673828125, -0.255615234375, 
31, 3636864077, 0.8846092224121094, 0.015840843319892883, -0.4610956907272339, -0.06806379556655884, 7.95126485824585, 0.8521422147750854, 5.568933010101318, -3.3149046897888184, -1.9518688917160034, -1.6819204092025757, -0.898681640625, 0.15673828125, -0.256103515625, 
32, 3636872410, 0.884508490562439, 0.015685662627220154, -0.4612579047679901, -0.06830939650535583, 7.969147205352783, 0.8381980657577515, 5.6214094161987305, -3.444333076477051, -3.3110368251800537, -1.8534075021743774, -0.894287109375, 0.1552734375, -0.25390625, 
33, 3636880743, 0.8843845129013062, 0.015535727143287659, -0.4614614248275757, -0.0685739815235138, 8.021017074584961, 0.8639664053916931, 5.64482307434082, -3.4424633979797363, -3.9319005012512207, -2.183856964111328, -0.899658203125, 0.1552734375, -0.255615234375, 
34, 3636889076, 0.8842706680297852, 0.015392601490020752, -0.4616425931453705, -0.06885460019111633, 8.05579948425293, 0.852192759513855, 5.701005458831787, -3.500070333480835, -3.620354652404785, -2.363694667816162, -0.900634765625, 0.15673828125, -0.254150390625, 
35, 3636897409, 0.8841865062713623, 0.01530948281288147, -0.46177175641059875, -0.06908756494522095, 8.117288589477539, 0.8393661379814148, 5.691157341003418, -2.51556134223938, -2.708077907562256, -2.2053472995758057, -0.9013671875, 0.1572265625, -0.254150390625, 
36, 3636905742, 0.8841478824615479, 0.015303090214729309, -0.46181949973106384, -0.0692625343799591, 8.114706993103027, 0.8887917995452881, 5.7432541847229, -1.3084646463394165, -1.3682996034622192, -1.9052764177322388, -0.900146484375, 0.1552734375, -0.253662109375, 
37, 3636914075, 0.8841426372528076, 0.01529151201248169, -0.4617968201637268, -0.0694829523563385, 8.033218383789062, 0.8520679473876953, 5.7760443687438965, -1.71834397315979, -0.28753259778022766, -2.458108425140381, -0.899658203125, 0.1552734375, -0.254150390625, 
38, 3636922408, 0.8841655850410461, 0.0153236985206604, -0.46172335743904114, -0.06967231631278992, 8.050640106201172, 0.8045575022697449, 5.705171585083008, -1.0595968961715698, 0.5287034511566162, -2.293281078338623, -0.899658203125, 0.15625, -0.255615234375, 
39, 3636930741, 0.8842222690582275, 0.015366241335868835, -0.4615824222564697, -0.0698779821395874, 8.05298137664795, 0.8030230402946472, 5.6107096672058105, -1.1307531595230103, 1.5941272974014282, -2.6154565811157227, -0.901123046875, 0.154296875, -0.253662109375, 
40, 3636939074, 0.8842101097106934, 0.015382856130599976, -0.4615704417228699, -0.07010671496391296, 7.966924667358398, 0.8113517165184021, 5.656500339508057, -1.4329499006271362, -0.4638098180294037, -2.6917612552642822, -0.899658203125, 0.1552734375, -0.256103515625, 
41, 3636947407, 0.8841435313224792, 0.015401706099510193, -0.4616679251194, -0.07030108571052551, 7.922515392303467, 0.7849137187004089, 5.627114295959473, -1.0883617401123047, -2.109370708465576, -2.3950719833374023, -0.899658203125, 0.153076171875, -0.255859375, 
42, 3636955740, 0.8841187357902527, 0.015508949756622314, -0.46169042587280273, -0.0704399049282074, 7.926121711730957, 0.7783799767494202, 5.586133003234863, 0.27548110485076904, -0.8551697134971619, -2.178119421005249, -0.900634765625, 0.154541015625, -0.255615234375, 
43, 3636964073, 0.884087324142456, 0.015655994415283203, -0.46173208951950073, -0.0705292820930481, 7.9331746101379395, 0.7668379545211792, 5.565982341766357, 1.0829442739486694, -1.0599298477172852, -1.9047385454177856, -0.899658203125, 0.15625, -0.251708984375, 
44, 3636972406, 0.8840106129646301, 0.01575617492198944, -0.46185922622680664, -0.07063695788383484, 7.89408016204834, 0.7785581350326538, 5.582269668579102, 0.5005533695220947, -2.459210157394409, -1.7836345434188843, -0.899169921875, 0.152587890625, -0.25439453125, 
45, 3636980739, 0.8839045166969299, 0.01584029197692871, -0.4620436429977417, -0.07074028253555298, 7.954663276672363, 0.8046159148216248, 5.6288676261901855, 0.4033985733985901, -3.3310415744781494, -1.701566457748413, -0.899169921875, 0.152587890625, -0.25439453125, 
46, 3636989072, 0.8837936520576477, 0.015895679593086243, -0.4622384309768677, -0.07084029912948608, 8.019915580749512, 0.8295009136199951, 5.662349224090576, 0.077431820333004, -3.5391311645507812, -1.4238311052322388, -0.902587890625, 0.151123046875, -0.253662109375, 
47, 3636997405, 0.8837083578109741, 0.015944480895996094, -0.46238648891448975, -0.07092535495758057, 8.042859077453613, 0.8567045331001282, 5.6946516036987305, 0.0720016211271286, -2.7841267585754395, -1.2273188829421997, -0.900146484375, 0.1533203125, -0.25390625, 
48, 3637005738, 0.8836694955825806, 0.015984177589416504, -0.46244895458221436, -0.07099378108978271, 8.058664321899414, 0.8717952966690063, 5.702322006225586, -0.05646658316254616, -1.4818474054336548, -0.8997640013694763, -0.901123046875, 0.150634765625, -0.2529296875, 
49, 3637014071, 0.883682131767273, 0.016032308340072632, -0.46241775155067444, -0.07102853059768677, 8.03925895690918, 0.8657729625701904, 5.671253204345703, 0.18698391318321228, 0.026305818930268288, -0.5573529601097107, -0.901123046875, 0.150634765625, -0.25341796875, 
50, 3637022404, 0.8837156295776367, 0.016076073050498962, -0.46235036849975586, -0.0710400640964508, 8.01194953918457, 0.8755365610122681, 5.634945392608643, 0.2117016464471817, 0.572196364402771, -0.19030095636844635, -0.899658203125, 0.151123046875, -0.25244140625, 
51, 3637030737, 0.8837345838546753, 0.016099825501441956, -0.4623135030269623, -0.07103970646858215, 7.976564407348633, 0.8840270042419434, 5.60417366027832, 0.0989990085363388, 0.11800477653741837, 0.02482018992304802, -0.900146484375, 0.15087890625, -0.25146484375, 
52, 3637039070, 0.8837602138519287, 0.01615363359451294, -0.4622666537761688, -0.07101395726203918, 7.968388557434082, 0.8998491168022156, 5.588938236236572, 0.5921242833137512, 0.28969699144363403, 0.19208113849163055, -0.901123046875, 0.152099609375, -0.25341796875, 
53, 3637047403, 0.8837759494781494, 0.016221150755882263, -0.46223780512809753, -0.07099106907844543, 7.955105781555176, 0.868834376335144, 5.6028289794921875, 0.7612806558609009, 0.020337704569101334, 0.06644332408905029, -0.897705078125, 0.1513671875, -0.251953125, 
54, 3637055736, 0.8837496042251587, 0.016280293464660645, -0.46228906512260437, -0.07096913456916809, 7.949405193328857, 0.8573898077011108, 5.591691970825195, 0.7485759854316711, -1.2004494667053223, 0.029277069494128227, -0.898681640625, 0.15234375, -0.2529296875, 
55, 3637064069, 0.8836876153945923, 0.01633596420288086, -0.4624106287956238, -0.07093727588653564, 8.00885009765625, 0.833663821220398, 5.598901271820068, 0.8334872722625732, -2.287850856781006, 0.14197972416877747, -0.897705078125, 0.15283203125, -0.25341796875, 
56, 3637072402, 0.8836116790771484, 0.01639266312122345, -0.46255916357040405, -0.07090207934379578, 8.046209335327148, 0.874385416507721, 5.645575046539307, 0.9011600017547607, -2.7249574661254883, 0.2355484962463379, -0.900634765625, 0.150146484375, -0.2529296875, 
57, 3637080735, 0.8835546374320984, 0.016461580991744995, -0.46267345547676086, -0.07085135579109192, 8.110835075378418, 0.915217399597168, 5.693454265594482, 1.1374770402908325, -2.146409034729004, 0.31367191672325134, -0.900634765625, 0.15087890625, -0.2509765625, 
58, 3637089068, 0.8835343718528748, 0.01653367280960083, -0.46271589398384094, -0.0708102285861969, 8.141143798828125, 0.9086117148399353, 5.6834492683410645, 1.0103024244308472, -1.0641562938690186, 0.2377769500017166, -0.901123046875, 0.1513671875, -0.25, 
59, 3637097401, 0.8835586905479431, 0.01662805676460266, -0.46267426013946533, -0.07075604796409607, 8.123283386230469, 0.9151061177253723, 5.64827823638916, 1.2709271907806396, 0.26500487327575684, 0.28144922852516174, -0.900146484375, 0.152587890625, -0.255859375, 
60, 3637105734, 0.8836091756820679, 0.016739487648010254, -0.4625864028930664, -0.07067278027534485, 8.076679229736328, 0.9218935966491699, 5.637073993682861, 1.6481223106384277, 1.0432677268981934, 0.5022182464599609, -0.899658203125, 0.15234375, -0.2509765625, 
61, 3637114067, 0.8836734294891357, 0.016850605607032776, -0.46247339248657227, -0.07058414816856384, 8.040701866149902, 0.9213293790817261, 5.620580196380615, 1.626580834388733, 1.4348583221435547, 0.5593892931938171, -0.899658203125, 0.152099609375, -0.25341796875, 
62, 3637122400, 0.8837487697601318, 0.016955912113189697, -0.46233931183815, -0.07049423456192017, 7.990767478942871, 0.9339913129806519, 5.570345878601074, 1.5300920009613037, 1.7309331893920898, 0.672450602054596, -0.902099609375, 0.152099609375, -0.253662109375, 
63, 3637130733, 0.8838160037994385, 0.017056137323379517, -0.46222057938575745, -0.070404052734375, 7.94446325302124, 0.9595333933830261, 5.542963981628418, 1.4953845739364624, 1.5133657455444336, 0.6504734754562378, -0.899169921875, 0.151123046875, -0.2548828125, 
64, 3637139066, 0.883860170841217, 0.01715126633644104, -0.46214550733566284, -0.07032027840614319, 7.937087059020996, 0.9614921808242798, 5.518110752105713, 1.432271122932434, 0.803672194480896, 0.6465545296669006, -0.902099609375, 0.151123046875, -0.25390625, 
65, 3637147399, 0.8838488459587097, 0.017224550247192383, -0.46217507123947144, -0.07024997472763062, 7.9221954345703125, 0.9605624079704285, 5.532373428344727, 1.2192631959915161, -0.8175935745239258, 0.5479909777641296, -0.899169921875, 0.153076171875, -0.2568359375, 
66, 3637155732, 0.88379967212677, 0.01729428768157959, -0.46227556467056274, -0.07019037008285522, 7.993124961853027, 0.9514210820198059, 5.54600715637207, 1.1611188650131226, -1.9511003494262695, 0.4661790430545807, -0.899169921875, 0.151611328125, -0.25439453125, 
67, 3637164065, 0.8837280869483948, 0.017344355583190918, -0.4624185860157013, -0.070136159658432, 8.040040016174316, 0.9700726270675659, 5.595369815826416, 0.9358929991722107, -2.610206127166748, 0.4532439410686493, -0.899658203125, 0.15478515625, -0.25390625, 
68, 3637172398, 0.8836617469787598, 0.017390742897987366, -0.4625508487224579, -0.07009020447731018, 8.105809211730957, 0.953824520111084, 5.650412082672119, 0.825469970703125, -2.4738099575042725, 0.4397708475589752, -0.896728515625, 0.1513671875, -0.251953125, 
69, 3637180731, 0.8836306929588318, 0.017437025904655457, -0.46261489391326904, -0.07004773616790771, 8.121774673461914, 0.9523509740829468, 5.695916175842285, 0.7343345284461975, -1.3962703943252563, 0.35772842168807983, -0.901611328125, 0.153564453125, -0.255126953125, 
70, 3637189064, 0.8836537003517151, 0.017506122589111328, -0.46257680654525757, -0.06999236345291138, 8.106195449829102, 0.9563994407653809, 5.704757213592529, 0.976184070110321, 0.1879316121339798, 0.4561382830142975, -0.903564453125, 0.152099609375, -0.251708984375, 
71, 3637197397, 0.8837118148803711, 0.017590224742889404, -0.46247220039367676, -0.06992670893669128, 8.072870254516602, 0.9472264051437378, 5.699463367462158, 1.1784085035324097, 1.2645491361618042, 0.4608769416809082, -0.902099609375, 0.154052734375, -0.255126953125, 
72, 3637205730, 0.883789598941803, 0.0176810622215271, -0.4623313248157501, -0.06985381245613098, 8.0040283203125, 0.9710673093795776, 5.652437686920166, 1.2402925491333008, 1.811131238937378, 0.5558032989501953, -0.901123046875, 0.152099609375, -0.25341796875, 
73, 3637214063, 0.8838711977005005, 0.01776959002017975, -0.46218162775039673, -0.06978902220726013, 7.9703192710876465, 1.0163911581039429, 5.596591949462891, 1.1619641780853271, 1.9651498794555664, 0.42432546615600586, -0.901611328125, 0.15283203125, -0.252197265625, 
74, 3637222396, 0.8839243650436401, 0.01783415675163269, -0.4620814323425293, -0.06976288557052612, 7.916523456573486, 1.0531202554702759, 5.539941310882568, 0.6677374839782715, 1.12272310256958, 0.1416979432106018, -0.901611328125, 0.154296875, -0.253662109375, 
75, 3637230729, 0.883935809135437, 0.017843112349510193, -0.4620584547519684, -0.06976813077926636, 7.929005146026611, 1.0416399240493774, 5.503304481506348, -0.12314042448997498, -0.14165952801704407, 0.0929284393787384, -0.901123046875, 0.152587890625, -0.255859375, 
76, 3637239062, 0.8839051723480225, 0.017824217677116394, -0.46211326122283936, -0.06979620456695557, 7.952208995819092, 1.0259466171264648, 5.492231845855713, -0.5348892211914062, -1.3635352849960327, -0.09893497824668884, -0.900634765625, 0.151123046875, -0.2548828125, 
77, 3637247395, 0.8838458061218262, 0.017763540148735046, -0.4622211456298828, -0.0698489248752594, 7.998427867889404, 0.9977502226829529, 5.514015197753906, -1.1164093017578125, -2.2348294258117676, -0.12741801142692566, -0.897705078125, 0.15478515625, -0.25341796875, 
78, 3637255728, 0.8837799429893494, 0.017667219042778015, -0.4623396396636963, -0.06992316246032715, 8.015658378601074, 1.0038751363754272, 5.538485050201416, -1.6866334676742554, -2.4706337451934814, -0.11476457864046097, -0.901123046875, 0.151611328125, -0.25439453125, 
79, 3637264061, 0.8837327361106873, 0.01752905547618866, -0.46242451667785645, -0.06999349594116211, 8.047334671020508, 1.0029648542404175, 5.585846424102783, -2.2019660472869873, -1.9567612409591675, 0.15035556256771088, -0.899658203125, 0.15625, -0.253173828125, 
80, 3637272394, 0.8837082386016846, 0.01737751066684723, -0.46246621012687683, -0.07006549835205078, 8.058707237243652, 0.9738477468490601, 5.594162464141846, -2.427525043487549, -1.326061725616455, 0.2847534716129303, -0.902099609375, 0.152099609375, -0.254150390625, 
81, 3637280727, 0.8837002515792847, 0.017211303114891052, -0.46247729659080505, -0.07013261318206787, 8.070560455322266, 0.9413393139839172, 5.634270668029785, -2.6053647994995117, -0.8383668065071106, 0.38654443621635437, -0.900146484375, 0.152587890625, -0.25390625, 
82, 3637289060, 0.8837070465087891, 0.01707322895526886, -0.46246138215065, -0.07018730044364929, 8.073101997375488, 0.920518696308136, 5.666319370269775, -2.2157208919525146, -0.40902090072631836, 0.42629769444465637, -0.902099609375, 0.153076171875, -0.253173828125, 
83, 3637297393, 0.88371741771698, 0.016926884651184082, -0.46243903040885925, -0.07023844122886658, 8.06092643737793, 0.897612988948822, 5.682662487030029, -2.297865867614746, -0.2912210524082184, 0.46669140458106995, -0.900634765625, 0.154296875, -0.250732421875, 
84, 3637305726, 0.8837287425994873, 0.01675163209438324, -0.46241307258605957, -0.07030975818634033, 8.056018829345703, 0.8940353393554688, 5.674361228942871, -2.784485101699829, -0.299776166677475, 0.4612867534160614, -0.899169921875, 0.15234375, -0.25244140625, 
85, 3637314059, 0.8837489485740662, 0.01654660701751709, -0.4623701274394989, -0.07038635015487671, 8.04908561706543, 0.8948472142219543, 5.702981472015381, -3.19316029548645, -0.039791714400053024, 0.537924587726593, -0.899658203125, 0.15234375, -0.2529296875, 
86, 3637322392, 0.8837898969650269, 0.01639746129512787, -0.46228864789009094, -0.07044246792793274, 8.022279739379883, 0.8694849610328674, 5.657995223999023, -2.431572198867798, 0.5927902460098267, 0.4947133958339691, -0.901611328125, 0.153076171875, -0.252685546875, 
87, 3637330725, 0.8838435411453247, 0.01638530194759369, -0.4621918797492981, -0.07040530443191528, 8.029094696044922, 0.9186038374900818, 5.454665184020996, -0.18028578162193298, 1.0362493991851807, 0.7174290418624878, -0.900146484375, 0.15234375, -0.251953125, 
88, 3637339058, 0.8838436603546143, 0.016378849744796753, -0.462189257144928, -0.0704229474067688, 7.961550712585449, 0.8623753786087036, 5.5077033042907715, -0.3675002157688141, -0.4773853123188019, 0.03373394533991814, -0.900634765625, 0.1552734375, -0.253173828125, 
89, 3637347391, 0.8836716413497925, 0.016209274530410767, -0.4625050127506256, -0.0705496072769165, 7.93889045715332, 0.7494244575500488, 5.684449195861816, -2.6940927505493164, -5.62402868270874, -0.34887874126434326, -0.899658203125, 0.15234375, -0.251953125, 
90, 3637355724, 0.8835422992706299, 0.01610492169857025, -0.46274781227111816, -0.07060128450393677, 8.131806373596191, 0.7777044177055359, 5.596704006195068, -1.5288240909576416, -4.364217758178711, 0.09976744651794434, -0.902099609375, 0.154296875, -0.250732421875, 
91, 3637364057, 0.8835800290107727, 0.016039222478866577, -0.4626743197441101, -0.07062485814094543, 8.227450370788574, 0.9073882102966309, 5.568681240081787, -1.1974526643753052, 0.587436854839325, 0.3062693774700165, -0.898681640625, 0.15380859375, -0.25146484375, 
92, 3637372390, 0.8836219310760498, 0.01589713990688324, -0.46259182691574097, -0.07067373394966125, 8.077957153320312, 0.8646828532218933, 5.588518142700195, -2.2994539737701416, 0.6199926137924194, 0.5406652688980103, -0.898193359375, 0.1533203125, -0.25048828125, 
93, 3637380723, 0.8836679458618164, 0.01568375527858734, -0.4624956250190735, -0.0707763135433197, 8.028117179870605, 0.7839807271957397, 5.6666364669799805, -3.5156946182250977, 0.7551076412200928, 0.28962013125419617, -0.901123046875, 0.154296875, -0.252685546875, 
94, 3637389056, 0.8836868405342102, 0.015434235334396362, -0.4624527394771576, -0.07087567448616028, 8.07019329071045, 0.7689220309257507, 5.664774417877197, -3.8839759826660156, -0.12342218309640884, 0.5963762402534485, -0.903564453125, 0.152587890625, -0.252685546875, 
95, 3637397389, 0.8837095499038696, 0.015298888087272644, -0.46241042017936707, -0.07089629769325256, 8.044498443603516, 0.8102605938911438, 5.5938897132873535, -1.9704389572143555, 0.049409858882427216, 0.7924019694328308, -0.900634765625, 0.1533203125, -0.251953125, 
96, 3637405722, 0.8837218284606934, 0.015298306941986084, -0.4623926281929016, -0.07085943222045898, 7.943154335021973, 0.8173198103904724, 5.613858699798584, 0.03393885865807533, -0.1996757686138153, 0.6683009266853333, -0.901123046875, 0.15625, -0.251708984375, 
97, 3637414055, 0.8836596608161926, 0.01530475914478302, -0.4625133275985718, -0.07084628939628601, 7.909531593322754, 0.7883562445640564, 5.582271575927734, 0.10191904008388519, -2.3323683738708496, 0.22000065445899963, -0.900146484375, 0.15380859375, -0.25341796875, 
98, 3637422388, 0.8835883736610413, 0.01535750925540924, -0.46264925599098206, -0.07083770632743835, 8.01680850982666, 0.7813660502433777, 5.519472122192383, 0.6687877178192139, -2.5520102977752686, -0.06327997148036957, -0.900634765625, 0.15478515625, -0.251220703125, 
99, 3637430721, 0.8835059404373169, 0.015425503253936768, -0.4628064036369324, -0.07082262635231018, 8.096235275268555, 0.8538362979888916, 5.51548433303833, 0.914428174495697, -2.840785264968872, -0.14888274669647217, -0.900634765625, 0.15283203125, -0.2509765625, 
100, 3637439054, 0.8833871483802795, 0.01545695960521698, -0.463029682636261, -0.0708397924900055, 8.19359302520752, 0.951755940914154, 5.532627582550049, 0.34215497970581055, -3.942274332046509, -0.2694745659828186, -0.901123046875, 0.15380859375, -0.251220703125, 
101, 3637447387, 0.8832554817199707, 0.015396013855934143, -0.463268518447876, -0.07093212008476257, 8.241515159606934, 0.940030574798584, 5.563624382019043, -1.2408175468444824, -4.295596599578857, -0.6601173281669617, -0.901123046875, 0.1533203125, -0.248291015625, 
102, 3637455720, 0.8832154273986816, 0.015291079878807068, -0.463329553604126, -0.0710563063621521, 8.157597541809082, 0.8909242749214172, 5.649206161499023, -2.1713314056396484, -1.625825047492981, -0.6578887701034546, -0.901123046875, 0.154296875, -0.248779296875, 
103, 3637464053, 0.8832747340202332, 0.015213161706924438, -0.46320411562919617, -0.07115095853805542, 8.01857852935791, 0.8680925369262695, 5.681946754455566, -1.8509998321533203, 1.331683874130249, -0.466012567281723, -0.900634765625, 0.154296875, -0.251220703125, 
104, 3637472386, 0.8833833336830139, 0.015208899974822998, -0.4629891812801361, -0.07120299339294434, 7.940314769744873, 0.8108254671096802, 5.62073278427124, -0.7895716428756714, 2.7851126194000244, -0.33566173911094666, -0.900634765625, 0.15380859375, -0.252197265625, 
105, 3637480719, 0.8834499716758728, 0.015200987458229065, -0.4628555178642273, -0.07124698162078857, 7.8810577392578125, 0.7958503365516663, 5.590554237365723, -0.7075803875923157, 1.5528373718261719, -0.30594924092292786, -0.901611328125, 0.1513671875, -0.24951171875, 
106, 3637489052, 0.8834612965583801, 0.015203669667243958, -0.4628273546695709, -0.07128831744194031, 7.9045209884643555, 0.8036147356033325, 5.599381446838379, -0.4341484606266022, -0.09014930576086044, -0.30487343668937683, -0.901123046875, 0.1533203125, -0.250244140625, 
107, 3637497385, 0.8834362030029297, 0.015214651823043823, -0.4628683924674988, -0.07133042812347412, 7.9023823738098145, 0.8349155783653259, 5.596069812774658, -0.252108097076416, -1.1325205564498901, -0.4396299123764038, -0.900146484375, 0.15283203125, -0.2509765625, 
108, 3637505718, 0.883389413356781, 0.015236735343933105, -0.46294766664505005, -0.0713915228843689, 7.922983646392822, 0.868578314781189, 5.558041572570801, -0.20674529671669006, -1.7522826194763184, -0.7034308910369873, -0.898681640625, 0.15283203125, -0.25244140625, 
109, 3637514051, 0.8833253383636475, 0.015243127942085266, -0.4630606174468994, -0.07145065069198608, 7.9401350021362305, 0.8663410544395447, 5.519606590270996, -0.3633763790130615, -2.2639527320861816, -0.6576583385467529, -0.900146484375, 0.154296875, -0.2490234375, 
110, 3637522384, 0.8832498788833618, 0.015225350856781006, -0.4631957411766052, -0.07151138782501221, 7.995499134063721, 0.8465313911437988, 5.48835563659668, -0.6278433203697205, -2.6533403396606445, -0.46345117688179016, -0.900146484375, 0.15380859375, -0.25048828125, 
111, 3637530717, 0.8831812739372253, 0.015151455998420715, -0.4633212089538574, -0.07156205177307129, 7.991772174835205, 0.8176351189613342, 5.53053092956543, -1.2646132707595825, -2.5222978591918945, -0.04225068539381027, -0.898681640625, 0.15380859375, -0.24951171875, 
112, 3637539050, 0.8831524848937988, 0.015087917447090149, -0.46337491273880005, -0.07158279418945312, 8.019370079040527, 0.8390932083129883, 5.520358562469482, -1.0178967714309692, -1.402135968208313, 0.34504935145378113, -0.899658203125, 0.15283203125, -0.2509765625, 
113, 3637547383, 0.883158266544342, 0.015019923448562622, -0.4633669853210449, -0.07157739996910095, 7.998688220977783, 0.8629761934280396, 5.534311771392822, -0.9809867739677429, -0.4093795120716095, 0.6483218669891357, -0.899658203125, 0.1552734375, -0.249755859375, 
114, 3637555716, 0.8831570148468018, 0.014925956726074219, -0.4633708894252777, -0.07158800959587097, 7.963295936584473, 0.8665096163749695, 5.543876647949219, -1.378032922744751, -0.6518951058387756, 0.6777526140213013, -0.898681640625, 0.15283203125, -0.2490234375, 
115, 3637564049, 0.8831193447113037, 0.014806509017944336, -0.4634438455104828, -0.07160282135009766, 7.979814052581787, 0.8727825880050659, 5.576422214508057, -1.634636402130127, -1.7218527793884277, 0.7125624418258667, -0.899169921875, 0.15283203125, -0.24755859375, 
116, 3637572382, 0.8830364942550659, 0.014708191156387329, -0.46359875798225403, -0.07164397835731506, 7.979686260223389, 0.8636101484298706, 5.623349666595459, -1.4599473476409912, -3.01460337638855, 0.28585487604141235, -0.901123046875, 0.15380859375, -0.250244140625, 
117, 3637580715, 0.8829253911972046, 0.014636561274528503, -0.46380510926246643, -0.07169178128242493, 8.024968147277832, 0.8604535460472107, 5.660719871520996, -1.131675124168396, -3.772169351577759, -0.04883353039622307, -0.902099609375, 0.15478515625, -0.249755859375, 
118, 3637589048, 0.8828153610229492, 0.014585688710212708, -0.4640046954154968, -0.07176613807678223, 8.08275032043457, 0.8721277713775635, 5.655679702758789, -1.0469177961349487, -3.691971778869629, -0.43704286217689514, -0.898193359375, 0.1513671875, -0.2490234375, 
119, 3637597381, 0.8827212452888489, 0.014555007219314575, -0.46417370438575745, -0.07183748483657837, 8.14362621307373, 0.8876036405563354, 5.659388542175293, -0.806938111782074, -3.171926259994507, -0.5728495717048645, -0.902099609375, 0.1533203125, -0.245849609375, 
120, 3637605714, 0.8826409578323364, 0.014557093381881714, -0.46431925892829895, -0.0718822181224823, 8.1990385055542, 0.9046438932418823, 5.638299942016602, -0.27336791157722473, -2.7863292694091797, -0.3976738154888153, -0.902099609375, 0.15576171875, -0.246826171875, 
121, 3637614047, 0.882591962814331, 0.014579400420188904, -0.46441003680229187, -0.07189199328422546, 8.21374797821045, 0.8932183384895325, 5.698054790496826, 0.11910620331764221, -1.8743345737457275, -0.15113680064678192, -0.901123046875, 0.15283203125, -0.2470703125, 
122, 3637622380, 0.8825882077217102, 0.01453353464603424, -0.4644103944301605, -0.0719444751739502, 8.14879035949707, 0.864456832408905, 5.734512805938721, -1.0637975931167603, -0.5853748917579651, -0.13999460637569427, -0.900634765625, 0.1533203125, -0.24755859375, 
123, 3637630713, 0.8826387524604797, 0.014489397406578064, -0.46431612968444824, -0.07194194197654724, 8.152030944824219, 0.8177917003631592, 5.641683101654053, -0.7991769313812256, 0.947419285774231, 0.4933044910430908, -0.904052734375, 0.15478515625, -0.248779296875, 
124, 3637639046, 0.8827165365219116, 0.014439702033996582, -0.46416741609573364, -0.07195723056793213, 8.061185836791992, 0.8344728946685791, 5.563804626464844, -1.0369282960891724, 1.7495802640914917, 0.3881581127643585, -0.901611328125, 0.15283203125, -0.247802734375, 
125, 3637647379, 0.882706344127655, 0.014359265565872192, -0.4641837179660797, -0.07199284434318542, 8.04945182800293, 0.822369396686554, 5.639674186706543, -1.349293828010559, -0.8263536691665649, 0.23152706027030945, -0.901611328125, 0.15380859375, -0.245849609375, 
126, 3637655712, 0.8826072216033936, 0.01431228220462799, -0.46436911821365356, -0.07202312350273132, 8.018115997314453, 0.8102967143058777, 5.726357936859131, -0.733758270740509, -3.436009168624878, 0.0784820169210434, -0.903076171875, 0.1552734375, -0.251708984375, 
127, 3637664045, 0.8825758695602417, 0.01438838243484497, -0.46442878246307373, -0.07200723886489868, 8.055310249328613, 0.8257313370704651, 5.6711602210998535, 0.8728562593460083, -1.3283157348632812, -0.1919402778148651, -0.903076171875, 0.154296875, -0.248779296875, 
128, 3637672378, 0.8825637102127075, 0.01454472541809082, -0.4644557237625122, -0.07195180654525757, 8.014227867126465, 0.8299827575683594, 5.633701324462891, 2.107283115386963, -0.7401617169380188, -0.12467730045318604, -0.898681640625, 0.15283203125, -0.24853515625, 
129, 3637680711, 0.8825080394744873, 0.014656618237495422, -0.4645628333091736, -0.07192051410675049, 8.005486488342285, 0.826074481010437, 5.6472249031066895, 1.5007380247116089, -2.038470506668091, -0.1604347676038742, -0.901611328125, 0.1552734375, -0.248291015625, 
130, 3637689044, 0.8824039101600647, 0.014762923121452332, -0.4647615849971771, -0.0718923807144165, 8.043992042541504, 0.8394157886505127, 5.66334867477417, 1.499559760093689, -3.4458189010620117, -0.2595106065273285, -0.901611328125, 0.1533203125, -0.247802734375, 
131, 3637697377, 0.8822819590568542, 0.01488649845123291, -0.46499210596084595, -0.07187330722808838, 8.065032958984375, 0.8649579286575317, 5.708116054534912, 1.6895407438278198, -3.9293904304504395, -0.48921912908554077, -0.900634765625, 0.154296875, -0.248291015625, 
132, 3637705710, 0.8821678161621094, 0.015019446611404419, -0.46520620584487915, -0.07186156511306763, 8.083341598510742, 0.8910488486289978, 5.738589763641357, 1.7490935325622559, -3.694558620452881, -0.5683157444000244, -0.902099609375, 0.15087890625, -0.24755859375, 
133, 3637714043, 0.8820982575416565, 0.015135347843170166, -0.46533334255218506, -0.07186555862426758, 8.105134963989258, 0.9271204471588135, 5.708728790283203, 1.3602440357208252, -2.350656747817993, -0.6707472205162048, -0.899658203125, 0.1533203125, -0.24755859375, 
134, 3637722376, 0.8820635080337524, 0.0152415931224823, -0.4653961956501007, -0.07186368107795715, 8.081794738769531, 0.9364875555038452, 5.655791282653809, 1.1962358951568604, -1.3803894519805908, -0.47087928652763367, -0.901123046875, 0.1533203125, -0.245361328125, 
135, 3637730709, 0.8820705413818359, 0.01533152163028717, -0.46538257598876953, -0.07184773683547974, 8.109113693237305, 0.9165295362472534, 5.5824432373046875, 0.9960094690322876, -0.1773913949728012, -0.2329486757516861, -0.901611328125, 0.15380859375, -0.245361328125, 
136, 3637739042, 0.8821094036102295, 0.015416517853736877, -0.4653080403804779, -0.07183423638343811, 8.126338005065918, 0.8899781703948975, 5.553689002990723, 0.8611761331558228, 0.7406355738639832, -0.1498560607433319, -0.904052734375, 0.149658203125, -0.246826171875, 
137, 3637747375, 0.8821662068367004, 0.015504226088523865, -0.46520060300827026, -0.07181352376937866, 8.10717487335205, 0.8640634417533875, 5.487188816070557, 0.9416817426681519, 1.2827863693237305, -0.09970340132713318, -0.903564453125, 0.1533203125, -0.243408203125, 
138, 3637755708, 0.8822194337844849, 0.015592426061630249, -0.4650989770889282, -0.07179996371269226, 8.058242797851562, 0.8465747237205505, 5.460580348968506, 0.8708327412605286, 1.1625020503997803, -0.16099828481674194, -0.900146484375, 0.15283203125, -0.24755859375, 
139, 3637764041, 0.882235586643219, 0.01570311188697815, -0.4650646150112152, -0.07179737091064453, 8.027400016784668, 0.8614669442176819, 5.458270072937012, 1.1259249448776245, 0.1486906260251999, -0.5318411588668823, -0.901123046875, 0.15478515625, -0.245849609375, 
140, 3637772374, 0.8822126984596252, 0.01581290364265442, -0.4651009142398834, -0.07182025909423828, 8.061683654785156, 0.8478336334228516, 5.46526575088501, 1.0521814823150635, -0.9842397570610046, -0.7857550382614136, -0.902099609375, 0.15087890625, -0.24658203125, 
141, 3637780707, 0.882177472114563, 0.015940919518470764, -0.4651614725589752, -0.0718328058719635, 8.045059204101562, 0.8641422390937805, 5.481490612030029, 1.3810425996780396, -1.313664436340332, -0.8337305188179016, -0.906982421875, 0.1533203125, -0.244384765625, 
142, 3637789040, 0.8821571469306946, 0.016087844967842102, -0.46519434452056885, -0.07183694839477539, 8.053924560546875, 0.8896525502204895, 5.512584209442139, 1.61905038356781, -0.8856506943702698, -0.7937211394309998, -0.904052734375, 0.15087890625, -0.246337890625, 
143, 3637797373, 0.8821491003036499, 0.01622551679611206, -0.46520334482192993, -0.0718471109867096, 8.062037467956543, 0.903069019317627, 5.504842758178711, 1.441543459892273, -0.5269232392311096, -0.8030190467834473, -0.904541015625, 0.15087890625, -0.244873046875, 
144, 3637805706, 0.8821291923522949, 0.016338840126991272, -0.4652344286441803, -0.07186335325241089, 8.021799087524414, 0.9223090410232544, 5.5346550941467285, 1.1486445665359497, -0.8733813762664795, -0.7710012793540955, -0.899658203125, 0.1513671875, -0.24853515625, 
145, 3637814039, 0.8821021318435669, 0.016449421644210815, -0.46527835726737976, -0.07188531756401062, 8.041468620300293, 0.922132670879364, 5.527996063232422, 1.0518741607666016, -1.0843145847320557, -0.857295572757721, -0.902587890625, 0.15087890625, -0.245361328125, 
146, 3637822372, 0.8820828795433044, 0.016558855772018433, -0.46530914306640625, -0.07189804315567017, 8.063092231750488, 0.9117797613143921, 5.505277633666992, 1.1064069271087646, -0.891055166721344, -0.6581705808639526, -0.902099609375, 0.15234375, -0.246826171875, 
147, 3637830705, 0.8820783495903015, 0.016654551029205322, -0.46531474590301514, -0.07189464569091797, 8.025890350341797, 0.9410351514816284, 5.500901222229004, 0.9936529397964478, -0.48222634196281433, -0.43822112679481506, -0.900146484375, 0.150390625, -0.24365234375, 
148, 3637839038, 0.8820755481719971, 0.01674194633960724, -0.46531644463539124, -0.07189825177192688, 8.011741638183594, 0.9418073892593384, 5.490778923034668, 0.86601722240448, -0.4536665081977844, -0.39813488721847534, -0.903564453125, 0.15283203125, -0.245849609375, 
149, 3637847371, 0.8820743560791016, 0.016829058527946472, -0.4653170704841614, -0.07188904285430908, 8.024946212768555, 0.9349838495254517, 5.488927364349365, 0.9283623099327087, -0.40674126148223877, -0.303592711687088, -0.902099609375, 0.150390625, -0.248046875, 
150, 3637855704, 0.8820504546165466, 0.016903162002563477, -0.4653620719909668, -0.0718739926815033, 8.022628784179688, 0.9098630547523499, 5.473104953765869, 0.8712169528007507, -1.122864007949829, -0.09680898487567902, -0.902099609375, 0.14892578125, -0.24560546875, 
151, 3637864037, 0.8819999694824219, 0.016962409019470215, -0.465456485748291, -0.071867436170578, 8.024286270141602, 0.9284023642539978, 5.484118461608887, 0.7154310941696167, -1.8840934038162231, -0.15882104635238647, -0.900146484375, 0.15234375, -0.244140625, 
152, 3637872370, 0.8819267749786377, 0.01699332892894745, -0.46559157967567444, -0.07188352942466736, 8.052262306213379, 0.9528807401657104, 5.529585361480713, 0.24950824677944183, -2.5808517932891846, -0.22605842351913452, -0.901123046875, 0.15087890625, -0.24658203125, 
153, 3637880703, 0.8818404674530029, 0.01701301336288452, -0.46574923396110535, -0.07191506028175354, 8.078186988830566, 0.9381291270256042, 5.572322845458984, 0.02643389254808426, -2.9318952560424805, -0.4147073030471802, -0.903076171875, 0.15087890625, -0.246826171875, 
154, 3637889036, 0.8817779421806335, 0.01704232394695282, -0.4658623933792114, -0.07194212079048157, 8.090421676635742, 0.9490954875946045, 5.577945709228516, 0.13483330607414246, -2.25111985206604, -0.3434228301048279, -0.902099609375, 0.14990234375, -0.2451171875, 
155, 3637897369, 0.8817306756973267, 0.017081275582313538, -0.4659472405910492, -0.07196250557899475, 8.134077072143555, 0.9301654696464539, 5.605313777923584, 0.2657220959663391, -1.7756171226501465, -0.36716726422309875, -0.903564453125, 0.15087890625, -0.245849609375, 
156, 3637905702, 0.8816950917243958, 0.01709875464439392, -0.4660092890262604, -0.07199308276176453, 8.11154556274414, 0.9498474597930908, 5.629351615905762, -0.08817700296640396, -1.4705514907836914, -0.2966000437736511, -0.901123046875, 0.15185546875, -0.24560546875, 
157, 3637914035, 0.8816927671432495, 0.017111852765083313, -0.4660089313983917, -0.07202067971229553, 8.125800132751465, 0.9638818502426147, 5.593751430511475, -0.21637624502182007, -0.48770779371261597, -0.28604698181152344, -0.902099609375, 0.1513671875, -0.24560546875, 
158, 3637922368, 0.8817317485809326, 0.017140552401542664, -0.46593034267425537, -0.0720449686050415, 8.122039794921875, 0.9486387968063354, 5.522138595581055, -0.06914561986923218, 0.725446343421936, -0.2506480813026428, -0.905029296875, 0.15283203125, -0.246826171875, 
159, 3637930701, 0.8817843198776245, 0.017170771956443787, -0.46582919359207153, -0.07204872369766235, 8.07052993774414, 0.9403627514839172, 5.508489608764648, 0.014497657306492329, 1.108891487121582, -0.08745980262756348, -0.900146484375, 0.1494140625, -0.24609375, 
160, 3637939034, 0.8818143010139465, 0.017181754112243652, -0.46576815843582153, -0.0720733106136322, 8.04449462890625, 0.9265077710151672, 5.503318786621094, -0.26573485136032104, 0.43726056814193726, -0.14373427629470825, -0.902099609375, 0.150390625, -0.24560546875, 
161, 3637947367, 0.8818187117576599, 0.017172053456306458, -0.46575671434402466, -0.07209557294845581, 8.00913143157959, 0.9330451488494873, 5.500730037689209, -0.45412760972976685, -0.3271578550338745, -0.06094907224178314, -0.902587890625, 0.150390625, -0.24658203125, 
162, 3637955700, 0.8818012475967407, 0.01716446876525879, -0.46578583121299744, -0.072122722864151, 8.031755447387695, 0.951278030872345, 5.540914058685303, -0.40651068091392517, -0.9798853397369385, -0.08231133967638016, -0.902587890625, 0.14990234375, -0.24462890625, 
163, 3637964033, 0.8817706108093262, 0.017148390412330627, -0.4658408761024475, -0.07214623689651489, 8.03149127960205, 0.9742100834846497, 5.552995204925537, -0.4510282278060913, -1.364303708076477, -0.04232752323150635, -0.902587890625, 0.15087890625, -0.244873046875, 
164, 3637972366, 0.8817321062088013, 0.0171368271112442, -0.46590763330459595, -0.07218772172927856, 8.061890602111816, 0.9703761339187622, 5.573216438293457, -0.5045620203018188, -1.576338529586792, -0.24337367713451385, -0.901611328125, 0.1494140625, -0.24609375, 
165, 3637980699, 0.8817030787467957, 0.0171109139919281, -0.4659559726715088, -0.07223674654960632, 8.074400901794434, 0.9473368525505066, 5.627935409545898, -0.7468982934951782, -1.3101810216903687, -0.23814836144447327, -0.900634765625, 0.15087890625, -0.24560546875, 
166, 3637989032, 0.8816860914230347, 0.017072051763534546, -0.465982049703598, -0.07228490710258484, 8.107403755187988, 0.9275663495063782, 5.62141227722168, -0.9289899468421936, -0.9543479681015015, -0.19511643052101135, -0.901123046875, 0.14990234375, -0.244140625, 
167, 3637997365, 0.8816868662834167, 0.01702582836151123, -0.46597427129745483, -0.07233667373657227, 8.081360816955566, 0.9562636017799377, 5.637706279754639, -1.0746324062347412, -0.4382723569869995, -0.18079808354377747, -0.903076171875, 0.1494140625, -0.2431640625, 
168, 3638005698, 0.8817157745361328, 0.016972795128822327, -0.465912789106369, -0.07239323854446411, 8.075324058532715, 0.9226952791213989, 5.5832014083862305, -1.2479639053344727, 0.3645673394203186, -0.12250005453824997, -0.901123046875, 0.1494140625, -0.244140625, 
169, 3638014031, 0.881769061088562, 0.016920551657676697, -0.4658065438270569, -0.07243958115577698, 8.056540489196777, 0.9314789772033691, 5.543496131896973, -1.2169451713562012, 1.0878621339797974, -0.042199455201625824, -0.901123046875, 0.15087890625, -0.2470703125, 
170, 3638022364, 0.88182532787323, 0.016870349645614624, -0.46569642424583435, -0.07247614860534668, 8.035067558288574, 0.93337482213974, 5.502224445343018, -1.14076828956604, 1.1359144449234009, 0.1164679229259491, -0.901123046875, 0.1513671875, -0.244140625, 
171, 3638030697, 0.8818747401237488, 0.0168178528547287, -0.4655989408493042, -0.07251200079917908, 8.038036346435547, 0.9169443845748901, 5.467454433441162, -1.158851981163025, 0.9571527242660522, 0.0723089873790741, -0.902587890625, 0.14892578125, -0.2451171875, 
172, 3638039030, 0.8819143772125244, 0.016758382320404053, -0.46552109718322754, -0.07254382967948914, 8.034323692321777, 0.9444399476051331, 5.454565048217773, -1.1861311197280884, 0.631646990776062, 0.2242782562971115, -0.903076171875, 0.14990234375, -0.24658203125, 
173, 3638047363, 0.8819331526756287, 0.016660988330841064, -0.4654812514781952, -0.07259255647659302, 8.051090240478516, 0.9593899846076965, 5.464200019836426, -1.7120939493179321, 0.014856256544589996, 0.1958976835012436, -0.903076171875, 0.14990234375, -0.24462890625, 
174, 3638055696, 0.8819145560264587, 0.01651740074157715, -0.4655103385448456, -0.07266512513160706, 8.090312004089355, 0.9420018196105957, 5.5398335456848145, -2.346122980117798, -1.1312143802642822, 0.23549726605415344, -0.902099609375, 0.15087890625, -0.2470703125, 
175, 3638064029, 0.8818630576133728, 0.01632268726825714, -0.465600848197937, -0.07275539636611938, 8.154317855834961, 0.974672794342041, 5.593585968017578, -3.0373740196228027, -2.1250462532043457, 0.25580930709838867, -0.900634765625, 0.15087890625, -0.2451171875, 
176, 3638072362, 0.8818188905715942, 0.016090691089630127, -0.46567612886428833, -0.07286038994789124, 8.246557235717773, 0.9820164442062378, 5.6467108726501465, -3.573633909225464, -1.9506134986877441, 0.39287111163139343, -0.904052734375, 0.150390625, -0.245849609375, 
177, 3638080695, 0.8818312883377075, 0.015849918127059937, -0.46564626693725586, -0.0729551911354065, 8.264631271362305, 0.9745236039161682, 5.6991472244262695, -3.7387170791625977, -0.3018765151500702, 0.5495277047157288, -0.900146484375, 0.150390625, -0.2451171875, 
178, 3638089028, 0.8819277286529541, 0.015624672174453735, -0.46545886993408203, -0.07303303480148315, 8.237727165222168, 0.9677876234054565, 5.690313339233398, -3.6115944385528564, 2.147676706314087, 0.7630225419998169, -0.903564453125, 0.15185546875, -0.244384765625, 
179, 3638097361, 0.8820806741714478, 0.015405431389808655, -0.4651651382446289, -0.07310286164283752, 8.180875778198242, 0.9344987869262695, 5.687602519989014, -3.612337350845337, 3.8249995708465576, 0.7975248694419861, -0.901611328125, 0.15185546875, -0.2451171875, 
180, 3638105694, 0.882267951965332, 0.01513567566871643, -0.4648069143295288, -0.0731779932975769, 8.124540328979492, 0.8972439765930176, 5.656257152557373, -4.32551383972168, 4.757408618927002, 1.1365035772323608, -0.901611328125, 0.150390625, -0.24560546875, 
181, 3638114027, 0.8824600577354431, 0.014839529991149902, -0.4644390046596527, -0.07325801253318787, 8.062451362609863, 0.921313464641571, 5.616001129150391, -4.676967144012451, 4.899029731750488, 1.20094895362854, -0.904541015625, 0.1533203125, -0.245361328125, 
182, 3638122360, 0.8826194405555725, 0.01455661654472351, -0.4641333222389221, -0.07333198189735413, 8.009345054626465, 0.9114209413528442, 5.522372245788574, -4.420312404632568, 3.9255356788635254, 1.21524178981781, -0.904052734375, 0.15283203125, -0.247314453125, 
183, 3638130693, 0.8827710747718811, 0.014377236366271973, -0.46384719014167786, -0.0733526349067688, 7.996406555175781, 0.9185475707054138, 5.3445000648498535, -2.808203935623169, 3.7762558460235596, 1.1411911249160767, -0.900634765625, 0.15185546875, -0.25, 
184, 3638139026, 0.88284832239151, 0.014139458537101746, -0.4636920988559723, -0.07344982028007507, 7.892046928405762, 0.9007523655891418, 5.451229572296143, -3.852778196334839, 1.6164631843566895, 0.5913558602333069, -0.902099609375, 0.15380859375, -0.250244140625, 
185, 3638147359, 0.8827944397926331, 0.013760283589363098, -0.46378180384635925, -0.07360494136810303, 7.867148399353027, 0.8201161026954651, 5.647649765014648, -5.69789981842041, -2.3277320861816406, 0.6287526488304138, -0.902099609375, 0.15380859375, -0.249755859375, 
186, 3638155692, 0.8828017711639404, 0.013441383838653564, -0.46375879645347595, -0.07371971011161804, 8.048828125, 0.8885614275932312, 5.568816661834717, -4.802400588989258, -0.5190852880477905, 0.8517758250236511, -0.901611328125, 0.15283203125, -0.247802734375, 
187, 3638164025, 0.8829076290130615, 0.013113230466842651, -0.4635481536388397, -0.07383424043655396, 8.059314727783203, 0.9428933262825012, 5.551506519317627, -5.125216484069824, 2.3984146118164062, 0.9220612645149231, -0.901123046875, 0.1533203125, -0.250244140625, 
188, 3638172358, 0.8829789161682129, 0.012734577059745789, -0.4633985757827759, -0.0739864706993103, 7.944760322570801, 0.8784328699111938, 5.564328670501709, -5.907296180725098, 1.3590401411056519, 0.8192970156669617, -0.900146484375, 0.1533203125, -0.248046875, 
189, 3638180691, 0.8829969763755798, 0.01227368414402008, -0.4633423388004303, -0.0742000937461853, 7.921439170837402, 0.8025489449501038, 5.716109275817871, -7.1905951499938965, -0.20800040662288666, 0.5597222447395325, -0.901611328125, 0.1552734375, -0.247802734375, 
190, 3638189024, 0.8829796314239502, 0.011816248297691345, -0.463360995054245, -0.07436594367027283, 7.979892730712891, 0.7805079221725464, 5.717374801635742, -6.767805576324463, -1.3122812509536743, 1.038324236869812, -0.902587890625, 0.15576171875, -0.245849609375, 
191, 3638197357, 0.8830158114433289, 0.011565163731575012, -0.4632886052131653, -0.07442688941955566, 7.982160568237305, 0.8088744878768921, 5.54430627822876, -3.6951730251312256, 0.3638245165348053, 1.0371969938278198, -0.900634765625, 0.15576171875, -0.247802734375, 
192, 3638205690, 0.8830034732818604, 0.011450007557868958, -0.4633060693740845, -0.07448133826255798, 7.8875322341918945, 0.767327606678009, 5.531556129455566, -1.899871826171875, -0.9182318449020386, 0.2714340388774872, -0.901611328125, 0.1552734375, -0.248291015625, 
193, 3638214023, 0.8828726410865784, 0.01127597689628601, -0.4635407030582428, -0.0745987594127655, 7.87819242477417, 0.7274575233459473, 5.51088285446167, -2.789710521697998, -4.361246109008789, -0.2707552909851074, -0.903564453125, 0.1552734375, -0.245849609375, 
194, 3638222356, 0.8827000856399536, 0.01112733781337738, -0.46385058760643005, -0.07473787665367126, 7.992453575134277, 0.7387993931770325, 5.525056838989258, -2.521273374557495, -5.5361714363098145, -0.6629604697227478, -0.902587890625, 0.15625, -0.247314453125, 
195, 3638230689, 0.8825547099113464, 0.011015266180038452, -0.46411046385765076, -0.07485786080360413, 8.080900192260742, 0.7665331363677979, 5.5835862159729, -2.034909963607788, -4.6964592933654785, -0.7124984264373779, -0.898681640625, 0.156494140625, -0.24462890625, 
196, 3638239022, 0.8824633359909058, 0.010943859815597534, -0.4642694592475891, -0.07496005296707153, 8.086824417114258, 0.7791286706924438, 5.599996089935303, -1.514864206314087, -3.10225510597229, -0.6461062431335449, -0.901611328125, 0.15576171875, -0.245849609375, 
197, 3638247355, 0.8824000358581543, 0.010870203375816345, -0.4643745422363281, -0.075065016746521, 8.101654052734375, 0.7799274921417236, 5.576208114624023, -1.6199849843978882, -2.271021842956543, -0.6453377604484558, -0.904052734375, 0.1552734375, -0.243896484375, 
198, 3638255688, 0.8823282122612, 0.010821178555488586, -0.46449989080429077, -0.07513973116874695, 8.108774185180664, 0.7493295073509216, 5.543745994567871, -1.1306507587432861, -2.523578405380249, -0.5121182203292847, -0.904052734375, 0.15478515625, -0.244384765625, 
199, 3638264021, 0.8822512030601501, 0.010825395584106445, -0.46464061737060547, -0.07517307996749878, 8.135300636291504, 0.7407954931259155, 5.545416831970215, -0.17882578074932098, -2.680568218231201, -0.3352775275707245, -0.903076171875, 0.156005859375, -0.243896484375, 
200, 3638272354, 0.8821741342544556, 0.010878488421440125, -0.464785099029541, -0.0751781165599823, 8.122605323791504, 0.6979334950447083, 5.591973781585693, 0.599193811416626, -2.690122365951538, -0.2504175901412964, -0.904052734375, 0.15380859375, -0.243408203125, 
201, 3638280687, 0.8821284770965576, 0.010982021689414978, -0.4648745357990265, -0.07514557242393494, 8.152627944946289, 0.6306823492050171, 5.603370666503906, 1.4009449481964111, -1.743394374847412, -0.13630615174770355, -0.903076171875, 0.1552734375, -0.244384765625, 
202, 3638289020, 0.8821326494216919, 0.011110246181488037, -0.4648715555667877, -0.07509678602218628, 8.136366844177246, 0.6170027256011963, 5.551697731018066, 1.691640853881836, -0.29839301109313965, -0.015458190813660622, -0.902587890625, 0.154296875, -0.245361328125, 
203, 3638297353, 0.8821344375610352, 0.01128736138343811, -0.46487540006637573, -0.07502365112304688, 8.0743408203125, 0.6166766881942749, 5.562580108642578, 2.4315593242645264, -0.32270094752311707, -0.09919112175703049, -0.902587890625, 0.15625, -0.245361328125, 
204, 3638305686, 0.8821132779121399, 0.011486470699310303, -0.46492013335227966, -0.07496491074562073, 7.9780426025390625, 0.5438660383224487, 5.639916896820068, 2.666929006576538, -0.9619810581207275, -0.3662707805633545, -0.904052734375, 0.154296875, -0.244384765625, 
205, 3638314019, 0.8820847868919373, 0.011720016598701477, -0.46497929096221924, -0.0748978853225708, 8.010677337646484, 0.5334376692771912, 5.612249374389648, 3.1498851776123047, -1.1287554502487183, -0.5493613481521606, -0.902099609375, 0.1533203125, -0.243896484375, 
206, 3638322352, 0.8820651769638062, 0.011976361274719238, -0.4650169610977173, -0.0748547613620758, 8.033472061157227, 0.6258323192596436, 5.517308235168457, 3.2538275718688965, -0.8126245141029358, -0.9227657318115234, -0.902099609375, 0.15234375, -0.243408203125, 
207, 3638330685, 0.8820043802261353, 0.012191906571388245, -0.46512800455093384, -0.07484492659568787, 8.01740837097168, 0.6945669054985046, 5.447714805603027, 2.638343334197998, -1.989752173423767, -1.1434322595596313, -0.900634765625, 0.15185546875, -0.24560546875, 
208, 3638339018, 0.8818869590759277, 0.01237456500530243, -0.46534264087677, -0.07486575841903687, 8.028816223144531, 0.7737033367156982, 5.4440460205078125, 2.1490345001220703, -3.672633409500122, -1.2990132570266724, -0.905029296875, 0.1513671875, -0.243408203125, 
209, 3638347351, 0.8817346096038818, 0.012541711330413818, -0.4656219780445099, -0.07489481568336487, 7.9845404624938965, 0.8315909504890442, 5.478026390075684, 2.0034430027008057, -4.670640468597412, -1.3631511926651, -0.902587890625, 0.15087890625, -0.245361328125, 
210, 3638355684, 0.8815978765487671, 0.01276467740535736, -0.4658736288547516, -0.07490244507789612, 7.956637382507324, 0.8541204929351807, 5.54206657409668, 2.7636477947235107, -4.198877334594727, -1.4097689390182495, -0.902587890625, 0.15283203125, -0.243408203125, 
211, 3638364017, 0.8814896941184998, 0.013062462210655212, -0.4660716652870178, -0.07489240169525146, 7.924324989318848, 0.8519507050514221, 5.583098888397217, 3.69956636428833, -3.2695162296295166, -1.726821780204773, -0.901611328125, 0.15087890625, -0.2421875, 
212, 3638372350, 0.8813974261283875, 0.013426214456558228, -0.46623939275741577, -0.07487085461616516, 7.885034084320068, 0.8317483067512512, 5.563763618469238, 4.5621514320373535, -2.7447571754455566, -1.9281498193740845, -0.905517578125, 0.15087890625, -0.243896484375, 
213, 3638380683, 0.8812638521194458, 0.013858914375305176, -0.4664830267429352, -0.07484447956085205, 7.85045051574707, 0.861786961555481, 5.564186096191406, 5.512388706207275, -3.8393821716308594, -2.397812843322754, -0.902099609375, 0.15283203125, -0.243408203125, 
214, 3638389016, 0.8810980916023254, 0.014340117573738098, -0.46678146719932556, -0.07484504580497742, 7.888121128082275, 0.8452370166778564, 5.542839050292969, 5.992603778839111, -4.685368537902832, -2.999260425567627, -0.904541015625, 0.1494140625, -0.241455078125, 
215, 3638397349, 0.8809171915054321, 0.014892637729644775, -0.467105895280838, -0.07484301924705505, 7.98464822769165, 0.7882497906684875, 5.507345199584961, 6.9092864990234375, -5.00337028503418, -3.4874935150146484, -0.901123046875, 0.150146484375, -0.23876953125, 
216, 3638405682, 0.8807322978973389, 0.015490025281906128, -0.46743661165237427, -0.07483184337615967, 8.114004135131836, 0.7568907141685486, 5.465137958526611, 7.51275634765625, -5.076267242431641, -3.6167938709259033, -0.9013671875, 0.1484375, -0.240234375, 
217, 3638414015, 0.8805462121963501, 0.016039058566093445, -0.46776676177978516, -0.07484439015388489, 8.167232513427734, 0.7615829706192017, 5.574300765991211, 6.768946170806885, -5.113460063934326, -3.6539864540100098, -0.907958984375, 0.14794921875, -0.239990234375, 
218, 3638422348, 0.8803471922874451, 0.016466587781906128, -0.46811360120773315, -0.07492423057556152, 8.119091987609863, 0.7180980443954468, 5.683538913726807, 4.889654159545898, -5.558071136474609, -3.6370291709899902, -0.901611328125, 0.1494140625, -0.2392578125, 
219, 3638430681, 0.8801794648170471, 0.016878783702850342, -0.46840575337409973, -0.07497739791870117, 8.171296119689941, 0.7440163493156433, 5.642444610595703, 4.814144611358643, -4.704144477844238, -3.1959524154663086, -0.9072265625, 0.1474609375, -0.239990234375, 
220, 3638439014, 0.8800250291824341, 0.017291292548179626, -0.46867331862449646, -0.07502469420433044, 8.182726860046387, 0.793765127658844, 5.6478142738342285, 4.789759635925293, -4.3047919273376465, -3.2006139755249023, -0.90625, 0.1455078125, -0.2373046875, 
221, 3638447347, 0.8798428177833557, 0.01767486333847046, -0.4689871668815613, -0.07511076331138611, 8.097652435302734, 0.8234701752662659, 5.735459327697754, 4.298401832580566, -5.076754570007324, -3.4640567302703857, -0.90625, 0.14453125, -0.23828125, 
222, 3638455680, 0.8796744346618652, 0.018106535077095032, -0.46927347779273987, -0.07519134879112244, 8.055642127990723, 0.8630818128585815, 5.697287082672119, 4.866269588470459, -4.623510837554932, -3.655574083328247, -0.90673828125, 0.14697265625, -0.237548828125, 
223, 3638464013, 0.879530668258667, 0.018605515360832214, -0.4695163667201996, -0.07523545622825623, 8.023530006408691, 0.8858647346496582, 5.631008625030518, 5.843222141265869, -3.846989631652832, -3.7057015895843506, -0.90380859375, 0.14306640625, -0.23779296875, 
224, 3638472346, 0.8793971538543701, 0.019127145409584045, -0.46973758935928345, -0.07528448104858398, 8.030800819396973, 0.9253764152526855, 5.537567615509033, 6.081716537475586, -3.510213851928711, -3.8338496685028076, -0.90576171875, 0.14501953125, -0.2392578125, 
225, 3638480679, 0.8792347311973572, 0.019587844610214233, -0.4700070917606354, -0.07538068294525146, 8.056185722351074, 0.981960654258728, 5.418226718902588, 5.0592217445373535, -4.345775604248047, -4.112814903259277, -0.90625, 0.142822265625, -0.2373046875, 
226, 3638489012, 0.8790274262428284, 0.01997259259223938, -0.47035422921180725, -0.07553279399871826, 8.221302032470703, 1.0217618942260742, 5.3159871101379395, 3.9110894203186035, -5.67876672744751, -4.239246368408203, -0.90478515625, 0.1435546875, -0.236328125, 
227, 3638497345, 0.878746509552002, 0.0202951580286026, -0.47083550691604614, -0.07571607828140259, 8.351582527160645, 1.020019292831421, 5.340457439422607, 3.088257312774658, -7.835024356842041, -4.329869270324707, -0.906494140625, 0.138916015625, -0.236328125, 
228, 3638505678, 0.8784088492393494, 0.02061218023300171, -0.47141411900520325, -0.07595005631446838, 8.428359985351562, 1.016318917274475, 5.4701738357543945, 2.839722156524658, -9.415292739868164, -4.862285614013672, -0.90625, 0.140869140625, -0.236328125, 
229, 3638514011, 0.8780701756477356, 0.020962178707122803, -0.47198739647865295, -0.07620894908905029, 8.471692085266113, 0.9809579253196716, 5.614856243133545, 3.0468649864196777, -9.314425468444824, -5.45210599899292, -0.907470703125, 0.139404296875, -0.23291015625, 
230, 3638522344, 0.8778461217880249, 0.021386951208114624, -0.47233831882476807, -0.07649692893028259, 8.50210952758789, 0.9620813131332397, 5.586723804473877, 3.5185768604278564, -5.828609943389893, -6.160646915435791, -0.906494140625, 0.138427734375, -0.23486328125, 
231, 3638530677, 0.8777393698692322, 0.021889179944992065, -0.4724659323692322, -0.0767890214920044, 8.45110034942627, 0.9788897037506104, 5.524899959564209, 4.130884170532227, -2.276836633682251, -6.731228828430176, -0.909423828125, 0.136474609375, -0.232421875, 
232, 3638539010, 0.8776291608810425, 0.02245458960533142, -0.4725968539714813, -0.07707935571670532, 8.276000022888184, 0.9896794557571411, 5.471739768981934, 4.936400890350342, -2.2876970767974854, -7.045925140380859, -0.910888671875, 0.135498046875, -0.22900390625, 
233, 3638547343, 0.8774734735488892, 0.023061171174049377, -0.47280582785606384, -0.07739144563674927, 8.180663108825684, 1.0500047206878662, 5.493719100952148, 5.388312339782715, -3.488133668899536, -7.60080623626709, -0.905517578125, 0.134033203125, -0.232421875, 
234, 3638555676, 0.8773058652877808, 0.023702174425125122, -0.4730297327041626, -0.07772889733314514, 8.209303855895996, 1.129420518875122, 5.4777045249938965, 5.710361957550049, -3.690793991088867, -8.161221504211426, -0.906005859375, 0.134521484375, -0.22998046875, 
235, 3638564009, 0.877131998538971, 0.024400606751441956, -0.4732568860054016, -0.07809111475944519, 8.184859275817871, 1.205162525177002, 5.430543422698975, 6.18898868560791, -3.7249889373779297, -8.877881050109863, -0.909423828125, 0.134521484375, -0.23486328125, 
236, 3638572342, 0.8769688606262207, 0.02507205307483673, -0.4734545946121216, -0.07851201295852661, 8.149022102355957, 1.1997284889221191, 5.380236625671387, 5.452579498291016, -3.36759352684021, -9.347569465637207, -0.90771484375, 0.12841796875, -0.231689453125, 
237, 3638580675, 0.8767910003662109, 0.025719046592712402, -0.4736713767051697, -0.0789790153503418, 8.155168533325195, 1.2304186820983887, 5.396219730377197, 4.90412712097168, -3.713078260421753, -9.795511245727539, -0.908203125, 0.12890625, -0.232666015625, 
238, 3638589008, 0.8765603303909302, 0.026402220129966736, -0.4739782512187958, -0.07947278022766113, 8.20982551574707, 1.2688931226730347, 5.389167785644531, 5.262035369873047, -5.136282444000244, -10.338022232055664, -0.9111328125, 0.1298828125, -0.22900390625, 
239, 3638597341, 0.8762624263763428, 0.027159959077835083, -0.4744011163711548, -0.07997837662696838, 8.181196212768555, 1.2583221197128296, 5.429333686828613, 6.221083641052246, -6.879663944244385, -11.064184188842773, -0.91015625, 0.12744140625, -0.23095703125, 
240, 3638605674, 0.8758740425109863, 0.02801460027694702, -0.47497713565826416, -0.08051756024360657, 8.127716064453125, 1.2513792514801025, 5.472357273101807, 7.386198997497559, -9.235021591186523, -12.075845718383789, -0.9111328125, 0.123046875, -0.226806640625, 
241, 3638614007, 0.8754340410232544, 0.028911888599395752, -0.4756375551223755, -0.08108332753181458, 8.033586502075195, 1.3356257677078247, 5.46936559677124, 7.859319686889648, -10.532870292663574, -12.741406440734863, -0.912353515625, 0.12158203125, -0.226806640625, 
242, 3638622340, 0.8749871253967285, 0.029883399605751038, -0.4762991666793823, -0.08166950941085815, 8.064199447631836, 1.4660191535949707, 5.309260368347168, 8.603055000305176, -10.538018226623535, -13.438164710998535, -0.909912109375, 0.12060546875, -0.224365234375, 
243, 3638630673, 0.8744823932647705, 0.030876323580741882, -0.4770601689815521, -0.08226168155670166, 8.085306167602539, 1.5032563209533691, 5.286602020263672, 8.955994606018066, -12.073234558105469, -13.732037544250488, -0.914306640625, 0.118896484375, -0.222900390625, 
244, 3638639006, 0.8738887310028076, 0.031899213790893555, -0.477973073720932, -0.0828794538974762, 8.124173164367676, 1.567603588104248, 5.266916275024414, 9.358344078063965, -14.479334831237793, -14.214177131652832, -0.914306640625, 0.114013671875, -0.223876953125, 
245, 3638647339, 0.8732919096946716, 0.03293190896511078, -0.47887688875198364, -0.0835462212562561, 8.251301765441895, 1.6063991785049438, 5.257408142089844, 9.154864311218262, -14.3796968460083, -14.923437118530273, -0.91455078125, 0.110595703125, -0.222412109375, 
246, 3638655672, 0.8727093935012817, 0.03403404355049133, -0.479736864566803, -0.08425518870353699, 8.371925354003906, 1.704974889755249, 5.2022600173950195, 9.645455360412598, -13.71826171875, -15.843245506286621, -0.91455078125, 0.111572265625, -0.219970703125, 
247, 3638664005, 0.8720607161521912, 0.03525263071060181, -0.4807124435901642, -0.08490616083145142, 8.40161418914795, 1.7483309507369995, 5.294567108154297, 11.584784507751465, -15.363155364990234, -15.994547843933105, -0.91357421875, 0.107177734375, -0.216796875, 
248, 3638672338, 0.8712774515151978, 0.03660692274570465, -0.48191773891448975, -0.08553916215896606, 8.156423568725586, 1.6493957042694092, 5.502249240875244, 13.669559478759766, -18.857406616210938, -16.665388107299805, -0.917724609375, 0.103515625, -0.216552734375, 
249, 3638680671, 0.8705724477767944, 0.03803052008152008, -0.4829816222190857, -0.08609470725059509, 8.214908599853516, 1.683361291885376, 5.483440399169922, 14.829833030700684, -16.503557205200195, -16.212400436401367, -0.918212890625, 0.10205078125, -0.216064453125, 
250, 3638689004, 0.8700281977653503, 0.03958921134471893, -0.48374372720718384, -0.08661353588104248, 8.232842445373535, 1.5656144618988037, 5.3366804122924805, 16.22696304321289, -11.663949012756348, -16.602222442626953, -0.920654296875, 0.09912109375, -0.214599609375, 
251, 3638697337, 0.8695591688156128, 0.040957123041152954, -0.48438671231269836, -0.08709317445755005, 8.27021598815918, 1.604422926902771, 5.198969841003418, 14.020112991333008, -9.930042266845703, -14.891547203063965, -0.91796875, 0.09619140625, -0.21240234375, 
252, 3638705670, 0.8691433668136597, 0.04205763339996338, -0.4849596321582794, -0.08752986788749695, 8.217833518981934, 1.7593228816986084, 5.034402370452881, 10.998038291931152, -9.047859191894531, -12.518768310546875, -0.91748046875, 0.093017578125, -0.21044921875, 
253, 3638714003, 0.8687530755996704, 0.04299691319465637, -0.4855062961578369, -0.08791700005531311, 8.198652267456055, 1.9907172918319702, 4.957239627838135, 9.375297546386719, -8.708367347717285, -10.872077941894531, -0.9228515625, 0.091552734375, -0.20849609375, 
254, 3638722336, 0.8682388663291931, 0.04395022988319397, -0.4862821102142334, -0.08823603391647339, 8.221281051635742, 2.225566864013672, 5.027230262756348, 10.327866554260254, -12.23706340789795, -10.129804611206055, -0.9189453125, 0.090087890625, -0.21044921875, 
255, 3638730669, 0.8676192164421082, 0.045032620429992676, -0.48722583055496216, -0.08858010172843933, 8.126444816589355, 2.2060937881469727, 5.053187370300293, 11.96338939666748, -14.789627075195312, -11.369330406188965, -0.919677734375, 0.087646484375, -0.20654296875, 
256, 3638739002, 0.867005467414856, 0.04622197151184082, -0.4881375730037689, -0.0889565646648407, 8.087057113647461, 2.0954761505126953, 5.124037265777588, 12.984784126281738, -14.276907920837402, -12.435909271240234, -0.9208984375, 0.088623046875, -0.20556640625, 
257, 3638747335, 0.8663402795791626, 0.047565802931785583, -0.4891257882118225, -0.08929827809333801, 8.145222663879395, 1.9730497598648071, 5.1416401863098145, 15.171370506286621, -15.30352783203125, -13.125164031982422, -0.919677734375, 0.083251953125, -0.203369140625, 
258, 3638755668, 0.8656748533248901, 0.04897609353065491, -0.4900926351547241, -0.08968821167945862, 8.096508026123047, 1.8908112049102783, 5.25874137878418, 15.627894401550293, -15.018852233886719, -14.107650756835938, -0.921142578125, 0.080322265625, -0.201904296875, 
259, 3638764001, 0.8650686144828796, 0.05050170421600342, -0.49094825983047485, -0.0900096595287323, 8.045541763305664, 1.9025014638900757, 5.128718852996826, 17.324222564697266, -13.081850051879883, -14.091846466064453, -0.92333984375, 0.078369140625, -0.197509765625, 
260, 3638772334, 0.8645995855331421, 0.05200392007827759, -0.49154624342918396, -0.09039804339408875, 7.858748912811279, 1.790758728981018, 4.988370418548584, 16.140077590942383, -9.190635681152344, -14.717626571655273, -0.921875, 0.07568359375, -0.198486328125, 
261, 3638780667, 0.8641862273216248, 0.053323596715927124, -0.4920506477355957, -0.09083610773086548, 7.860074520111084, 1.8850650787353516, 4.885634422302246, 13.505518913269043, -7.943706512451172, -14.101447105407715, -0.9248046875, 0.0732421875, -0.198486328125, 
262, 3638789000, 0.8636213541030884, 0.05448684096336365, -0.4928319752216339, -0.09128278493881226, 7.940248966217041, 1.9687525033950806, 4.690579891204834, 12.018024444580078, -12.481500625610352, -13.104618072509766, -0.92138671875, 0.0712890625, -0.198486328125, 
263, 3638797333, 0.8629400730133057, 0.05560241639614105, -0.4938056766986847, -0.09178787469863892, 7.975512981414795, 1.9487504959106445, 4.745474815368652, 11.380280494689941, -15.646498680114746, -13.520952224731445, -0.924560546875, 0.0703125, -0.197021484375, 
264, 3638805666, 0.8621267080307007, 0.056780681014060974, -0.49500036239624023, -0.092274010181427, 8.146683692932129, 2.0049450397491455, 4.912691593170166, 12.637404441833496, -19.084627151489258, -13.675127029418945, -0.926025390625, 0.06640625, -0.192626953125, 
265, 3638813999, 0.86131751537323, 0.05793781578540802, -0.496194064617157, -0.09269958734512329, 8.412824630737305, 1.9708514213562012, 4.974667072296143, 12.79395866394043, -19.024202346801758, -12.808904647827148, -0.926513671875, 0.06396484375, -0.189208984375, 
266, 3638822332, 0.8605403304100037, 0.05918298661708832, -0.49732282757759094, -0.09308093786239624, 8.46269416809082, 1.8103381395339966, 5.114360332489014, 14.0543851852417, -17.866870880126953, -12.922989845275879, -0.926025390625, 0.062255859375, -0.18994140625, 
267, 3638830665, 0.8600541949272156, 0.06031809747219086, -0.49794909358024597, -0.09349730610847473, 8.476982116699219, 1.739251971244812, 5.099752902984619, 11.615572929382324, -10.105165481567383, -12.632009506225586, -0.92529296875, 0.06103515625, -0.18603515625, 
268, 3638838998, 0.8596753478050232, 0.06146816909313202, -0.4983969032764435, -0.09384524822235107, 8.555891990661621, 1.76250422000885, 4.908947467803955, 11.935673713684082, -7.200483798980713, -11.897623062133789, -0.9267578125, 0.056396484375, -0.18408203125, 
269, 3638847331, 0.8591508865356445, 0.06256338953971863, -0.4990912675857544, -0.09423235058784485, 8.478964805603027, 1.7890223264694214, 4.922938346862793, 11.528740882873535, -11.187623977661133, -11.964656829833984, -0.92724609375, 0.055908203125, -0.18505859375, 
270, 3638855664, 0.8584463000297546, 0.06355223059654236, -0.5000970363616943, -0.09465965628623962, 8.382079124450684, 1.796140193939209, 4.970174789428711, 10.486883163452148, -16.30291748046875, -11.673832893371582, -0.9287109375, 0.055419921875, -0.18359375, 
271, 3638863997, 0.8577783107757568, 0.06446561217308044, -0.5010360479354858, -0.09513038396835327, 8.202156066894531, 1.7563718557357788, 4.938029766082764, 9.193490028381348, -15.382981300354004, -11.713254928588867, -0.929443359375, 0.051513671875, -0.18115234375, 
272, 3638872330, 0.857171893119812, 0.06530708074569702, -0.5018818974494934, -0.09556344151496887, 8.120348930358887, 1.7848018407821655, 5.0263519287109375, 8.412613868713379, -13.940078735351562, -10.740782737731934, -0.929443359375, 0.048583984375, -0.1767578125, 
273, 3638880663, 0.8564634323120117, 0.0660676509141922, -0.5029199123382568, -0.09593561291694641, 8.290457725524902, 1.8697458505630493, 5.025182723999023, 8.222864151000977, -16.959741592407227, -9.426591873168945, -0.929931640625, 0.051025390625, -0.1796875, 
274, 3638888996, 0.8557080030441284, 0.0668046623468399, -0.5040223598480225, -0.09637871384620667, 8.312959671020508, 1.8923423290252686, 4.965548992156982, 7.659017562866211, -18.10662078857422, -10.100733757019043, -0.929931640625, 0.046142578125, -0.17138671875, 
275, 3638897329, 0.8551366329193115, 0.06750665605068207, -0.5048164129257202, -0.09680423140525818, 8.317039489746094, 1.8410892486572266, 4.84084415435791, 6.783316612243652, -13.232406616210938, -9.695899963378906, -0.928466796875, 0.046142578125, -0.17333984375, 
276, 3638905662, 0.8545036911964417, 0.06819769740104675, -0.505725622177124, -0.09716224670410156, 8.416409492492676, 1.9744311571121216, 4.828969955444336, 7.266734600067139, -14.998151779174805, -8.796506881713867, -0.9306640625, 0.043701171875, -0.16943359375, 
277, 3638913995, 0.8538427948951721, 0.06873492896556854, -0.5066953897476196, -0.09754085540771484, 8.502694129943848, 2.160047769546509, 4.683979034423828, 5.468461036682129, -16.10496711730957, -7.967911720275879, -0.93212890625, 0.040771484375, -0.16748046875, 
278, 3638922328, 0.8532066941261292, 0.069117471575737, -0.507621705532074, -0.0980193018913269, 8.414068222045898, 2.203469753265381, 4.772558689117432, 2.828017234802246, -15.748109817504883, -8.052362442016602, -0.931640625, 0.03955078125, -0.168212890625, 
279, 3638930661, 0.8525640964508057, 0.06938441097736359, -0.5085591077804565, -0.09856146574020386, 8.51917552947998, 2.245863437652588, 4.844845771789551, 1.0473920106887817, -16.138906478881836, -7.991631507873535, -0.93310546875, 0.038818359375, -0.162841796875, 
280, 3638938994, 0.8520404100418091, 0.0697081983089447, -0.5092864036560059, -0.09910500049591064, 8.576888084411621, 2.2255613803863525, 4.645120620727539, 1.3570423126220703, -12.743659973144531, -8.45862865447998, -0.93505859375, 0.03759765625, -0.16259765625, 
281, 3638947327, 0.8514699339866638, 0.0698380172252655, -0.5101085305213928, -0.09968531131744385, 8.785700798034668, 2.301633358001709, 4.76519775390625, -0.9946136474609375, -14.481816291809082, -7.503960132598877, -0.93359375, 0.037353515625, -0.161865234375, 
282, 3638955660, 0.8507132530212402, 0.06959423422813416, -0.511252224445343, -0.10045415163040161, 8.674811363220215, 2.360222101211548, 4.857044696807861, -6.127631664276123, -20.271072387695312, -7.021389007568359, -0.932373046875, 0.036865234375, -0.156005859375, 
283, 3638963993, 0.8501952886581421, 0.06927618384361267, -0.512016236782074, -0.10116612911224365, 8.553339958190918, 2.4358458518981934, 4.978949546813965, -7.280655384063721, -14.171065330505371, -5.8754072189331055, -0.934814453125, 0.036376953125, -0.153076171875, 
284, 3638972326, 0.8499618768692017, 0.06911076605319977, -0.5123224854469299, -0.10168793797492981, 8.528385162353516, 2.3922202587127686, 4.859869003295898, -5.132568836212158, -6.451266765594482, -4.76118803024292, -0.935302734375, 0.033447265625, -0.153564453125, 
285, 3638980659, 0.8498537540435791, 0.06898029148578644, -0.5124311447143555, -0.10213300585746765, 8.336260795593262, 2.3600704669952393, 4.607933044433594, -4.485833644866943, -3.1016147136688232, -4.11066198348999, -0.935791015625, 0.032470703125, -0.152099609375, 
286, 3638988992, 0.8496635556221008, 0.06886424124240875, -0.5126727819442749, -0.10257944464683533, 8.159451484680176, 2.317307233810425, 4.39614725112915, -4.15679407119751, -5.249395370483398, -4.230358123779297, -0.937255859375, 0.031982421875, -0.153076171875, 
287, 3638997325, 0.8492485284805298, 0.0686870813369751, -0.5132767558097839, -0.10311475396156311, 7.987019062042236, 2.3149964809417725, 4.244956970214844, -4.771920680999756, -11.2399263381958, -4.809931755065918, -0.935791015625, 0.032470703125, -0.150634765625, 
288, 3639005658, 0.848701536655426, 0.06849516928195953, -0.5140942931175232, -0.10367032885551453, 7.98788595199585, 2.3612191677093506, 4.3073039054870605, -4.575638294219971, -14.672002792358398, -4.922813415527344, -0.936279296875, 0.031494140625, -0.149658203125, 
289, 3639013991, 0.8480967283248901, 0.06830741465091705, -0.5150011777877808, -0.10424116253852844, 8.074426651000977, 2.4008336067199707, 4.293322563171387, -4.465342998504639, -16.13480567932129, -5.134617328643799, -0.936279296875, 0.031005859375, -0.148193359375, 
290, 3639022324, 0.8475011587142944, 0.0681251734495163, -0.5158885717391968, -0.10481396317481995, 8.24959945678711, 2.4779107570648193, 4.2691802978515625, -4.523615837097168, -15.864294052124023, -5.201548099517822, -0.934326171875, 0.030517578125, -0.146240234375, 
291, 3639030657, 0.8468694686889648, 0.06795525550842285, -0.5168117880821228, -0.10548055171966553, 8.328323364257812, 2.446658134460449, 4.258841514587402, -4.900759696960449, -16.58367156982422, -6.407133102416992, -0.937255859375, 0.032958984375, -0.144775390625, 
292, 3639038990, 0.8462824821472168, 0.06782485544681549, -0.5176461935043335, -0.10618078708648682, 8.368380546569824, 2.4078474044799805, 4.309563159942627, -4.909110069274902, -15.232903480529785, -7.090239524841309, -0.935791015625, 0.03125, -0.140380859375, 
293, 3639047323, 0.845703125, 0.06778493523597717, -0.5184574723243713, -0.1068623960018158, 8.431047439575195, 2.3347091674804688, 4.461131572723389, -3.7133092880249023, -14.73058032989502, -7.538053035736084, -0.936767578125, 0.02978515625, -0.138916015625, 
294, 3639055656, 0.8451878428459167, 0.06798757612705231, -0.5191439986228943, -0.10747602581977844, 8.538771629333496, 2.217541217803955, 4.480289936065674, -0.7029443979263306, -12.434649467468262, -8.490185737609863, -0.93603515625, 0.0283203125, -0.138427734375, 
295, 3639063989, 0.8447595834732056, 0.06831339001655579, -0.5196759104728699, -0.10806307196617126, 8.554327964782715, 2.000155210494995, 4.5015645027160645, 0.6523945927619934, -9.779861450195312, -9.089225769042969, -0.93701171875, 0.02734375, -0.133544921875, 
296, 3639072322, 0.8443226218223572, 0.06874887645244598, -0.5202112197875977, -0.1086251437664032, 8.46044635772705, 1.9636796712875366, 4.390671730041504, 2.0741899013519287, -9.722895622253418, -9.580327033996582, -0.9375, 0.024658203125, -0.135498046875, 
297, 3639080655, 0.8438233137130737, 0.06924018263816833, -0.5208433270454407, -0.10916289687156677, 8.399937629699707, 2.10404896736145, 4.3290181159973145, 3.152421236038208, -11.160956382751465, -9.707655906677246, -0.93701171875, 0.02392578125, -0.134033203125, 
298, 3639088988, 0.8432797193527222, 0.0697164237499237, -0.5215641260147095, -0.1096181571483612, 8.399815559387207, 2.1807730197906494, 4.351728916168213, 3.6920108795166016, -12.474045753479004, -8.61528491973877, -0.93701171875, 0.020751953125, -0.132080078125, 
299, 3639097321, 0.8425784707069397, 0.07025566697120667, -0.5225260853767395, -0.11008387804031372, 8.32325553894043, 2.1348788738250732, 4.152402877807617, 4.9416022300720215, -16.28534507751465, -9.190146446228027, -0.935302734375, 0.02099609375, -0.12939453125, 
300, 3639105654, 0.8420581817626953, 0.07095210254192352, -0.5231878757476807, -0.11047473549842834, 8.18581485748291, 2.1031863689422607, 4.140596389770508, 6.591491222381592, -11.227554321289062, -9.472825050354004, -0.937255859375, 0.018310546875, -0.13037109375, 
301, 3639113987, 0.8415367603302002, 0.07182483375072479, -0.5238476395606995, -0.1107562780380249, 8.335007667541504, 1.9994328022003174, 4.370289325714111, 9.464282989501953, -10.814525604248047, -9.492676734924316, -0.939208984375, 0.018310546875, -0.126708984375, 
302, 3639122320, 0.8409368991851807, 0.07278324663639069, -0.5246049761772156, -0.11110210418701172, 8.575844764709473, 1.8994797468185425, 4.319560527801514, 10.1720552444458, -12.466541290283203, -10.862116813659668, -0.936279296875, 0.01513671875, -0.12255859375, 
303, 3639130653, 0.8402724266052246, 0.07388733327388763, -0.5254300832748413, -0.11150074005126953, 8.693974494934082, 1.8298290967941284, 4.259250164031982, 11.72709846496582, -13.512269973754883, -12.552477836608887, -0.938720703125, 0.012939453125, -0.1220703125, 
304, 3639138986, 0.8396565318107605, 0.07504455745220184, -0.5261692404747009, -0.11188170313835144, 8.604748725891113, 2.1019248962402344, 4.3690619468688965, 12.203959465026855, -12.103461265563965, -12.74789047241211, -0.935302734375, 0.013671875, -0.12158203125, 
305, 3639147319, 0.8391537070274353, 0.07619288563728333, -0.5267311334609985, -0.1122332215309143, 8.601465225219727, 2.383690595626831, 4.2614336013793945, 11.964951515197754, -9.199471473693848, -12.372077941894531, -0.93994140625, 0.010986328125, -0.12158203125, 
306, 3639155652, 0.8387261629104614, 0.07726576924324036, -0.5271912813186646, -0.11253398656845093, 8.483124732971191, 2.544027328491211, 4.135411262512207, 11.186019897460938, -7.566074848175049, -11.212491035461426, -0.9443359375, 0.007568359375, -0.11962890625, 
307, 3639163985, 0.8382610082626343, 0.07817275822162628, -0.5277261734008789, -0.11286607384681702, 8.35405158996582, 2.512211799621582, 4.244868755340576, 9.280014038085938, -8.955238342285156, -10.347833633422852, -0.94140625, 0.007568359375, -0.11767578125, 
308, 3639172318, 0.8377981185913086, 0.07895040512084961, -0.5282732248306274, -0.11320200562477112, 8.45228099822998, 2.4693801403045654, 4.192217826843262, 7.698820114135742, -9.321059226989746, -9.438117027282715, -0.93994140625, 0.005615234375, -0.11865234375, 
309, 3639180651, 0.8373093008995056, 0.07974036037921906, -0.5288876295089722, -0.1133972704410553, 8.64582633972168, 2.359652519226074, 4.300655841827393, 8.996234893798828, -10.111516952514648, -7.873140335083008, -0.942138671875, 0.003173828125, -0.1162109375, 
310, 3639188984, 0.8367505073547363, 0.08062683045864105, -0.5296022891998291, -0.11355924606323242, 8.688776016235352, 2.3140628337860107, 4.412623882293701, 10.625580787658691, -11.563100814819336, -8.208684921264648, -0.938720703125, 0.000732421875, -0.114990234375, 
311, 3639197317, 0.8363677263259888, 0.08157329261302948, -0.5300241708755493, -0.11373451352119446, 8.688305854797363, 2.281391143798828, 4.525396347045898, 10.602553367614746, -6.82308292388916, -8.830957412719727, -0.940673828125, -0.000732421875, -0.112060546875, 
312, 3639205650, 0.8361433744430542, 0.08261525630950928, -0.5301865339279175, -0.1138753890991211, 8.687564849853516, 2.2102930545806885, 4.518477916717529, 11.289013862609863, -2.5310065746307373, -9.175954818725586, -0.940673828125, -0.0029296875, -0.114501953125, 
313, 3639213983, 0.8360022902488708, 0.08375774323940277, -0.53022700548172, -0.11388778686523438, 8.67062759399414, 2.2003979682922363, 4.493996620178223, 13.192923545837402, -0.1808493733406067, -8.430968284606934, -0.942138671875, -0.0029296875, -0.110595703125, 
314, 3639222316, 0.835873007774353, 0.08494186401367188, -0.530252993106842, -0.11383858323097229, 8.325448989868164, 2.2914481163024902, 4.41953706741333, 13.987499237060547, 0.1682855486869812, -8.032125473022461, -0.942138671875, -0.00244140625, -0.114501953125, 
315, 3639230649, 0.8356562852859497, 0.08616165816783905, -0.5304189324378967, -0.11373957991600037, 8.01285171508789, 2.3972177505493164, 4.349238872528076, 15.149364471435547, -1.9311474561691284, -7.700474262237549, -0.93994140625, -0.0068359375, -0.111083984375, 
316, 3639238982, 0.8352751135826111, 0.08735287189483643, -0.5308389663696289, -0.11367133259773254, 8.045370101928711, 2.4532885551452637, 3.9597644805908203, 15.121265411376953, -6.1640543937683105, -7.796065807342529, -0.94189453125, -0.00830078125, -0.112548828125, 
317, 3639247315, 0.8347910046577454, 0.08845777809619904, -0.5313968062400818, -0.11376595497131348, 8.304620742797852, 2.5323643684387207, 3.647043466567993, 13.366382598876953, -8.791512489318848, -9.028136253356934, -0.94189453125, -0.010986328125, -0.111083984375, 
318, 3639255648, 0.8341531753540039, 0.08940300345420837, -0.5321811437606812, -0.11403948068618774, 8.824129104614258, 2.649332284927368, 3.8366899490356445, 10.681525230407715, -13.018478393554688, -9.883269309997559, -0.9423828125, -0.01171875, -0.108154296875, 
319, 3639263981, 0.8333933353424072, 0.09030362963676453, -0.533130943775177, -0.11444813013076782, 9.228744506835938, 2.6723945140838623, 4.179817199707031, 9.687845230102539, -16.005149841308594, -11.087446212768555, -0.94091796875, -0.01220703125, -0.109130859375, 
320, 3639272314, 0.8328575491905212, 0.09133180975914001, -0.5337096452713013, -0.11483544111251831, 9.370899200439453, 2.528916597366333, 4.3471760749816895, 10.346923828125, -9.92361068725586, -11.893141746520996, -0.942138671875, -0.015869140625, -0.107421875, 
321, 3639280647, 0.832635760307312, 0.09248673915863037, -0.5337923765182495, -0.11513486504554749, 9.370977401733398, 2.537709951400757, 4.284386157989502, 11.33630084991455, -1.5944993495941162, -11.948210716247559, -0.943115234375, -0.017822265625, -0.10546875, 
322, 3639288980, 0.8326296210289001, 0.09357748925685883, -0.5335565209388733, -0.1153901219367981, 9.225203514099121, 2.557278633117676, 4.005446434020996, 10.076129913330078, 3.556511640548706, -11.032551765441895, -0.946533203125, -0.019287109375, -0.104736328125, 
323, 3639297313, 0.832671046257019, 0.09434309601783752, -0.5332992672920227, -0.1156567931175232, 8.903687477111816, 2.5435216426849365, 3.7658257484436035, 6.294135093688965, 3.668778419494629, -8.711465835571289, -0.943359375, -0.021728515625, -0.1064453125, 
324, 3639305646, 0.832737386226654, 0.09480180591344833, -0.5330546498298645, -0.11593124270439148, 8.483159065246582, 2.590388536453247, 3.6446328163146973, 2.590419054031372, 3.162564277648926, -6.510128021240234, -0.942626953125, -0.020263671875, -0.1064453125, 
325, 3639313979, 0.8328858017921448, 0.09511085599660873, -0.532717764377594, -0.116161048412323, 8.164473533630371, 2.6618974208831787, 3.5331716537475586, 1.0438055992126465, 4.67938756942749, -4.888617515563965, -0.94384765625, -0.0234375, -0.1044921875, 
326, 3639322312, 0.8330303430557251, 0.0954473465681076, -0.5323914289474487, -0.11634501814842224, 8.097097396850586, 2.6372745037078857, 3.5219740867614746, 1.6222774982452393, 4.593733310699463, -4.55983304977417, -0.9423828125, -0.02392578125, -0.109375, 
327, 3639330645, 0.8330631256103516, 0.09575483947992325, -0.5322333574295044, -0.11658000946044922, 8.216033935546875, 2.5420050621032715, 3.6453545093536377, 1.4148279428482056, 1.7731966972351074, -4.891639709472656, -0.94091796875, -0.0234375, -0.10986328125, 
328, 3639338978, 0.8329856395721436, 0.09603884071111679, -0.5322359800338745, -0.11688759922981262, 8.392976760864258, 2.4908201694488525, 3.7004382610321045, 0.9338182210922241, -1.0468666553497314, -5.515910625457764, -0.9404296875, -0.0263671875, -0.108154296875, 
329, 3639347311, 0.8329117894172668, 0.09634474664926529, -0.5322217345237732, -0.11722606420516968, 8.54606819152832, 2.5101780891418457, 3.8215718269348145, 1.0350457429885864, -0.7848073840141296, -6.036187171936035, -0.94189453125, -0.02587890625, -0.109375, 
330, 3639355644, 0.8328962326049805, 0.0967019721865654, -0.5321107506752014, -0.11754530668258667, 8.613996505737305, 2.5346899032592773, 3.92617130279541, 1.4235366582870483, 0.8109465837478638, -6.235849380493164, -0.939453125, -0.02587890625, -0.111572265625, 
331, 3639363977, 0.8329607844352722, 0.09711206704378128, -0.5318810939788818, -0.11779022216796875, 8.619275093078613, 2.573021411895752, 3.9470489025115967, 2.341064214706421, 2.974555253982544, -5.810396671295166, -0.9423828125, -0.0263671875, -0.10986328125, 
332, 3639372310, 0.8330654501914978, 0.09765344858169556, -0.5315921902656555, -0.11790734529495239, 8.617080688476562, 2.65964412689209, 3.976055145263672, 4.562663555145264, 4.293355941772461, -5.308460235595703, -0.939208984375, -0.029296875, -0.109619140625, 
333, 3639380643, 0.8332316875457764, 0.09819464385509491, -0.5312279462814331, -0.11792415380477905, 8.553157806396484, 2.6542677879333496, 3.9243288040161133, 5.21800422668457, 5.800368785858154, -4.140964031219482, -0.94091796875, -0.02587890625, -0.11328125, 
334, 3639388976, 0.8334411382675171, 0.09865252673625946, -0.5308220386505127, -0.1178891658782959, 8.435057640075684, 2.731823205947876, 3.852677822113037, 4.387077808380127, 6.470386028289795, -2.9456753730773926, -0.939453125, -0.0283203125, -0.111083984375, 
335, 3639397309, 0.8336035013198853, 0.09899326413869858, -0.5305081605911255, -0.117868572473526, 8.41150188446045, 2.7466001510620117, 3.6974265575408936, 3.243710517883301, 4.907816410064697, -2.203503131866455, -0.93994140625, -0.02783203125, -0.111572265625, 
336, 3639405642, 0.833666980266571, 0.09920761734247208, -0.5303576588630676, -0.11791712045669556, 8.499542236328125, 2.7724318504333496, 3.6955833435058594, 1.5995835065841675, 1.9684797525405884, -2.0151102542877197, -0.9404296875, -0.028564453125, -0.113037109375, 
337, 3639413975, 0.8336177468299866, 0.09937024861574173, -0.5303874015808105, -0.11799359321594238, 8.604907035827637, 2.753678560256958, 3.918468952178955, 1.3368582725524902, -0.9957150220870972, -1.8945698738098145, -0.938720703125, -0.029541015625, -0.112548828125, 
338, 3639422308, 0.8336010575294495, 0.09960001707077026, -0.5303703546524048, -0.11799505352973938, 8.698397636413574, 2.7549262046813965, 4.073704242706299, 2.4448788166046143, -0.0556725412607193, -1.5344080924987793, -0.9404296875, -0.028076171875, -0.114013671875, 
339, 3639430641, 0.8337097764015198, 0.09985040873289108, -0.5301718711853027, -0.11790645122528076, 8.76689624786377, 2.824665069580078, 4.0597124099731445, 2.947199821472168, 3.1355412006378174, -0.7055057287216187, -0.940185546875, -0.031005859375, -0.116455078125, 
340, 3639438974, 0.8339106440544128, 0.1000063344836235, -0.5298613905906677, -0.11774829030036926, 8.786349296569824, 2.855914354324341, 4.0231804847717285, 1.9888943433761597, 4.994263648986816, 0.7834882140159607, -0.939208984375, -0.031494140625, -0.114013671875, 
341, 3639447307, 0.8341354131698608, 0.10006320476531982, -0.5295450687408447, -0.11753097176551819, 8.67236328125, 2.844592332839966, 4.021576404571533, 1.2404462099075317, 5.1561198234558105, 2.2146835327148438, -0.940185546875, -0.030029296875, -0.115966796875, 
342, 3639455640, 0.8343968391418457, 0.10012587904930115, -0.5291987657546997, -0.1171829104423523, 8.59576416015625, 2.827707052230835, 3.9878413677215576, 2.2818186283111572, 6.014683723449707, 3.707071542739868, -0.939208984375, -0.031494140625, -0.116455078125, 
343, 3639463973, 0.8346564173698425, 0.10022176802158356, -0.5288724899291992, -0.11672398447990417, 8.556154251098633, 2.8805041313171387, 3.8807764053344727, 3.4988532066345215, 5.973674774169922, 4.756844997406006, -0.93994140625, -0.029541015625, -0.115478515625, 
344, 3639472306, 0.834911584854126, 0.10022243112325668, -0.5285740494728088, -0.11624956130981445, 8.569548606872559, 2.9610133171081543, 3.8550939559936523, 2.453946113586426, 5.436365127563477, 5.647144794464111, -0.939697265625, -0.030029296875, -0.115966796875, 
345, 3639480639, 0.8351193070411682, 0.10010255128145218, -0.5283586382865906, -0.11583933234214783, 8.564162254333496, 3.0195047855377197, 3.8975117206573486, 0.896242082118988, 3.9055051803588867, 5.828672409057617, -0.9384765625, -0.028076171875, -0.118408203125, 
346, 3639488972, 0.8353236317634583, 0.09998529404401779, -0.5281492471694946, -0.11542081832885742, 8.594019889831543, 3.018202066421509, 3.980571746826172, 0.9074354767799377, 3.7770493030548096, 5.901596546173096, -0.94140625, -0.028076171875, -0.118408203125, 
347, 3639497305, 0.835568904876709, 0.09993553161621094, -0.527873694896698, -0.11494818329811096, 8.588255882263184, 3.0677692890167236, 4.017587184906006, 2.019605875015259, 5.07018518447876, 6.0192437171936035, -0.94091796875, -0.027587890625, -0.119873046875, 
348, 3639505638, 0.8358426690101624, 0.09990280866622925, -0.5275569558143616, -0.11443990468978882, 8.578027725219727, 3.1008872985839844, 4.02785587310791, 2.2626335620880127, 5.775113582611084, 6.28319787979126, -0.94091796875, -0.025634765625, -0.12158203125, 
349, 3639513971, 0.8360809087753296, 0.09980931878089905, -0.5273013114929199, -0.11395826935768127, 8.58389949798584, 3.151876449584961, 3.994595766067505, 1.600428581237793, 4.726620197296143, 6.445975303649902, -0.93896484375, -0.026611328125, -0.119873046875, 
350, 3639522304, 0.836279034614563, 0.09966284781694412, -0.5271154046058655, -0.11349314451217651, 8.537912368774414, 3.0648910999298096, 4.095632076263428, 0.9515432119369507, 3.482870101928711, 6.6723809242248535, -0.94091796875, -0.021728515625, -0.12109375, 
351, 3639530637, 0.8365059494972229, 0.09941403567790985, -0.5269114971160889, -0.11298373341560364, 8.373869895935059, 2.860297441482544, 4.296573638916016, 0.10645277053117752, 3.8437235355377197, 7.941489219665527, -0.9384765625, -0.022705078125, -0.123291015625, 
352, 3639538970, 0.8367847204208374, 0.09915116429328918, -0.5266461372375488, -0.11238592863082886, 8.386553764343262, 2.854637861251831, 4.131847381591797, 0.34143778681755066, 4.980227470397949, 9.059986114501953, -0.938720703125, -0.021240234375, -0.123046875, 
353, 3639547303, 0.8370205163955688, 0.09879229962825775, -0.526474118232727, -0.11174952983856201, 8.466357231140137, 2.9294662475585938, 4.029842376708984, -0.19442489743232727, 3.5480844974517822, 10.26152515411377, -0.939697265625, -0.019775390625, -0.12255859375, 
354, 3639555636, 0.8371564149856567, 0.09829103946685791, -0.5264765620231628, -0.11116114258766174, 8.575615882873535, 2.9691290855407715, 4.0545654296875, -1.8633462190628052, 0.48585090041160583, 10.821427345275879, -0.941162109375, -0.017822265625, -0.12451171875, 
355, 3639563969, 0.8373478055000305, 0.09771043807268143, -0.52640700340271, -0.11055943369865417, 8.609915733337402, 3.0220985412597656, 4.04230260848999, -2.8669636249542236, 1.6099318265914917, 11.53703784942627, -0.938720703125, -0.016845703125, -0.12744140625, 
356, 3639572302, 0.8376346230506897, 0.09715653955936432, -0.5261921882629395, -0.10989522933959961, 8.513562202453613, 3.063814163208008, 3.97918963432312, -2.37214732170105, 4.144998550415039, 12.012334823608398, -0.939208984375, -0.0146484375, -0.12255859375, 
357, 3639580635, 0.8379060626029968, 0.09656815230846405, -0.5260084867477417, -0.10922092199325562, 8.358617782592773, 3.1249749660491943, 3.9404072761535645, -2.5988075733184814, 3.6486964225769043, 12.415143013000488, -0.938720703125, -0.01318359375, -0.12451171875, 
358, 3639588968, 0.8381360769271851, 0.09579699486494064, -0.5259138941764832, -0.10858923196792603, 8.296339988708496, 3.2058448791503906, 3.9061365127563477, -4.937003135681152, 1.9340797662734985, 13.284107208251953, -0.939697265625, -0.01416015625, -0.12548828125, 
359, 3639597301, 0.8382809162139893, 0.09485846757888794, -0.5259772539138794, -0.10798713564872742, 8.234315872192383, 3.1113288402557373, 3.9918715953826904, -6.640760898590088, -0.742287814617157, 14.243285179138184, -0.94091796875, -0.0107421875, -0.126220703125, 
360, 3639605634, 0.8383904695510864, 0.0939004123210907, -0.5261129140853882, -0.10731151700019836, 8.186014175415039, 2.969155788421631, 4.181316375732422, -6.27196741104126, -1.8130912780761719, 15.263449668884277, -0.94140625, -0.01025390625, -0.123291015625, 
361, 3639613967, 0.8385566473007202, 0.09296740591526031, -0.5261751413345337, -0.10651686787605286, 8.164118766784668, 2.707620620727539, 4.326718807220459, -5.18820333480835, -0.307819128036499, 16.467803955078125, -0.9404296875, -0.006591796875, -0.125244140625, 
362, 3639622300, 0.83881676197052, 0.09208682179450989, -0.5260976552963257, -0.10561344027519226, 8.190138816833496, 2.5962092876434326, 4.319412708282471, -4.23635196685791, 2.140172243118286, 17.279264450073242, -0.940185546875, -0.004638671875, -0.123779296875, 
363, 3639630633, 0.8391278982162476, 0.09120983630418777, -0.5259478092193604, -0.10464546084403992, 8.22668170928955, 2.5150837898254395, 4.296319007873535, -3.8980398178100586, 3.430387496948242, 17.979534149169922, -0.940185546875, -0.001708984375, -0.125244140625, 
364, 3639638966, 0.8394199013710022, 0.09030673652887344, -0.5258352756500244, -0.10364621877670288, 8.172235488891602, 2.5137648582458496, 4.3193745613098145, -3.781494617462158, 2.9183075428009033, 18.57135009765625, -0.939697265625, 0.00244140625, -0.127197265625, 
365, 3639647299, 0.8397425413131714, 0.08943524211645126, -0.525681734085083, -0.10256096720695496, 8.159832954406738, 2.6246519088745117, 4.256096363067627, -2.924647092819214, 3.752486228942871, 19.309118270874023, -0.941162109375, 0.002685546875, -0.12890625, 
366, 3639655632, 0.8401132225990295, 0.0885884165763855, -0.5254620909690857, -0.10137873888015747, 8.115384101867676, 2.7309956550598145, 4.102969646453857, -2.1722030639648438, 4.9765143394470215, 20.233461380004883, -0.9384765625, 0.00732421875, -0.12744140625, 
367, 3639663965, 0.8404234647750854, 0.0877026915550232, -0.5253400206565857, -0.10020294785499573, 8.081092834472656, 2.848766803741455, 3.8983614444732666, -2.363567352294922, 3.394989013671875, 20.487117767333984, -0.93701171875, 0.00927734375, -0.13037109375, 
368, 3639672298, 0.8405430316925049, 0.08665770292282104, -0.5255082249641418, -0.09922221302986145, 8.189201354980469, 2.930699110031128, 3.869093894958496, -5.078241348266602, -1.8372713327407837, 19.4599609375, -0.93798828125, 0.011474609375, -0.12890625, 
369, 3639680631, 0.840470552444458, 0.08544614911079407, -0.5259778499603271, -0.09839573502540588, 8.450446128845215, 2.8185107707977295, 4.005954265594482, -7.39361572265625, -7.075486183166504, 18.984994888305664, -0.940673828125, 0.013427734375, -0.12841796875, 
370, 3639688964, 0.8404784798622131, 0.08425818383693695, -0.5263272523880005, -0.09748038649559021, 8.814949035644531, 2.5319268703460693, 4.056607246398926, -6.818960189819336, -5.012208461761475, 19.801733016967773, -0.936767578125, 0.01806640625, -0.12548828125, 
371, 3639697297, 0.8406513333320618, 0.08315663039684296, -0.526409387588501, -0.09648710489273071, 8.990159034729004, 2.4806060791015625, 4.242630481719971, -5.685683250427246, -0.47072574496269226, 20.014352798461914, -0.93896484375, 0.0205078125, -0.125732421875, 
372, 3639705630, 0.840894341468811, 0.0821249932050705, -0.5263651609420776, -0.09549134969711304, 8.860516548156738, 2.365373373031616, 4.576620578765869, -5.227674961090088, 1.5402101278305054, 19.459012985229492, -0.9404296875, 0.0234375, -0.126708984375, 
373, 3639713963, 0.8412513732910156, 0.0811430960893631, -0.5261436700820923, -0.09439942240715027, 8.709161758422852, 2.244656562805176, 4.638243198394775, -4.214785575866699, 4.634488105773926, 20.17813491821289, -0.939453125, 0.025390625, -0.128662109375, 
374, 3639722296, 0.8418130874633789, 0.08036816120147705, -0.5255931615829468, -0.09311231970787048, 8.656315803527832, 2.1966934204101562, 4.404386520385742, -1.1683298349380493, 10.364293098449707, 20.819795608520508, -0.938720703125, 0.030029296875, -0.128662109375, 
375, 3639730629, 0.8424268364906311, 0.07971739768981934, -0.5249472856521606, -0.09175357222557068, 8.513340950012207, 2.3213131427764893, 4.168116569519043, 0.707542359828949, 12.12670612335205, 20.728328704833984, -0.938720703125, 0.029541015625, -0.128173828125, 
376, 3639738962, 0.8428627252578735, 0.07902628183364868, -0.5245722532272339, -0.09048464894294739, 8.37594223022461, 2.462461233139038, 4.049087047576904, 0.029507610946893692, 7.509558200836182, 20.036155700683594, -0.939697265625, 0.036376953125, -0.13134765625, 
377, 3639747295, 0.8431025147438049, 0.07819993793964386, -0.5244982838630676, -0.08939126133918762, 8.439970016479492, 2.537652015686035, 3.9744651317596436, -2.215747356414795, 2.246778964996338, 19.05876350402832, -0.9404296875, 0.040771484375, -0.13232421875, 
378, 3639755628, 0.8431786298751831, 0.07724837958812714, -0.5246718525886536, -0.08847755193710327, 8.633661270141602, 2.5888113975524902, 4.046182632446289, -4.401589870452881, -2.1087310314178467, 17.953662872314453, -0.939453125, 0.04150390625, -0.130859375, 
379, 3639763961, 0.8432173728942871, 0.07623369991779327, -0.5248969793319702, -0.0876503586769104, 8.81829833984375, 2.5925650596618652, 4.198291301727295, -5.648491382598877, -3.1426241397857666, 17.421630859375, -0.93798828125, 0.044921875, -0.1318359375, 
380, 3639772294, 0.8432662487030029, 0.07526923716068268, -0.5250877141952515, -0.0868661105632782, 8.855238914489746, 2.5120317935943604, 4.359025478363037, -5.516679763793945, -2.699702262878418, 16.52126121520996, -0.937255859375, 0.0458984375, -0.13232421875, 
381, 3639780627, 0.8434079885482788, 0.07433690130710602, -0.5251151323318481, -0.08612397313117981, 8.8324556350708, 2.3745627403259277, 4.501964569091797, -5.684657096862793, -0.10451889038085938, 15.741640090942383, -0.938232421875, 0.04833984375, -0.133056640625, 
382, 3639788960, 0.8436613082885742, 0.07349082827568054, -0.5249519348144531, -0.08536306023597717, 8.788751602172852, 2.240487575531006, 4.541656970977783, -4.944432258605957, 2.997122049331665, 15.27495002746582, -0.938232421875, 0.048583984375, -0.131103515625, 
383, 3639797293, 0.8439838886260986, 0.07279054820537567, -0.5246683359146118, -0.0845123827457428, 8.730109214782715, 2.0594077110290527, 4.632574558258057, -2.680875778198242, 5.208168983459473, 15.263806343078613, -0.938720703125, 0.052978515625, -0.132568359375, 
384, 3639805626, 0.8444592356681824, 0.07219375669956207, -0.5241498947143555, -0.08348670601844788, 8.611398696899414, 1.9492980241775513, 4.606343746185303, -0.7780454158782959, 9.279732704162598, 16.449724197387695, -0.9375, 0.054931640625, -0.132568359375, 
385, 3639813959, 0.8451624512672424, 0.07164575159549713, -0.5232831835746765, -0.08227083086967468, 8.426627159118652, 1.9237751960754395, 4.39844274520874, 0.6481941342353821, 15.257278442382812, 18.252300262451172, -0.9365234375, 0.056396484375, -0.132568359375, 
386, 3639822292, 0.8459535837173462, 0.07099553942680359, -0.5222947001457214, -0.08097392320632935, 8.30037784576416, 1.9038838148117065, 4.144886493682861, -0.2952938675880432, 17.22289276123047, 19.881189346313477, -0.93505859375, 0.060791015625, -0.138427734375, 
387, 3639830625, 0.846603512763977, 0.07011322677135468, -0.521551251411438, -0.07973167300224304, 8.272181510925293, 2.016613245010376, 3.9745981693267822, -2.9057703018188477, 13.0836820602417, 21.000789642333984, -0.9365234375, 0.060302734375, -0.137939453125, 
388, 3639838958, 0.8470130562782288, 0.06898011267185211, -0.5212032794952393, -0.07863906025886536, 8.307472229003906, 2.092069149017334, 3.9029159545898438, -6.305190563201904, 6.298210620880127, 21.16871452331543, -0.937255859375, 0.06640625, -0.13916015625, 
389, 3639847291, 0.8472740650177002, 0.06771804392337799, -0.5210920572280884, -0.07765614986419678, 8.424578666687012, 2.206021785736084, 3.909573554992676, -8.10482120513916, 2.2740583419799805, 20.895666122436523, -0.931396484375, 0.069580078125, -0.1396484375, 
390, 3639855624, 0.8474268913269043, 0.06649579107761383, -0.5211348533630371, -0.07675215601921082, 8.50102710723877, 2.3273427486419678, 4.045250415802002, -8.031820297241211, -0.36729541420936584, 19.700428009033203, -0.935546875, 0.0712890625, -0.1396484375, 
391, 3639863957, 0.8474672436714172, 0.06540410220623016, -0.5213311910629272, -0.07590651512145996, 8.48123550415039, 2.1762712001800537, 4.385531902313232, -6.56199836730957, -2.833460807800293, 18.13255500793457, -0.93310546875, 0.077392578125, -0.1416015625, 
392, 3639872290, 0.8475410342216492, 0.06448712944984436, -0.5214454531669617, -0.07507792115211487, 8.46320915222168, 1.8544672727584839, 4.5786309242248535, -4.866309642791748, -1.5165297985076904, 16.6182918548584, -0.9345703125, 0.076904296875, -0.138671875, 
393, 3639880623, 0.8478275537490845, 0.06381352245807648, -0.52118980884552, -0.07418817281723022, 8.450418472290039, 1.6698414087295532, 4.535727024078369, -2.071615695953369, 4.668399810791016, 15.496051788330078, -0.933837890625, 0.07958984375, -0.139892578125, 
394, 3639888956, 0.8481878638267517, 0.06329114735126495, -0.5208037495613098, -0.07322174310684204, 8.297558784484863, 1.6442147493362427, 4.449291229248047, -0.04627212509512901, 6.897786617279053, 15.247746467590332, -0.93408203125, 0.0791015625, -0.139892578125, 
395, 3639897289, 0.8484358787536621, 0.06266896426677704, -0.5206047296524048, -0.07229074835777283, 8.208230972290039, 1.6795340776443481, 4.387772560119629, -1.0773990154266357, 3.8225154876708984, 15.623764038085938, -0.934326171875, 0.0859375, -0.141845703125, 
396, 3639905622, 0.8486388921737671, 0.061841294169425964, -0.5204987525939941, -0.07137948274612427, 8.249358177185059, 1.669776201248169, 4.358108043670654, -3.586775779724121, 2.151468515396118, 16.87574005126953, -0.932861328125, 0.0849609375, -0.141845703125, 
397, 3639913955, 0.8488324284553528, 0.06088244915008545, -0.5204280018806458, -0.07041069865226746, 8.394418716430664, 1.6302998065948486, 4.414135456085205, -4.570182800292969, 1.6329079866409302, 18.526655197143555, -0.9326171875, 0.090087890625, -0.140869140625, 
398, 3639922288, 0.8490128517150879, 0.05977635085582733, -0.5204037427902222, -0.06935614347457886, 8.538541793823242, 1.6610610485076904, 4.471511363983154, -5.711938858032227, 0.8860224485397339, 20.586862564086914, -0.93359375, 0.090087890625, -0.140869140625, 
399, 3639930621, 0.8491684198379517, 0.058576568961143494, -0.5204366445541382, -0.06821799278259277, 8.674015045166016, 1.7414140701293945, 4.457057952880859, -6.009114742279053, 0.06298542767763138, 22.293155670166016, -0.9306640625, 0.093017578125, -0.141357421875, 
400, 3639938954, 0.8492626547813416, 0.057381317019462585, -0.5205729007720947, -0.06701064109802246, 8.695856094360352, 1.809390902519226, 4.442469596862793, -5.4386091232299805, -1.5649409294128418, 23.059202194213867, -0.934326171875, 0.096435546875, -0.1435546875, 
401, 3639947287, 0.8491955995559692, 0.05630166828632355, -0.5209630131721497, -0.06573280692100525, 8.620526313781738, 1.8282679319381714, 4.6191301345825195, -3.1635003089904785, -5.49127197265625, 23.106843948364258, -0.935302734375, 0.10009765625, -0.14111328125, 
402, 3639955620, 0.8490873575210571, 0.055341318249702454, -0.5214009881019592, -0.06446102261543274, 8.539005279541016, 1.8955669403076172, 4.720573425292969, -1.7967242002487183, -6.27324914932251, 22.181760787963867, -0.933837890625, 0.1025390625, -0.1376953125, 
403, 3639963953, 0.8489571809768677, 0.0545182079076767, -0.5218532085418701, -0.06320667266845703, 8.452580451965332, 1.8093191385269165, 4.7577996253967285, -0.162970632314682, -6.445479393005371, 21.024045944213867, -0.92822265625, 0.108154296875, -0.14013671875, 
404, 3639972286, 0.8489885330200195, 0.053839296102523804, -0.5220322608947754, -0.06187579035758972, 8.529558181762695, 1.639114499092102, 4.5359320640563965, 1.583908200263977, -1.9599127769470215, 20.776844024658203, -0.9326171875, 0.108154296875, -0.139404296875, 
405, 3639980619, 0.8491929769515991, 0.05312734842300415, -0.5219305753707886, -0.06052762269973755, 8.637153625488281, 1.3218367099761963, 4.3907976150512695, 1.0620179176330566, 2.583888292312622, 21.184953689575195, -0.931640625, 0.11328125, -0.136962890625, 
406, 3639988952, 0.8493450284004211, 0.052184537053108215, -0.5219274163246155, -0.05922740697860718, 8.661486625671387, 1.1947834491729736, 4.431171894073486, -1.9652142524719238, 0.793682873249054, 22.28180503845215, -0.929931640625, 0.11474609375, -0.137451171875, 
407, 3639997285, 0.8493860960006714, 0.05094541609287262, -0.5221256613731384, -0.057959020137786865, 8.762103080749512, 1.2227805852890015, 4.484103679656982, -5.275881767272949, -2.5801615715026855, 24.133438110351562, -0.930908203125, 0.11865234375, -0.139892578125, 
408, 3640005618, 0.8494319915771484, 0.04958929121494293, -0.5223222374916077, -0.05667322874069214, 8.81904411315918, 1.3487415313720703, 4.450965404510498, -6.656899929046631, -2.6457085609436035, 25.136798858642578, -0.92822265625, 0.122802734375, -0.139404296875, 
409, 3640013951, 0.8493660688400269, 0.04825502634048462, -0.5226956605911255, -0.055354565382003784, 8.889912605285645, 1.4556077718734741, 4.6428046226501465, -5.949716091156006, -5.475749969482422, 25.39734649658203, -0.9306640625, 0.125732421875, -0.13720703125, 
410, 3640022284, 0.84918212890625, 0.046833813190460205, -0.5232575535774231, -0.05407494306564331, 8.95608139038086, 1.5748405456542969, 4.67072868347168, -6.921112060546875, -8.58360481262207, 25.62790298461914, -0.93115234375, 0.12939453125, -0.13720703125, 
411, 3640030617, 0.8490957021713257, 0.04538261890411377, -0.5236471891403198, -0.0528847873210907, 8.943404197692871, 1.7012622356414795, 4.568331241607666, -8.115785598754883, -5.953686237335205, 24.75688934326172, -0.927978515625, 0.132568359375, -0.134765625, 
412, 3640038950, 0.8490036725997925, 0.04406258463859558, -0.5240209698677063, -0.05176645517349243, 8.845283508300781, 1.7238935232162476, 4.640420913696289, -7.203456401824951, -5.788704872131348, 22.936918258666992, -0.928466796875, 0.135986328125, -0.134765625, 
413, 3640047283, 0.8488864898681641, 0.042808547616004944, -0.5244082808494568, -0.050805240869522095, 8.714898109436035, 1.8118029832839966, 4.657060623168945, -7.447483062744141, -6.145151615142822, 20.639522552490234, -0.928466796875, 0.138671875, -0.13232421875, 
414, 3640055616, 0.8487875461578369, 0.04174277186393738, -0.5247397422790527, -0.04991626739501953, 8.68702220916748, 1.873536229133606, 4.582648754119873, -5.913855075836182, -5.304749011993408, 18.39707374572754, -0.93212890625, 0.141845703125, -0.132568359375, 
415, 3640063949, 0.8486595749855042, 0.0409155935049057, -0.5250870585441589, -0.04911673069000244, 8.63249397277832, 1.734574317932129, 4.616456508636475, -3.645534038543701, -5.553897380828857, 15.6485595703125, -0.927734375, 0.14306640625, -0.132080078125, 
416, 3640072282, 0.8486455082893372, 0.04030248522758484, -0.5252292156219482, -0.048342734575271606, 8.68193531036377, 1.4463707208633423, 4.5658650398254395, -1.6352005004882812, -2.239952564239502, 13.737149238586426, -0.92431640625, 0.145263671875, -0.130859375, 
417, 3640080615, 0.848857045173645, 0.03981010615825653, -0.5249933004379272, -0.047593146562576294, 8.808534622192383, 1.1308914422988892, 4.553494930267334, -0.6858340501785278, 3.8977696895599365, 12.546212196350098, -0.926513671875, 0.149169921875, -0.133056640625, 
418, 3640088948, 0.8491214513778687, 0.039235830307006836, -0.5246656537055969, -0.046965211629867554, 8.898045539855957, 0.912839949131012, 4.393454551696777, -2.7026991844177246, 5.199332237243652, 11.677916526794434, -0.9248046875, 0.147705078125, -0.132080078125, 
419, 3640097281, 0.8493614792823792, 0.038559526205062866, -0.5243779420852661, -0.04639539122581482, 8.925732612609863, 0.8248425722122192, 4.294941425323486, -4.1729817390441895, 4.4923272132873535, 11.768588066101074, -0.923095703125, 0.151611328125, -0.133544921875, 
420, 3640105614, 0.8495025634765625, 0.037794336676597595, -0.5242512226104736, -0.04587090015411377, 8.97124195098877, 0.8512659668922424, 4.300990581512451, -5.484737873077393, 1.7852098941802979, 11.874069213867188, -0.927978515625, 0.154052734375, -0.132080078125, 
421, 3640113947, 0.8495711088180542, 0.03693795204162598, -0.5242433547973633, -0.045386165380477905, 8.99198055267334, 0.921555757522583, 4.404176235198975, -6.618271350860596, -0.17260155081748962, 12.1135892868042, -0.926025390625, 0.155029296875, -0.134033203125, 
422, 3640122280, 0.849623441696167, 0.03604656457901001, -0.5242609977722168, -0.04491803050041199, 8.972711563110352, 0.9597247838973999, 4.498345851898193, -7.226711750030518, -0.6464393734931946, 12.143659591674805, -0.925537109375, 0.15625, -0.132080078125, 
423, 3640130613, 0.8497361540794373, 0.03512507677078247, -0.5241779088973999, -0.044478803873062134, 8.932106018066406, 1.0273256301879883, 4.476477146148682, -7.774933338165283, 0.9609948992729187, 12.042098045349121, -0.925537109375, 0.15673828125, -0.134521484375, 
424, 3640138946, 0.8498771786689758, 0.03419303894042969, -0.5240417122840881, -0.044114887714385986, 8.849475860595703, 1.0690114498138428, 4.464425086975098, -8.592437744140625, 1.7140024900436401, 11.197930335998535, -0.92724609375, 0.15966796875, -0.1337890625, 
425, 3640147279, 0.8500141501426697, 0.0332350879907608, -0.5239036679267883, -0.04384931921958923, 8.7742338180542, 1.1693552732467651, 4.390067100524902, -9.499285697937012, 1.6729429960250854, 10.262039184570312, -0.9248046875, 0.16162109375, -0.13232421875, 
426, 3640155612, 0.8501097559928894, 0.032367050647735596, -0.5238224267959595, -0.04361468553543091, 8.759087562561035, 1.2764434814453125, 4.375979900360107, -8.721993446350098, 0.7221934795379639, 9.225762367248535, -0.92333984375, 0.162841796875, -0.1318359375, 
427, 3640163945, 0.8502267003059387, 0.03166124224662781, -0.5236937403678894, -0.04339855909347534, 8.774524688720703, 1.1761045455932617, 4.398497104644775, -6.898618221282959, 1.5486624240875244, 7.857320785522461, -0.92578125, 0.164306640625, -0.1298828125, 
428, 3640172278, 0.8505190014839172, 0.03115282952785492, -0.5232736468315125, -0.04310503602027893, 8.783098220825195, 0.8425002098083496, 4.432020664215088, -4.38278865814209, 6.339319229125977, 7.29242467880249, -0.92431640625, 0.165283203125, -0.134765625, 
429, 3640180611, 0.851065456867218, 0.030733615159988403, -0.5224363803863525, -0.0427740216255188, 8.758660316467285, 0.6413551568984985, 4.3968024253845215, -3.343080759048462, 13.144279479980469, 7.080057621002197, -0.923095703125, 0.165771484375, -0.134765625, 
430, 3640188944, 0.8516889810562134, 0.030249744653701782, -0.5214747786521912, -0.04244029521942139, 8.748419761657715, 0.4724765121936798, 4.333948135375977, -4.268319129943848, 15.08835220336914, 7.550027847290039, -0.921630859375, 0.167724609375, -0.1357421875, 
431, 3640197277, 0.8522833585739136, 0.029569268226623535, -0.5205672979354858, -0.04212811589241028, 8.684021949768066, 0.41656509041786194, 4.2295684814453125, -6.680360317230225, 14.12366771697998, 8.712198257446289, -0.920654296875, 0.169189453125, -0.140625, 
432, 3640205610, 0.8527010679244995, 0.028830111026763916, -0.5199514627456665, -0.04178959131240845, 8.690510749816895, 0.3814336657524109, 4.307088375091553, -6.832483291625977, 9.445890426635742, 9.48910140991211, -0.919189453125, 0.170166015625, -0.138671875, 
433, 3640213943, 0.8530066013336182, 0.028042063117027283, -0.5195236206054688, -0.04140952229499817, 8.709299087524414, 0.39416906237602234, 4.371225833892822, -6.978715419769287, 6.425614356994629, 10.324384689331055, -0.919189453125, 0.172119140625, -0.14111328125, 
434, 3640222276, 0.853242039680481, 0.02721448242664337, -0.5192155838012695, -0.04097282886505127, 8.643364906311035, 0.47363150119781494, 4.500568866729736, -7.026383876800537, 4.491790294647217, 11.257587432861328, -0.922119140625, 0.170654296875, -0.1416015625, 
435, 3640230609, 0.8534759283065796, 0.026328012347221375, -0.5189115405082703, -0.040532588958740234, 8.529644012451172, 0.568286120891571, 4.561793804168701, -7.576832294464111, 4.430443286895752, 11.753246307373047, -0.920166015625, 0.173583984375, -0.1416015625, 
436, 3640238942, 0.8537841439247131, 0.025463372468948364, -0.5184852480888367, -0.0400463342666626, 8.46822738647461, 0.6291738748550415, 4.565723419189453, -7.200841426849365, 6.395209312438965, 12.102011680603027, -0.91845703125, 0.175537109375, -0.1435546875, 
437, 3640247275, 0.8541049361228943, 0.024701789021492004, -0.518031656742096, -0.039549678564071655, 8.499255180358887, 0.6999024152755737, 4.441436290740967, -5.828890800476074, 6.895352840423584, 11.513240814208984, -0.919921875, 0.177978515625, -0.14453125, 
438, 3640255608, 0.8543986082077026, 0.02398538589477539, -0.5176170468330383, -0.03907370567321777, 8.51522445678711, 0.7923133969306946, 4.406367301940918, -5.522186756134033, 6.233839988708496, 10.921988487243652, -0.9169921875, 0.17822265625, -0.1435546875, 
439, 3640263941, 0.8545927405357361, 0.023219034075737, -0.5173608064651489, -0.03868404030799866, 8.631678581237793, 0.8942459225654602, 4.33661413192749, -6.490302562713623, 3.6339683532714844, 10.29149341583252, -0.9169921875, 0.1806640625, -0.14599609375, 
440, 3640272274, 0.8547451496124268, 0.022465690970420837, -0.5171664953231812, -0.03835636377334595, 8.69245433807373, 0.9503594040870667, 4.3676371574401855, -6.847979545593262, 2.574025869369507, 9.438359260559082, -0.91943359375, 0.18212890625, -0.146240234375, 
441, 3640280607, 0.8548375368118286, 0.021771609783172607, -0.5170644521713257, -0.03806889057159424, 8.80481243133545, 0.888230562210083, 4.49889612197876, -6.278805732727051, 1.102744221687317, 8.559562683105469, -0.916259765625, 0.184814453125, -0.14453125, 
442, 3640288940, 0.8549056649208069, 0.021107181906700134, -0.5169993042945862, -0.0377998948097229, 8.929648399353027, 0.73222815990448, 4.601867198944092, -6.124992370605469, 0.4831869602203369, 8.110876083374023, -0.914306640625, 0.187255859375, -0.1435546875, 
443, 3640297273, 0.8550274968147278, 0.02046191692352295, -0.516842782497406, -0.03753986954689026, 8.999829292297363, 0.6340206265449524, 4.76570987701416, -5.971305847167969, 1.9677625894546509, 7.871127128601074, -0.916259765625, 0.187744140625, -0.146240234375, 
444, 3640305606, 0.8551957607269287, 0.019895359873771667, -0.5166044235229492, -0.03729355335235596, 9.06204605102539, 0.6099739670753479, 4.736678123474121, -5.255183696746826, 3.2749340534210205, 7.151443958282471, -0.915771484375, 0.185791015625, -0.146484375, 
445, 3640313939, 0.855487048625946, 0.019429117441177368, -0.5161596536636353, -0.037015318870544434, 9.014215469360352, 0.6016893982887268, 4.7930450439453125, -3.986996650695801, 6.636418342590332, 6.820891857147217, -0.917724609375, 0.1875, -0.148193359375, 
446, 3640322272, 0.8558524250984192, 0.019092634320259094, -0.5155876874923706, -0.03670957684516907, 8.917994499206543, 0.5826210379600525, 4.738693714141846, -2.293870449066162, 8.756124496459961, 6.22766637802124, -0.913330078125, 0.189208984375, -0.1474609375, 
447, 3640330605, 0.856220006942749, 0.018869563937187195, -0.5150083303451538, -0.03638365864753723, 8.871673583984375, 0.5382857918739319, 4.7957844734191895, -0.7987672090530396, 8.920697212219238, 5.672145366668701, -0.916259765625, 0.191162109375, -0.148193359375, 
