sep=,
PacketCounter,SampleTimeFine,Quat_W,Quat_X,Quat_Y,Quat_Z,Acc_X,Acc_Y,Acc_Z,Gyr_X,Gyr_Y,Gyr_Z,Mag_X,Mag_Y,Mag_Z,
0, 3433413882, 0.8779938220977783, -0.04442451894283295, -0.45842641592025757, -0.13047096133232117, 0, 0, 0, 0, 0, 0, -0.896728515625, 0.153564453125, -0.2177734375, 
1, 3433422215, 0.8779314756393433, -0.04459036886692047, -0.45846524834632874, -0.13069766759872437, 8.122138023376465, 0.5292143821716309, 5.826108455657959, -3.759798526763916, -1.539505124092102, -1.7397574186325073, -0.897705078125, 0.15478515625, -0.21533203125, 
2, 3433430548, 0.8779215216636658, -0.04461844265460968, -0.4584241211414337, -0.13089832663536072, 8.102397918701172, 0.5016198754310608, 5.6565842628479, -1.8656256198883057, 0.002305281115695834, -2.03816294670105, -0.89697265625, 0.151123046875, -0.2138671875, 
3, 3433438881, 0.877962589263916, -0.04446430504322052, -0.45831814408302307, -0.1310473084449768, 8.076990127563477, 0.5236127376556396, 5.549481391906738, 0.5410494208335876, 1.3991262912750244, -2.444507122039795, -0.898193359375, 0.151123046875, -0.21630859375, 
4, 3433447214, 0.8778917789459229, -0.04444804787635803, -0.4583706259727478, -0.1313435137271881, 8.039202690124512, 0.5116031169891357, 5.709822177886963, -1.8006936311721802, -1.37501060962677, -3.6376442909240723, -0.89892578125, 0.150146484375, -0.21435546875, 
5, 3433455547, 0.877710223197937, -0.044564470648765564, -0.45860186219215393, -0.13170990347862244, 8.0637788772583, 0.4378169775009155, 5.75114107131958, -3.589975595474243, -4.426793098449707, -3.960639238357544, -0.896484375, 0.150634765625, -0.21630859375, 
6, 3433463880, 0.8776918053627014, -0.0444895476102829, -0.45855772495269775, -0.1320096254348755, 8.195340156555176, 0.4715816080570221, 5.570138931274414, -1.300088882446289, 0.2256101369857788, -3.913074016571045, -0.8955078125, 0.15087890625, -0.2138671875, 
7, 3433472213, 0.877805233001709, -0.04439082741737366, -0.458260715007782, -0.1323213279247284, 8.178112030029297, 0.5649074912071228, 5.5310163497924805, -1.5424251556396484, 4.155781269073486, -3.869145154953003, -0.89990234375, 0.148193359375, -0.2158203125, 
8, 3433480546, 0.8778693675994873, -0.04443769156932831, -0.4580225944519043, -0.13270390033721924, 8.02131175994873, 0.511489748954773, 5.5408477783203125, -3.5527329444885254, 2.921738862991333, -3.8606419563293457, -0.89794921875, 0.148193359375, -0.21630859375, 
9, 3433488879, 0.877865195274353, -0.044615283608436584, -0.45787933468818665, -0.13316553831100464, 8.030071258544922, 0.3975852429866791, 5.60996150970459, -5.533712387084961, 1.151641607284546, -4.19080924987793, -0.8994140625, 0.148193359375, -0.2177734375, 
10, 3433497212, 0.8778424263000488, -0.04481975734233856, -0.4577774405479431, -0.13359525799751282, 8.110877990722656, 0.35890287160873413, 5.7158203125, -5.557072162628174, 0.47178858518600464, -3.6788060665130615, -0.89697265625, 0.149169921875, -0.21533203125, 
11, 3433505545, 0.8779239654541016, -0.04486694931983948, -0.45753204822540283, -0.13388511538505554, 8.104247093200684, 0.4017762541770935, 5.663328170776367, -3.0640387535095215, 3.0543692111968994, -2.752697706222534, -0.8974609375, 0.146728515625, -0.21533203125, 
12, 3433513878, 0.8780445456504822, -0.04476387798786163, -0.4572431445121765, -0.13411584496498108, 7.966099739074707, 0.4253557026386261, 5.677459239959717, -0.8466401696205139, 4.0745849609375, -2.834458589553833, -0.900390625, 0.14599609375, -0.21533203125, 
13, 3433522211, 0.8780845999717712, -0.04469214379787445, -0.45709529519081116, -0.1343810260295868, 7.932385444641113, 0.3356722891330719, 5.661866188049316, -1.2242963314056396, 1.825526475906372, -3.272589683532715, -0.89990234375, 0.14697265625, -0.2177734375, 
14, 3433530544, 0.8780888319015503, -0.044592395424842834, -0.45702341198921204, -0.13463115692138672, 8.034454345703125, 0.29910174012184143, 5.609540939331055, -0.6796353459358215, 0.7278797626495361, -3.3948726654052734, -0.8994140625, 0.14697265625, -0.21875, 
15, 3433538877, 0.8781329393386841, -0.04440318048000336, -0.4569007158279419, -0.13482218980789185, 8.080068588256836, 0.3109128773212433, 5.643187046051025, 0.6294954419136047, 1.7149242162704468, -3.183119058609009, -0.9013671875, 0.146484375, -0.21923828125, 
16, 3433547210, 0.8782281875610352, -0.0442277193069458, -0.45668312907218933, -0.13499650359153748, 8.051079750061035, 0.3240642845630646, 5.699665546417236, 0.4959428310394287, 3.152036428451538, -2.698190689086914, -0.8974609375, 0.146484375, -0.21923828125, 
17, 3433555543, 0.8783572912216187, -0.04411427676677704, -0.45639297366142273, -0.13517451286315918, 8.047533988952637, 0.37564817070961, 5.720591068267822, -0.44690436124801636, 4.1237382888793945, -2.274582624435425, -0.89697265625, 0.14501953125, -0.219482421875, 
18, 3433563876, 0.8784986734390259, -0.04401950538158417, -0.4560829699039459, -0.13533279299736023, 8.019569396972656, 0.40285083651542664, 5.704282283782959, -0.520827054977417, 4.399040222167969, -1.8556106090545654, -0.89697265625, 0.14599609375, -0.21923828125, 
19, 3433572209, 0.8786332011222839, -0.04388844966888428, -0.4558035731315613, -0.13544362783432007, 7.980321884155273, 0.40750226378440857, 5.724867820739746, 0.21405819058418274, 4.019744396209717, -1.5699349641799927, -0.8974609375, 0.1455078125, -0.22119140625, 
20, 3433580542, 0.8787602186203003, -0.043709784746170044, -0.4555496871471405, -0.1355316936969757, 7.970032215118408, 0.4096553921699524, 5.749176502227783, 1.0287445783615112, 3.744442939758301, -1.5952162742614746, -0.89892578125, 0.14697265625, -0.2236328125, 
21, 3433588875, 0.8788978457450867, -0.04350529611110687, -0.45528411865234375, -0.13559702038764954, 7.9511823654174805, 0.38130810856819153, 5.7674736976623535, 1.4677726030349731, 3.987111806869507, -1.454235315322876, -0.896484375, 0.14501953125, -0.221923828125, 
22, 3433597208, 0.8790446519851685, -0.043269991874694824, -0.4550113081932068, -0.13563689589500427, 7.973301410675049, 0.350190132856369, 5.727365970611572, 1.8912014961242676, 4.1650285720825195, -1.3797492980957031, -0.8974609375, 0.142578125, -0.222412109375, 
23, 3433605541, 0.879181981086731, -0.04302032291889191, -0.45476773381233215, -0.13564220070838928, 7.9885573387146, 0.3638778030872345, 5.703848361968994, 2.377359628677368, 3.761988401412964, -1.0527065992355347, -0.896484375, 0.143310546875, -0.227783203125, 
24, 3433613874, 0.8793066740036011, -0.04274804890155792, -0.4545651078224182, -0.13559922575950623, 7.9874491691589355, 0.3944019079208374, 5.68560791015625, 3.0749123096466064, 3.2077219486236572, -0.6309939026832581, -0.895751953125, 0.14208984375, -0.222900390625, 
25, 3433622207, 0.8794212341308594, -0.04245185852050781, -0.4543939232826233, -0.1355227828025818, 7.950851917266846, 0.4063278138637543, 5.6999192237854, 3.5361990928649902, 2.7799129486083984, -0.46749821305274963, -0.896484375, 0.14453125, -0.223876953125, 
26, 3433630540, 0.8795395493507385, -0.04218243062496185, -0.4542172849178314, -0.13543161749839783, 7.952544689178467, 0.4128236770629883, 5.725236892700195, 3.386227607727051, 2.819589614868164, -0.05795220658183098, -0.89599609375, 0.14404296875, -0.226806640625, 
27, 3433638873, 0.8796919584274292, -0.04189826548099518, -0.45398789644241333, -0.13529905676841736, 7.966429710388184, 0.4260198473930359, 5.727610111236572, 3.6318416595458984, 3.6643717288970947, 0.3766060769557953, -0.896484375, 0.144287109375, -0.226806640625, 
28, 3433647206, 0.8798529505729675, -0.04159402847290039, -0.4537585973739624, -0.13511571288108826, 7.938582897186279, 0.4374304711818695, 5.737006187438965, 4.310748100280762, 3.7344272136688232, 0.9484439492225647, -0.89453125, 0.14404296875, -0.225341796875, 
29, 3433655539, 0.880010724067688, -0.04124318063259125, -0.45355224609375, -0.13488781452178955, 7.9065470695495605, 0.45903414487838745, 5.775826930999756, 5.147974491119385, 3.4910151958465576, 1.1587879657745361, -0.89892578125, 0.144287109375, -0.22802734375, 
30, 3433663872, 0.8801560401916504, -0.04091046750545502, -0.4533681571483612, -0.13466015458106995, 7.925209045410156, 0.46720632910728455, 5.777062892913818, 5.005815505981445, 3.1163814067840576, 1.2532533407211304, -0.8974609375, 0.142822265625, -0.228759765625, 
31, 3433672205, 0.8802846074104309, -0.04058542847633362, -0.45321962237358093, -0.13441678881645203, 7.921596050262451, 0.4716285765171051, 5.800510883331299, 4.9520769119262695, 2.5505118370056152, 1.3682613372802734, -0.895751953125, 0.142333984375, -0.227294921875, 
32, 3433680538, 0.8804054260253906, -0.04027150571346283, -0.45308634638786316, -0.13416942954063416, 7.932241916656494, 0.47712045907974243, 5.830800533294678, 4.980867385864258, 2.303180694580078, 1.5337291955947876, -0.896484375, 0.143310546875, -0.226318359375, 
33, 3433688871, 0.8805185556411743, -0.03993959724903107, -0.4529792070388794, -0.1338878870010376, 7.9162445068359375, 0.4767652750015259, 5.872481346130371, 5.3922319412231445, 1.9465028047561646, 1.776347279548645, -0.8955078125, 0.142822265625, -0.229736328125, 
34, 3433697204, 0.8806437849998474, -0.03960020840167999, -0.45285820960998535, -0.13357391953468323, 7.940610885620117, 0.4874117374420166, 5.859531879425049, 5.728854179382324, 2.1945509910583496, 2.183382987976074, -0.897216796875, 0.141357421875, -0.229736328125, 
35, 3433705537, 0.8807926774024963, -0.03926464915275574, -0.4526982307434082, -0.1332334280014038, 7.951794624328613, 0.49246296286582947, 5.832275867462158, 5.78354024887085, 2.786905527114868, 2.597283363342285, -0.896484375, 0.145751953125, -0.230712890625, 
36, 3433713870, 0.8809574842453003, -0.038891494274139404, -0.45251989364624023, -0.13285821676254272, 7.962138652801514, 0.48899132013320923, 5.792200565338135, 6.43583345413208, 3.1631791591644287, 2.8202552795410156, -0.89501953125, 0.143310546875, -0.229248046875, 
37, 3433722203, 0.881136953830719, -0.038464248180389404, -0.4523310661315918, -0.13243544101715088, 7.934170722961426, 0.4570050537586212, 5.746255397796631, 7.3082275390625, 3.446753740310669, 3.052217960357666, -0.89404296875, 0.143798828125, -0.229736328125, 
38, 3433730536, 0.8812326192855835, -0.03809671103954315, -0.45229196548461914, -0.13203728199005127, 7.849621772766113, 0.4841422736644745, 5.906222343444824, 6.728424549102783, 1.0224947929382324, 2.933931589126587, -0.8935546875, 0.142822265625, -0.231201171875, 
39, 3433738869, 0.8813107013702393, -0.03780451416969299, -0.45227575302124023, -0.1316555142402649, 7.913142681121826, 0.4869619607925415, 5.908158779144287, 5.667353630065918, 0.4993751049041748, 3.1118733882904053, -0.89453125, 0.145263671875, -0.232666015625, 
40, 3433747202, 0.8814685344696045, -0.03743287920951843, -0.4521217346191406, -0.13123363256454468, 7.967360496520996, 0.4920029044151306, 5.759482383728027, 6.74935245513916, 2.7972285747528076, 3.3669919967651367, -0.8935546875, 0.146728515625, -0.233154296875, 
41, 3433755535, 0.8816823363304138, -0.03700342774391174, -0.4518643617630005, -0.13080397248268127, 7.8949198722839355, 0.5116538405418396, 5.68955659866333, 7.223188877105713, 4.487076759338379, 3.1805968284606934, -0.8955078125, 0.142333984375, -0.233642578125, 
42, 3433763868, 0.8817944526672363, -0.03668196499347687, -0.4517858028411865, -0.13040980696678162, 7.880373001098633, 0.5257390141487122, 5.7255167961120605, 6.081203460693359, 1.5213316679000854, 3.223115921020508, -0.896484375, 0.142822265625, -0.233154296875, 
43, 3433772201, 0.8818044662475586, -0.036462292075157166, -0.4518886208534241, -0.13004779815673828, 7.914470672607422, 0.48476576805114746, 5.7891154289245605, 4.920443534851074, -1.477954387664795, 3.190432548522949, -0.89404296875, 0.143310546875, -0.232666015625, 
44, 3433780534, 0.8818264007568359, -0.036205679178237915, -0.4519822597503662, -0.129644513130188, 7.9453325271606445, 0.4690712094306946, 5.829312324523926, 5.604368686676025, -1.2507046461105347, 3.4890429973602295, -0.89501953125, 0.143798828125, -0.233642578125, 
45, 3433788867, 0.881916344165802, -0.035914838314056396, -0.4519602060317993, -0.12918999791145325, 7.961536407470703, 0.5023955702781677, 5.853018283843994, 6.130588531494141, 0.6083381175994873, 4.051608562469482, -0.89404296875, 0.143310546875, -0.235595703125, 
46, 3433797200, 0.882042646408081, -0.035644978284835815, -0.4518619477748871, -0.12874609231948853, 7.944772720336914, 0.493066668510437, 5.823463439941406, 5.736922264099121, 1.7318296432495117, 4.179141521453857, -0.89404296875, 0.143798828125, -0.233642578125, 
47, 3433805533, 0.8821530342102051, -0.03538122773170471, -0.45179709792137146, -0.1282881498336792, 7.957679748535156, 0.5189900994300842, 5.828283786773682, 5.764381408691406, 1.2046375274658203, 4.3231706619262695, -0.89404296875, 0.144287109375, -0.235107421875, 
48, 3433813866, 0.8822379112243652, -0.035160958766937256, -0.45177555084228516, -0.1278395652770996, 7.95208215713501, 0.5172755718231201, 5.875799655914307, 5.281169414520264, 0.45437097549438477, 4.4331583976745605, -0.8935546875, 0.145263671875, -0.234619140625, 
49, 3433822199, 0.8823410868644714, -0.034911975264549255, -0.4517282247543335, -0.12736257910728455, 7.968294143676758, 0.5203325748443604, 5.884616851806641, 5.690663814544678, 0.9089468717575073, 4.596782207489014, -0.89453125, 0.146240234375, -0.233642578125, 
50, 3433830532, 0.8824924230575562, -0.03464604914188385, -0.45159024000167847, -0.1268756091594696, 7.972283840179443, 0.5402301549911499, 5.8858466148376465, 5.901597499847412, 2.3408596515655518, 4.78870964050293, -0.89501953125, 0.147705078125, -0.235107421875, 
51, 3433838865, 0.882671594619751, -0.03441034257411957, -0.4513910710811615, -0.12640142440795898, 7.9538187980651855, 0.5460635423660278, 5.8690009117126465, 5.264366626739502, 3.2010884284973145, 4.835789203643799, -0.89404296875, 0.145263671875, -0.234619140625, 
52, 3433847198, 0.8828405141830444, -0.03421424329280853, -0.4512026607990265, -0.12594696879386902, 7.921004772186279, 0.5680661201477051, 5.822911262512207, 4.771060943603516, 2.9565486907958984, 4.881202220916748, -0.89306640625, 0.146240234375, -0.235595703125, 
53, 3433855531, 0.8829918503761292, -0.03402233123779297, -0.45105254650115967, -0.1254746913909912, 7.899845123291016, 0.5383951663970947, 5.828324317932129, 4.791732311248779, 2.357201337814331, 5.015344142913818, -0.892578125, 0.148193359375, -0.237548828125, 
54, 3433863864, 0.883131742477417, -0.033840954303741455, -0.45092183351516724, -0.1250077188014984, 7.885945796966553, 0.5311667323112488, 5.82255744934082, 4.757358074188232, 2.0447590351104736, 5.048259258270264, -0.8935546875, 0.148681640625, -0.239013671875, 
55, 3433872197, 0.8832820653915405, -0.03366580605506897, -0.4507746398448944, -0.12452280521392822, 7.883816719055176, 0.5555063486099243, 5.847769260406494, 4.65318489074707, 2.2797951698303223, 5.255452632904053, -0.89208984375, 0.147705078125, -0.239501953125, 
56, 3433880530, 0.8834313154220581, -0.03351376950740814, -0.4506279230117798, -0.12403619289398193, 7.833300590515137, 0.5805772542953491, 5.830012321472168, 4.498448848724365, 2.2367632389068604, 5.4895405769348145, -0.89111328125, 0.149169921875, -0.238525390625, 
57, 3433888863, 0.8835535049438477, -0.03339776396751404, -0.45053112506866455, -0.12354776263237, 7.789289474487305, 0.5477691292762756, 5.843228340148926, 4.14609956741333, 1.4010218381881714, 5.667277812957764, -0.8916015625, 0.150146484375, -0.240478515625, 
58, 3433897196, 0.8836297392845154, -0.033316969871520996, -0.4505264461040497, -0.12303823232650757, 7.783058166503906, 0.5535843372344971, 5.868077754974365, 3.9340131282806396, -0.07849482446908951, 5.995267868041992, -0.891357421875, 0.151611328125, -0.239501953125, 
59, 3433905529, 0.8836663365364075, -0.03328375518321991, -0.4505966901779175, -0.12252601981163025, 7.811600685119629, 0.5804259181022644, 5.848606586456299, 3.41414737701416, -1.3205803632736206, 6.171622276306152, -0.89013671875, 0.15087890625, -0.239013671875, 
60, 3433913862, 0.8836864233016968, -0.03328421711921692, -0.4506917893886566, -0.12203118205070496, 7.814895153045654, 0.5850315690040588, 5.870991230010986, 3.047377109527588, -1.763681173324585, 6.2056121826171875, -0.892333984375, 0.151123046875, -0.240478515625, 
61, 3433922195, 0.8837041854858398, -0.03327322006225586, -0.45079123973846436, -0.12153688073158264, 7.840141296386719, 0.585673987865448, 5.861027717590332, 3.084799289703369, -1.8216971158981323, 6.053488731384277, -0.892822265625, 0.15380859375, -0.23974609375, 
62, 3433930528, 0.8837054967880249, -0.03326413035392761, -0.45091497898101807, -0.12106993794441223, 7.856569290161133, 0.6189087629318237, 5.83295202255249, 3.030932664871216, -2.1984827518463135, 5.762972831726074, -0.893310546875, 0.151611328125, -0.23828125, 
63, 3433938861, 0.8836745023727417, -0.03325587511062622, -0.45109301805496216, -0.12063342332839966, 7.854190349578857, 0.6298724412918091, 5.807635307312012, 2.9060375690460205, -3.0490036010742188, 5.326250076293945, -0.890869140625, 0.15380859375, -0.239013671875, 
64, 3433947194, 0.8836062550544739, -0.03327716886997223, -0.4513280987739563, -0.12024849653244019, 7.867403984069824, 0.6211356520652771, 5.816642761230469, 2.3055624961853027, -3.9968321323394775, 4.787684440612793, -0.890869140625, 0.154296875, -0.239501953125, 
65, 3433955527, 0.8835073709487915, -0.0333084911108017, -0.45161172747612, -0.11990106105804443, 7.8998332023620605, 0.6354374289512634, 5.822659969329834, 1.8675596714019775, -4.788235664367676, 4.226912498474121, -0.889892578125, 0.1533203125, -0.240478515625, 
66, 3433963860, 0.883399248123169, -0.03333134949207306, -0.45190173387527466, -0.11959916353225708, 7.881128787994385, 0.6398707032203674, 5.793453693389893, 1.8436100482940674, -4.87598991394043, 3.697798728942871, -0.893310546875, 0.1533203125, -0.2373046875, 
67, 3433972193, 0.8832963705062866, -0.03335115313529968, -0.4521717429161072, -0.11933368444442749, 7.919246673583984, 0.637703537940979, 5.789478778839111, 1.6456633806228638, -4.578941345214844, 3.2794928550720215, -0.894287109375, 0.1552734375, -0.234375, 
68, 3433980526, 0.8832011222839355, -0.03337286412715912, -0.4524218738079071, -0.11908435821533203, 7.936116695404053, 0.6410190463066101, 5.768505573272705, 1.472588062286377, -4.286247730255127, 3.092099189758301, -0.891357421875, 0.15625, -0.23681640625, 
69, 3433988859, 0.8831069469451904, -0.03342251479625702, -0.4526594281196594, -0.1188642680644989, 7.904180526733398, 0.6678930521011353, 5.7371110916137695, 0.8602285385131836, -4.1654253005981445, 2.8796546459198, -0.892822265625, 0.15576171875, -0.23486328125, 
70, 3433997192, 0.882987916469574, -0.03351999819278717, -0.45292896032333374, -0.11869430541992188, 7.914101600646973, 0.6832606196403503, 5.735066890716553, 0.0795322060585022, -4.7562174797058105, 2.552381753921509, -0.892333984375, 0.1552734375, -0.2353515625, 
71, 3434005525, 0.8828749060630798, -0.03363950550556183, -0.4531787037849426, -0.11854797601699829, 7.970458984375, 0.6707828640937805, 5.767608165740967, -0.4135546088218689, -4.509706497192383, 2.397338628768921, -0.891357421875, 0.156982421875, -0.2353515625, 
72, 3434013858, 0.8827564120292664, -0.03377464413642883, -0.4534265398979187, -0.11844435334205627, 7.981020927429199, 0.65123450756073, 5.717398166656494, -0.8276087641716003, -4.519900798797607, 1.9911224842071533, -0.889892578125, 0.156982421875, -0.23388671875, 
73, 3434022191, 0.8826462626457214, -0.033937275409698486, -0.4536423087120056, -0.11839261651039124, 8.015603065490723, 0.6349834203720093, 5.734892845153809, -1.5276458263397217, -4.10256814956665, 1.5747120380401611, -0.890869140625, 0.157470703125, -0.2353515625, 
74, 3434030524, 0.8825395107269287, -0.03410923480987549, -0.45383673906326294, -0.11839467287063599, 7.999443531036377, 0.621812105178833, 5.733676433563232, -2.0158534049987793, -3.80977201461792, 0.9827157855033875, -0.890869140625, 0.156005859375, -0.2333984375, 
75, 3434038857, 0.8824432492256165, -0.034270331263542175, -0.4540006220340729, -0.1184363067150116, 8.01699447631836, 0.6036311984062195, 5.717746257781982, -2.224020004272461, -3.3424909114837646, 0.4450986087322235, -0.894287109375, 0.157958984375, -0.2333984375, 
76, 3434047190, 0.8823584318161011, -0.034407734870910645, -0.4541342854499817, -0.11851602792739868, 8.038224220275879, 0.5838069319725037, 5.725620746612549, -2.168309211730957, -2.843372344970703, -0.11220315843820572, -0.893798828125, 0.156982421875, -0.23193359375, 
77, 3434055523, 0.8822805881500244, -0.03454594314098358, -0.454243004322052, -0.11863809823989868, 8.02639389038086, 0.550329864025116, 5.764389991760254, -2.516918659210205, -2.4825189113616943, -0.6117319464683533, -0.894287109375, 0.1552734375, -0.23291015625, 
78, 3434063856, 0.8822131156921387, -0.03469721972942352, -0.45432060956954956, -0.11879932880401611, 8.04079532623291, 0.5629810094833374, 5.748006343841553, -2.9303576946258545, -2.038726329803467, -0.9584717154502869, -0.893798828125, 0.156494140625, -0.23095703125, 
79, 3434072189, 0.882148265838623, -0.034849196672439575, -0.45438694953918457, -0.11898252367973328, 8.021003723144531, 0.5425163507461548, 5.717342853546143, -3.2074782848358154, -1.8835809230804443, -1.2798534631729126, -0.892333984375, 0.15576171875, -0.234375, 
80, 3434080522, 0.8820845484733582, -0.03501830995082855, -0.45444363355636597, -0.11918920278549194, 7.997498989105225, 0.5227851271629333, 5.711076259613037, -3.4631597995758057, -1.7689062356948853, -1.3806201219558716, -0.892822265625, 0.156005859375, -0.23291015625, 
81, 3434088855, 0.8820106983184814, -0.03520621359348297, -0.4545102119445801, -0.11942532658576965, 7.968399524688721, 0.5259458422660828, 5.7082200050354, -3.8928134441375732, -1.9724626541137695, -1.6524128913879395, -0.893310546875, 0.156982421875, -0.228515625, 
82, 3434097188, 0.881918728351593, -0.0354190319776535, -0.4545970559120178, -0.11970984935760498, 7.950020790100098, 0.5312560200691223, 5.697640419006348, -4.443109035491943, -2.344637155532837, -2.1150825023651123, -0.893798828125, 0.159423828125, -0.22998046875, 
83, 3434105521, 0.8817727565765381, -0.03566034138202667, -0.4547649919986725, -0.12007507681846619, 7.971260070800781, 0.49546876549720764, 5.658327102661133, -5.30595064163208, -3.6828784942626953, -3.1148831844329834, -0.892822265625, 0.156005859375, -0.23046875, 
84, 3434113854, 0.8815658688545227, -0.03594896197319031, -0.45503607392311096, -0.12048041820526123, 7.999147415161133, 0.4132991135120392, 5.667036056518555, -5.870821952819824, -5.363659858703613, -3.385139226913452, -0.893310546875, 0.157470703125, -0.22998046875, 
85, 3434122187, 0.8813421726226807, -0.03624333441257477, -0.4553416669368744, -0.12087374925613403, 7.999914646148682, 0.40902626514434814, 5.762713432312012, -5.941721439361572, -5.912367343902588, -3.3283777236938477, -0.895263671875, 0.156005859375, -0.22802734375, 
86, 3434130520, 0.8811623454093933, -0.036487266421318054, -0.4555749297142029, -0.1212334930896759, 8.023222923278809, 0.41612082719802856, 5.805910110473633, -5.092507362365723, -4.684600353240967, -3.0476715564727783, -0.891357421875, 0.153564453125, -0.227294921875, 
87, 3434138853, 0.8810642957687378, -0.03664840757846832, -0.45567044615745544, -0.12153804302215576, 8.010783195495605, 0.4572470784187317, 5.742156982421875, -4.062507152557373, -2.4027562141418457, -2.7717034816741943, -0.892822265625, 0.156494140625, -0.22802734375, 
88, 3434147186, 0.8809995651245117, -0.03676408529281616, -0.45571017265319824, -0.12182247638702393, 8.006147384643555, 0.4954935312271118, 5.668854713439941, -3.331502676010132, -1.442401647567749, -2.6481149196624756, -0.894287109375, 0.154541015625, -0.22705078125, 
89, 3434155519, 0.8809043765068054, -0.03690333664417267, -0.45580506324768066, -0.12211284041404724, 8.000043869018555, 0.5246884822845459, 5.638111114501953, -3.6190478801727295, -2.341512441635132, -2.672806978225708, -0.895263671875, 0.157470703125, -0.22900390625, 
90, 3434163852, 0.8807622194290161, -0.03709873557090759, -0.45598477125167847, -0.12240830063819885, 8.018755912780762, 0.5221397280693054, 5.665901184082031, -4.170318126678467, -3.750526189804077, -2.485234260559082, -0.894775390625, 0.153564453125, -0.22705078125, 
91, 3434172185, 0.8806125521659851, -0.03732222318649292, -0.45618054270744324, -0.12268668413162231, 8.074161529541016, 0.511225163936615, 5.678260326385498, -4.521514415740967, -4.059305191040039, -2.208113670349121, -0.894775390625, 0.153564453125, -0.22705078125, 
92, 3434180518, 0.8804869055747986, -0.03756389021873474, -0.4563273787498474, -0.1229696273803711, 8.073152542114258, 0.5337697267532349, 5.729833602905273, -4.700045585632324, -3.3335518836975098, -1.9978463649749756, -0.893798828125, 0.153564453125, -0.228515625, 
93, 3434188851, 0.8804112672805786, -0.037797778844833374, -0.4563806354999542, -0.12324017286300659, 8.067163467407227, 0.4951840937137604, 5.711002826690674, -4.704451560974121, -1.886193871498108, -1.781943917274475, -0.897216796875, 0.156982421875, -0.22607421875, 
94, 3434197184, 0.8803826570510864, -0.03800220787525177, -0.4563477337360382, -0.12350323796272278, 8.08281421661377, 0.47426438331604004, 5.654445648193359, -4.37784481048584, -0.49590444564819336, -1.735069990158081, -0.895751953125, 0.152587890625, -0.22607421875, 
95, 3434205517, 0.8803693652153015, -0.038179948925971985, -0.45629268884658813, -0.12374711036682129, 8.053675651550293, 0.5147112011909485, 5.6213788986206055, -4.041683197021484, -0.10231605917215347, -1.6727505922317505, -0.894775390625, 0.153076171875, -0.22412109375, 
96, 3434213850, 0.8803454041481018, -0.03836043179035187, -0.456256240606308, -0.1239958107471466, 8.04394245147705, 0.45704227685928345, 5.615368843078613, -4.002467632293701, -0.3915008008480072, -1.6993894577026367, -0.895751953125, 0.154052734375, -0.22705078125, 
97, 3434222183, 0.8803361058235168, -0.03853300213813782, -0.45619139075279236, -0.12424689531326294, 8.060035705566406, 0.442910760641098, 5.629556179046631, -3.9607677459716797, 0.06068012863397598, -1.738860845565796, -0.896240234375, 0.153564453125, -0.22607421875, 
98, 3434230516, 0.8803449273109436, -0.0386679470539093, -0.45610395073890686, -0.12446373701095581, 8.043610572814941, 0.4309247136116028, 5.609184741973877, -3.4568586349487305, 0.48311007022857666, -1.6021318435668945, -0.893798828125, 0.153076171875, -0.22607421875, 
99, 3434238849, 0.8803567886352539, -0.03883931040763855, -0.4560146629810333, -0.12465313076972961, 8.03869915008545, 0.4550210237503052, 5.588301181793213, -3.645456075668335, 0.45116904377937317, -0.9765041470527649, -0.892333984375, 0.154052734375, -0.224609375, 
100, 3434247182, 0.880355715751648, -0.03902077674865723, -0.4559538662433624, -0.12482708692550659, 8.041232109069824, 0.4522685706615448, 5.62039852142334, -3.574479341506958, 0.005916887894272804, -0.7377027273178101, -0.896240234375, 0.15087890625, -0.22509765625, 
101, 3434255515, 0.8803615570068359, -0.03918051719665527, -0.45589256286621094, -0.12495899200439453, 8.041983604431152, 0.46725699305534363, 5.604010581970215, -3.161219358444214, 0.061551012098789215, -0.4214181900024414, -0.895751953125, 0.154541015625, -0.2236328125, 
102, 3434263848, 0.8803978562355042, -0.039322659373283386, -0.4557805359363556, -0.1250670850276947, 8.063265800476074, 0.4434888958930969, 5.6623945236206055, -2.7537484169006348, 0.8934757709503174, -0.09527214616537094, -0.893310546875, 0.156005859375, -0.2275390625, 
103, 3434272181, 0.8804638385772705, -0.039442867040634155, -0.45562034845352173, -0.12514838576316833, 8.058571815490723, 0.424027681350708, 5.664752006530762, -2.4587490558624268, 1.679192304611206, 0.12791748344898224, -0.894287109375, 0.153564453125, -0.22509765625, 
104, 3434280514, 0.8805463314056396, -0.039564505219459534, -0.4554310739040375, -0.1252184808254242, 8.06873893737793, 0.4252603054046631, 5.668222904205322, -2.374964714050293, 2.1324362754821777, 0.3586505055427551, -0.897216796875, 0.1533203125, -0.22705078125, 
105, 3434288847, 0.8806310892105103, -0.03970359265804291, -0.4552377164363861, -0.12528058886528015, 8.05005931854248, 0.3897951543331146, 5.686679840087891, -2.6210410594940186, 2.1546952724456787, 0.5241185426712036, -0.894775390625, 0.152587890625, -0.224609375, 
106, 3434297180, 0.8807035684585571, -0.03984890878200531, -0.45506760478019714, -0.12534353137016296, 8.017637252807617, 0.3999229669570923, 5.7034454345703125, -2.5897655487060547, 1.7926380634307861, 0.565126895904541, -0.894775390625, 0.152587890625, -0.2265625, 
107, 3434305513, 0.8807801604270935, -0.03999769687652588, -0.45488741993904114, -0.12541240453720093, 8.020156860351562, 0.4059608280658722, 5.752652168273926, -2.6769564151763916, 1.9369230270385742, 0.542048454284668, -0.893798828125, 0.154541015625, -0.22900390625, 
108, 3434313846, 0.8808773756027222, -0.040145933628082275, -0.45466917753219604, -0.12547418475151062, 8.010001182556152, 0.4091157913208008, 5.802408695220947, -2.6870992183685303, 2.5249226093292236, 0.6649966239929199, -0.894775390625, 0.155517578125, -0.2265625, 
109, 3434322179, 0.8810089826583862, -0.04028630256652832, -0.45439445972442627, -0.12550008296966553, 8.012057304382324, 0.40688180923461914, 5.7826619148254395, -2.5316216945648193, 3.4119701385498047, 1.0958539247512817, -0.895263671875, 0.154541015625, -0.228515625, 
110, 3434330512, 0.8811588883399963, -0.0403733104467392, -0.4541025459766388, -0.1254766285419464, 7.980840682983398, 0.414813369512558, 5.726006031036377, -1.5097416639328003, 3.8039445877075195, 1.4472554922103882, -0.892822265625, 0.154541015625, -0.22705078125, 
111, 3434338845, 0.881322979927063, -0.04032433032989502, -0.4538210332393646, -0.1253584325313568, 7.947058200836182, 0.39526066184043884, 5.5511794090271, 0.7550821304321289, 3.9497153759002686, 1.7654868364334106, -0.894775390625, 0.155029296875, -0.22998046875, 
112, 3434347178, 0.8814148306846619, -0.04033353924751282, -0.4536592960357666, -0.12529459595680237, 7.9033355712890625, 0.42874836921691895, 5.726680278778076, -0.18494755029678345, 1.9723730087280273, 1.2444674968719482, -0.894287109375, 0.158935546875, -0.2333984375, 
113, 3434355511, 0.8813306093215942, -0.04056711494922638, -0.4537942707538605, -0.12532198429107666, 7.893989086151123, 0.3673866391181946, 5.935845375061035, -3.1622180938720703, -3.064422845840454, 0.9989295601844788, -0.893310546875, 0.155029296875, -0.228515625, 
114, 3434363844, 0.8813309669494629, -0.040668219327926636, -0.45379647612571716, -0.12527906894683838, 8.05105209350586, 0.3754553198814392, 5.746819496154785, -1.1359018087387085, -0.7278157472610474, 1.3500752449035645, -0.891357421875, 0.156494140625, -0.228515625, 
115, 3434372177, 0.8815091252326965, -0.04060542583465576, -0.4534822106361389, -0.12518420815467834, 8.05355453491211, 0.47011423110961914, 5.689412593841553, 0.6919429302215576, 4.467634677886963, 1.424356460571289, -0.893310546875, 0.154541015625, -0.2294921875, 
116, 3434380510, 0.8816388249397278, -0.040684983134269714, -0.4532332122325897, -0.12514692544937134, 7.9062323570251465, 0.47620436549186707, 5.7425537109375, -1.2702739238739014, 3.164766550064087, 1.5105226039886475, -0.893798828125, 0.154541015625, -0.2294921875, 
117, 3434388843, 0.8816816210746765, -0.040911003947257996, -0.4531155526638031, -0.1251978874206543, 7.895590305328369, 0.47333526611328125, 5.7895331382751465, -3.5054996013641357, 0.8207311630249023, 1.0782310962677002, -0.894775390625, 0.155029296875, -0.22900390625, 
118, 3434397176, 0.8816800117492676, -0.04116840660572052, -0.4530848562717438, -0.125235915184021, 7.977331161499023, 0.3961769640445709, 5.910416126251221, -3.5936384201049805, -0.5638589262962341, 1.357503056526184, -0.893310546875, 0.154541015625, -0.23046875, 
119, 3434405509, 0.8817510008811951, -0.04133033752441406, -0.45294538140296936, -0.1251867115497589, 8.015148162841797, 0.38683950901031494, 5.8050713539123535, -2.060934066772461, 1.3191587924957275, 2.0026235580444336, -0.890869140625, 0.156494140625, -0.22900390625, 
120, 3434413842, 0.8818719983100891, -0.04132997989654541, -0.45274752378463745, -0.12505051493644714, 7.9178361892700195, 0.44492581486701965, 5.807905197143555, 0.3987112045288086, 2.5715157985687256, 2.168424367904663, -0.893310546875, 0.158447265625, -0.2294921875, 
121, 3434422175, 0.8819147348403931, -0.04132840037345886, -0.45269280672073364, -0.124947190284729, 7.857104778289795, 0.40697529911994934, 5.806992530822754, 0.3203828036785126, 0.36295366287231445, 1.4956151247024536, -0.891357421875, 0.157958984375, -0.2314453125, 
122, 3434430508, 0.8818989992141724, -0.04132556915283203, -0.4527464807033539, -0.12486487627029419, 7.936011791229248, 0.35128146409988403, 5.759549617767334, 0.4486845135688782, -1.2960163354873657, 1.1208276748657227, -0.893798828125, 0.157470703125, -0.23291015625, 
123, 3434438841, 0.8818906545639038, -0.04124128818511963, -0.45280197262763977, -0.12475049495697021, 7.9997477531433105, 0.35539349913597107, 5.7880120277404785, 1.6315754652023315, -1.1524227857589722, 1.0199332237243652, -0.894775390625, 0.15625, -0.234375, 
124, 3434447174, 0.8819094896316528, -0.041133880615234375, -0.45281004905700684, -0.12462437152862549, 7.958028316497803, 0.39598408341407776, 5.826509952545166, 1.9303398132324219, -0.37354516983032227, 1.087990164756775, -0.891845703125, 0.157470703125, -0.23193359375, 
125, 3434455507, 0.8819680213928223, -0.041065603494644165, -0.45273280143737793, -0.12451225519180298, 7.958857536315918, 0.43744540214538574, 5.793842315673828, 1.1277947425842285, 0.8423240780830383, 1.20684015750885, -0.893310546875, 0.156982421875, -0.23095703125, 
126, 3434463840, 0.8820372819900513, -0.041071996092796326, -0.45261988043785095, -0.12443020939826965, 7.98264741897583, 0.4675784707069397, 5.768824100494385, 0.09779515862464905, 1.2384740114212036, 1.4165441989898682, -0.891357421875, 0.157958984375, -0.23388671875, 
127, 3434472173, 0.8820867538452148, -0.04108284413814545, -0.4525449573993683, -0.12434801459312439, 7.934405326843262, 0.4687544107437134, 5.7615647315979, -0.04645140841603279, 0.6363856196403503, 1.2992051839828491, -0.893310546875, 0.1572265625, -0.234375, 
128, 3434480506, 0.8821214437484741, -0.041076064109802246, -0.4525030255317688, -0.12425649166107178, 7.930901527404785, 0.4504931569099426, 5.790419578552246, 0.4168972969055176, 0.18004246056079865, 1.3516631126403809, -0.891845703125, 0.156982421875, -0.232421875, 
129, 3434488839, 0.8821701407432556, -0.04104532301425934, -0.4524362087249756, -0.12416377663612366, 7.937496662139893, 0.421810120344162, 5.831033229827881, 0.6144342422485352, 0.604803204536438, 1.2178798913955688, -0.893310546875, 0.159423828125, -0.23193359375, 
130, 3434497172, 0.8822396993637085, -0.04101178050041199, -0.4523247480392456, -0.12408754229545593, 7.9471306800842285, 0.3930565416812897, 5.78801965713501, 0.5493229031562805, 1.293723702430725, 1.097185730934143, -0.892822265625, 0.15673828125, -0.234375, 
131, 3434505505, 0.8823177814483643, -0.04097244143486023, -0.45219919085502625, -0.12400323152542114, 7.937866687774658, 0.3821107745170593, 5.780991077423096, 0.5784975290298462, 1.5174896717071533, 1.142266869544983, -0.894775390625, 0.158935546875, -0.23095703125, 
132, 3434513838, 0.882384181022644, -0.04092840850353241, -0.45209795236587524, -0.12391448020935059, 7.9081339836120605, 0.367349237203598, 5.748874664306641, 0.7688112258911133, 1.1612725257873535, 1.1727988719940186, -0.891845703125, 0.158447265625, -0.2333984375, 
133, 3434522171, 0.882422924041748, -0.040884554386138916, -0.4520510137081146, -0.12382477521896362, 7.896359443664551, 0.3659537434577942, 5.74296760559082, 0.8483946919441223, 0.33050045371055603, 1.1073546409606934, -0.891845703125, 0.157958984375, -0.2333984375, 
134, 3434530504, 0.8824443817138672, -0.04084700345993042, -0.45203495025634766, -0.12374269962310791, 7.906595230102539, 0.36812105774879456, 5.720571994781494, 0.7010359764099121, -0.16443055868148804, 0.9699597358703613, -0.894287109375, 0.1572265625, -0.234375, 
135, 3434538837, 0.8824588060379028, -0.0408049076795578, -0.4520300030708313, -0.12367051839828491, 7.921859264373779, 0.39676105976104736, 5.749197483062744, 0.7076956629753113, -0.3291301131248474, 0.8023403286933899, -0.893310546875, 0.157470703125, -0.23388671875, 
136, 3434547170, 0.8824665546417236, -0.04076342284679413, -0.4520379602909088, -0.12359991669654846, 7.917109966278076, 0.3909672498703003, 5.740929126739502, 0.7776224613189697, -0.5228762030601501, 0.808129072189331, -0.892333984375, 0.157958984375, -0.23486328125, 
137, 3434555503, 0.8824619054794312, -0.04070594906806946, -0.4520764946937561, -0.12351071834564209, 7.919212818145752, 0.38347822427749634, 5.738697528839111, 1.0663461685180664, -0.9574729204177856, 0.8584866523742676, -0.892333984375, 0.15771484375, -0.23583984375, 
138, 3434563836, 0.8824436664581299, -0.04065774381160736, -0.45213982462882996, -0.12342533469200134, 7.9266486167907715, 0.39668241143226624, 5.7446064949035645, 1.0315107107162476, -1.3530079126358032, 0.8676565289497375, -0.892822265625, 0.156494140625, -0.2333984375, 
139, 3434572169, 0.8824135065078735, -0.040638044476509094, -0.4522191882133484, -0.12335702776908875, 7.955666542053223, 0.40916168689727783, 5.767581462860107, 0.5338518619537354, -1.665091872215271, 0.7745743989944458, -0.890380859375, 0.158935546875, -0.232421875, 
140, 3434580502, 0.882379949092865, -0.04062497615814209, -0.4523008465766907, -0.12330156564712524, 7.958503723144531, 0.39353692531585693, 5.79150390625, 0.44020622968673706, -1.7130928039550781, 0.6896120309829712, -0.892333984375, 0.159423828125, -0.23193359375, 
141, 3434588835, 0.8823572397232056, -0.040586963295936584, -0.45236605405807495, -0.12323743104934692, 7.960165023803711, 0.3937971591949463, 5.802278518676758, 0.7384327054023743, -1.412535309791565, 0.650704026222229, -0.893310546875, 0.158935546875, -0.23291015625, 
142, 3434597168, 0.8823392391204834, -0.04055468738079071, -0.4524257183074951, -0.12315809726715088, 7.975041389465332, 0.4378364086151123, 5.803669452667236, 0.7945535182952881, -1.3305954933166504, 0.8980863094329834, -0.892333984375, 0.157958984375, -0.232421875, 
143, 3434605501, 0.8823336362838745, -0.040535345673561096, -0.4524616003036499, -0.12307235598564148, 7.985827445983887, 0.43700292706489563, 5.8031086921691895, 0.5418691039085388, -0.9962527751922607, 1.0280272960662842, -0.891357421875, 0.159423828125, -0.22998046875, 
144, 3434613834, 0.8823497891426086, -0.04051068425178528, -0.45245519280433655, -0.1229887306690216, 7.979246616363525, 0.4276827871799469, 5.750757217407227, 0.636411190032959, -0.3322550058364868, 1.0915762186050415, -0.894287109375, 0.158447265625, -0.2314453125, 
145, 3434622167, 0.8823754191398621, -0.04044117033481598, -0.4524412453174591, -0.12287873029708862, 7.967930316925049, 0.3694378137588501, 5.678866863250732, 1.2841951847076416, -0.12439552694559097, 1.1268212795257568, -0.891845703125, 0.158935546875, -0.2353515625, 
146, 3434630500, 0.8823489546775818, -0.04037770628929138, -0.452528715133667, -0.12276783585548401, 7.932070732116699, 0.3803206980228424, 5.824067115783691, 1.4112675189971924, -1.6851476430892944, 1.055921196937561, -0.893310546875, 0.157958984375, -0.23291015625, 
147, 3434638833, 0.8822616338729858, -0.04045534133911133, -0.45270389318466187, -0.12272384762763977, 7.923684597015381, 0.38952359557151794, 5.922112464904785, -0.6854242086410522, -3.335294008255005, 0.92513507604599, -0.8935546875, 0.159912109375, -0.23291015625, 
148, 3434647166, 0.8822537660598755, -0.04046796262264252, -0.4527425169944763, -0.12263411283493042, 8.030050277709961, 0.4197954535484314, 5.794388294219971, 0.2852657437324524, -1.0944321155548096, 1.3320424556732178, -0.892578125, 0.160400390625, -0.23095703125, 
149, 3434655499, 0.8823426961898804, -0.04037576913833618, -0.45261096954345703, -0.1225104033946991, 7.972891807556152, 0.4307698607444763, 5.694965839385986, 1.4131629467010498, 1.7233768701553345, 1.2751535177230835, -0.893310546875, 0.158935546875, -0.22998046875, 
150, 3434663832, 0.8823610544204712, -0.040340572595596313, -0.45260339975357056, -0.1224176287651062, 7.861825942993164, 0.40773335099220276, 5.656332969665527, 0.8201677799224854, -0.29055505990982056, 1.1418825387954712, -0.890869140625, 0.159423828125, -0.23291015625, 
151, 3434672165, 0.8822188973426819, -0.040419429540634155, -0.45288240909576416, -0.12238430976867676, 7.908631324768066, 0.37093549966812134, 5.725377559661865, -0.6379609704017639, -4.933084011077881, 0.6418159008026123, -0.892822265625, 0.159423828125, -0.2333984375, 
152, 3434680498, 0.8820639252662659, -0.04048961400985718, -0.4531877934932709, -0.12234720587730408, 7.9668498039245605, 0.38084834814071655, 5.795007705688477, -0.3754919171333313, -5.313199996948242, 0.6565440893173218, -0.89453125, 0.160888671875, -0.232421875, 
153, 3434688831, 0.8819842338562012, -0.04046542942523956, -0.4533686637878418, -0.12226012349128723, 7.997453689575195, 0.39530834555625916, 5.847938060760498, 0.7870230674743652, -3.211115837097168, 0.7915055155754089, -0.892822265625, 0.159423828125, -0.23095703125, 
154, 3434697164, 0.8819658756256104, -0.04043121635913849, -0.4534282088279724, -0.12218275666236877, 7.963983535766602, 0.39507636427879333, 5.760849952697754, 0.8050297498703003, -1.3272143602371216, 0.8617908954620361, -0.890869140625, 0.159912109375, -0.2294921875, 
155, 3434705497, 0.8819504380226135, -0.04041223227977753, -0.45348113775253296, -0.12210425734519958, 7.975284099578857, 0.40575218200683594, 5.693591594696045, 0.5191748738288879, -1.2609246969223022, 0.9173994064331055, -0.8935546875, 0.160400390625, -0.23193359375, 
156, 3434713830, 0.8818920850753784, -0.04043668508529663, -0.4536074101924896, -0.12204915285110474, 7.967997074127197, 0.4125276803970337, 5.713811874389648, 0.043800342828035355, -2.4724268913269043, 0.8518014550209045, -0.892333984375, 0.158447265625, -0.22998046875, 
157, 3434722163, 0.881818413734436, -0.04047197103500366, -0.4537644386291504, -0.12198567390441895, 7.973298072814941, 0.44149330258369446, 5.774364471435547, -0.11586599797010422, -2.971315383911133, 0.9012113213539124, -0.89013671875, 0.1611328125, -0.22900390625, 
158, 3434730496, 0.8817747831344604, -0.04047781229019165, -0.45386815071105957, -0.12191388010978699, 7.991217613220215, 0.4594890773296356, 5.794747352600098, 0.3442809283733368, -2.084857940673828, 0.9751594662666321, -0.89306640625, 0.162353515625, -0.22998046875, 
159, 3434738829, 0.8817453980445862, -0.04050867259502411, -0.45393773913383484, -0.12185564637184143, 8.01453971862793, 0.45701664686203003, 5.767674922943115, -0.16448180377483368, -1.621060848236084, 0.9701135754585266, -0.89404296875, 0.161865234375, -0.2333984375, 
160, 3434747162, 0.8817068338394165, -0.04059450328350067, -0.4540150761604309, -0.1218181848526001, 7.987330436706543, 0.43449804186820984, 5.71985387802124, -0.8816291689872742, -1.8482848405838013, 1.0826880931854248, -0.89404296875, 0.160400390625, -0.22900390625, 
161, 3434755495, 0.881653904914856, -0.040684789419174194, -0.4541171193122864, -0.12179037928581238, 8.007046699523926, 0.42043182253837585, 5.730778217315674, -1.0132094621658325, -2.2425901889801025, 0.9297198057174683, -0.8935546875, 0.161376953125, -0.2294921875, 
162, 3434763828, 0.8816158175468445, -0.04074154794216156, -0.45419687032699585, -0.12175044417381287, 8.041560173034668, 0.4301910698413849, 5.7339630126953125, -0.5079942941665649, -1.8278956413269043, 0.9292331337928772, -0.8916015625, 0.160400390625, -0.23046875, 
163, 3434772161, 0.8816042542457581, -0.040774986147880554, -0.454231858253479, -0.12169274687767029, 8.027070999145508, 0.39547353982925415, 5.75283145904541, -0.3240072727203369, -1.0986329317092896, 0.9757230281829834, -0.89111328125, 0.160888671875, -0.22998046875, 
164, 3434780494, 0.8816136717796326, -0.04082369804382324, -0.4542195796966553, -0.12165343761444092, 8.029109001159668, 0.4090210199356079, 5.718512058258057, -0.5424197912216187, -0.4003888964653015, 1.00295090675354, -0.89111328125, 0.1611328125, -0.228515625, 
165, 3434788827, 0.8816152811050415, -0.040890589356422424, -0.4542180299758911, -0.12162497639656067, 8.017049789428711, 0.4025977551937103, 5.723211288452148, -0.8159286379814148, -0.6042782068252563, 0.9671422839164734, -0.892578125, 0.161376953125, -0.2294921875, 
166, 3434797160, 0.8815988898277283, -0.04096180200576782, -0.4542527198791504, -0.12159046530723572, 8.004425048828125, 0.3833015561103821, 5.72194766998291, -0.8924639821052551, -1.1737850904464722, 0.9489818215370178, -0.89453125, 0.161865234375, -0.22998046875, 
167, 3434805493, 0.8815698623657227, -0.04103122651576996, -0.45431166887283325, -0.12155678868293762, 8.005123138427734, 0.3955918252468109, 5.731836318969727, -0.8017383813858032, -1.5403248071670532, 0.9203706979751587, -0.892578125, 0.161376953125, -0.22998046875, 
168, 3434813826, 0.8815546035766602, -0.04109577834606171, -0.45434433221817017, -0.12152436375617981, 7.9936370849609375, 0.3992502689361572, 5.734583854675293, -0.7162636518478394, -1.122761607170105, 0.9521323442459106, -0.89306640625, 0.16162109375, -0.22705078125, 
169, 3434822159, 0.8815581202507019, -0.041128650307655334, -0.45434972643852234, -0.12146741151809692, 8.004639625549316, 0.3872191607952118, 5.758388996124268, -0.3000067472457886, -0.64080411195755, 1.0500811338424683, -0.893310546875, 0.159423828125, -0.22998046875, 
170, 3434830492, 0.8815631866455078, -0.041160568594932556, -0.4543539583683014, -0.12140452861785889, 7.987951755523682, 0.39786258339881897, 5.69836950302124, -0.16601867973804474, -0.613909125328064, 1.1674200296401978, -0.89208984375, 0.160400390625, -0.22998046875, 
171, 3434838825, 0.881554901599884, -0.04119095206260681, -0.45438849925994873, -0.12132498621940613, 8.007478713989258, 0.39736902713775635, 5.711924076080322, -0.12485657632350922, -1.078730583190918, 1.2414708137512207, -0.8935546875, 0.1640625, -0.228515625, 
172, 3434847158, 0.8815359473228455, -0.04125624895095825, -0.4544323682785034, -0.1212759017944336, 8.011878967285156, 0.4192058742046356, 5.691697597503662, -0.6045599579811096, -1.2913800477981567, 1.1460832357406616, -0.89208984375, 0.16357421875, -0.2294921875, 
173, 3434855491, 0.8815180063247681, -0.04132524132728577, -0.45447462797164917, -0.12122353911399841, 8.023039817810059, 0.38244765996932983, 5.702388286590576, -0.6772531867027283, -1.2775485515594482, 1.1902422904968262, -0.89404296875, 0.16259765625, -0.22900390625, 
174, 3434863824, 0.8815116286277771, -0.04138705134391785, -0.4544924795627594, -0.12118256092071533, 8.02469539642334, 0.3915823996067047, 5.696216583251953, -0.6495641469955444, -0.8875971436500549, 1.0625040531158447, -0.89501953125, 0.161865234375, -0.23095703125, 
175, 3434872157, 0.8815120458602905, -0.041436776518821716, -0.4545000195503235, -0.12113454937934875, 8.013373374938965, 0.406252920627594, 5.6909379959106445, -0.49114012718200684, -0.7065302729606628, 1.084506630897522, -0.89306640625, 0.160888671875, -0.2353515625, 
176, 3434880490, 0.8815072178840637, -0.04149419069290161, -0.45451265573501587, -0.12110194563865662, 8.012378692626953, 0.3910459280014038, 5.713976860046387, -0.6551993489265442, -0.8015591502189636, 0.9386849403381348, -0.892578125, 0.1611328125, -0.22802734375, 
177, 3434888823, 0.8815076947212219, -0.041568294167518616, -0.454513281583786, -0.12107083201408386, 8.032678604125977, 0.400287389755249, 5.723011016845703, -0.9250708818435669, -0.6522281169891357, 1.0235960483551025, -0.89208984375, 0.1630859375, -0.2294921875, 
178, 3434897156, 0.8815090656280518, -0.041651561856269836, -0.45450925827026367, -0.12104710936546326, 8.03757095336914, 0.3820047378540039, 5.735113620758057, -1.0488389730453491, -0.6009483933448792, 1.010917067527771, -0.89404296875, 0.16357421875, -0.229736328125, 
179, 3434905489, 0.881523072719574, -0.041732072830200195, -0.4544832110404968, -0.12101590633392334, 8.016069412231445, 0.3918255865573883, 5.749419689178467, -1.0869015455245972, -0.25935694575309753, 1.0695991516113281, -0.892578125, 0.1640625, -0.2275390625, 
180, 3434913822, 0.8815438747406006, -0.04180639982223511, -0.45444256067276, -0.12099108099937439, 8.005497932434082, 0.36391517519950867, 5.749819755554199, -0.9838811755180359, -0.019786996766924858, 1.0226482152938843, -0.89306640625, 0.161865234375, -0.22998046875, 
181, 3434922155, 0.8815662860870361, -0.04188703000545502, -0.45439788699150085, -0.12096816301345825, 8.014474868774414, 0.38699740171432495, 5.741951942443848, -1.1360809803009033, 0.02666441723704338, 1.0154505968093872, -0.89111328125, 0.1611328125, -0.228515625, 
182, 3434930488, 0.8815833926200867, -0.04197703301906586, -0.45435798168182373, -0.1209617555141449, 8.028064727783203, 0.39088141918182373, 5.81170654296875, -1.2903043031692505, -0.06740386039018631, 0.8911705613136292, -0.89404296875, 0.161376953125, -0.228515625, 
183, 3434938821, 0.8816158771514893, -0.0420462042093277, -0.45429110527038574, -0.12095195055007935, 8.000418663024902, 0.38131099939346313, 5.832707405090332, -1.1218395233154297, 0.3843415677547455, 0.8043125867843628, -0.892578125, 0.16455078125, -0.2314453125, 
184, 3434947154, 0.8816648721694946, -0.042102500796318054, -0.45419254899024963, -0.12094500660896301, 7.982300758361816, 0.4017108082771301, 5.8244242668151855, -0.9562433362007141, 0.8987523913383484, 0.7737805247306824, -0.89208984375, 0.16259765625, -0.23095703125, 
185, 3434955487, 0.8817305564880371, -0.04215385019779205, -0.45406249165534973, -0.12093701958656311, 7.987756729125977, 0.3951420187950134, 5.784684658050537, -1.0203559398651123, 1.3869085311889648, 0.7531866431236267, -0.892578125, 0.16357421875, -0.2294921875, 
186, 3434963820, 0.8817838430404663, -0.042222559452056885, -0.4539489448070526, -0.12095114588737488, 7.962682247161865, 0.3835144639015198, 5.750132083892822, -1.2616163492202759, 1.0992860794067383, 0.6122058629989624, -0.89208984375, 0.1650390625, -0.22998046875, 
187, 3434972153, 0.8818231225013733, -0.04228672385215759, -0.453861802816391, -0.12096905708312988, 7.948790073394775, 0.3508901000022888, 5.746730804443359, -1.1947888135910034, 0.6997552514076233, 0.49899089336395264, -0.89208984375, 0.1630859375, -0.2314453125, 
188, 3434980486, 0.881866455078125, -0.042338237166404724, -0.45377105474472046, -0.1209765374660492, 7.950134754180908, 0.3509543836116791, 5.752488136291504, -1.0320359468460083, 0.7817977070808411, 0.5276275873184204, -0.89111328125, 0.1640625, -0.23046875, 
189, 3434988819, 0.8819156289100647, -0.04237183928489685, -0.45367324352264404, -0.12097129225730896, 7.955570697784424, 0.36590367555618286, 5.7462005615234375, -0.8514299392700195, 0.9212927222251892, 0.5105172991752625, -0.89208984375, 0.1640625, -0.2275390625, 
190, 3434997152, 0.8819566965103149, -0.042405858635902405, -0.45358729362487793, -0.120982825756073, 7.941901683807373, 0.35594692826271057, 5.734004974365234, -0.7852683663368225, 0.7432225942611694, 0.39028406143188477, -0.89404296875, 0.16455078125, -0.229248046875, 
191, 3435005485, 0.8819788694381714, -0.04244941473007202, -0.4535362422466278, -0.12099725008010864, 7.925965309143066, 0.3414051830768585, 5.74064302444458, -0.9198455810546875, 0.18598495423793793, 0.340105801820755, -0.8896484375, 0.16357421875, -0.23046875, 
192, 3435013818, 0.8819907903671265, -0.042498230934143066, -0.4535033702850342, -0.12101644277572632, 7.942781448364258, 0.3183301091194153, 5.751272201538086, -0.9417457580566406, -0.10149640589952469, 0.3107006847858429, -0.89111328125, 0.1630859375, -0.23095703125, 
193, 3435022151, 0.8820037841796875, -0.042533889412879944, -0.45347005128860474, -0.12103426456451416, 7.948102951049805, 0.3585219383239746, 5.758567810058594, -0.8243813514709473, -0.0726291611790657, 0.22327926754951477, -0.89306640625, 0.16455078125, -0.22998046875, 
194, 3435030484, 0.8820151686668396, -0.04257868230342865, -0.4534352421760559, -0.12106597423553467, 7.94572114944458, 0.366533100605011, 5.780526161193848, -0.9730463624000549, -0.06860773265361786, 0.1340392827987671, -0.8935546875, 0.163330078125, -0.23486328125, 
195, 3435038817, 0.882021427154541, -0.04262396693229675, -0.45341330766677856, -0.12108635902404785, 7.9279465675354, 0.3764612674713135, 5.785190582275391, -1.16978919506073, -0.27651846408843994, 0.07228336483240128, -0.89404296875, 0.164306640625, -0.231689453125, 
196, 3435047150, 0.8820217847824097, -0.042668893933296204, -0.45339706540107727, -0.12112927436828613, 7.956035614013672, 0.37821388244628906, 5.797106742858887, -1.0220208168029785, -0.3552054464817047, -0.02964847721159458, -0.8916015625, 0.1630859375, -0.2294921875, 
197, 3435055483, 0.8820234537124634, -0.04270586371421814, -0.4533815383911133, -0.12116193771362305, 7.9806342124938965, 0.36460185050964355, 5.806656360626221, -0.9279907941818237, -0.3539246618747711, 0.008964980952441692, -0.8935546875, 0.1640625, -0.23046875, 
198, 3435063816, 0.8820390105247498, -0.042740240693092346, -0.45333895087242126, -0.12119656801223755, 7.990805625915527, 0.3600025773048401, 5.7933878898620605, -0.8778126239776611, 0.07161739468574524, 0.044824909418821335, -0.89208984375, 0.1640625, -0.23095703125, 
199, 3435072149, 0.8820644021034241, -0.04276338219642639, -0.45327773690223694, -0.12123122811317444, 8.02509593963623, 0.3728705644607544, 5.759640693664551, -0.819847583770752, 0.3747618794441223, -0.02552458457648754, -0.89404296875, 0.163330078125, -0.23095703125, 
200, 3435080482, 0.8821024894714355, -0.04278542101383209, -0.4531887173652649, -0.12127968668937683, 8.002158164978027, 0.3355323076248169, 5.742173194885254, -0.8775309920310974, 0.8033137321472168, -0.13446193933486938, -0.892578125, 0.1630859375, -0.22998046875, 
201, 3435088815, 0.8821417093276978, -0.042793333530426025, -0.45309990644454956, -0.12132349610328674, 7.98142147064209, 0.32128390669822693, 5.712331771850586, -0.6759980320930481, 0.8293376564979553, -0.16683830320835114, -0.89111328125, 0.1650390625, -0.2333984375, 
202, 3435097148, 0.8821738958358765, -0.0428062379360199, -0.45302534103393555, -0.12136387825012207, 7.976035118103027, 0.31735759973526, 5.72871208190918, -0.7350132465362549, 0.5997316241264343, -0.12874995172023773, -0.8916015625, 0.161865234375, -0.2314453125, 
203, 3435105481, 0.8822013139724731, -0.04282630980014801, -0.4529604911804199, -0.12139961123466492, 7.963925361633301, 0.31239327788352966, 5.70940637588501, -0.8072709441184998, 0.4362872540950775, -0.0606929287314415, -0.89306640625, 0.164306640625, -0.2333984375, 
204, 3435113814, 0.882213830947876, -0.04285705089569092, -0.45292067527770996, -0.12144634127616882, 7.962916851043701, 0.3273570239543915, 5.7248921394348145, -0.9047843813896179, 0.03250446543097496, -0.13013310730457306, -0.892578125, 0.163330078125, -0.232421875, 
205, 3435122147, 0.8822166919708252, -0.042877718806266785, -0.4529029130935669, -0.12148427963256836, 7.936157703399658, 0.33305782079696655, 5.760112762451172, -0.8052986860275269, -0.2894536554813385, -0.18148966133594513, -0.89306640625, 0.162841796875, -0.2333984375, 
206, 3435130480, 0.8822216987609863, -0.042894572019577026, -0.45287996530532837, -0.12152746319770813, 7.9685959815979, 0.34018921852111816, 5.7838029861450195, -0.6900090575218201, -0.19795960187911987, -0.1976778358221054, -0.89208984375, 0.16259765625, -0.23095703125, 
207, 3435138813, 0.8822335600852966, -0.04289630055427551, -0.45284610986709595, -0.12156704068183899, 7.964740753173828, 0.33214226365089417, 5.770584583282471, -0.5416001677513123, -0.0021644027438014746, -0.2489575445652008, -0.89306640625, 0.16455078125, -0.23095703125, 
208, 3435147146, 0.8822407126426697, -0.04291163384914398, -0.45282185077667236, -0.12160024046897888, 7.935943126678467, 0.3328790068626404, 5.774032115936279, -0.6125772595405579, -0.1720380038022995, -0.08149169385433197, -0.89306640625, 0.16455078125, -0.23046875, 
209, 3435155479, 0.8822379112243652, -0.04292468726634979, -0.45281535387039185, -0.12163996696472168, 7.951179027557373, 0.31863054633140564, 5.79181432723999, -0.6658036112785339, -0.4463920593261719, -0.23758479952812195, -0.89404296875, 0.163818359375, -0.230712890625, 
210, 3435163812, 0.882227897644043, -0.04294075071811676, -0.4528207778930664, -0.1216866672039032, 7.962416172027588, 0.31722113490104675, 5.8272786140441895, -0.6637800931930542, -0.6330429911613464, -0.2869434952735901, -0.892578125, 0.163818359375, -0.234375, 
211, 3435172145, 0.8822280168533325, -0.04297575354576111, -0.4528037905693054, -0.1217367947101593, 7.978710174560547, 0.3100973665714264, 5.847412586212158, -0.9747112393379211, -0.32897642254829407, -0.18807251751422882, -0.89306640625, 0.16455078125, -0.232421875, 
212, 3435180478, 0.8822396397590637, -0.04302212595939636, -0.4527624845504761, -0.12179017066955566, 7.959475994110107, 0.35709136724472046, 5.8545732498168945, -1.138616919517517, 0.022335615009069443, -0.11540494859218597, -0.89306640625, 0.1650390625, -0.232177734375, 
213, 3435188811, 0.88226318359375, -0.04301688075065613, -0.4527093768119812, -0.1218184232711792, 7.947065830230713, 0.32534706592559814, 5.806684970855713, -0.49239522218704224, 0.3038104176521301, -0.1807212382555008, -0.892578125, 0.163330078125, -0.23193359375, 
214, 3435197144, 0.8823206424713135, -0.042867645621299744, -0.4526253044605255, -0.12176784873008728, 7.954561233520508, 0.3004246652126312, 5.6270365715026855, 1.8349525928497314, 1.093574047088623, 0.028969697654247284, -0.8916015625, 0.16455078125, -0.232421875, 
215, 3435205477, 0.8823363184928894, -0.04275500774383545, -0.4526084363460541, -0.12175628542900085, 7.903376579284668, 0.33383747935295105, 5.71330451965332, 1.1499254703521729, -0.027829864993691444, -0.3780788779258728, -0.892578125, 0.1640625, -0.23193359375, 
216, 3435213810, 0.8821941614151001, -0.04284529387950897, -0.4528528153896332, -0.12184524536132812, 7.891496658325195, 0.2903791069984436, 5.933618068695068, -1.5049517154693604, -4.452868461608887, -0.6985642313957214, -0.8935546875, 0.161376953125, -0.23095703125, 
217, 3435222143, 0.8820986747741699, -0.04287496209144592, -0.45302072167396545, -0.12190112471580505, 8.009672164916992, 0.30130380392074585, 5.858392238616943, -0.6622944474220276, -3.153099536895752, -0.5383727550506592, -0.8916015625, 0.16552734375, -0.2314453125, 
218, 3435230476, 0.8821952939033508, -0.04275697469711304, -0.4528430700302124, -0.12190428376197815, 8.043350219726562, 0.3518962264060974, 5.701565265655518, 0.9885302186012268, 2.4511287212371826, -0.3088436424732208, -0.89208984375, 0.162109375, -0.23046875, 
219, 3435238809, 0.8822686672210693, -0.042727574706077576, -0.4526963233947754, -0.12192836403846741, 7.9499382972717285, 0.40713199973106384, 5.689467430114746, -0.21719592809677124, 1.792253851890564, -0.08305416256189346, -0.89013671875, 0.1630859375, -0.2333984375, 
220, 3435247142, 0.8822302222251892, -0.04287712275981903, -0.45271962881088257, -0.1220674216747284, 7.870732307434082, 0.3160445988178253, 5.76004695892334, -2.845651865005493, -1.1960694789886475, -0.6346567273139954, -0.8916015625, 0.162841796875, -0.2333984375, 
221, 3435255475, 0.8821330070495605, -0.04305568337440491, -0.4528610408306122, -0.12218233942985535, 7.928216934204102, 0.26178398728370667, 5.909506320953369, -2.9694457054138184, -3.0626814365386963, -0.37869367003440857, -0.8916015625, 0.161376953125, -0.23291015625, 
222, 3435263808, 0.8821161985397339, -0.043128445744514465, -0.4528781771659851, -0.12221547961235046, 8.00933837890625, 0.30529075860977173, 5.8161187171936035, -1.2516523599624634, -0.921151876449585, 0.21134305000305176, -0.8916015625, 0.16357421875, -0.23095703125, 
223, 3435272141, 0.8821699619293213, -0.04302673041820526, -0.4527978003025055, -0.12216097116470337, 7.96270227432251, 0.3383080065250397, 5.668442249298096, 1.2877557277679443, 0.9443969130516052, 0.36518216133117676, -0.89306640625, 0.161865234375, -0.232421875, 
224, 3435280474, 0.8821277022361755, -0.042988523840904236, -0.4528842568397522, -0.12215900421142578, 7.86192512512207, 0.2736668586730957, 5.663506984710693, 0.2959724962711334, -1.760223150253296, -0.20884568989276886, -0.89404296875, 0.164306640625, -0.236572265625, 
225, 3435288807, 0.8819489479064941, -0.04300597310066223, -0.45321929454803467, -0.12220075726509094, 7.935265064239502, 0.2195896953344345, 5.6475419998168945, -0.3606100082397461, -5.696106910705566, -0.800483226776123, -0.89453125, 0.1640625, -0.230224609375, 
226, 3435297140, 0.881749153137207, -0.04297827184200287, -0.4536033570766449, -0.12222784757614136, 8.062122344970703, 0.2597719132900238, 5.713546276092529, 0.5124127268791199, -6.345247745513916, -0.8660556674003601, -0.8916015625, 0.161865234375, -0.232421875, 
227, 3435305473, 0.8815677165985107, -0.04294079542160034, -0.45395347476005554, -0.12225019931793213, 8.106619834899902, 0.35031598806381226, 5.7798357009887695, 0.5873600244522095, -5.807528495788574, -0.8254315853118896, -0.89501953125, 0.164306640625, -0.230712890625, 
228, 3435313806, 0.8814172148704529, -0.04296889901161194, -0.4542248249053955, -0.12231758236885071, 8.156454086303711, 0.4241522550582886, 5.75874662399292, -0.5776906609535217, -4.741310119628906, -0.8542476296424866, -0.89306640625, 0.1630859375, -0.2294921875, 
229, 3435322139, 0.8813002109527588, -0.04311676323413849, -0.454399049282074, -0.12246042490005493, 8.160236358642578, 0.4330803453922272, 5.715435981750488, -2.776390790939331, -3.5201516151428223, -0.9936402440071106, -0.892578125, 0.16162109375, -0.22900390625, 
230, 3435330472, 0.8811819553375244, -0.04334990680217743, -0.4545510709285736, -0.12266486883163452, 8.132694244384766, 0.463351309299469, 5.753715991973877, -4.099802017211914, -3.357116937637329, -1.1094422340393066, -0.89404296875, 0.16259765625, -0.2275390625, 
231, 3435338805, 0.8810795545578003, -0.04354757070541382, -0.4546757936477661, -0.12286832928657532, 8.145601272583008, 0.4595766067504883, 5.760621547698975, -3.8225021362304688, -2.874519109725952, -1.3522396087646484, -0.89453125, 0.16259765625, -0.228515625, 
232, 3435347138, 0.8810166120529175, -0.04370184242725372, -0.45472046732902527, -0.12309882044792175, 8.135625839233398, 0.4464222192764282, 5.742031097412109, -3.454655647277832, -1.5639411211013794, -1.7617086172103882, -0.89453125, 0.161865234375, -0.228515625, 
233, 3435355471, 0.8810096979141235, -0.0438118577003479, -0.45465224981307983, -0.1233610212802887, 8.069375038146973, 0.3868334889411926, 5.690720558166504, -3.3670294284820557, 0.24556365609169006, -2.314924955368042, -0.89453125, 0.1640625, -0.228271484375, 
234, 3435363804, 0.8810019493103027, -0.04390287399291992, -0.454567551612854, -0.12369471788406372, 7.963167190551758, 0.34351295232772827, 5.609745979309082, -3.5191266536712646, 0.5204812288284302, -3.2352187633514404, -0.89404296875, 0.161865234375, -0.228515625, 
235, 3435372137, 0.8809307217597961, -0.043977200984954834, -0.45459815859794617, -0.12406337261199951, 7.882466793060303, 0.36382877826690674, 5.526025295257568, -3.4819865226745605, -1.2316477298736572, -4.004363059997559, -0.89453125, 0.16162109375, -0.22802734375, 
236, 3435380470, 0.8807696104049683, -0.044091060757637024, -0.45478570461273193, -0.1244785487651825, 7.79511833190918, 0.36568498611450195, 5.512055397033691, -3.9352304935455322, -3.7267818450927734, -4.507938861846924, -0.89306640625, 0.16259765625, -0.22509765625, 
237, 3435388803, 0.8805572986602783, -0.04419492185115814, -0.4550698697566986, -0.1249055564403534, 7.778652667999268, 0.36864322423934937, 5.513430118560791, -3.828547716140747, -5.1962714195251465, -4.900503635406494, -0.89501953125, 0.160400390625, -0.2265625, 
238, 3435397136, 0.8803350925445557, -0.044377490878105164, -0.45535919070243835, -0.12535250186920166, 7.843354225158691, 0.38151541352272034, 5.577522277832031, -4.829397678375244, -5.441604137420654, -4.62791633605957, -0.8955078125, 0.16015625, -0.2236328125, 
239, 3435405469, 0.8800979852676392, -0.044646888971328735, -0.45566070079803467, -0.12582528591156006, 7.888778209686279, 0.3715529143810272, 5.570188045501709, -6.028785705566406, -5.815316677093506, -4.4302520751953125, -0.894775390625, 0.157958984375, -0.22412109375, 
240, 3435413802, 0.8798378705978394, -0.04490724205970764, -0.4560120701789856, -0.1262773871421814, 7.9044084548950195, 0.4072870910167694, 5.545988082885742, -5.794362545013428, -6.565760612487793, -4.348362445831299, -0.89404296875, 0.1611328125, -0.22509765625, 
241, 3435422135, 0.8795535564422607, -0.04517151415348053, -0.4564036726951599, -0.12674885988235474, 7.959364891052246, 0.48265767097473145, 5.6231369972229, -5.950328350067139, -7.199227809906006, -4.655810356140137, -0.896240234375, 0.1591796875, -0.22314453125, 
242, 3435430468, 0.879252552986145, -0.045446038246154785, -0.45680931210517883, -0.1272760033607483, 8.056730270385742, 0.5548503398895264, 5.633736610412598, -6.290613651275635, -7.451399326324463, -5.2294158935546875, -0.896728515625, 0.157470703125, -0.22314453125, 
243, 3435438801, 0.8789703845977783, -0.04569666087627411, -0.45716363191604614, -0.1278611719608307, 8.140677452087402, 0.6125356554985046, 5.6920928955078125, -6.4883551597595215, -6.636585235595703, -6.036007881164551, -0.8974609375, 0.1591796875, -0.221923828125, 
244, 3435447134, 0.8787214756011963, -0.04591171443462372, -0.4574393928050995, -0.12850838899612427, 8.193377494812012, 0.597128689289093, 5.731761455535889, -6.521987438201904, -5.374059677124023, -6.8821492195129395, -0.897705078125, 0.15771484375, -0.21875, 
245, 3435455467, 0.8785153031349182, -0.04607421159744263, -0.4576340615749359, -0.12916550040245056, 8.211997032165527, 0.5764610171318054, 5.76959753036499, -6.160877227783203, -4.032487869262695, -7.25934362411499, -0.898193359375, 0.156005859375, -0.21923828125, 
246, 3435463800, 0.8783451914787292, -0.04625234007835388, -0.45774853229522705, -0.1298505663871765, 8.229545593261719, 0.5584840178489685, 5.766150951385498, -6.54903507232666, -2.839351177215576, -7.331626892089844, -0.899658203125, 0.157470703125, -0.219970703125, 
247, 3435472133, 0.8782373070716858, -0.046380311250686646, -0.45775991678237915, -0.13049176335334778, 8.17276382446289, 0.5321955680847168, 5.709270000457764, -5.908398151397705, -1.147428274154663, -6.991957664489746, -0.898193359375, 0.15625, -0.21826171875, 
248, 3435480466, 0.8781924247741699, -0.04644104838371277, -0.4576641023159027, -0.1311071217060089, 8.175786972045898, 0.45666420459747314, 5.6025872230529785, -4.990690231323242, 0.6534191966056824, -6.870288848876953, -0.899658203125, 0.154052734375, -0.21826171875, 
249, 3435488799, 0.8781124949455261, -0.04652342200279236, -0.4576346278190613, -0.13171511888504028, 8.093308448791504, 0.4194433093070984, 5.7147345542907715, -5.209897518157959, -0.4181908369064331, -6.808379650115967, -0.896728515625, 0.155029296875, -0.21875, 
250, 3435497132, 0.8779662847518921, -0.046731844544410706, -0.45771101117134094, -0.13234877586364746, 8.065913200378418, 0.3997117877006531, 5.882652282714844, -6.642477512359619, -2.318998098373413, -6.4546990394592285, -0.897705078125, 0.151123046875, -0.21630859375, 
251, 3435505465, 0.8778801560401917, -0.04687914252281189, -0.45770537853240967, -0.132887065410614, 8.15045166015625, 0.3249565064907074, 5.8235931396484375, -5.486967086791992, -0.9061933159828186, -5.564245223999023, -0.899658203125, 0.153076171875, -0.2216796875, 
252, 3435513798, 0.8779255151748657, -0.04685819149017334, -0.4574895203113556, -0.13333633542060852, 8.101975440979004, 0.35012295842170715, 5.734378814697266, -3.12302827835083, 2.7154674530029297, -5.134616374969482, -0.897216796875, 0.153076171875, -0.21826171875, 
253, 3435522131, 0.8779610395431519, -0.04678390920162201, -0.45730364322662354, -0.13376522064208984, 7.990576267242432, 0.3393733501434326, 5.708942413330078, -2.460747003555298, 2.3654747009277344, -5.358280658721924, -0.8984375, 0.149658203125, -0.2177734375, 
254, 3435530464, 0.8778821229934692, -0.04678468406200409, -0.4573269486427307, -0.1342029869556427, 7.959068298339844, 0.29699042439460754, 5.718651294708252, -2.953923225402832, -1.001964807510376, -5.241223335266113, -0.900390625, 0.1494140625, -0.2197265625, 
255, 3435538797, 0.8777655363082886, -0.046808481216430664, -0.4574342668056488, -0.13459160923957825, 7.924759864807129, 0.2649126946926117, 5.777516841888428, -2.790043592453003, -2.327680826187134, -4.6258158683776855, -0.89892578125, 0.149169921875, -0.21728515625, 
256, 3435547130, 0.8776811361312866, -0.04678206145763397, -0.45750972628593445, -0.13489395380020142, 7.914666175842285, 0.30217379331588745, 5.8416032791137695, -1.6898608207702637, -1.7037949562072754, -3.816969394683838, -0.8974609375, 0.149169921875, -0.21923828125, 
257, 3435555463, 0.8776650428771973, -0.04674674570560455, -0.457482248544693, -0.13510379195213318, 7.8466796875, 0.25689172744750977, 5.831998348236084, -1.2277286052703857, -0.07895587384700775, -2.6181719303131104, -0.89990234375, 0.150146484375, -0.21875, 
258, 3435563796, 0.877678394317627, -0.046763092279434204, -0.45741555094718933, -0.13523739576339722, 7.768190383911133, 0.2808026075363159, 5.730161666870117, -1.3358463048934937, 0.4392841160297394, -1.2423031330108643, -0.89794921875, 0.150146484375, -0.21826171875, 
259, 3435572129, 0.8776124715805054, -0.04686862230300903, -0.45752057433128357, -0.13527360558509827, 7.726822853088379, 0.3358059227466583, 5.678825378417969, -1.614145278930664, -2.3662047386169434, 0.18800850212574005, -0.8984375, 0.147705078125, -0.21875, 
260, 3435580462, 0.8774623870849609, -0.04703781008720398, -0.45780694484710693, -0.1352197229862213, 7.761844635009766, 0.41239872574806213, 5.68394136428833, -1.450316309928894, -5.25400447845459, 1.4509183168411255, -0.8994140625, 0.149658203125, -0.21875, 
261, 3435588795, 0.8772767186164856, -0.047226354479789734, -0.45818784832954407, -0.13506773114204407, 7.844999313354492, 0.5289635062217712, 5.7619733810424805, -1.0049874782562256, -6.7262091636657715, 2.5770485401153564, -0.89892578125, 0.149658203125, -0.22021484375, 
262, 3435597128, 0.8771078586578369, -0.047424837946891785, -0.45854517817497253, -0.13488367199897766, 7.960926532745361, 0.610445499420166, 5.822545528411865, -0.8631357550621033, -6.368096351623535, 3.124655246734619, -0.89892578125, 0.148193359375, -0.216796875, 
263, 3435605461, 0.8769846558570862, -0.0476108193397522, -0.45881569385528564, -0.1346992552280426, 8.095791816711426, 0.6282017230987549, 5.815638542175293, -0.841696560382843, -5.009209156036377, 3.1912007331848145, -0.89990234375, 0.149169921875, -0.2158203125, 
264, 3435613794, 0.8769081830978394, -0.04775556921958923, -0.45899999141693115, -0.1345176100730896, 8.165043830871582, 0.6560268998146057, 5.7784342765808105, -0.5706980228424072, -3.6036288738250732, 2.997403621673584, -0.89892578125, 0.149658203125, -0.21630859375, 
265, 3435622127, 0.8768497705459595, -0.04785598814487457, -0.45914942026138306, -0.13435161113739014, 8.209074974060059, 0.664620041847229, 5.761407852172852, -0.18640761077404022, -2.975848913192749, 2.588087797164917, -0.90087890625, 0.150146484375, -0.21484375, 
266, 3435630460, 0.8768255710601807, -0.04787534475326538, -0.459231436252594, -0.1342225968837738, 8.242746353149414, 0.589953601360321, 5.786472797393799, 0.5344409942626953, -1.7679842710494995, 1.7780122756958008, -0.90087890625, 0.148193359375, -0.21533203125, 
267, 3435638793, 0.8768903017044067, -0.04780511558055878, -0.4591463804244995, -0.1341152787208557, 8.299670219421387, 0.4882703721523285, 5.794674873352051, 1.198054552078247, 0.9850978255271912, 1.217290997505188, -0.897705078125, 0.153076171875, -0.2158203125, 
268, 3435647126, 0.8770643472671509, -0.04764905571937561, -0.4588654339313507, -0.13399410247802734, 8.294867515563965, 0.39974653720855713, 5.762440204620361, 2.0611519813537598, 4.189720630645752, 1.1816359758377075, -0.900634765625, 0.153076171875, -0.21533203125, 
269, 3435655459, 0.8773067593574524, -0.047376617789268494, -0.4584736227989197, -0.1338452398777008, 8.23678207397461, 0.3228624165058136, 5.68218994140625, 3.3615095615386963, 6.146596431732178, 0.9116874933242798, -0.899658203125, 0.153076171875, -0.2158203125, 
270, 3435663792, 0.8775604367256165, -0.047048404812812805, -0.4580650329589844, -0.13369688391685486, 8.160295486450195, 0.2805372476577759, 5.601583003997803, 4.125761985778809, 6.532680988311768, 0.6519848108291626, -0.900146484375, 0.152587890625, -0.21728515625, 
271, 3435672125, 0.8778117895126343, -0.04669283330440521, -0.45767053961753845, -0.1335221529006958, 8.11202621459961, 0.20709973573684692, 5.552715301513672, 4.53415584564209, 6.37110710144043, 0.7197601795196533, -0.897216796875, 0.151611328125, -0.216796875, 
272, 3435680458, 0.8780524730682373, -0.04634794592857361, -0.4572937488555908, -0.13334974646568298, 8.069207191467285, 0.19753770530223846, 5.534376621246338, 4.528776168823242, 6.081409454345703, 0.7951171398162842, -0.897705078125, 0.151123046875, -0.2197265625, 
273, 3435688791, 0.8782880306243896, -0.046011924743652344, -0.4569408893585205, -0.13312527537345886, 8.057999610900879, 0.20022742450237274, 5.523169040679932, 4.654388427734375, 5.701780319213867, 1.3716936111450195, -0.896240234375, 0.151123046875, -0.22021484375, 
274, 3435697124, 0.8785169720649719, -0.0457146018743515, -0.4566032588481903, -0.13287511467933655, 8.053670883178711, 0.2248430699110031, 5.574812889099121, 4.507490634918213, 5.397406578063965, 1.9857181310653687, -0.8984375, 0.148681640625, -0.21923828125, 
275, 3435705457, 0.8787425756454468, -0.045431554317474365, -0.45627760887145996, -0.13259956240653992, 8.05479907989502, 0.21376138925552368, 5.639078617095947, 4.459720611572266, 5.185858726501465, 2.3423964977264404, -0.89501953125, 0.151123046875, -0.22119140625, 
276, 3435713790, 0.8789774775505066, -0.04513731598854065, -0.4559441804885864, -0.13228970766067505, 8.048418998718262, 0.19864165782928467, 5.683588981628418, 4.855614185333252, 5.341029644012451, 2.7343199253082275, -0.89794921875, 0.14990234375, -0.2216796875, 
277, 3435722123, 0.8792382478713989, -0.044817179441452026, -0.45556750893592834, -0.13196268677711487, 8.073997497558594, 0.23664696514606476, 5.691296577453613, 5.213905334472656, 6.062453746795654, 2.8544247150421143, -0.89697265625, 0.150390625, -0.224609375, 
278, 3435730456, 0.8795194625854492, -0.04444846510887146, -0.4551534056663513, -0.131641685962677, 8.134047508239746, 0.29513654112815857, 5.677986145019531, 5.640793323516846, 6.730884075164795, 2.4991557598114014, -0.896728515625, 0.151123046875, -0.2236328125, 
279, 3435738789, 0.8798091411590576, -0.044040173292160034, -0.4547153115272522, -0.13135692477226257, 8.109556198120117, 0.29238390922546387, 5.651797294616699, 5.855158805847168, 7.166992664337158, 1.8426883220672607, -0.897705078125, 0.15185546875, -0.22509765625, 
280, 3435747122, 0.8800936937332153, -0.04365725815296173, -0.4542776644229889, -0.13109222054481506, 8.001035690307617, 0.2706727981567383, 5.666060924530029, 5.486518383026123, 7.100472450256348, 1.7859526872634888, -0.89404296875, 0.15087890625, -0.22607421875, 
281, 3435755455, 0.8803747892379761, -0.043272465467453, -0.45385146141052246, -0.13080865144729614, 7.950626373291016, 0.3030214011669159, 5.6372222900390625, 5.579549789428711, 6.928677558898926, 1.9536492824554443, -0.895751953125, 0.15087890625, -0.228515625, 
282, 3435763788, 0.880649209022522, -0.04290720820426941, -0.45344269275665283, -0.13049864768981934, 7.848597049713135, 0.2827172875404358, 5.693569660186768, 5.600732326507568, 6.628503322601318, 2.4095823764801025, -0.893798828125, 0.1513671875, -0.2294921875, 
283, 3435772121, 0.8809199333190918, -0.04256521165370941, -0.4530566334724426, -0.1301232874393463, 7.799344062805176, 0.2857407331466675, 5.731884956359863, 5.648092746734619, 6.243419170379639, 3.252777576446533, -0.895751953125, 0.15234375, -0.23193359375, 
284, 3435780454, 0.8811856508255005, -0.042181387543678284, -0.4527028799057007, -0.1296808123588562, 7.778217792510986, 0.33963295817375183, 5.743301868438721, 6.745944976806641, 5.863123893737793, 3.849973678588867, -0.894287109375, 0.15283203125, -0.2314453125, 
285, 3435788787, 0.8814253211021423, -0.04172438383102417, -0.4524189829826355, -0.1291886568069458, 7.789388656616211, 0.45144468545913696, 5.759207725524902, 8.009854316711426, 4.9542036056518555, 3.8902392387390137, -0.894775390625, 0.15087890625, -0.232421875, 
286, 3435797120, 0.8816112875938416, -0.04123903810977936, -0.4522377550601959, -0.12870997190475464, 7.772300720214844, 0.5389449596405029, 5.791477203369141, 8.46258544921875, 3.435586452484131, 3.4159657955169678, -0.894775390625, 0.1513671875, -0.23291015625, 
287, 3435805453, 0.8817464709281921, -0.040729373693466187, -0.45214658975601196, -0.12826508283615112, 7.831327438354492, 0.5787264704704285, 5.801162242889404, 8.615528106689453, 2.0867919921875, 2.6788907051086426, -0.895263671875, 0.1513671875, -0.23291015625, 
288, 3435813786, 0.8818559646606445, -0.040167659521102905, -0.4520925283432007, -0.12788039445877075, 7.911174774169922, 0.6158576011657715, 5.759925842285156, 8.986551284790039, 1.6055772304534912, 1.5949729681015015, -0.8935546875, 0.150390625, -0.233154296875, 
289, 3435822119, 0.8819437026977539, -0.039553865790367126, -0.45206373929977417, -0.127567321062088, 7.97310733795166, 0.5625252723693848, 5.817389965057373, 9.120795249938965, 1.2918028831481934, 0.2999171018600464, -0.892333984375, 0.15283203125, -0.234375, 
290, 3435830452, 0.8820486068725586, -0.038956984877586365, -0.4519694745540619, -0.1273600459098816, 7.989068031311035, 0.5019063353538513, 5.848698139190674, 8.236026763916016, 2.223828077316284, -0.7610116600990295, -0.898681640625, 0.149658203125, -0.23779296875, 
291, 3435838785, 0.8821816444396973, -0.03829921782016754, -0.45181480050086975, -0.12718689441680908, 7.963139533996582, 0.5099143981933594, 5.834577560424805, 8.671828269958496, 3.257465124130249, -1.4731645584106445, -0.893310546875, 0.15234375, -0.23583984375, 
292, 3435847118, 0.8823227882385254, -0.037544429302215576, -0.45164939761161804, -0.1270197629928589, 7.851674556732178, 0.5350633859634399, 5.7841796875, 9.766940116882324, 3.608252763748169, -2.140415668487549, -0.892333984375, 0.151611328125, -0.238525390625, 
293, 3435855451, 0.88242107629776, -0.03674091398715973, -0.45156753063201904, -0.12686359882354736, 7.773465633392334, 0.5961298942565918, 5.776486396789551, 10.315568923950195, 2.412553548812866, -2.762533664703369, -0.89111328125, 0.15087890625, -0.238525390625, 
294, 3435863784, 0.8824495077133179, -0.03596918284893036, -0.4516080617904663, -0.12674236297607422, 7.705668926239014, 0.5778858661651611, 5.748849868774414, 10.018906593322754, 0.4650264382362366, -3.092829465866089, -0.8935546875, 0.147216796875, -0.237548828125, 
295, 3435872117, 0.8824471235275269, -0.03526581823825836, -0.4517015218734741, -0.12662336230278015, 7.674605846405029, 0.5523186922073364, 5.740389823913574, 9.191566467285156, -0.4929075837135315, -2.808767557144165, -0.8935546875, 0.146728515625, -0.236083984375, 
296, 3435880450, 0.8824179768562317, -0.034695208072662354, -0.4518432021141052, -0.12647885084152222, 7.684412956237793, 0.5248057842254639, 5.731467247009277, 7.87084436416626, -1.4805667400360107, -1.710505723953247, -0.89306640625, 0.148193359375, -0.239990234375, 
297, 3435888783, 0.8823493123054504, -0.034249261021614075, -0.4520588219165802, -0.12630772590637207, 7.6705803871154785, 0.5199121832847595, 5.716796875, 6.585010051727295, -2.8585357666015625, -0.7410326600074768, -0.89404296875, 0.146728515625, -0.237548828125, 
298, 3435897116, 0.8822948932647705, -0.03395801782608032, -0.45224741101264954, -0.1260918378829956, 7.707862854003906, 0.5668569803237915, 5.761981010437012, 4.994007587432861, -2.726853132247925, 0.8256749510765076, -0.89599609375, 0.14501953125, -0.238037109375, 
299, 3435905449, 0.8822444677352905, -0.033728450536727905, -0.45243844389915466, -0.12582015991210938, 7.723809242248535, 0.5083684921264648, 5.821455478668213, 4.62067985534668, -2.8639659881591797, 1.9171485900878906, -0.89306640625, 0.145263671875, -0.237548828125, 
300, 3435913782, 0.8822208046913147, -0.033570051193237305, -0.45258331298828125, -0.12550801038742065, 7.751424312591553, 0.3912138044834137, 5.985111713409424, 3.9221794605255127, -2.2810885906219482, 2.892385244369507, -0.89453125, 0.148681640625, -0.239013671875, 
301, 3435922115, 0.8821811079978943, -0.033419519662857056, -0.4527728855609894, -0.12514227628707886, 7.787041187286377, 0.33447757363319397, 6.026740074157715, 4.227373123168945, -2.9601988792419434, 3.542935371398926, -0.89208984375, 0.147705078125, -0.239990234375, 
302, 3435930448, 0.8821536302566528, -0.03324677050113678, -0.4529511630535126, -0.12473562359809875, 7.814792633056641, 0.419402539730072, 6.036526679992676, 4.665658473968506, -2.735177516937256, 3.8852438926696777, -0.892578125, 0.145751953125, -0.238037109375, 
303, 3435938781, 0.8820984363555908, -0.03303234279155731, -0.4531834125518799, -0.12433832883834839, 7.777360439300537, 0.5024957656860352, 6.0027594566345215, 5.146027088165283, -3.4906437397003174, 3.406949281692505, -0.8955078125, 0.148681640625, -0.236328125, 
304, 3435947114, 0.8819887042045593, -0.03286279737949371, -0.4534969925880432, -0.12401831150054932, 7.787207126617432, 0.578612208366394, 5.9582438468933105, 4.354240417480469, -4.847813606262207, 2.695385694503784, -0.89306640625, 0.146240234375, -0.235107421875, 
305, 3435955447, 0.8818381428718567, -0.03278191387653351, -0.4538511335849762, -0.12381583452224731, 7.924295902252197, 0.6261529922485352, 5.891933917999268, 2.530353307723999, -5.700204372406006, 1.697378396987915, -0.89306640625, 0.149169921875, -0.237548828125, 
306, 3435963780, 0.8816388845443726, -0.032655179500579834, -0.45428991317749023, -0.12365862727165222, 8.001974105834961, 0.6944881081581116, 5.882178783416748, 2.9914097785949707, -6.924001693725586, 0.7757270932197571, -0.8935546875, 0.148681640625, -0.234619140625, 
307, 3435972113, 0.8814767599105835, -0.03252387046813965, -0.4546448588371277, -0.12354564666748047, 8.107826232910156, 0.8063488006591797, 5.872064590454102, 2.5426485538482666, -5.658684730529785, 0.25071218609809875, -0.8935546875, 0.147216796875, -0.235107421875, 
308, 3435980446, 0.8814058303833008, -0.03243382275104523, -0.4547991454601288, -0.12350672483444214, 8.256582260131836, 0.969040036201477, 5.860007286071777, 1.382220983505249, -2.683231830596924, -0.08077448606491089, -0.8955078125, 0.14990234375, -0.2333984375, 
309, 3435988779, 0.881377637386322, -0.03228384256362915, -0.4548439681529999, -0.12358233332633972, 8.306622505187988, 1.021079659461975, 5.7500224113464355, 1.1406785249710083, -0.9439998269081116, -1.7725690603256226, -0.896484375, 0.145751953125, -0.235107421875, 
310, 3435997112, 0.8813713788986206, -0.032126396894454956, -0.4548073410987854, -0.12380248308181763, 8.28046703338623, 0.975045919418335, 5.605892658233643, 0.2833958864212036, 0.26510730385780334, -3.4482009410858154, -0.89306640625, 0.145751953125, -0.232666015625, 
311, 3436005445, 0.8814057111740112, -0.03188429772853851, -0.4546768069267273, -0.12409913539886475, 8.294824600219727, 0.9202283024787903, 5.375835418701172, 0.6158686876296997, 1.827012062072754, -4.834827423095703, -0.89501953125, 0.148193359375, -0.235107421875, 
312, 3436013778, 0.8814094662666321, -0.03170858323574066, -0.4545533061027527, -0.12456947565078735, 8.241579055786133, 0.8515684008598328, 5.459019184112549, -1.204445242881775, 1.5223051309585571, -6.539249897003174, -0.8955078125, 0.146240234375, -0.233154296875, 
313, 3436022111, 0.8812727332115173, -0.031808480620384216, -0.454611212015152, -0.1252976953983307, 8.1288423538208, 0.7435822486877441, 5.59446382522583, -5.974738597869873, -1.9209269285202026, -8.29871940612793, -0.8955078125, 0.147216796875, -0.234619140625, 
314, 3436030444, 0.8811689019203186, -0.032002419233322144, -0.454562246799469, -0.12615415453910828, 8.156054496765137, 0.5762495398521423, 5.392304420471191, -8.017396926879883, -0.5208526253700256, -9.123546600341797, -0.8935546875, 0.142822265625, -0.232666015625, 
315, 3436038777, 0.881110668182373, -0.03212393820285797, -0.4544330835342407, -0.1269923746585846, 8.126717567443848, 0.44180265069007874, 5.249216079711914, -7.182705402374268, 0.850008487701416, -9.25797176361084, -0.896484375, 0.145751953125, -0.236572265625, 
316, 3436047110, 0.8809494376182556, -0.03256043791770935, -0.45444774627685547, -0.1279434859752655, 7.925044536590576, 0.45955899357795715, 5.461095809936523, -11.460001945495605, -2.031529188156128, -8.885079383850098, -0.894287109375, 0.142333984375, -0.232666015625, 
317, 3436055443, 0.8805737495422363, -0.033282965421676636, -0.45482444763183594, -0.12900042533874512, 7.73217248916626, 0.3811947703361511, 5.5872368812561035, -15.156500816345215, -8.222801208496094, -8.983030319213867, -0.89697265625, 0.143310546875, -0.232666015625, 
318, 3436063776, 0.8801499009132385, -0.03391967713832855, -0.45534420013427734, -0.1298905909061432, 7.71662712097168, 0.1707935929298401, 5.713805675506592, -12.732621192932129, -10.171684265136719, -7.58684778213501, -0.895263671875, 0.141357421875, -0.232177734375, 
319, 3436072109, 0.8798837661743164, -0.03444512188434601, -0.45565149188041687, -0.13047659397125244, 7.751435279846191, 0.09889329969882965, 5.846275329589844, -9.91761589050293, -6.566812038421631, -4.303128242492676, -0.895751953125, 0.141845703125, -0.230712890625, 
320, 3436080442, 0.8796838521957397, -0.03476026654243469, -0.4559229612350464, -0.13079187273979187, 7.664219379425049, 0.19733624160289764, 5.895552158355713, -5.5777177810668945, -5.457971572875977, -2.125917673110962, -0.895751953125, 0.140380859375, -0.230224609375, 
321, 3436088775, 0.8794893026351929, -0.034941598773002625, -0.4562441408634186, -0.13093149662017822, 7.570865631103516, 0.3213701844215393, 5.860610485076904, -2.9411418437957764, -5.882962226867676, -0.966437816619873, -0.898681640625, 0.14013671875, -0.231201171875, 
322, 3436097108, 0.8792058825492859, -0.035119324922561646, -0.4567593038082123, -0.13099220395088196, 7.622295379638672, 0.40804943442344666, 5.855762958526611, -1.9216694831848145, -8.803933143615723, -0.17731453478336334, -0.896728515625, 0.140869140625, -0.229248046875, 
323, 3436105441, 0.8788723349571228, -0.03532898426055908, -0.4573756456375122, -0.13102301955223083, 7.72986364364624, 0.476106196641922, 5.905956268310547, -2.158550262451172, -10.431334495544434, 0.12010516971349716, -0.8984375, 0.141845703125, -0.228271484375, 
324, 3436113774, 0.8785467147827148, -0.03558070957660675, -0.4579780101776123, -0.13103431463241577, 7.801261901855469, 0.5172210931777954, 5.931427001953125, -2.3684334754943848, -10.281003952026367, 0.7661218643188477, -0.899169921875, 0.138427734375, -0.225830078125, 
325, 3436122107, 0.8782858848571777, -0.03578998148441315, -0.4584789574146271, -0.13097533583641052, 7.881052017211914, 0.6234978437423706, 5.909160614013672, -1.6342779397964478, -8.613234519958496, 1.4772241115570068, -0.89990234375, 0.142333984375, -0.2265625, 
326, 3436130440, 0.8780552744865417, -0.03599885106086731, -0.45892134308815, -0.13091450929641724, 7.961302280426025, 0.7771946787834167, 5.833728313446045, -1.6392472982406616, -7.706671714782715, 1.6179490089416504, -0.899169921875, 0.140869140625, -0.225341796875, 
327, 3436138773, 0.877817690372467, -0.03620825707912445, -0.4593772888183594, -0.13085082173347473, 8.064558982849121, 0.8654801845550537, 5.711883544921875, -1.757456660270691, -7.932690143585205, 1.5422585010528564, -0.900634765625, 0.139892578125, -0.221435546875, 
328, 3436147106, 0.8775845170021057, -0.03632114827632904, -0.45982590317726135, -0.13080713152885437, 8.216161727905273, 0.9112623333930969, 5.669704914093018, -0.5783310532569885, -7.618225574493408, 0.7966029047966003, -0.902099609375, 0.141357421875, -0.2197265625, 
329, 3436155439, 0.8773886561393738, -0.036344632506370544, -0.46019867062568665, -0.13080433011054993, 8.316439628601074, 0.9016183018684387, 5.6761322021484375, 0.057657647877931595, -6.292124271392822, -0.19040343165397644, -0.898681640625, 0.14111328125, -0.220947265625, 
330, 3436163772, 0.8772591352462769, -0.036328524351119995, -0.46043261885643005, -0.13085347414016724, 8.357452392578125, 0.7744501233100891, 5.693577766418457, 0.05627446994185448, -4.093628406524658, -0.8454618453979492, -0.9013671875, 0.143310546875, -0.2236328125, 
331, 3436172105, 0.877189040184021, -0.03631138801574707, -0.4605408310890198, -0.13094758987426758, 8.32729434967041, 0.6491162776947021, 5.639754295349121, -0.41227397322654724, -2.1765825748443604, -1.2248600721359253, -0.900146484375, 0.139892578125, -0.221435546875, 
332, 3436180438, 0.8771620392799377, -0.036295726895332336, -0.460567831993103, -0.1310376226902008, 8.280295372009277, 0.572871208190918, 5.526679992675781, -0.7260482907295227, -0.944896399974823, -1.17112135887146, -0.898681640625, 0.14111328125, -0.220458984375, 
333, 3436188771, 0.8771238923072815, -0.03632771968841553, -0.4606059789657593, -0.13114997744560242, 8.192533493041992, 0.5199572443962097, 5.458185195922852, -1.3249346017837524, -1.216688871383667, -1.0947139263153076, -0.900146484375, 0.139404296875, -0.219970703125, 
334, 3436197104, 0.8770610690116882, -0.03641189634799957, -0.46068093180656433, -0.13128364086151123, 8.177021026611328, 0.4545891582965851, 5.426079273223877, -1.9409570693969727, -1.8910859823226929, -1.0302941799163818, -0.899658203125, 0.1416015625, -0.220458984375, 
335, 3436205437, 0.8769787549972534, -0.03652447462081909, -0.4607924818992615, -0.13141068816184998, 8.152095794677734, 0.42697274684906006, 5.424429893493652, -2.2916672229766846, -2.5199413299560547, -0.8849846720695496, -0.899658203125, 0.139892578125, -0.218994140625, 
336, 3436213770, 0.8768706321716309, -0.03667531907558441, -0.46095162630081177, -0.1315321922302246, 8.11262035369873, 0.4298537075519562, 5.480749607086182, -2.5399718284606934, -3.3210268020629883, -0.5859384536743164, -0.899169921875, 0.14111328125, -0.218017578125, 
337, 3436222103, 0.8767367601394653, -0.036851271986961365, -0.46116384863853455, -0.1316312849521637, 8.044116020202637, 0.4858018755912781, 5.485620021820068, -2.7068228721618652, -4.189144134521484, -0.2807704508304596, -0.900634765625, 0.140380859375, -0.220458984375, 
338, 3436230436, 0.8766026496887207, -0.037057116627693176, -0.46137675642967224, -0.1317215859889984, 8.033199310302734, 0.5311700701713562, 5.508217811584473, -2.9192419052124023, -4.249542713165283, 0.06549560278654099, -0.901123046875, 0.1396484375, -0.217041015625, 
339, 3436238769, 0.8765010237693787, -0.037267401814460754, -0.46153244376182556, -0.13179200887680054, 8.045909881591797, 0.45811352133750916, 5.506235122680664, -2.991678476333618, -3.375891923904419, 0.3942286968231201, -0.898681640625, 0.137939453125, -0.217529296875, 
340, 3436247102, 0.8764423131942749, -0.037474408745765686, -0.4616173207759857, -0.13182657957077026, 8.070401191711426, 0.38821613788604736, 5.543070316314697, -2.7737014293670654, -2.2587015628814697, 0.9459336400032043, -0.899169921875, 0.137939453125, -0.217041015625, 
341, 3436255435, 0.8764107823371887, -0.03767344355583191, -0.46166902780532837, -0.1317988634109497, 8.078851699829102, 0.4014332890510559, 5.575743198394775, -2.3802154064178467, -1.7069966793060303, 1.6863642930984497, -0.901123046875, 0.14013671875, -0.21728515625, 
342, 3436263768, 0.8763762712478638, -0.03788258135318756, -0.4617369472980499, -0.1317300796508789, 8.044939041137695, 0.42127665877342224, 5.575656890869141, -2.161853790283203, -1.9567862749099731, 2.2580225467681885, -0.90283203125, 0.14208984375, -0.21630859375, 
343, 3436272101, 0.8763364553451538, -0.03809702396392822, -0.46182703971862793, -0.13161754608154297, 8.053472518920898, 0.44736015796661377, 5.594383239746094, -2.015084743499756, -2.3002734184265137, 2.7360613346099854, -0.901123046875, 0.1396484375, -0.217041015625, 
344, 3436280434, 0.8762860894203186, -0.03829219937324524, -0.46194517612457275, -0.1314818561077118, 8.097923278808594, 0.48815226554870605, 5.514657020568848, -1.4848957061767578, -2.6724741458892822, 2.921790361404419, -0.90283203125, 0.14453125, -0.21728515625, 
345, 3436288767, 0.8762317895889282, -0.03840930759906769, -0.462088942527771, -0.13130423426628113, 8.137497901916504, 0.5409523844718933, 5.435258388519287, -0.23469039797782898, -2.8870694637298584, 2.909878969192505, -0.901123046875, 0.1416015625, -0.2158203125, 
346, 3436297100, 0.8761187195777893, -0.03854328393936157, -0.46233561635017395, -0.13114997744560242, 8.075390815734863, 0.6210667490959167, 5.556543350219727, -0.5872191190719604, -4.529223918914795, 2.480968952178955, -0.9033203125, 0.14306640625, -0.21533203125, 
347, 3436305433, 0.8759838938713074, -0.03878602385520935, -0.4625925123691559, -0.13107365369796753, 8.10031509399414, 0.6728194952011108, 5.6977128982543945, -2.293793201446533, -4.939897060394287, 2.249006509780884, -0.9013671875, 0.1435546875, -0.2138671875, 
348, 3436313766, 0.8759405016899109, -0.0389256626367569, -0.46269741654396057, -0.13095146417617798, 8.239750862121582, 0.6742281317710876, 5.5725483894348145, -0.9225606918334961, -2.362183094024658, 2.4254884719848633, -0.90087890625, 0.1435546875, -0.21435546875, 
349, 3436322099, 0.8760167360305786, -0.038948118686676025, -0.4625939428806305, -0.1308005452156067, 8.291176795959473, 0.7178251147270203, 5.448190689086914, 0.3119301497936249, 1.1021804809570312, 2.3288462162017822, -0.9013671875, 0.14404296875, -0.21728515625, 
350, 3436330432, 0.8760725855827332, -0.03900720179080963, -0.46251410245895386, -0.1306917667388916, 8.194293022155762, 0.7349220514297485, 5.387974739074707, -0.3157082498073578, 0.6468875408172607, 2.02903151512146, -0.89990234375, 0.14453125, -0.21484375, 
351, 3436338765, 0.8760648369789124, -0.03911781311035156, -0.4625360667705536, -0.13063251972198486, 8.243609428405762, 0.6785506010055542, 5.359719276428223, -1.205290675163269, -1.0556010007858276, 1.5327558517456055, -0.90380859375, 0.14453125, -0.21875, 
352, 3436347098, 0.8760747909545898, -0.03924441337585449, -0.4625168442726135, -0.13059642910957336, 8.318439483642578, 0.5674049854278564, 5.381359577178955, -1.5073848962783813, -0.45768794417381287, 1.4668247699737549, -0.900390625, 0.145263671875, -0.2138671875, 
353, 3436355431, 0.8761380910873413, -0.039310142397880554, -0.4624069631099701, -0.13054001331329346, 8.382476806640625, 0.4981933534145355, 5.42558479309082, -0.8639552593231201, 1.0684465169906616, 1.4228450059890747, -0.900390625, 0.1435546875, -0.21533203125, 
354, 3436363764, 0.876289963722229, -0.03933344781398773, -0.46214139461517334, -0.1304541528224945, 8.398412704467773, 0.43141964077949524, 5.452024936676025, -0.3123015761375427, 3.5718023777008057, 1.7986059188842773, -0.89990234375, 0.14453125, -0.21484375, 
355, 3436372097, 0.87651526927948, -0.039280787110328674, -0.4617595374584198, -0.13030877709388733, 8.332106590270996, 0.33604660630226135, 5.413523197174072, 0.7230386734008789, 5.538796901702881, 2.1775174140930176, -0.90234375, 0.1435546875, -0.216796875, 
356, 3436380430, 0.8767505884170532, -0.03920459747314453, -0.46136388182640076, -0.13014936447143555, 8.248348236083984, 0.22668825089931488, 5.491098403930664, 1.1666003465652466, 5.809385299682617, 2.2730841636657715, -0.90185546875, 0.14599609375, -0.21484375, 
357, 3436388763, 0.8769776821136475, -0.03910171985626221, -0.46099400520324707, -0.129960834980011, 8.203839302062988, 0.043109357357025146, 5.626688003540039, 1.6435118913650513, 5.47529935836792, 2.3885018825531006, -0.90087890625, 0.14501953125, -0.21826171875, 
358, 3436397096, 0.8772276043891907, -0.03895089030265808, -0.4605945944786072, -0.12973558902740479, 8.137911796569824, -0.032366491854190826, 5.65116548538208, 2.4840428829193115, 6.045881271362305, 2.6214375495910645, -0.90087890625, 0.14599609375, -0.21484375, 
359, 3436405429, 0.8775143623352051, -0.038782551884651184, -0.4601380527019501, -0.1294666826725006, 8.111480712890625, -0.04340396821498871, 5.619016170501709, 2.825045347213745, 6.972964763641357, 3.095583200454712, -0.8994140625, 0.1455078125, -0.21826171875, 
360, 3436413762, 0.8777890801429749, -0.038681089878082275, -0.4596952199935913, -0.12920790910720825, 8.052496910095215, 0.03925775736570358, 5.508906364440918, 2.0372540950775146, 6.6186418533325195, 3.406130075454712, -0.90087890625, 0.14599609375, -0.22216796875, 
361, 3436422095, 0.8779961466789246, -0.038657739758491516, -0.4593680202960968, -0.1289723515510559, 7.970395565032959, 0.1952284425497055, 5.457440376281738, 1.0537439584732056, 4.667502403259277, 3.402543544769287, -0.89990234375, 0.146484375, -0.22216796875, 
362, 3436430428, 0.8781203031539917, -0.038691937923431396, -0.4591895341873169, -0.12875095009803772, 7.931358337402344, 0.31072327494621277, 5.503279209136963, 0.5521660447120667, 2.256742238998413, 3.4038243293762207, -0.89990234375, 0.14599609375, -0.22021484375, 
363, 3436438761, 0.8782116770744324, -0.03871898353099823, -0.45907971262931824, -0.12851077318191528, 7.952798366546631, 0.4066971242427826, 5.5818190574646, 0.8170683979988098, 1.2216708660125732, 3.4676806926727295, -0.8984375, 0.1474609375, -0.22314453125, 
364, 3436447094, 0.8783248662948608, -0.038701578974723816, -0.45894715189933777, -0.12821605801582336, 7.928226470947266, 0.4623543620109558, 5.666713714599609, 1.7125166654586792, 1.6844178438186646, 3.918440341949463, -0.89892578125, 0.1484375, -0.220703125, 
365, 3436455427, 0.8784558176994324, -0.038673460483551025, -0.4587898552417755, -0.1278896927833557, 7.930750370025635, 0.5167496800422668, 5.667663097381592, 1.941328525543213, 2.0943477153778076, 4.238643646240234, -0.8974609375, 0.1474609375, -0.2236328125, 
366, 3436463760, 0.8785762786865234, -0.03868141770362854, -0.45864421129226685, -0.1275833249092102, 7.951831817626953, 0.5491920113563538, 5.660014629364014, 1.4593455791473389, 1.8379238843917847, 4.239565849304199, -0.901123046875, 0.150390625, -0.224609375, 
367, 3436472093, 0.8786633610725403, -0.0387435108423233, -0.45855003595352173, -0.12730273604393005, 7.947206497192383, 0.5848248600959778, 5.662820339202881, 0.7184792757034302, 0.924315333366394, 4.182753562927246, -0.900390625, 0.14794921875, -0.22265625, 
368, 3436480426, 0.8787052631378174, -0.038828179240226746, -0.45852556824684143, -0.12707531452178955, 7.957022666931152, 0.5972419381141663, 5.689573287963867, 0.10965454578399658, -0.2197573482990265, 3.5081770420074463, -0.89794921875, 0.14990234375, -0.22412109375, 
369, 3436488759, 0.8787446022033691, -0.03895635902881622, -0.4584909677505493, -0.1268881857395172, 7.979080677032471, 0.633147656917572, 5.701344966888428, -0.7063252925872803, -0.16855446994304657, 3.2856147289276123, -0.898681640625, 0.15185546875, -0.22412109375, 
370, 3436497092, 0.8787813186645508, -0.039086684584617615, -0.45844683051109314, -0.12675270438194275, 7.99245548248291, 0.7147547602653503, 5.681066513061523, -0.9608795642852783, -0.040303997695446014, 2.745615005493164, -0.899169921875, 0.152587890625, -0.22216796875, 
371, 3436505425, 0.8788185119628906, -0.039214521646499634, -0.458391934633255, -0.12665459513664246, 7.989198684692383, 0.718766450881958, 5.650494575500488, -1.2950429916381836, 0.11201104521751404, 2.216399908065796, -0.900634765625, 0.15234375, -0.22216796875, 
372, 3436513758, 0.8788431882858276, -0.039351388812065125, -0.4583486020565033, -0.12659788131713867, 7.990652561187744, 0.7234508395195007, 5.6556077003479, -1.5426300764083862, -0.09419634193181992, 1.8135902881622314, -0.897705078125, 0.15283203125, -0.22607421875, 
373, 3436522091, 0.8788776397705078, -0.039461538195610046, -0.4582861661911011, -0.1265506148338318, 8.01530933380127, 0.7082548141479492, 5.662801742553711, -1.4364079236984253, 0.24313032627105713, 1.4787098169326782, -0.899169921875, 0.15234375, -0.2255859375, 
374, 3436530424, 0.8789181709289551, -0.03957317769527435, -0.45819947123527527, -0.1265486180782318, 8.025649070739746, 0.70362788438797, 5.673609256744385, -1.6482632160186768, 0.6024211645126343, 1.0441385507583618, -0.899169921875, 0.15087890625, -0.2255859375, 
375, 3436538757, 0.8789790868759155, -0.039656862616539, -0.4580730199813843, -0.12655633687973022, 8.026938438415527, 0.6678935289382935, 5.694437503814697, -1.4936814308166504, 1.2637550830841064, 0.7730376124382019, -0.897705078125, 0.15234375, -0.22509765625, 
376, 3436547090, 0.8790777325630188, -0.039688631892204285, -0.4578748345375061, -0.1265788972377777, 8.038336753845215, 0.6153033375740051, 5.697922229766846, -1.0003255605697632, 2.468008518218994, 0.4061649739742279, -0.90087890625, 0.1494140625, -0.22509765625, 
377, 3436555423, 0.8792199492454529, -0.03964909911155701, -0.4576050341129303, -0.1265784502029419, 8.006982803344727, 0.54245525598526, 5.710082054138184, -0.19227324426174164, 3.7164716720581055, 0.2924633026123047, -0.899658203125, 0.15283203125, -0.22802734375, 
378, 3436563756, 0.8793721199035645, -0.039581477642059326, -0.45731639862060547, -0.12658625841140747, 8.01710319519043, 0.5174523591995239, 5.690082550048828, 0.1654423326253891, 4.06418514251709, 0.10299482941627502, -0.897216796875, 0.15185546875, -0.2255859375, 
379, 3436572089, 0.879519522190094, -0.03949122130870819, -0.4570443630218506, -0.12657254934310913, 7.980554103851318, 0.4806962013244629, 5.6719069480896, 0.5096976161003113, 3.8566839694976807, 0.14648780226707458, -0.8974609375, 0.150390625, -0.22705078125, 
380, 3436580422, 0.8796430826187134, -0.039400383830070496, -0.4568179249763489, -0.12656009197235107, 7.949459552764893, 0.44372913241386414, 5.684875011444092, 0.6664567589759827, 3.161052703857422, 0.11667285114526749, -0.897705078125, 0.15478515625, -0.2275390625, 
381, 3436588755, 0.8797653913497925, -0.03928095102310181, -0.4566030502319336, -0.12652209401130676, 7.926069736480713, 0.4535082280635834, 5.70698881149292, 1.1781522035598755, 3.051270008087158, 0.23834046721458435, -0.897216796875, 0.15234375, -0.2265625, 
382, 3436597088, 0.8798957467079163, -0.03914877772331238, -0.4563823342323303, -0.12645307183265686, 7.92775297164917, 0.476563036441803, 5.723782539367676, 1.534523367881775, 3.176344633102417, 0.5510903000831604, -0.896240234375, 0.152587890625, -0.22607421875, 
383, 3436605421, 0.8800265192985535, -0.03900653123855591, -0.4561702013015747, -0.12635204195976257, 7.889919757843018, 0.45964276790618896, 5.706861972808838, 1.7938930988311768, 3.072658061981201, 0.8232671618461609, -0.897216796875, 0.15087890625, -0.2275390625, 
384, 3436613754, 0.8801385760307312, -0.03892052173614502, -0.4559914767742157, -0.12624341249465942, 7.911424160003662, 0.46588772535324097, 5.7109246253967285, 1.2883704900741577, 2.4514875411987305, 1.2657275199890137, -0.896484375, 0.150390625, -0.22802734375, 
385, 3436622087, 0.8802129626274109, -0.03886789083480835, -0.45588716864585876, -0.12611737847328186, 7.8780646324157715, 0.4896259605884552, 5.757767200469971, 1.0634005069732666, 1.2476437091827393, 1.5615205764770508, -0.898681640625, 0.15283203125, -0.22900390625, 
386, 3436630420, 0.8802626132965088, -0.03881368041038513, -0.45584070682525635, -0.12595629692077637, 7.880805015563965, 0.414812296628952, 5.832694053649902, 1.428838849067688, 0.37650367617607117, 1.9201712608337402, -0.896728515625, 0.15185546875, -0.2294921875, 
387, 3436638753, 0.8803310394287109, -0.038758352398872375, -0.45577335357666016, -0.12573713064193726, 7.895892143249512, 0.38789719343185425, 5.889503002166748, 1.7093404531478882, 0.7138431668281555, 2.6196961402893066, -0.895751953125, 0.15283203125, -0.23046875, 
388, 3436647086, 0.8804234266281128, -0.03866425156593323, -0.45567840337753296, -0.12546315789222717, 7.874410629272461, 0.29282405972480774, 5.914824962615967, 2.5576069355010986, 1.2404718399047852, 3.1372063159942627, -0.895263671875, 0.15283203125, -0.228515625, 
389, 3436655419, 0.8805381655693054, -0.038542285561561584, -0.45556238293647766, -0.1251164674758911, 7.862110614776611, 0.2427719384431839, 5.915984153747559, 3.234309434890747, 1.6402589082717896, 3.835808277130127, -0.895263671875, 0.15380859375, -0.23095703125, 
390, 3436663752, 0.8806552886962891, -0.03842128813266754, -0.45545506477355957, -0.12472006678581238, 7.838235378265381, 0.2817378640174866, 5.883391380310059, 3.6424720287323, 1.5266340970993042, 4.498935222625732, -0.898193359375, 0.15087890625, -0.2294921875, 
391, 3436672085, 0.8807369470596313, -0.03829461336135864, -0.45542341470718384, -0.12429741024971008, 7.799074649810791, 0.36140674352645874, 5.855171203613281, 3.933655023574829, 0.38070443272590637, 4.653645992279053, -0.895751953125, 0.1552734375, -0.23193359375, 
392, 3436680418, 0.8807530999183655, -0.038219764828681946, -0.45551687479019165, -0.12386196851730347, 7.767867565155029, 0.4177764356136322, 5.857231140136719, 3.6186513900756836, -1.6361476182937622, 4.983941078186035, -0.896240234375, 0.154296875, -0.23291015625, 
393, 3436688751, 0.8807468414306641, -0.03818272054195404, -0.45565712451934814, -0.12340065836906433, 7.779062271118164, 0.45833975076675415, 5.836156845092773, 3.3029556274414062, -2.4273457527160645, 5.417384624481201, -0.895263671875, 0.154296875, -0.2314453125, 
394, 3436697084, 0.8807433247566223, -0.03817000985145569, -0.45579731464385986, -0.12291154265403748, 7.8469557762146, 0.5411013960838318, 5.818317890167236, 3.2710399627685547, -2.4591329097747803, 5.962839603424072, -0.894775390625, 0.15625, -0.232421875, 
395, 3436705417, 0.8807327747344971, -0.038173988461494446, -0.45594626665115356, -0.12243181467056274, 7.8970627784729, 0.6052231192588806, 5.780544281005859, 2.9571120738983154, -2.637638568878174, 5.903107643127441, -0.896240234375, 0.15380859375, -0.2314453125, 
396, 3436713750, 0.8807198405265808, -0.03821501135826111, -0.4560924768447876, -0.12196731567382812, 7.898471832275391, 0.5994674563407898, 5.77677059173584, 2.471158981323242, -2.670527458190918, 5.9827680587768555, -0.893798828125, 0.155517578125, -0.23095703125, 
397, 3436722083, 0.880699098110199, -0.03826470673084259, -0.45624780654907227, -0.12152045965194702, 7.8752360343933105, 0.5947962403297424, 5.802273750305176, 2.1372005939483643, -2.8426036834716797, 5.724704742431641, -0.893798828125, 0.156982421875, -0.22900390625, 
398, 3436730416, 0.8806480169296265, -0.03829455375671387, -0.45645660161972046, -0.12109583616256714, 7.941959381103516, 0.5578665137290955, 5.843416213989258, 2.440652370452881, -3.6268863677978516, 5.3328070640563965, -0.897705078125, 0.1572265625, -0.2333984375, 
399, 3436738749, 0.8805997371673584, -0.03833332657814026, -0.45665261149406433, -0.12069541215896606, 7.989434719085693, 0.5071584582328796, 5.944619178771973, 2.1622767448425293, -3.456474542617798, 5.108170032501221, -0.896240234375, 0.15869140625, -0.23388671875, 
400, 3436747082, 0.8806048631668091, -0.03830122947692871, -0.45676034688949585, -0.12025925517082214, 8.027551651000977, 0.4481619894504547, 6.011340141296387, 3.0308303833007812, -1.960398554801941, 5.17425537109375, -0.893798828125, 0.157958984375, -0.23046875, 
401, 3436755415, 0.8807004690170288, -0.03816629946231842, -0.4567122459411621, -0.1197839081287384, 8.011082649230957, 0.4321305453777313, 5.952051639556885, 4.371094226837158, 0.6478608250617981, 5.273919582366943, -0.896240234375, 0.158447265625, -0.23291015625, 
402, 3436763748, 0.88087397813797, -0.03786730766296387, -0.45654621720314026, -0.1192350685596466, 7.977672100067139, 0.4249802231788635, 5.774178504943848, 6.701017379760742, 2.800788640975952, 5.342284679412842, -0.89697265625, 0.160400390625, -0.228271484375, 
403, 3436772081, 0.8810655474662781, -0.037497639656066895, -0.45635607838630676, -0.11866262555122375, 7.903676509857178, 0.42140626907348633, 5.7203803062438965, 7.6057634353637695, 3.303596258163452, 5.1867804527282715, -0.895263671875, 0.156494140625, -0.2294921875, 
404, 3436780414, 0.8810943961143494, -0.037316590547561646, -0.45642662048339844, -0.11823320388793945, 7.876498222351074, 0.39535436034202576, 5.868196964263916, 4.835992813110352, -1.1043704748153687, 4.276526927947998, -0.89453125, 0.159912109375, -0.23046875, 
405, 3436788747, 0.8810505270957947, -0.03722979128360748, -0.45662879943847656, -0.1178058385848999, 7.973592758178711, 0.34401223063468933, 5.813053607940674, 3.8084781169891357, -3.3107292652130127, 4.633281707763672, -0.89453125, 0.161865234375, -0.2314453125, 
406, 3436797080, 0.8811547756195068, -0.03704094886779785, -0.4565688669681549, -0.11731690168380737, 8.057425498962402, 0.4064347743988037, 5.687231540679932, 5.130428791046143, 0.9308468699455261, 5.135833740234375, -0.89697265625, 0.158935546875, -0.230712890625, 
407, 3436805413, 0.8812973499298096, -0.03690548241138458, -0.45643702149391174, -0.1168002188205719, 8.01291561126709, 0.5109128952026367, 5.708257675170898, 4.5054931640625, 1.9392027854919434, 5.877007484436035, -0.89453125, 0.160888671875, -0.22998046875, 
408, 3436813746, 0.8814213275909424, -0.03690968453884125, -0.45631298422813416, -0.11634743213653564, 7.976265907287598, 0.5299083590507507, 5.7344183921813965, 2.4718503952026367, 1.539953351020813, 5.97498083114624, -0.89599609375, 0.161376953125, -0.230712890625, 
409, 3436822079, 0.8815111517906189, -0.036946579813957214, -0.4562422037124634, -0.11593344807624817, 8.0181303024292, 0.4362023174762726, 5.8394036293029785, 1.8589532375335693, 0.6448896527290344, 5.610849857330322, -0.8955078125, 0.164794921875, -0.232666015625, 
410, 3436830412, 0.8816045522689819, -0.03696756064891815, -0.4561775326728821, -0.1154693067073822, 8.012619972229004, 0.37346646189689636, 5.8586320877075195, 2.4189822673797607, 0.596017599105835, 6.138553142547607, -0.8955078125, 0.162353515625, -0.230712890625, 
411, 3436838745, 0.8817570805549622, -0.0368189662694931, -0.4560434818267822, -0.11488085985183716, 7.955829620361328, 0.4117380976676941, 5.77365779876709, 5.129660606384277, 2.010000467300415, 6.689132213592529, -0.89404296875, 0.1650390625, -0.231201171875, 
412, 3436847078, 0.8818488121032715, -0.03660939633846283, -0.4560330808162689, -0.11428314447402954, 7.879947185516357, 0.39657825231552124, 5.8175153732299805, 6.135941982269287, 0.22494421899318695, 6.282916069030762, -0.89404296875, 0.164306640625, -0.232666015625, 
413, 3436855411, 0.8818193674087524, -0.03645220398902893, -0.45623844861984253, -0.11373931169509888, 7.874584674835205, 0.3325293958187103, 5.811344146728516, 5.378451347351074, -3.2109622955322266, 5.624578475952148, -0.89599609375, 0.164794921875, -0.231201171875, 
414, 3436863744, 0.8817561864852905, -0.03628115355968475, -0.4565088152885437, -0.11319804191589355, 7.980912685394287, 0.2675880193710327, 5.831989288330078, 5.678035259246826, -4.1839704513549805, 5.453911304473877, -0.89501953125, 0.1669921875, -0.230712890625, 
415, 3436872077, 0.8817506432533264, -0.036049216985702515, -0.45667749643325806, -0.1126331090927124, 8.045559883117676, 0.2798261046409607, 5.851367950439453, 6.362627983093262, -2.511129856109619, 5.460366249084473, -0.89453125, 0.16650390625, -0.232177734375, 
416, 3436880410, 0.8818080425262451, -0.03580152988433838, -0.4567250609397888, -0.1120678186416626, 8.070067405700684, 0.3642175793647766, 5.802174091339111, 6.472076416015625, -0.6175463795661926, 5.564205646514893, -0.89306640625, 0.1669921875, -0.231689453125, 
417, 3436888743, 0.8819020390510559, -0.03561006486415863, -0.45669177174568176, -0.11152350902557373, 8.042427062988281, 0.42059436440467834, 5.708491325378418, 5.460673809051514, 0.5089549422264099, 5.703958034515381, -0.895751953125, 0.169921875, -0.232177734375, 
418, 3436897076, 0.8819736838340759, -0.03548397123813629, -0.4566936492919922, -0.1109890341758728, 7.98415470123291, 0.44477343559265137, 5.696723937988281, 4.740683078765869, -0.1455785185098648, 5.998982906341553, -0.89306640625, 0.16796875, -0.230224609375, 
419, 3436905409, 0.8819970488548279, -0.035406529903411865, -0.45678746700286865, -0.11044096946716309, 7.951182842254639, 0.4559255838394165, 5.682457447052002, 4.29366397857666, -1.6491600275039673, 6.316599369049072, -0.8955078125, 0.16650390625, -0.230224609375, 
420, 3436913742, 0.8819876313209534, -0.035380348563194275, -0.4569411277770996, -0.10988768935203552, 7.933587074279785, 0.4382654130458832, 5.677520751953125, 3.8383960723876953, -2.658693790435791, 6.657960414886475, -0.894775390625, 0.16845703125, -0.230224609375, 
421, 3436922075, 0.8819767236709595, -0.03538249433040619, -0.45710116624832153, -0.10930788516998291, 7.910147666931152, 0.44284671545028687, 5.65619421005249, 3.670366048812866, -2.799750804901123, 7.151058673858643, -0.893310546875, 0.16845703125, -0.231201171875, 
422, 3436930408, 0.8819426894187927, -0.03543831408023834, -0.4573008418083191, -0.10872548818588257, 7.910993576049805, 0.4299752116203308, 5.638341903686523, 3.0218138694763184, -3.5125186443328857, 7.430767059326172, -0.893310546875, 0.17138671875, -0.231689453125, 
423, 3436938741, 0.8818618655204773, -0.03555019199848175, -0.45758047699928284, -0.10816711187362671, 7.922452926635742, 0.4437289535999298, 5.610531806945801, 2.2693445682525635, -4.849838733673096, 7.370573997497559, -0.893798828125, 0.172119140625, -0.230224609375, 
424, 3436947074, 0.8817389011383057, -0.035666510462760925, -0.45793986320495605, -0.10760939121246338, 7.937102794647217, 0.4384155869483948, 5.591867446899414, 2.3899106979370117, -6.081831932067871, 7.336276531219482, -0.893798828125, 0.17333984375, -0.232177734375, 
425, 3436955407, 0.8815762996673584, -0.035834088921546936, -0.4583566188812256, -0.10711026191711426, 7.9540252685546875, 0.4593680202960968, 5.5948896408081055, 1.3866009712219238, -7.080120086669922, 6.817382335662842, -0.895263671875, 0.17236328125, -0.230712890625, 
426, 3436963740, 0.8813830018043518, -0.03607545793056488, -0.4588049650192261, -0.1066989004611969, 7.987977981567383, 0.5258365273475647, 5.5395073890686035, 0.04777054861187935, -7.715225696563721, 6.201565265655518, -0.893798828125, 0.175048828125, -0.227783203125, 
427, 3436972073, 0.8811623454093933, -0.03636522591114044, -0.45928463339805603, -0.1063585877418518, 7.984500408172607, 0.615626871585846, 5.5020647048950195, -1.0274254083633423, -8.310115814208984, 5.550784111022949, -0.893798828125, 0.174560546875, -0.226318359375, 
428, 3436980406, 0.8808832168579102, -0.03670962154865265, -0.4598553478717804, -0.10608619451522827, 7.979520320892334, 0.6273711323738098, 5.475927829742432, -1.9415719509124756, -9.822663307189941, 4.980406761169434, -0.89501953125, 0.177001953125, -0.22900390625, 
429, 3436988739, 0.8805563449859619, -0.037078723311424255, -0.4605024456977844, -0.10586446523666382, 8.010169982910156, 0.586836040019989, 5.503131866455078, -2.4923291206359863, -11.06310749053955, 4.414844512939453, -0.894775390625, 0.176025390625, -0.224365234375, 
430, 3436997072, 0.8802236318588257, -0.037497445940971375, -0.4611419141292572, -0.10569977760314941, 8.085234642028809, 0.5817006826400757, 5.511667251586914, -3.4495584964752197, -11.04835319519043, 4.033191680908203, -0.895263671875, 0.175537109375, -0.2255859375, 
431, 3437005405, 0.8798952698707581, -0.03790569305419922, -0.4617670774459839, -0.10555893182754517, 8.119488716125488, 0.5867891311645508, 5.510404586791992, -3.5720205307006836, -10.82494831085205, 3.650874376296997, -0.896484375, 0.17822265625, -0.22216796875, 
432, 3437013738, 0.8795744776725769, -0.03831157088279724, -0.4623580276966095, -0.10549956560134888, 8.153825759887695, 0.5502787828445435, 5.548275947570801, -4.026468753814697, -10.312639236450195, 2.7205650806427, -0.89404296875, 0.1796875, -0.22265625, 
433, 3437022071, 0.8792796730995178, -0.03871704638004303, -0.46288636326789856, -0.1054924726486206, 8.191008567810059, 0.5467302203178406, 5.552443504333496, -4.583885192871094, -9.368369102478027, 2.0659165382385254, -0.89501953125, 0.1787109375, -0.2197265625, 
434, 3437030404, 0.8790205717086792, -0.039099931716918945, -0.4633335769176483, -0.10554790496826172, 8.223489761352539, 0.525242030620575, 5.563091278076172, -4.654068946838379, -8.087530136108398, 1.3525855541229248, -0.89599609375, 0.1796875, -0.2197265625, 
435, 3437038737, 0.8787937164306641, -0.03948087990283966, -0.4637056291103363, -0.10566142201423645, 8.254280090332031, 0.4977996349334717, 5.518238067626953, -5.093659400939941, -6.93919038772583, 0.7242424488067627, -0.89599609375, 0.17724609375, -0.21826171875, 
436, 3437047070, 0.8786083459854126, -0.03979775309562683, -0.46400144696235657, -0.10578426718711853, 8.265253067016602, 0.4979454278945923, 5.424692630767822, -4.5155463218688965, -5.658018112182617, 0.2854706645011902, -0.89501953125, 0.179931640625, -0.21728515625, 
437, 3437055403, 0.8784210085868835, -0.04007677733898163, -0.46429648995399475, -0.1059398353099823, 8.204487800598145, 0.5196108222007751, 5.465595245361328, -4.334786415100098, -5.590268611907959, -0.39695659279823303, -0.8955078125, 0.17724609375, -0.21630859375, 
438, 3437063736, 0.8781434893608093, -0.04049140214920044, -0.46472153067588806, -0.10621923208236694, 8.11696720123291, 0.527154266834259, 5.586066246032715, -6.509026050567627, -7.861688613891602, -1.1683294773101807, -0.89453125, 0.178955078125, -0.21484375, 
439, 3437072069, 0.8778672814369202, -0.04097670316696167, -0.46512311697006226, -0.10655787587165833, 8.230117797851562, 0.5072987675666809, 5.497044563293457, -7.823548793792725, -7.64048433303833, -1.4368177652359009, -0.8974609375, 0.178955078125, -0.21435546875, 
440, 3437080402, 0.8776727914810181, -0.04141989350318909, -0.4653666615486145, -0.10692590475082397, 8.277353286743164, 0.5755350589752197, 5.3820977210998535, -7.639716148376465, -5.131492614746094, -1.8302783966064453, -0.89794921875, 0.178466796875, -0.2138671875, 
441, 3437088735, 0.8775074481964111, -0.04187977313995361, -0.4655306339263916, -0.10738769173622131, 8.206698417663574, 0.6004156470298767, 5.317824363708496, -8.600428581237793, -3.9574382305145264, -2.7936036586761475, -0.89892578125, 0.177490234375, -0.2119140625, 
442, 3437097068, 0.8772911429405212, -0.042424172163009644, -0.4657589793205261, -0.10795050859451294, 8.189444541931152, 0.559586763381958, 5.302935600280762, -10.14319896697998, -5.125985145568848, -3.5579326152801514, -0.89697265625, 0.177490234375, -0.21044921875, 
443, 3437105401, 0.8769881129264832, -0.04302005469799042, -0.46613335609436035, -0.10856008529663086, 8.201315879821777, 0.464287668466568, 5.388525009155273, -10.951332092285156, -7.492947101593018, -4.0282368659973145, -0.90087890625, 0.177978515625, -0.2109375, 
444, 3437113734, 0.8766811490058899, -0.043631017208099365, -0.46650105714797974, -0.10921359062194824, 8.30256462097168, 0.3679335117340088, 5.445792198181152, -11.371965408325195, -7.432214260101318, -4.442673683166504, -0.899169921875, 0.17578125, -0.2109375, 
445, 3437122067, 0.8764750957489014, -0.044207632541656494, -0.4666745364665985, -0.10989254713058472, 8.3590087890625, 0.3153676986694336, 5.395444869995117, -11.39007568359375, -4.377768516540527, -4.709600925445557, -0.89990234375, 0.178466796875, -0.20654296875, 
446, 3437130400, 0.8763226866722107, -0.04477277398109436, -0.46674418449401855, -0.11058089137077332, 8.248464584350586, 0.20800504088401794, 5.346306324005127, -11.399784088134766, -2.7578980922698975, -4.742335796356201, -0.89599609375, 0.177001953125, -0.20556640625, 
