sep=,
PacketCounter,SampleTimeFine,Quat_W,Quat_X,Quat_Y,Quat_Z,Acc_X,Acc_Y,Acc_Z,Gyr_X,Gyr_Y,Gyr_Z,Mag_X,Mag_Y,Mag_Z,
0, 3330309673, 0.8675307631492615, -0.05186769366264343, -0.4674740433692932, -0.16184577345848083, 0, 0, 0, 0, 0, 0, -0.97265625, 0.143310546875, -0.203369140625, 
1, 3330318006, 0.8674988746643066, -0.05174243450164795, -0.4675551652908325, -0.1618228256702423, 8.200090408325195, 0.6486713290214539, 5.496786594390869, 1.6525534391403198, -1.4130988121032715, -0.4469299018383026, -0.9736328125, 0.143798828125, -0.20458984375, 
2, 3330326339, 0.8674783110618591, -0.051679566502571106, -0.46759891510009766, -0.1618264615535736, 8.205312728881836, 0.6738263964653015, 5.456303119659424, 0.6323642134666443, -1.0087782144546509, -0.312173455953598, -0.971923828125, 0.141357421875, -0.202392578125, 
3, 3330334672, 0.867461085319519, -0.05166149139404297, -0.4676278829574585, -0.1618410348892212, 8.192279815673828, 0.6846129298210144, 5.447304725646973, 0.02786828950047493, -0.9080118536949158, -0.1356145739555359, -0.974853515625, 0.140869140625, -0.20458984375, 
4, 3330343005, 0.867443859577179, -0.05164019763469696, -0.46766531467437744, -0.16183212399482727, 8.187915802001953, 0.6771165728569031, 5.46884822845459, 0.17092376947402954, -1.015360951423645, 0.09195509552955627, -0.973388671875, 0.142333984375, -0.202880859375, 
5, 3330351338, 0.8674379587173462, -0.051607683300971985, -0.4676806926727295, -0.16182950139045715, 8.18976879119873, 0.6638267636299133, 5.486008644104004, 0.2872380316257477, -0.6541747450828552, 0.01275588758289814, -0.974609375, 0.142822265625, -0.2041015625, 
6, 3330359671, 0.8674587607383728, -0.051572978496551514, -0.4676463305950165, -0.1618284285068512, 8.187158584594727, 0.635966420173645, 5.5077104568481445, 0.18659967184066772, 0.12407533824443817, 0.0737689957022667, -0.970947265625, 0.141357421875, -0.202880859375, 
7, 3330368004, 0.8674891591072083, -0.051546111702919006, -0.46759194135665894, -0.16183102130889893, 8.176436424255371, 0.6318392157554626, 5.457225799560547, 0.05670991912484169, 0.4029887914657593, 0.11769741773605347, -0.971923828125, 0.141845703125, -0.204833984375, 
8, 3330376337, 0.8675161600112915, -0.05149753391742706, -0.467547744512558, -0.16182973980903625, 8.158596992492676, 0.6346431374549866, 5.464972496032715, 0.35237500071525574, 0.312903493642807, 0.01790434867143631, -0.973388671875, 0.138427734375, -0.204833984375, 
9, 3330384670, 0.8675079941749573, -0.0514594167470932, -0.4675675928592682, -0.16182813048362732, 8.143396377563477, 0.6388344168663025, 5.478855133056641, 0.3562171459197998, -0.7086561918258667, -0.04453035071492195, -0.9755859375, 0.142822265625, -0.2021484375, 
10, 3330393003, 0.8674725294113159, -0.05143961310386658, -0.46762704849243164, -0.16185224056243896, 8.137317657470703, 0.6017257571220398, 5.5008368492126465, 0.07358969002962112, -1.3682739734649658, -0.28489431738853455, -0.974853515625, 0.141845703125, -0.2041015625, 
11, 3330401336, 0.8674425482749939, -0.05142764747142792, -0.4676761031150818, -0.16187483072280884, 8.18714427947998, 0.5948303937911987, 5.51725959777832, -0.0616406574845314, -1.2375645637512207, -0.23353777825832367, -0.975341796875, 0.139892578125, -0.203857421875, 
12, 3330409669, 0.8674182295799255, -0.05143210291862488, -0.467708945274353, -0.16190868616104126, 8.190585136413574, 0.6395926475524902, 5.5390119552612305, -0.3406308889389038, -1.0262984037399292, -0.20528528094291687, -0.972900390625, 0.140869140625, -0.204833984375, 
13, 3330418002, 0.8674041032791138, -0.05143527686595917, -0.46772560477256775, -0.16193488240242004, 8.199540138244629, 0.6379262804985046, 5.527230739593506, -0.3263894021511078, -0.7805298566818237, -0.1228586956858635, -0.972900390625, 0.140380859375, -0.204833984375, 
14, 3330426335, 0.8673950433731079, -0.05143831670284271, -0.4677332043647766, -0.16196084022521973, 8.188310623168945, 0.6347214579582214, 5.525300025939941, -0.37761783599853516, -0.6351689696311951, -0.10925751179456711, -0.971435546875, 0.142333984375, -0.203857421875, 
15, 3330434668, 0.8673949837684631, -0.05144555866718292, -0.467720091342926, -0.16199681162834167, 8.19627857208252, 0.6392138004302979, 5.492868423461914, -0.49411141872406006, -0.33742910623550415, -0.15953825414180756, -0.971435546875, 0.140380859375, -0.203857421875, 
16, 3330443001, 0.8674042224884033, -0.05145059525966644, -0.467690646648407, -0.16203075647354126, 8.172165870666504, 0.6345430016517639, 5.522595405578613, -0.4888092279434204, -0.07017019391059875, -0.10285396128892899, -0.972412109375, 0.139892578125, -0.205322265625, 
17, 3330451334, 0.8674241900444031, -0.05142208933830261, -0.46764829754829407, -0.16205519437789917, 8.167330741882324, 0.6271684169769287, 5.502174377441406, -0.04312156140804291, 0.21101008355617523, -0.18561355769634247, -0.974365234375, 0.140869140625, -0.204345703125, 
18, 3330459667, 0.8674470782279968, -0.05138944089412689, -0.46760082244873047, -0.16208010911941528, 8.144949913024902, 0.6230772137641907, 5.448034286499023, -0.027368811890482903, 0.3078574538230896, -0.20482423901557922, -0.98193359375, 0.14208984375, -0.20556640625, 
19, 3330468000, 0.8674823045730591, -0.05134357511997223, -0.46753281354904175, -0.16210198402404785, 8.156717300415039, 0.6269896030426025, 5.406412601470947, 0.13273297250270844, 0.6528300046920776, -0.2162225842475891, -0.975830078125, 0.140869140625, -0.2041015625, 
20, 3330476333, 0.8675276637077332, -0.05127054452896118, -0.4674535393714905, -0.16211175918579102, 8.16932487487793, 0.623241662979126, 5.307094097137451, 0.5119004845619202, 0.9123021960258484, -0.20085401833057404, -0.973388671875, 0.141357421875, -0.202392578125, 
21, 3330484666, 0.8675081729888916, -0.0512678325176239, -0.4674786925315857, -0.162144273519516, 8.083693504333496, 0.6329405903816223, 5.476095676422119, -0.28089848160743713, -0.8990980386734009, -0.2517494857311249, -0.972900390625, 0.141845703125, -0.205322265625, 
22, 3330492999, 0.8674959540367126, -0.05131237208843231, -0.46748289465904236, -0.1621834635734558, 8.139763832092285, 0.6148083209991455, 5.528046131134033, -0.9605464935302734, -0.6973602771759033, -0.002241245238110423, -0.971923828125, 0.142333984375, -0.203369140625, 
23, 3330501332, 0.8675583600997925, -0.05126778781414032, -0.46738213300704956, -0.16215434670448303, 8.1863431930542, 0.6442995071411133, 5.434222221374512, 0.39079639315605164, 1.1786646842956543, 0.4840065836906433, -0.974853515625, 0.139892578125, -0.206298828125, 
24, 3330509665, 0.8676669001579285, -0.051185086369514465, -0.467195987701416, -0.1621362268924713, 8.084585189819336, 0.6220579147338867, 5.315682888031006, 0.6213501691818237, 2.5966429710388184, 0.29141315817832947, -0.974853515625, 0.142333984375, -0.20263671875, 
25, 3330517998, 0.8676729798316956, -0.05118381977081299, -0.46718090772628784, -0.16214734315872192, 8.043149948120117, 0.6199440360069275, 5.376219749450684, -0.23343531787395477, -0.2730092704296112, 0.09723163396120071, -0.97509765625, 0.142822265625, -0.20458984375, 
26, 3330526331, 0.8675923347473145, -0.05124752223491669, -0.4673141539096832, -0.16217505931854248, 8.140981674194336, 0.6052285432815552, 5.4464826583862305, -0.860522985458374, -2.726238250732422, 0.025434935465455055, -0.973876953125, 0.140869140625, -0.203369140625, 
27, 3330534664, 0.8675389289855957, -0.05126059055328369, -0.46740710735321045, -0.1621888279914856, 8.147907257080078, 0.6001328229904175, 5.503824234008789, -0.22193455696105957, -1.9742045402526855, -0.05098513513803482, -0.973876953125, 0.141845703125, -0.204345703125, 
28, 3330542997, 0.8675519227981567, -0.05119718611240387, -0.46740150451660156, -0.16215476393699646, 8.171321868896484, 0.6029489040374756, 5.503912448883057, 0.8174782991409302, -0.22751843929290771, 0.2564752995967865, -0.979736328125, 0.14111328125, -0.208984375, 
29, 3330551330, 0.8675872087478638, -0.051174238324165344, -0.46734529733657837, -0.1621352732181549, 8.198710441589355, 0.6183775663375854, 5.418607711791992, 0.1514313519001007, 0.4321633577346802, 0.4172046482563019, -0.974853515625, 0.140380859375, -0.203857421875, 
30, 3330559663, 0.8675947189331055, -0.051167696714401245, -0.46733570098876953, -0.16212493181228638, 8.145665168762207, 0.6329693794250488, 5.404151439666748, -0.024730542674660683, -0.3252367377281189, 0.33021870255470276, -0.972412109375, 0.139892578125, -0.203857421875, 
31, 3330567996, 0.8675832748413086, -0.05115814507007599, -0.4673602283000946, -0.1621183454990387, 8.15308952331543, 0.6337633728981018, 5.484714031219482, 0.05491692200303078, -0.8520191311836243, 0.189212366938591, -0.974365234375, 0.141845703125, -0.2041015625, 
32, 3330576329, 0.8675966262817383, -0.05111147463321686, -0.46735358238220215, -0.1620812714099884, 8.182881355285645, 0.6278193593025208, 5.508518695831299, 0.6346439719200134, -0.25110912322998047, 0.4025020897388458, -0.974365234375, 0.141845703125, -0.20458984375, 
33, 3330584662, 0.8676378130912781, -0.05106765031814575, -0.46729162335395813, -0.16205304861068726, 8.168567657470703, 0.6431121230125427, 5.502546310424805, 0.4485052824020386, 0.578702449798584, 0.40514037013053894, -0.973876953125, 0.139892578125, -0.204833984375, 
34, 3330592995, 0.8676820397377014, -0.051077067852020264, -0.4672117829322815, -0.1620432734489441, 8.173009872436523, 0.6466313004493713, 5.4652228355407715, -0.33691683411598206, 0.7157385945320129, 0.5649219751358032, -0.973388671875, 0.142333984375, -0.203369140625, 
35, 3330601328, 0.867713451385498, -0.051102861762046814, -0.4671494662761688, -0.1620471179485321, 8.146658897399902, 0.6301082372665405, 5.458456039428711, -0.5980027318000793, 0.3880556523799896, 0.4483259320259094, -0.973876953125, 0.140869140625, -0.204345703125, 
36, 3330609661, 0.8677468299865723, -0.051113009452819824, -0.467088907957077, -0.16203948855400085, 8.151200294494629, 0.6294859647750854, 5.470852375030518, -0.32580024003982544, 0.41392603516578674, 0.5047796964645386, -0.97412109375, 0.142822265625, -0.20458984375, 
37, 3330617994, 0.8677941560745239, -0.05110028386116028, -0.4670100510120392, -0.16201698780059814, 8.142782211303711, 0.6055024862289429, 5.468377113342285, 0.0050460039637982845, 0.7560553550720215, 0.5605931282043457, -0.9765625, 0.142333984375, -0.2041015625, 
38, 3330626327, 0.8678422570228577, -0.05109180510044098, -0.4669276773929596, -0.16200026869773865, 8.154790878295898, 0.6112892627716064, 5.471589088439941, -0.09442687034606934, 0.8046199679374695, 0.5368743538856506, -0.972900390625, 0.142333984375, -0.206298828125, 
39, 3330634660, 0.8678851127624512, -0.051103025674819946, -0.46684911847114563, -0.1619933843612671, 8.14447021484375, 0.6014682650566101, 5.4652228355407715, -0.38179296255111694, 0.6800835728645325, 0.5191749334335327, -0.974853515625, 0.141357421875, -0.20556640625, 
40, 3330642993, 0.8679118156433105, -0.051128000020980835, -0.46679842472076416, -0.16198819875717163, 8.12728214263916, 0.6144721508026123, 5.459929466247559, -0.5077381730079651, 0.22194735705852509, 0.5455064177513123, -0.974365234375, 0.138916015625, -0.203857421875, 
41, 3330651326, 0.8679295182228088, -0.05115272104740143, -0.4667677879333496, -0.1619742214679718, 8.12826919555664, 0.606124758720398, 5.488827228546143, -0.4091489315032959, -0.08897104114294052, 0.6003720164299011, -0.974365234375, 0.139892578125, -0.205322265625, 
42, 3330659659, 0.8679580092430115, -0.051172301173210144, -0.4667201638221741, -0.16195237636566162, 8.134626388549805, 0.6289065480232239, 5.511722564697266, -0.3710606098175049, 0.19518046081066132, 0.6828498840332031, -0.976318359375, 0.141845703125, -0.20703125, 
43, 3330667992, 0.8680018782615662, -0.05117599666118622, -0.46665042638778687, -0.1619172990322113, 8.141393661499023, 0.6154665946960449, 5.5090484619140625, -0.08963700383901596, 0.5777802467346191, 0.8044662475585938, -0.98291015625, 0.144775390625, -0.203369140625, 
44, 3330676325, 0.868046224117279, -0.05117294192314148, -0.46657878160476685, -0.16188612580299377, 8.106109619140625, 0.6382625102996826, 5.488090515136719, -0.034361500293016434, 0.6311604380607605, 0.7326696515083313, -0.97314453125, 0.142822265625, -0.205810546875, 
45, 3330684658, 0.8680758476257324, -0.05116771161556244, -0.46653708815574646, -0.1618492603302002, 8.133504867553711, 0.6312026381492615, 5.499777793884277, 0.07820025831460953, 0.17051395773887634, 0.7154311537742615, -0.972900390625, 0.141845703125, -0.205322265625, 
46, 3330692991, 0.8681014180183411, -0.051175281405448914, -0.46650153398513794, -0.1618126928806305, 8.099092483520508, 0.6425613164901733, 5.487517833709717, -0.10480064153671265, 0.0487695038318634, 0.7692466974258423, -0.974609375, 0.142333984375, -0.20751953125, 
47, 3330701324, 0.8681305646896362, -0.05118323862552643, -0.46645787358283997, -0.1617794930934906, 8.123174667358398, 0.6494138240814209, 5.49030065536499, -0.10597889125347137, 0.16446900367736816, 0.7576178908348083, -0.972900390625, 0.141357421875, -0.206298828125, 
48, 3330709657, 0.8681540489196777, -0.051189035177230835, -0.4664248526096344, -0.16174712777137756, 8.093857765197754, 0.6566024422645569, 5.480358123779297, -0.05026794597506523, 0.015573455020785332, 0.7382023334503174, -0.973876953125, 0.142333984375, -0.2060546875, 
49, 3330717990, 0.8681707978248596, -0.051179513335227966, -0.46640825271606445, -0.1617077887058258, 8.118597030639648, 0.6404796242713928, 5.495707988739014, 0.19325938820838928, -0.2036459594964981, 0.6708624362945557, -0.973876953125, 0.140869140625, -0.205322265625, 
50, 3330726323, 0.8681825399398804, -0.051160261034965515, -0.4664049446582794, -0.16166016459465027, 8.11579418182373, 0.6084494590759277, 5.526494026184082, 0.40096521377563477, -0.3689858317375183, 0.7117426991462708, -0.9736328125, 0.143798828125, -0.20361328125, 
51, 3330734656, 0.8681988716125488, -0.05114401876926422, -0.4663904905319214, -0.16161975264549255, 8.140900611877441, 0.6365028619766235, 5.536815643310547, 0.28631591796875, -0.21842540800571442, 0.6407400965690613, -0.972900390625, 0.141357421875, -0.206298828125, 
52, 3330742989, 0.8682215809822083, -0.05112878978252411, -0.46636712551116943, -0.161569744348526, 8.148503303527832, 0.6352724432945251, 5.4929046630859375, 0.30801114439964294, -0.07127160578966141, 0.7883036732673645, -0.97119140625, 0.143310546875, -0.205322265625, 
53, 3330751322, 0.8682490587234497, -0.05112053453922272, -0.4663323760032654, -0.16152554750442505, 8.151029586791992, 0.6125551462173462, 5.501859664916992, 0.1776859611272812, 0.07497286796569824, 0.7754966616630554, -0.974609375, 0.144287109375, -0.20703125, 
54, 3330759655, 0.8682793378829956, -0.05110473930835724, -0.46629518270492554, -0.16147443652153015, 8.15151596069336, 0.6217751502990723, 5.486173152923584, 0.3284769058227539, 0.14428499341011047, 0.8468065857887268, -0.97216796875, 0.143310546875, -0.206787109375, 
55, 3330767988, 0.868317186832428, -0.05107957124710083, -0.46624624729156494, -0.1614200472831726, 8.147195816040039, 0.6176695823669434, 5.487024784088135, 0.4196123778820038, 0.3422061800956726, 0.8210642337799072, -0.97314453125, 0.143798828125, -0.20703125, 
56, 3330776321, 0.8683541417121887, -0.05105288326740265, -0.46619734168052673, -0.16137123107910156, 8.138968467712402, 0.6096156239509583, 5.474793434143066, 0.3881068825721741, 0.3500441312789917, 0.7480893135070801, -0.974609375, 0.142822265625, -0.20556640625, 
57, 3330784654, 0.8683971762657166, -0.051034167408943176, -0.4661353826522827, -0.1613243818283081, 8.104421615600586, 0.6269609928131104, 5.494413375854492, 0.2699740529060364, 0.5219413042068481, 0.7917616963386536, -0.97412109375, 0.142822265625, -0.20654296875, 
58, 3330792987, 0.8684373497962952, -0.05102410912513733, -0.4660765528678894, -0.16128113865852356, 8.087634086608887, 0.625494658946991, 5.5008440017700195, 0.1129075363278389, 0.4548063576221466, 0.7878938317298889, -0.97314453125, 0.144287109375, -0.2080078125, 
59, 3330801320, 0.868479311466217, -0.050998032093048096, -0.4660170078277588, -0.161235511302948, 8.091653823852539, 0.630323052406311, 5.474027633666992, 0.3537325859069824, 0.5030635595321655, 0.7274442315101624, -0.972900390625, 0.141357421875, -0.208251953125, 
60, 3330809653, 0.8685188889503479, -0.050972312688827515, -0.46596044301986694, -0.1611938774585724, 8.093842506408691, 0.6327691078186035, 5.47573709487915, 0.3395934998989105, 0.4638226330280304, 0.698397696018219, -0.971435546875, 0.141357421875, -0.208740234375, 
61, 3330817986, 0.8685516119003296, -0.05094321072101593, -0.4659166932106018, -0.16115304827690125, 8.081402778625488, 0.6458303332328796, 5.458127498626709, 0.388234943151474, 0.2656708359718323, 0.6183788180351257, -0.97802734375, 0.143798828125, -0.2080078125, 
62, 3330826319, 0.8685773611068726, -0.05092032253742218, -0.4658816456794739, -0.16112303733825684, 8.108198165893555, 0.6492134928703308, 5.459528923034668, 0.26964107155799866, 0.12031007558107376, 0.5303427577018738, -0.9814453125, 0.1455078125, -0.208740234375, 
63, 3330834652, 0.868594765663147, -0.05091214179992676, -0.4658598303794861, -0.16109487414360046, 8.134105682373047, 0.6304515600204468, 5.430538654327393, 0.09441406279802322, -0.1325920820236206, 0.551115870475769, -0.97607421875, 0.143310546875, -0.2080078125, 
64, 3330842985, 0.8686096668243408, -0.0509105920791626, -0.46584224700927734, -0.16106632351875305, 8.126845359802246, 0.6168254017829895, 5.437169075012207, 0.018237335607409477, -0.20592564344406128, 0.6011660695075989, -0.97607421875, 0.142578125, -0.20849609375, 
65, 3330851318, 0.8686085343360901, -0.050924837589263916, -0.46585172414779663, -0.16104048490524292, 8.144232749938965, 0.643355131149292, 5.470887184143066, -0.13136261701583862, -0.6728219985961914, 0.6062633991241455, -0.9736328125, 0.143310546875, -0.2060546875, 
66, 3330859651, 0.8685939311981201, -0.050950586795806885, -0.4658840596675873, -0.161017507314682, 8.130457878112793, 0.6241427659988403, 5.494585037231445, -0.24508978426456451, -1.0465079545974731, 0.6129229664802551, -0.974365234375, 0.141357421875, -0.207763671875, 
67, 3330867984, 0.8685746192932129, -0.05096735060214996, -0.46592527627944946, -0.16099682450294495, 8.118047714233398, 0.6372897028923035, 5.526551246643066, -0.13932862877845764, -1.1697379350662231, 0.4966343641281128, -0.9755859375, 0.142822265625, -0.208984375, 
68, 3330876317, 0.8685539364814758, -0.05099108815193176, -0.46596813201904297, -0.16097649931907654, 8.117353439331055, 0.6422895193099976, 5.53724479675293, -0.18589532375335693, -1.2027804851531982, 0.5720427632331848, -0.9775390625, 0.142333984375, -0.205078125, 
69, 3330884650, 0.8685392141342163, -0.05101422965526581, -0.46599867939949036, -0.16096067428588867, 8.116337776184082, 0.6367961764335632, 5.543875217437744, -0.2660934627056122, -1.0246846675872803, 0.4986323118209839, -0.97412109375, 0.142822265625, -0.20751953125, 
70, 3330892983, 0.8685316443443298, -0.05103646218776703, -0.46601438522338867, -0.16094908118247986, 8.111888885498047, 0.6349650025367737, 5.548274517059326, -0.31524717807769775, -0.7882397174835205, 0.47701385617256165, -0.97509765625, 0.142822265625, -0.20556640625, 
71, 3330901316, 0.8685311079025269, -0.05107499659061432, -0.46601009368896484, -0.16095218062400818, 8.111602783203125, 0.6468245983123779, 5.530698776245117, -0.6370643973350525, -0.5374250411987305, 0.4265282154083252, -0.97412109375, 0.142822265625, -0.2041015625, 
72, 3330909649, 0.8685510754585266, -0.05113410949707031, -0.4659632444381714, -0.16096127033233643, 8.1437406539917, 0.6316103339195251, 5.559525489807129, -1.0185374021530151, 0.06559805572032928, 0.5643072724342346, -0.9736328125, 0.144287109375, -0.205078125, 
73, 3330917982, 0.8685752749443054, -0.05123116075992584, -0.46589961647987366, -0.16098368167877197, 8.152033805847168, 0.6488887071609497, 5.548384666442871, -1.5746222734451294, 0.21403254568576813, 0.6664823889732361, -0.97509765625, 0.143798828125, -0.20654296875, 
74, 3330926315, 0.8686043620109558, -0.05129528045654297, -0.46582916378974915, -0.16101038455963135, 8.146652221679688, 0.6433767676353455, 5.51885461807251, -1.2159717082977295, 0.40995579957962036, 0.4378497004508972, -0.9736328125, 0.145263671875, -0.2109375, 
75, 3330934648, 0.8686234354972839, -0.05123288929462433, -0.46581125259399414, -0.16097912192344666, 8.127918243408203, 0.574130117893219, 5.404767036437988, 0.7704761624336243, -0.05001179128885269, 0.2427716851234436, -0.9775390625, 0.144775390625, -0.208984375, 
76, 3330942981, 0.8686095476150513, -0.051132798194885254, -0.46586814522743225, -0.16092148423194885, 8.102607727050781, 0.6249797344207764, 5.4292144775390625, 1.5346770286560059, -1.0824192762374878, 0.2056310921907425, -0.9755859375, 0.142822265625, -0.20703125, 
77, 3330951314, 0.8684716820716858, -0.05118599534034729, -0.4661087691783905, -0.16095170378684998, 8.05612564086914, 0.6266812682151794, 5.646184921264648, -0.5407549142837524, -4.355867862701416, -0.2800532579421997, -0.974609375, 0.142333984375, -0.2080078125, 
78, 3330959647, 0.8683655858039856, -0.05126558244228363, -0.466275155544281, -0.16101694107055664, 8.171030044555664, 0.6056802272796631, 5.637803077697754, -1.202140212059021, -3.2897772789001465, -0.37682387232780457, -0.973388671875, 0.141845703125, -0.205810546875, 
79, 3330967980, 0.8683949708938599, -0.05120567977428436, -0.4662204384803772, -0.16103559732437134, 8.282548904418945, 0.5583509802818298, 5.452526569366455, 0.34866097569465637, 0.4852616786956787, -0.2884034514427185, -0.9736328125, 0.143310546875, -0.2041015625, 
80, 3330976313, 0.8684446811676025, -0.051228538155555725, -0.4661128520965576, -0.16107189655303955, 8.169898986816406, 0.5819839239120483, 5.4460601806640625, -0.8604974150657654, 1.0842249393463135, 0.12502308189868927, -0.97412109375, 0.143798828125, -0.20654296875, 
81, 3330984646, 0.8683973550796509, -0.05144813656806946, -0.4661364257335663, -0.16118907928466797, 8.087093353271484, 0.5870105028152466, 5.576588153839111, -3.502067804336548, -1.4917857646942139, 0.10184218734502792, -0.9755859375, 0.142822265625, -0.20703125, 
82, 3330992979, 0.8683512806892395, -0.05165979266166687, -0.4661632478237152, -0.161292165517807, 8.149835586547852, 0.5520462989807129, 5.665929317474365, -3.3300423622131348, -1.5082813501358032, 0.21851502358913422, -0.9755859375, 0.143310546875, -0.205078125, 
83, 3331001312, 0.8684337735176086, -0.05168592929840088, -0.46601349115371704, -0.16127252578735352, 8.175176620483398, 0.5733643770217896, 5.54373836517334, -0.607479989528656, 1.7423313856124878, 0.90513014793396, -0.9765625, 0.14306640625, -0.20849609375, 
84, 3331009645, 0.86855149269104, -0.05160580575466156, -0.46583619713783264, -0.161175936460495, 8.08252239227295, 0.6072499752044678, 5.435323238372803, 1.1261811256408691, 2.487039566040039, 1.2621926069259644, -0.97998046875, 0.143310546875, -0.2060546875, 
85, 3331017978, 0.8685511946678162, -0.05153031647205353, -0.46587562561035156, -0.16108781099319458, 7.993459224700928, 0.5942147374153137, 5.384416580200195, 1.4068360328674316, -0.8711016774177551, 0.7538780570030212, -0.97509765625, 0.142333984375, -0.2060546875, 
86, 3331026311, 0.8684482574462891, -0.051468625664711, -0.4660876989364624, -0.1610487997531891, 8.076286315917969, 0.5626949071884155, 5.393499851226807, 1.2507685422897339, -3.575913667678833, -0.06750630587339401, -0.974609375, 0.144287109375, -0.2080078125, 
87, 3331034644, 0.868372917175293, -0.051353856921195984, -0.466254323720932, -0.16100949048995972, 8.164379119873047, 0.5583740472793579, 5.465088367462158, 1.791357398033142, -2.7492401599884033, -0.3385305404663086, -0.97509765625, 0.145263671875, -0.20654296875, 
88, 3331042977, 0.8683606386184692, -0.05121840536594391, -0.466310977935791, -0.16095471382141113, 8.16958236694336, 0.5739791393280029, 5.4974684715271, 1.9292128086090088, -0.9881330728530884, -0.05664588138461113, -0.97509765625, 0.144287109375, -0.208984375, 
89, 3331051310, 0.8683858513832092, -0.05113476514816284, -0.4662874639034271, -0.16091352701187134, 8.165091514587402, 0.6120187044143677, 5.470322608947754, 1.0818426609039307, 0.09541302174329758, 0.24269483983516693, -0.974365234375, 0.142333984375, -0.20703125, 
90, 3331059643, 0.8684166669845581, -0.0510980486869812, -0.4662395715713501, -0.1608976125717163, 8.195913314819336, 0.6393568515777588, 5.425259590148926, 0.33231908082962036, 0.34779006242752075, 0.30119776725769043, -0.975341796875, 0.140869140625, -0.20654296875, 
91, 3331067976, 0.8684254884719849, -0.051073089241981506, -0.4662385880947113, -0.16086095571517944, 8.154812812805176, 0.6284487843513489, 5.4299163818359375, 0.3906427025794983, -0.4055373966693878, 0.5121822357177734, -0.97509765625, 0.142822265625, -0.2041015625, 
92, 3331076309, 0.8684205412864685, -0.051038458943367004, -0.46626824140548706, -0.16081249713897705, 8.151765823364258, 0.5950879454612732, 5.459807872772217, 0.6958875060081482, -0.8325523138046265, 0.5933794379234314, -0.9814453125, 0.142578125, -0.2060546875, 
93, 3331084642, 0.868431031703949, -0.050982728600502014, -0.4662794768810272, -0.1607407033443451, 8.174569129943848, 0.6051018834114075, 5.497767925262451, 1.01076340675354, -0.4969801902770996, 0.728571355342865, -0.9765625, 0.145263671875, -0.20849609375, 
94, 3331092975, 0.868470311164856, -0.05093778669834137, -0.46622928977012634, -0.16068872809410095, 8.171930313110352, 0.605674147605896, 5.481645584106445, 0.6309810280799866, 0.4194587171077728, 0.6788540482521057, -0.982421875, 0.14453125, -0.206298828125, 
95, 3331101308, 0.8685239553451538, -0.05088689923286438, -0.46615108847618103, -0.16064125299453735, 8.145092010498047, 0.6229696869850159, 5.461860656738281, 0.6293418407440186, 0.8549520373344421, 0.6280098557472229, -0.9765625, 0.1435546875, -0.2099609375, 
96, 3331109641, 0.8685718178749084, -0.050836727023124695, -0.4660850167274475, -0.16058987379074097, 8.116273880004883, 0.6383054256439209, 5.428041934967041, 0.6729883551597595, 0.6769585013389587, 0.6775477528572083, -0.9755859375, 0.143310546875, -0.20849609375, 
97, 3331117974, 0.8686132431030273, -0.05078542232513428, -0.4660276770591736, -0.1605486273765564, 8.141716003417969, 0.6176480054855347, 5.404716968536377, 0.632671594619751, 0.5321869254112244, 0.5088779926300049, -0.97607421875, 0.142822265625, -0.20703125, 
98, 3331126307, 0.8686431646347046, -0.050747960805892944, -0.4659839868545532, -0.16052600741386414, 8.135780334472656, 0.6309375762939453, 5.420417308807373, 0.38347071409225464, 0.2878015339374542, 0.3656688332557678, -0.97607421875, 0.142822265625, -0.2080078125, 
99, 3331134640, 0.8686660528182983, -0.05072028934955597, -0.4659465551376343, -0.16051951050758362, 8.134420394897461, 0.6261741518974304, 5.43858528137207, 0.15860332548618317, 0.14769168198108673, 0.19287517666816711, -0.9765625, 0.144287109375, -0.20703125, 
100, 3331142973, 0.8686730861663818, -0.050704628229141235, -0.4659397602081299, -0.16050565242767334, 8.135364532470703, 0.612075924873352, 5.458820819854736, 0.10304606705904007, -0.3436277508735657, 0.30332377552986145, -0.97802734375, 0.145263671875, -0.20849609375, 
101, 3331151306, 0.8686725497245789, -0.05068381130695343, -0.46595412492752075, -0.16047346591949463, 8.12911319732666, 0.608148992061615, 5.476753234863281, 0.3387739062309265, -0.6543796062469482, 0.4538586139678955, -0.978515625, 0.145263671875, -0.208984375, 
102, 3331159639, 0.8686659336090088, -0.050662606954574585, -0.46597927808761597, -0.1604427993297577, 8.156901359558105, 0.5839723944664001, 5.517316818237305, 0.3460482954978943, -0.8116254806518555, 0.4224299490451813, -0.97509765625, 0.142822265625, -0.20849609375, 
103, 3331167972, 0.868666410446167, -0.05064594745635986, -0.4659903347492218, -0.16041317582130432, 8.1514310836792, 0.5998449921607971, 5.540370941162109, 0.2657220661640167, -0.6158045530319214, 0.4544733762741089, -0.9755859375, 0.143310546875, -0.2080078125, 
104, 3331176305, 0.8686785101890564, -0.05059133470058441, -0.465988427400589, -0.16037127375602722, 8.173381805419922, 0.5972556471824646, 5.55413293838501, 0.7769052982330322, -0.30174848437309265, 0.40765053033828735, -0.9755859375, 0.143310546875, -0.20703125, 
105, 3331184638, 0.8687007427215576, -0.05051518976688385, -0.4659701883792877, -0.16032791137695312, 8.18381118774414, 0.619114339351654, 5.538410663604736, 1.0149383544921875, -0.004572140984237194, 0.30616694688796997, -0.97607421875, 0.144775390625, -0.20849609375, 
106, 3331192971, 0.8687405586242676, -0.0504223108291626, -0.4659245014190674, -0.16027367115020752, 8.19733715057373, 0.6178196668624878, 5.504026889801025, 1.224104404449463, 0.4740169942378998, 0.3918209373950958, -0.9755859375, 0.145263671875, -0.20947265625, 
107, 3331201304, 0.8687973618507385, -0.050328969955444336, -0.46584534645080566, -0.16022545099258423, 8.194175720214844, 0.6173837184906006, 5.40983772277832, 1.141242265701294, 0.9793090224266052, 0.37281519174575806, -0.97607421875, 0.145263671875, -0.208984375, 
108, 3331209637, 0.8688702583312988, -0.050237059593200684, -0.46574312448501587, -0.1601559817790985, 8.170300483703613, 0.6412743926048279, 5.405689239501953, 1.2233613729476929, 1.348768711090088, 0.7029058933258057, -0.97607421875, 0.142578125, -0.20849609375, 
109, 3331217970, 0.8688804507255554, -0.05024334788322449, -0.4657307267189026, -0.16013452410697937, 8.052135467529297, 0.6597999930381775, 5.601670265197754, -0.10459573566913605, -0.3175268769264221, 0.5416642427444458, -0.9775390625, 0.142578125, -0.208984375, 
110, 3331226303, 0.8689295053482056, -0.05024994909763336, -0.4656534194946289, -0.16009190678596497, 8.146366119384766, 0.6174763441085815, 5.609281063079834, -0.09227527678012848, 0.6997808218002319, 0.9410157799720764, -0.97705078125, 0.142578125, -0.208984375, 
111, 3331234636, 0.8690586686134338, -0.050153836607933044, -0.4654569625854492, -0.15999260544776917, 8.157779693603516, 0.6220511198043823, 5.490113258361816, 1.2939543724060059, 2.8152096271514893, 1.206174373626709, -0.98828125, 0.1455078125, -0.206787109375, 
112, 3331242969, 0.8691965341567993, -0.05006535351276398, -0.46523600816726685, -0.15991362929344177, 8.037022590637207, 0.6061668992042542, 5.408507823944092, 1.0252354145050049, 3.169172763824463, 1.0630676746368408, -0.97607421875, 0.144775390625, -0.20947265625, 
113, 3331251302, 0.8692077994346619, -0.05005308985710144, -0.46523576974868774, -0.159856915473938, 8.010832786560059, 0.5923552513122559, 5.454643726348877, 0.36935725808143616, -0.4401678144931793, 0.8388149738311768, -0.9775390625, 0.143798828125, -0.20751953125, 
114, 3331259635, 0.8691467642784119, -0.05006811022758484, -0.46536338329315186, -0.15981179475784302, 8.09045696258545, 0.5966206789016724, 5.483229160308838, 0.1968453824520111, -2.474271059036255, 0.6395617723464966, -0.978515625, 0.14404296875, -0.20849609375, 
115, 3331267968, 0.8691059947013855, -0.050063133239746094, -0.46545448899269104, -0.15977004170417786, 8.09294605255127, 0.637316882610321, 5.523462772369385, 0.35114553570747375, -1.8706458806991577, 0.5271153450012207, -0.97802734375, 0.14404296875, -0.20849609375, 
116, 3331276301, 0.8690985441207886, -0.050072818994522095, -0.46547871828079224, -0.15973669290542603, 8.153961181640625, 0.6727747321128845, 5.541658401489258, -0.010719557292759418, -0.8761221170425415, 0.6515492796897888, -0.978515625, 0.145263671875, -0.208984375, 
117, 3331284634, 0.8691366910934448, -0.05011066794395447, -0.46540606021881104, -0.15972945094108582, 8.16125774383545, 0.6878817677497864, 5.495622158050537, -0.6865255236625671, 0.5215058326721191, 0.6764207482337952, -0.982421875, 0.146484375, -0.208251953125, 
118, 3331292967, 0.8691715598106384, -0.05015064775943756, -0.46533286571502686, -0.15974009037017822, 8.139069557189941, 0.6659010648727417, 5.525928974151611, -0.8404414653778076, 0.5242721438407898, 0.4780128300189972, -0.9765625, 0.145263671875, -0.20751953125, 
119, 3331301300, 0.8691933751106262, -0.05018314719200134, -0.4652879238128662, -0.15974250435829163, 8.133490562438965, 0.6393711566925049, 5.56403923034668, -0.6345030069351196, 0.1039169505238533, 0.4730437099933624, -0.97607421875, 0.147216796875, -0.2080078125, 
120, 3331309633, 0.8692446947097778, -0.05016990005970001, -0.4651980996131897, -0.1597284972667694, 8.165663719177246, 0.6520960927009583, 5.58287239074707, -0.06392032653093338, 0.9289515018463135, 0.48510798811912537, -0.97509765625, 0.144775390625, -0.21044921875, 
121, 3331317966, 0.8693174123764038, -0.05016833543777466, -0.46505850553512573, -0.15974029898643494, 8.137554168701172, 0.6513379216194153, 5.562860012054443, -0.4593784511089325, 1.6419748067855835, 0.31818002462387085, -0.9765625, 0.145263671875, -0.208984375, 
122, 3331326299, 0.8693822622299194, -0.05019664764404297, -0.46492159366607666, -0.15977618098258972, 8.104196548461914, 0.6334300637245178, 5.595783233642578, -0.965157151222229, 1.5206146240234375, 0.22463683784008026, -0.97509765625, 0.144287109375, -0.2099609375, 
123, 3331334632, 0.8694338798522949, -0.05024324357509613, -0.4648045301437378, -0.15982165932655334, 8.108036041259766, 0.6165595054626465, 5.5363850593566895, -1.2178927659988403, 1.155663013458252, 0.16121599078178406, -0.97802734375, 0.14404296875, -0.2109375, 
124, 3331342965, 0.8694767951965332, -0.05024881660938263, -0.4647172689437866, -0.15984025597572327, 8.11696720123291, 0.6132776141166687, 5.560548782348633, -0.5303298830986023, 0.8213716745376587, 0.17189711332321167, -0.9765625, 0.1435546875, -0.2099609375, 
125, 3331351298, 0.8695091009140015, -0.050261929631233215, -0.46464547514915466, -0.15986886620521545, 8.080860137939453, 0.6096439361572266, 5.5687384605407715, -0.6233095526695251, 0.553523600101471, 0.07727814465761185, -0.9765625, 0.14453125, -0.2119140625, 
126, 3331359631, 0.8695387840270996, -0.050283804535865784, -0.46457087993621826, -0.15991762280464172, 8.106138229370117, 0.621732234954834, 5.558309555053711, -0.8637247681617737, 0.5731953382492065, -0.0974237397313118, -0.97607421875, 0.14453125, -0.2109375, 
127, 3331367964, 0.8695645928382874, -0.05031067132949829, -0.4644981920719147, -0.15997982025146484, 8.125293731689453, 0.5929559469223022, 5.52230167388916, -1.0074975490570068, 0.5156657099723816, -0.25036633014678955, -0.97802734375, 0.1455078125, -0.2109375, 
128, 3331376297, 0.8695827722549438, -0.05032309889793396, -0.46444636583328247, -0.16002768278121948, 8.09774112701416, 0.5940865278244019, 5.508261203765869, -0.7177492380142212, 0.24610155820846558, -0.1975754052400589, -0.97607421875, 0.143798828125, -0.208984375, 
129, 3331384630, 0.8695956468582153, -0.05030946433544159, -0.4644116461277008, -0.16006258130073547, 8.072676658630371, 0.5733075141906738, 5.502946853637695, -0.27431562542915344, 0.049794070422649384, -0.23694446682929993, -0.97998046875, 0.14306640625, -0.2119140625, 
130, 3331392963, 0.8695958852767944, -0.050307318568229675, -0.46440404653549194, -0.16008445620536804, 8.090130805969238, 0.5674210786819458, 5.524068832397461, -0.29788070917129517, -0.38240769505500793, -0.05405883863568306, -0.98095703125, 0.1455078125, -0.210205078125, 
131, 3331401296, 0.8695943355560303, -0.050305142998695374, -0.4644004702568054, -0.16010361909866333, 8.061076164245605, 0.527121365070343, 5.5300140380859375, -0.252108097076416, -0.4517454504966736, -0.02969970367848873, -0.9765625, 0.14404296875, -0.21142578125, 
132, 3331409629, 0.8695937395095825, -0.05026848614215851, -0.464406818151474, -0.16009950637817383, 8.09485149383545, 0.5647602081298828, 5.5320024490356445, 0.3301418423652649, -0.4957507252693176, 0.0379859060049057, -0.9765625, 0.146240234375, -0.2119140625, 
133, 3331417962, 0.8695931434631348, -0.050204068422317505, -0.46442359685897827, -0.16007444262504578, 8.077877044677734, 0.5669558048248291, 5.52059268951416, 0.8191944360733032, -0.582582950592041, 0.0897778868675232, -0.978515625, 0.14306640625, -0.20947265625, 
134, 3331426295, 0.8695854544639587, -0.05014914274215698, -0.4644514322280884, -0.1600525975227356, 8.105451583862305, 0.5694882273674011, 5.50453519821167, 0.7133564352989197, -0.7696692943572998, 0.10793837904930115, -0.97607421875, 0.146484375, -0.212890625, 
135, 3331434628, 0.8695767521858215, -0.05011223256587982, -0.46448013186454773, -0.16002854704856873, 8.099236488342285, 0.6036782264709473, 5.503039360046387, 0.5036270618438721, -0.8371371626853943, 0.22794108092784882, -0.978515625, 0.14404296875, -0.2119140625, 
136, 3331442961, 0.8695703744888306, -0.05007012188434601, -0.46450430154800415, -0.1600061058998108, 8.123147964477539, 0.5898448824882507, 5.519834518432617, 0.5591587424278259, -0.7455151081085205, 0.2050931751728058, -0.97216796875, 0.145263671875, -0.21240234375, 
137, 3331451294, 0.8695807456970215, -0.05001269280910492, -0.46450233459472656, -0.15997308492660522, 8.13742446899414, 0.5904600620269775, 5.546385765075684, 0.753673255443573, -0.3091253638267517, 0.26492801308631897, -0.97998046875, 0.14453125, -0.21142578125, 
138, 3331459627, 0.8696083426475525, -0.04993969202041626, -0.4644741415977478, -0.15992796421051025, 8.134620666503906, 0.5991435647010803, 5.557129383087158, 0.9597910046577454, 0.14833202958106995, 0.3754790723323822, -0.9765625, 0.147216796875, -0.21044921875, 
139, 3331467960, 0.8696355223655701, -0.0498642772436142, -0.4644455015659332, -0.1598871648311615, 8.09884262084961, 0.5930851101875305, 5.547365665435791, 0.9712405204772949, 0.1505860835313797, 0.3003268837928772, -0.978515625, 0.1455078125, -0.21337890625, 
140, 3331476293, 0.8696585297584534, -0.04978674650192261, -0.4644276797771454, -0.15983796119689941, 8.111717224121094, 0.5937716960906982, 5.5238037109375, 1.0455474853515625, 0.001972296042367816, 0.36769232153892517, -0.9755859375, 0.14404296875, -0.21044921875, 
141, 3331484626, 0.8696743249893188, -0.049717873334884644, -0.4644232392311096, -0.15978610515594482, 8.091689109802246, 0.5926132798194885, 5.554812431335449, 1.0084067583084106, -0.23274371027946472, 0.4321889877319336, -0.978515625, 0.14599609375, -0.21044921875, 
142, 3331492959, 0.8696793913841248, -0.049644067883491516, -0.46444186568260193, -0.1597275733947754, 8.087133407592773, 0.6190568804740906, 5.572522163391113, 1.1705448627471924, -0.5609645247459412, 0.467562198638916, -0.97705078125, 0.1435546875, -0.21044921875, 
143, 3331501292, 0.8696900606155396, -0.0495825856924057, -0.46445026993751526, -0.15966379642486572, 8.087626457214355, 0.6317247748374939, 5.545091152191162, 1.0200098752975464, -0.4434976577758789, 0.6003976464271545, -0.97705078125, 0.14453125, -0.2119140625, 
144, 3331509625, 0.8696998357772827, -0.0495186448097229, -0.46445560455322266, -0.15961521863937378, 8.100244522094727, 0.647225022315979, 5.544375896453857, 0.9525933861732483, -0.3860193192958832, 0.42345452308654785, -0.978515625, 0.147216796875, -0.21044921875, 
145, 3331517958, 0.8697132468223572, -0.0494539737701416, -0.4644582271575928, -0.15955454111099243, 8.093377113342285, 0.6601856350898743, 5.540999412536621, 1.0283089876174927, -0.3488786816596985, 0.5541383028030396, -0.978515625, 0.14306640625, -0.21337890625, 
146, 3331526291, 0.8697245717048645, -0.049381181597709656, -0.46446144580841064, -0.15950652956962585, 8.08716869354248, 0.656094491481781, 5.560534477233887, 1.0364030599594116, -0.33479082584381104, 0.35544872283935547, -0.97802734375, 0.14404296875, -0.21337890625, 
147, 3331534624, 0.8697369694709778, -0.04932181537151337, -0.4644578695297241, -0.1594673991203308, 8.089865684509277, 0.6735327839851379, 5.55088472366333, 0.8135850429534912, -0.2769283354282379, 0.33339494466781616, -0.97509765625, 0.14306640625, -0.21142578125, 
148, 3331542957, 0.8697463870048523, -0.04927757382392883, -0.46444961428642273, -0.15945321321487427, 8.111087799072266, 0.6733829379081726, 5.534326076507568, 0.46154287457466125, -0.2464217245578766, 0.14185161888599396, -0.97607421875, 0.14501953125, -0.21240234375, 
149, 3331551290, 0.8697550296783447, -0.04924929141998291, -0.4644419550895691, -0.1594378650188446, 8.1289701461792, 0.6674749851226807, 5.513697624206543, 0.2788877785205841, -0.3054369390010834, 0.24272048473358154, -0.9775390625, 0.14306640625, -0.2099609375, 
150, 3331559623, 0.8697545528411865, -0.04922039806842804, -0.4644477069377899, -0.1594325304031372, 8.119284629821777, 0.6607581973075867, 5.520699977874756, 0.22786423563957214, -0.5067905187606812, 0.09095615148544312, -0.97900390625, 0.14453125, -0.2099609375, 
151, 3331567956, 0.8697507381439209, -0.04919426143169403, -0.46445706486701965, -0.1594344973564148, 8.103935241699219, 0.6633117198944092, 5.548746585845947, 0.17146168649196625, -0.5815839767456055, 0.009630952030420303, -0.97900390625, 0.1435546875, -0.21142578125, 
152, 3331576289, 0.8697503209114075, -0.049169450998306274, -0.46445900201797485, -0.15943822264671326, 8.114164352416992, 0.673812210559845, 5.551922798156738, 0.12299957126379013, -0.46352797746658325, 0.019594889134168625, -0.978515625, 0.1435546875, -0.212890625, 
153, 3331584622, 0.8697615265846252, -0.04914258420467377, -0.46444058418273926, -0.15943944454193115, 8.107912063598633, 0.6738407015800476, 5.5396552085876465, 0.13398808240890503, -0.15134172141551971, 0.06388190388679504, -0.9765625, 0.14453125, -0.212890625, 
154, 3331592955, 0.8697806596755981, -0.04910494387149811, -0.46440649032592773, -0.15944498777389526, 8.088699340820312, 0.6669954657554626, 5.568495273590088, 0.18918673694133759, 0.12079672515392303, -0.022578947246074677, -0.9765625, 0.14599609375, -0.2119140625, 
155, 3331601288, 0.8697946071624756, -0.04909604787826538, -0.46437519788742065, -0.1594630479812622, 8.081732749938965, 0.6514523029327393, 5.566563606262207, -0.2156846672296524, -0.007825148291885853, -0.007645849138498306, -0.9775390625, 0.14599609375, -0.21337890625, 
156, 3331609621, 0.869799017906189, -0.04909779131412506, -0.4643547534942627, -0.15949803590774536, 8.093877792358398, 0.6485840082168579, 5.5614142417907715, -0.4432671070098877, -0.2019554227590561, -0.16048598289489746, -0.9794921875, 0.14306640625, -0.2119140625, 
157, 3331617954, 0.8697983026504517, -0.04915192723274231, -0.46432870626449585, -0.1595611274242401, 8.09801959991455, 0.6434196829795837, 5.63975191116333, -1.2555971145629883, -0.27183106541633606, -0.17938929796218872, -0.97900390625, 0.14404296875, -0.21240234375, 
158, 3331626287, 0.8698108792304993, -0.049228936433792114, -0.4642752707004547, -0.15962401032447815, 8.116881370544434, 0.6510517597198486, 5.6641645431518555, -1.5678343772888184, 0.10038218647241592, 0.04034242033958435, -0.97900390625, 0.14306640625, -0.212890625, 
159, 3331634620, 0.8698580265045166, -0.049215689301490784, -0.4641871452331543, -0.1596274971961975, 8.105607986450195, 0.6505153179168701, 5.5333099365234375, -0.1714232712984085, 0.8831019401550293, 0.25109633803367615, -0.979248046875, 0.14013671875, -0.2119140625, 
160, 3331642953, 0.8699278831481934, -0.049051180481910706, -0.46409887075424194, -0.15955427289009094, 8.077943801879883, 0.6273779273033142, 5.3868536949157715, 2.1062331199645996, 1.3161875009536743, 0.2435145527124405, -0.98388671875, 0.142578125, -0.211669921875, 
161, 3331651286, 0.8699229955673218, -0.048968955874443054, -0.464118629693985, -0.15954884886741638, 8.031669616699219, 0.629564642906189, 5.4830474853515625, 0.9092541337013245, -0.5929567813873291, -0.26942336559295654, -0.97607421875, 0.1455078125, -0.21435546875, 
162, 3331659619, 0.8697655200958252, -0.04906408488750458, -0.4643709063529968, -0.1596439778804779, 8.019848823547363, 0.6025605797767639, 5.659673690795898, -1.426520824432373, -4.660856246948242, -0.8041717410087585, -0.977294921875, 0.1416015625, -0.21142578125, 
163, 3331667952, 0.8697131872177124, -0.04907618463039398, -0.46445417404174805, -0.15968292951583862, 8.192537307739258, 0.6065295934677124, 5.5108795166015625, -0.3927558958530426, -1.8327882289886475, -0.34624043107032776, -0.97802734375, 0.1455078125, -0.21142578125, 
164, 3331676285, 0.8697925806045532, -0.04897356033325195, -0.46431681513786316, -0.1596815586090088, 8.15551471710205, 0.6720880270004272, 5.384355545043945, 0.830285370349884, 1.879495620727539, -0.1509062498807907, -0.9775390625, 0.142578125, -0.21435546875, 
165, 3331684618, 0.8697853088378906, -0.04908172786235809, -0.4642927646636963, -0.15975791215896606, 8.037698745727539, 0.6992319822311401, 5.499509334564209, -1.986191749572754, -0.44785210490226746, -0.007005493156611919, -0.9775390625, 0.14208984375, -0.21142578125, 
166, 3331692951, 0.8697399497032166, -0.04928384721279144, -0.4643140435218811, -0.15988099575042725, 8.106178283691406, 0.6664802432060242, 5.572198390960693, -3.37007737159729, -1.4015213251113892, -0.09181421995162964, -0.97802734375, 0.1435546875, -0.2109375, 
167, 3331701284, 0.8697423934936523, -0.04943087697029114, -0.464266300201416, -0.15996086597442627, 8.131205558776855, 0.6136817336082458, 5.636041641235352, -2.518378973007202, -0.18453775346279144, 0.23547165095806122, -0.97900390625, 0.14404296875, -0.21240234375, 
168, 3331709617, 0.8698107004165649, -0.049480587244033813, -0.4641364514827728, -0.1599504053592682, 8.140307426452637, 0.594269871711731, 5.550224781036377, -0.9330625534057617, 1.3762784004211426, 0.8982143998146057, -0.97802734375, 0.14501953125, -0.2099609375, 
169, 3331717950, 0.8698505163192749, -0.049465760588645935, -0.46408218145370483, -0.15989622473716736, 8.052278518676758, 0.6024194955825806, 5.4903435707092285, 0.28416430950164795, 0.3964058756828308, 0.8915033936500549, -0.978515625, 0.14306640625, -0.21240234375, 
170, 3331726283, 0.8697975873947144, -0.049453556537628174, -0.46419456601142883, -0.1598612666130066, 7.988750457763672, 0.5963099598884583, 5.513784885406494, 0.42962753772735596, -2.1735599040985107, 0.375709593296051, -0.98046875, 0.14404296875, -0.21435546875, 
171, 3331734616, 0.8697176575660706, -0.04941433668136597, -0.46435949206352234, -0.15983009338378906, 8.07563304901123, 0.5709192752838135, 5.528732776641846, 0.8284412622451782, -2.920830011367798, 0.04818038269877434, -0.978515625, 0.1435546875, -0.21044921875, 
172, 3331742949, 0.8696914315223694, -0.04927945137023926, -0.4644409418106079, -0.15977847576141357, 8.134298324584961, 0.606010913848877, 5.509357452392578, 1.9550833702087402, -1.3756765127182007, -0.12874996662139893, -0.9765625, 0.14501953125, -0.2119140625, 
173, 3331751282, 0.8696971535682678, -0.04915095865726471, -0.46446338295936584, -0.15972119569778442, 8.145478248596191, 0.626079261302948, 5.52257776260376, 1.808236837387085, -0.49011555314064026, 0.07553637772798538, -0.978515625, 0.14453125, -0.21240234375, 
174, 3331759615, 0.8697054386138916, -0.04911276698112488, -0.4644543528556824, -0.1597142517566681, 8.132761001586914, 0.655629575252533, 5.4848785400390625, 0.3387739062309265, -0.2542853355407715, 0.09121230244636536, -0.9775390625, 0.14453125, -0.2109375, 
175, 3331767948, 0.8696895241737366, -0.049127161502838135, -0.46448200941085815, -0.15971583127975464, 8.118999481201172, 0.6790478825569153, 5.531108379364014, -0.2789006233215332, -0.9652852416038513, 0.23306390643119812, -0.9794921875, 0.14501953125, -0.212890625, 
176, 3331776281, 0.8696742057800293, -0.049131378531455994, -0.46451693773269653, -0.159695565700531, 8.11406421661377, 0.6967729330062866, 5.574468612670898, -0.009054631926119328, -1.0333679914474487, 0.43633848428726196, -0.9794921875, 0.142578125, -0.21142578125, 
177, 3331784614, 0.8696826100349426, -0.04909956455230713, -0.46452054381370544, -0.15964967012405396, 8.11821174621582, 0.6518099904060364, 5.5775651931762695, 0.5409981608390808, -0.4539738595485687, 0.576653242111206, -0.9794921875, 0.14404296875, -0.2109375, 
178, 3331792947, 0.869716465473175, -0.04906158149242401, -0.46447569131851196, -0.15960732102394104, 8.105866432189941, 0.6592131853103638, 5.564425468444824, 0.48311007022857666, 0.31221190094947815, 0.5866683721542358, -0.97705078125, 0.14306640625, -0.21240234375, 
179, 3331801280, 0.8697580099105835, -0.04905015230178833, -0.4644045829772949, -0.15959158539772034, 8.115307807922363, 0.6418389081954956, 5.561914920806885, -0.038434162735939026, 0.6271389126777649, 0.46825382113456726, -0.97802734375, 0.142578125, -0.21044921875, 
180, 3331809613, 0.8697906136512756, -0.04903586208820343, -0.464348703622818, -0.15958067774772644, 8.101309776306152, 0.6462236046791077, 5.547115325927734, 0.0028687939047813416, 0.40826526284217834, 0.38431593775749207, -0.97705078125, 0.14453125, -0.21337890625, 
181, 3331817946, 0.8698216676712036, -0.049011170864105225, -0.464300274848938, -0.15956056118011475, 8.097490310668945, 0.6353369951248169, 5.529855728149414, 0.19136397540569305, 0.3147221505641937, 0.3972511887550354, -0.97998046875, 0.1416015625, -0.2138671875, 
182, 3331826279, 0.869849443435669, -0.048995211720466614, -0.4642515778541565, -0.1595546007156372, 8.116002082824707, 0.6437200903892517, 5.5332818031311035, -0.016149776056408882, 0.29599809646606445, 0.2851376533508301, -0.9794921875, 0.1435546875, -0.21142578125, 
183, 3331834612, 0.8698681592941284, -0.04901421070098877, -0.46420735120773315, -0.15957576036453247, 8.090123176574707, 0.630980908870697, 5.52333927154541, -0.5943654179573059, 0.11767179518938065, 0.15496611595153809, -0.98046875, 0.14453125, -0.2138671875, 
184, 3331842945, 0.8698874711990356, -0.0490332692861557, -0.4641607701778412, -0.1595999002456665, 8.090873718261719, 0.632847785949707, 5.485207557678223, -0.6224386692047119, 0.160729318857193, 0.13188768923282623, -0.97705078125, 0.14453125, -0.21533203125, 
185, 3331851278, 0.8699008226394653, -0.04904349148273468, -0.46413081884384155, -0.15961173176765442, 8.109786033630371, 0.6335917115211487, 5.507325649261475, -0.40315523743629456, -0.07414039969444275, 0.18777795135974884, -0.98046875, 0.14453125, -0.21337890625, 
186, 3331859611, 0.8699105978012085, -0.04905645549297333, -0.46410903334617615, -0.15961742401123047, 8.093928337097168, 0.6307806372642517, 5.522359371185303, -0.382894366979599, -0.1957823932170868, 0.2769154906272888, -0.978515625, 0.14501953125, -0.21044921875, 
187, 3331867944, 0.8699207305908203, -0.04908330738544464, -0.4640822410583496, -0.159631609916687, 8.095708847045898, 0.6442279815673828, 5.531529426574707, -0.6102463006973267, -0.16719691455364227, 0.25811463594436646, -0.978515625, 0.14453125, -0.21533203125, 
188, 3331876277, 0.8699284791946411, -0.0491049587726593, -0.464054673910141, -0.15966296195983887, 8.113126754760742, 0.6454225182533264, 5.531886577606201, -0.6399844884872437, -0.13937987387180328, 0.0428013913333416, -0.978515625, 0.14208984375, -0.21240234375, 
189, 3331884610, 0.8699290752410889, -0.04911904036998749, -0.46404460072517395, -0.15968507528305054, 8.077441215515137, 0.6502646207809448, 5.538368225097656, -0.47815370559692383, -0.3951379656791687, 0.04794984683394432, -0.98046875, 0.14453125, -0.212890625, 
190, 3331892943, 0.8699288368225098, -0.049115538597106934, -0.4640410244464874, -0.15969768166542053, 8.091346740722656, 0.6337491869926453, 5.535427570343018, -0.20707827806472778, -0.4375551640987396, 0.0477193184196949, -0.9775390625, 0.14404296875, -0.2138671875, 
191, 3331901276, 0.8699406385421753, -0.04913051426410675, -0.46400851011276245, -0.15972331166267395, 8.11579418182373, 0.6418532133102417, 5.53582763671875, -0.5525118112564087, -0.05413568392395973, 0.05151022598147392, -0.978515625, 0.1435546875, -0.21484375, 
192, 3331909609, 0.8699673414230347, -0.049122318625450134, -0.4639524519443512, -0.15974289178848267, 8.138769149780273, 0.6166895031929016, 5.466939449310303, -0.3237511217594147, 0.37468501925468445, 0.009630952030420303, -0.97998046875, 0.14404296875, -0.212890625, 
193, 3331917942, 0.8700008392333984, -0.04910391569137573, -0.4638919532299042, -0.15974175930023193, 8.154019355773926, 0.6170185208320618, 5.45168924331665, -0.030083918944001198, 0.47452932596206665, 0.225200355052948, -0.97998046875, 0.1435546875, -0.21142578125, 
194, 3331926275, 0.8699760437011719, -0.04916156828403473, -0.46392199397087097, -0.15977147221565247, 8.038114547729492, 0.6199080348014832, 5.6615471839904785, -0.968563973903656, -1.11712646484375, 0.17243504524230957, -0.98095703125, 0.14306640625, -0.21337890625, 
195, 3331934608, 0.869986891746521, -0.049217596650123596, -0.4638897478580475, -0.15978911519050598, 8.125865936279297, 0.6261240839958191, 5.653929710388184, -0.9928973317146301, -0.15923088788986206, 0.4072919189929962, -0.97802734375, 0.14453125, -0.212890625, 
196, 3331942941, 0.8700618743896484, -0.049193188548088074, -0.4637557864189148, -0.15977713465690613, 8.156583786010742, 0.6017991900444031, 5.534484386444092, -0.018352599814534187, 1.6329587697982788, 0.47486233711242676, -0.97705078125, 0.1435546875, -0.21240234375, 
197, 3331951274, 0.8701455593109131, -0.0491744726896286, -0.46359530091285706, -0.1597939431667328, 8.066837310791016, 0.6080685257911682, 5.4713215827941895, -0.32708096504211426, 2.0034685134887695, 0.185011625289917, -0.97802734375, 0.1435546875, -0.21337890625, 
198, 3331959607, 0.8701134324073792, -0.049237266182899475, -0.4636349081993103, -0.1598339080810547, 8.046416282653809, 0.5750664472579956, 5.513605117797852, -1.0960971117019653, -1.284694790840149, 0.048487745225429535, -0.984375, 0.14599609375, -0.211669921875, 
199, 3331967940, 0.8700307011604309, -0.04932336509227753, -0.4637695550918579, -0.15986749529838562, 8.097631454467773, 0.5806509852409363, 5.617433547973633, -1.1521668434143066, -2.808229446411133, 0.08877894282341003, -0.97900390625, 0.14599609375, -0.2138671875, 
200, 3331976273, 0.8700223565101624, -0.04930950701236725, -0.4637905955314636, -0.15985563397407532, 8.14244556427002, 0.5931709408760071, 5.598930835723877, 0.14251761138439178, -0.7768413424491882, 0.2533504366874695, -0.9775390625, 0.1435546875, -0.21240234375, 
201, 3331984606, 0.8700802326202393, -0.04923942685127258, -0.4636990427970886, -0.15982753038406372, 8.133469581604004, 0.6015251874923706, 5.534648418426514, 0.7075676321983337, 1.0973138809204102, 0.29359036684036255, -0.9794921875, 0.14599609375, -0.21044921875, 
202, 3331992939, 0.8700898885726929, -0.04924657940864563, -0.46367937326431274, -0.15983060002326965, 8.05703353881836, 0.612533688545227, 5.525521278381348, -0.29283472895622253, -0.21135585010051727, 0.2701021134853363, -0.97900390625, 0.1455078125, -0.212890625, 
203, 3332001272, 0.8700594902038574, -0.04930347204208374, -0.46372032165527344, -0.1598600447177887, 8.098743438720703, 0.6173616051673889, 5.5601701736450195, -0.9470478892326355, -1.2909958362579346, 0.12894204258918762, -0.982421875, 0.142578125, -0.21240234375, 
204, 3332009605, 0.8700584173202515, -0.04929535090923309, -0.4637257754802704, -0.15985167026519775, 8.126688957214355, 0.6415745615959167, 5.597565174102783, 0.026638804003596306, -0.5539206266403198, 0.27965620160102844, -0.97900390625, 0.14453125, -0.2138671875, 
205, 3332017938, 0.8700910210609436, -0.04926756024360657, -0.4636717438697815, -0.1598391830921173, 8.107211112976074, 0.6399791836738586, 5.606555461883545, 0.1678500920534134, 0.4055502116680145, 0.29441002011299133, -0.97802734375, 0.14599609375, -0.212890625, 
206, 3332026271, 0.8701224327087402, -0.049292534589767456, -0.46360525488853455, -0.15985378623008728, 8.109514236450195, 0.6420108675956726, 5.568539142608643, -0.6402149796485901, 0.4580593407154083, 0.344076007604599, -0.9794921875, 0.1435546875, -0.212890625, 
207, 3332034604, 0.8701489567756653, -0.0493461936712265, -0.4635407328605652, -0.15988022089004517, 8.096217155456543, 0.6217179298400879, 5.5696611404418945, -1.0832899808883667, 0.3387738764286041, 0.34023383259773254, -0.9765625, 0.14501953125, -0.21337890625, 
208, 3332042937, 0.8701753616333008, -0.04938174784183502, -0.4634801745414734, -0.159900963306427, 8.088956832885742, 0.6187493801116943, 5.557816028594971, -0.8182851076126099, 0.3334973156452179, 0.3071402907371521, -0.9814453125, 0.14599609375, -0.212158203125, 
209, 3332051270, 0.8702200651168823, -0.04937736690044403, -0.46339520812034607, -0.15990519523620605, 8.103434562683105, 0.6374256014823914, 5.555906295776367, -0.27874690294265747, 0.8115870356559753, 0.2934366762638092, -0.97998046875, 0.14404296875, -0.21533203125, 
210, 3332059603, 0.8702605962753296, -0.04936826229095459, -0.4633193612098694, -0.15990754961967468, 8.071846961975098, 0.6325974464416504, 5.575369358062744, -0.1919146478176117, 0.6936078667640686, 0.2823713421821594, -0.98095703125, 0.1435546875, -0.21435546875, 
211, 3332067936, 0.8702948689460754, -0.049368903040885925, -0.46324995160102844, -0.15992125868797302, 8.046419143676758, 0.6324830055236816, 5.56885290145874, -0.37175217270851135, 0.5549067854881287, 0.17750664055347443, -0.9794921875, 0.142578125, -0.2138671875, 
212, 3332076269, 0.8703190088272095, -0.04936741292476654, -0.4632028639316559, -0.15992766618728638, 8.075702667236328, 0.6131417155265808, 5.544061183929443, -0.25904953479766846, 0.23047688603401184, 0.22602003812789917, -0.97802734375, 0.146484375, -0.21630859375, 
213, 3332084602, 0.8703250288963318, -0.04935884475708008, -0.46318861842155457, -0.159938246011734, 8.099249839782715, 0.6406944394111633, 5.541171550750732, -0.13797107338905334, -0.26732295751571655, 0.057478342205286026, -0.9794921875, 0.1435546875, -0.21630859375, 
214, 3332092935, 0.8703189492225647, -0.04936593770980835, -0.46319445967674255, -0.1599527895450592, 8.114592552185059, 0.6612157821655273, 5.5408430099487305, -0.31619492173194885, -0.6089655756950378, 0.08368171006441116, -0.9775390625, 0.1435546875, -0.21484375, 
215, 3332101268, 0.8703223466873169, -0.0493689626455307, -0.4631751775741577, -0.15998920798301697, 8.09259033203125, 0.6455941200256348, 5.571878910064697, -0.4558437764644623, -0.2324363887310028, -0.18253985047340393, -0.9775390625, 0.14599609375, -0.21533203125, 
216, 3332109601, 0.8703713417053223, -0.04935076832771301, -0.4630758762359619, -0.16001522541046143, 8.078099250793457, 0.6140143275260925, 5.557651519775391, -0.2904013991355896, 1.062734603881836, -0.0312877893447876, -0.97998046875, 0.14501953125, -0.212890625, 
217, 3332117934, 0.8704248070716858, -0.04929885268211365, -0.46297919750213623, -0.16002044081687927, 8.036928176879883, 0.5693804025650024, 5.536308288574219, 0.2638266384601593, 1.1124519109725952, 0.00709514319896698, -0.98193359375, 0.1435546875, -0.21435546875, 
218, 3332126267, 0.8704608678817749, -0.04925207793712616, -0.46291980147361755, -0.16001033782958984, 8.023751258850098, 0.576282799243927, 5.532516956329346, 0.3611094355583191, 0.5418434739112854, 0.1640847772359848, -0.97998046875, 0.143798828125, -0.21826171875, 
219, 3332134600, 0.8704794645309448, -0.049201175570487976, -0.46289438009262085, -0.1599983274936676, 8.070552825927734, 0.596611499786377, 5.495100021362305, 0.49438029527664185, 0.023488251492381096, 0.09203194081783295, -0.97998046875, 0.14501953125, -0.21435546875, 
220, 3332142933, 0.8704811334609985, -0.0491606742143631, -0.46290284395217896, -0.15997761487960815, 8.062506675720215, 0.6160954833030701, 5.55379581451416, 0.4784739017486572, -0.511375367641449, 0.21016478538513184, -0.9794921875, 0.14697265625, -0.21435546875, 
221, 3332151266, 0.8704789280891418, -0.04912276566028595, -0.46291637420654297, -0.159961998462677, 8.08402156829834, 0.6429690718650818, 5.565219402313232, 0.4351089894771576, -0.6058151125907898, 0.14507901668548584, -0.97998046875, 0.14501953125, -0.21630859375, 
222, 3332159599, 0.8704783916473389, -0.04908426105976105, -0.4629231095314026, -0.15995728969573975, 8.08181095123291, 0.6438416838645935, 5.574611186981201, 0.3544754087924957, -0.4973900020122528, 0.03329850360751152, -0.97802734375, 0.14501953125, -0.21337890625, 
223, 3332167932, 0.8704856634140015, -0.049057185649871826, -0.46291279792785645, -0.1599554717540741, 8.100587844848633, 0.6501290202140808, 5.599646091461182, 0.17233256995677948, -0.2745974063873291, 0.08652488142251968, -0.97900390625, 0.1455078125, -0.212890625, 
224, 3332176265, 0.8704993724822998, -0.049029022455215454, -0.4628874957561493, -0.15996253490447998, 8.103498458862305, 0.6187137365341187, 5.590948104858398, 0.0625755712389946, -0.04027838259935379, -0.012563781812787056, -0.97802734375, 0.14453125, -0.21435546875, 
225, 3332184598, 0.8705252408981323, -0.04900433123111725, -0.46284040808677673, -0.1599656343460083, 8.096023559570312, 0.5954527258872986, 5.619266510009766, 0.0414438359439373, 0.282320111989975, 0.1088348925113678, -0.97998046875, 0.1455078125, -0.212890625, 
226, 3332192931, 0.8705551028251648, -0.048971086740493774, -0.46278539299964905, -0.15997302532196045, 8.093985557556152, 0.6070546507835388, 5.616319179534912, 0.10704188793897629, 0.43305984139442444, 0.03457921743392944, -0.98388671875, 0.145263671875, -0.215576171875, 
227, 3332201264, 0.8705854415893555, -0.04892057180404663, -0.46273308992385864, -0.1599743366241455, 8.090444564819336, 0.6194862723350525, 5.617763996124268, 0.3548596501350403, 0.4279114305973053, -0.021554380655288696, -0.97998046875, 0.146484375, -0.2158203125, 
228, 3332209597, 0.8706095814704895, -0.04887612164020538, -0.4626885652542114, -0.15998497605323792, 8.051576614379883, 0.6375827193260193, 5.609996318817139, 0.2439243644475937, 0.2978422939777374, -0.09312054514884949, -0.98291015625, 0.14599609375, -0.215087890625, 
229, 3332217930, 0.8706336617469788, -0.04882176220417023, -0.4626479148864746, -0.1599879264831543, 8.06422233581543, 0.6174191236495972, 5.58841609954834, 0.41287583112716675, 0.2590111196041107, -0.08638399839401245, -0.9814453125, 0.14501953125, -0.216552734375, 
230, 3332226263, 0.8706563115119934, -0.048771828413009644, -0.4626070261001587, -0.15999844670295715, 8.053207397460938, 0.6526253819465637, 5.582722187042236, 0.2937184274196625, 0.25514334440231323, -0.14780692756175995, -0.9794921875, 0.1455078125, -0.21484375, 
231, 3332234596, 0.8706773519515991, -0.04873991012573242, -0.4625649154186249, -0.16001594066619873, 8.071775436401367, 0.6613160967826843, 5.5662922859191895, 0.045618947595357895, 0.2168244868516922, -0.12329412251710892, -0.9794921875, 0.14404296875, -0.21484375, 
232, 3332242929, 0.8706886172294617, -0.04871390759944916, -0.462538480758667, -0.16003817319869995, 8.075766563415527, 0.6367388963699341, 5.560770511627197, -0.04166155308485031, -0.03546290472149849, -0.16988641023635864, -0.97900390625, 0.1455078125, -0.21826171875, 
233, 3332251262, 0.8706941604614258, -0.048711568117141724, -0.4625145196914673, -0.16007810831069946, 8.052026748657227, 0.620237410068512, 5.560483932495117, -0.42234036326408386, -0.148703470826149, -0.2515702247619629, -0.97998046875, 0.14306640625, -0.21435546875, 
234, 3332259595, 0.8707122206687927, -0.048699215054512024, -0.4624706208705902, -0.160110741853714, 8.074451446533203, 0.6281698346138, 5.56312370300293, -0.2947814464569092, 0.19574400782585144, -0.17370294034481049, -0.97802734375, 0.14208984375, -0.2158203125, 
235, 3332267928, 0.8707342147827148, -0.048674434423446655, -0.46242329478263855, -0.16013559699058533, 8.080180168151855, 0.6364456415176392, 5.54884672164917, -0.0972188264131546, 0.27379053831100464, -0.16081896424293518, -0.9775390625, 0.14404296875, -0.2177734375, 
236, 3332276261, 0.8707481622695923, -0.04864092171192169, -0.4623936414718628, -0.16015520691871643, 8.066309928894043, 0.6215962767601013, 5.574997425079346, 0.0538923479616642, 0.03511711582541466, -0.18253983557224274, -0.98095703125, 0.144287109375, -0.2177734375, 
237, 3332284594, 0.8707456588745117, -0.048611924052238464, -0.4623885154724121, -0.16019278764724731, 8.048107147216797, 0.6302798986434937, 5.584475040435791, -0.0519072487950325, -0.36957502365112305, -0.42159754037857056, -0.982421875, 0.14501953125, -0.215576171875, 
238, 3332292927, 0.8707385659217834, -0.048605844378471375, -0.462380975484848, -0.16025465726852417, 8.063249588012695, 0.6347933411598206, 5.616848468780518, -0.4957250952720642, -0.3946256935596466, -0.5656006932258606, -0.97998046875, 0.14501953125, -0.21484375, 
239, 3332301260, 0.8707287311553955, -0.048630937933921814, -0.4623715877532959, -0.16032755374908447, 8.073907852172852, 0.6077845096588135, 5.686245441436768, -0.9386721849441528, -0.4594041407108307, -0.5140649080276489, -0.98095703125, 0.142333984375, -0.21630859375, 
240, 3332309593, 0.8707207441329956, -0.04870499670505524, -0.4623498320579529, -0.16041132807731628, 8.093215942382812, 0.6254375576972961, 5.729867935180664, -1.6342265605926514, -0.3940109610557556, -0.3176037073135376, -0.9814453125, 0.142333984375, -0.21728515625, 
241, 3332317926, 0.8707582354545593, -0.0487147718667984, -0.46227115392684937, -0.16043129563331604, 8.145923614501953, 0.6539203524589539, 5.651726722717285, -0.5397560000419617, 0.6693512201309204, 0.17491962015628815, -0.98291015625, 0.1455078125, -0.215087890625, 
242, 3332326259, 0.8708425760269165, -0.04854239523410797, -0.4621582329273224, -0.16035127639770508, 8.089570999145508, 0.6671493649482727, 5.4430317878723145, 2.225543975830078, 1.7195603847503662, 0.34589460492134094, -0.97998046875, 0.144287109375, -0.21728515625, 
243, 3332334592, 0.870877742767334, -0.04838967323303223, -0.4621128439903259, -0.16033750772476196, 8.00180435180664, 0.6511852145195007, 5.521282196044922, 1.6918972730636597, 0.591484010219574, -0.4833534359931946, -0.97900390625, 0.14404296875, -0.21435546875, 
244, 3332342925, 0.8707468509674072, -0.048483386635780334, -0.46231237053871155, -0.16044434905052185, 7.97680139541626, 0.5509956479072571, 5.732194423675537, -1.6021064519882202, -3.852112293243408, -0.8819109797477722, -0.9814453125, 0.146484375, -0.217529296875, 
245, 3332351258, 0.8706785440444946, -0.04852856695652008, -0.46241480112075806, -0.16050603985786438, 8.132241249084473, 0.5860043168067932, 5.606429100036621, -0.9009936451911926, -2.221330404281616, -0.4558693468570709, -0.97998046875, 0.142822265625, -0.2158203125, 
246, 3332359591, 0.8707783222198486, -0.04839514195919037, -0.4622418284416199, -0.16050440073013306, 8.13914966583252, 0.6710126996040344, 5.481801986694336, 1.122774362564087, 2.501793622970581, -0.28059113025665283, -0.9814453125, 0.143798828125, -0.216796875, 
247, 3332367924, 0.8708288669586182, -0.048406556248664856, -0.46213555335998535, -0.16053277254104614, 8.02381706237793, 0.718474805355072, 5.511387825012207, -0.6647278070449829, 1.0846859216690063, 0.1300690770149231, -0.98291015625, 0.144287109375, -0.216552734375, 
248, 3332376257, 0.8708286285400391, -0.048535287380218506, -0.46208715438842773, -0.1606341302394867, 8.054181098937988, 0.6835199594497681, 5.5346527099609375, -2.449988842010498, -0.13371911644935608, -0.14171075820922852, -0.97998046875, 0.143310546875, -0.216796875, 
249, 3332384590, 0.8708388805389404, -0.04861384630203247, -0.4620366096496582, -0.16070032119750977, 8.083484649658203, 0.608148992061615, 5.642813205718994, -1.6131973266601562, 0.03854942321777344, -0.022297192364931107, -0.98046875, 0.142822265625, -0.216796875, 
250, 3332392923, 0.8708854913711548, -0.048673808574676514, -0.46194010972976685, -0.16070669889450073, 8.100931167602539, 0.5940865278244019, 5.614166259765625, -1.0916402339935303, 0.8278008103370667, 0.6970402002334595, -0.97900390625, 0.143310546875, -0.21728515625, 
251, 3332401256, 0.8709201812744141, -0.04868069291114807, -0.46188992261886597, -0.16066032648086548, 7.963667869567871, 0.6179555654525757, 5.601713180541992, -0.02186174876987934, 0.27253544330596924, 0.925262987613678, -0.97998046875, 0.14501953125, -0.21728515625, 
252, 3332409589, 0.8708593249320984, -0.04871222376823425, -0.4620123505592346, -0.1606290340423584, 7.832122325897217, 0.5975358486175537, 5.731007099151611, -0.08013413101434708, -2.4361572265625, 0.5977850556373596, -0.98095703125, 0.144287109375, -0.21875, 
253, 3332417922, 0.8707872033119202, -0.04870598018169403, -0.4621644616127014, -0.16058403253555298, 7.786827087402344, 0.5684401988983154, 5.741511344909668, 0.5009375810623169, -2.7993154525756836, 0.45244982838630676, -0.97900390625, 0.1455078125, -0.21435546875, 
254, 3332426255, 0.8708106279373169, -0.04850660264492035, -0.4621872901916504, -0.1604517698287964, 7.8668670654296875, 0.5908612012863159, 5.628247261047363, 3.1368472576141357, -0.26950016617774963, 0.5734770894050598, -0.97998046875, 0.143798828125, -0.21826171875, 
255, 3332434588, 0.8708950877189636, -0.04819577932357788, -0.4621385931968689, -0.16022825241088867, 7.897779941558838, 0.615462064743042, 5.46960973739624, 4.943957328796387, 1.154049277305603, 1.134454369544983, -0.98095703125, 0.144775390625, -0.21875, 
256, 3332442921, 0.8709790110588074, -0.04791682958602905, -0.4620949327945709, -0.1599801778793335, 8.032683372497559, 0.6520560383796692, 5.302900314331055, 4.719345569610596, 1.0091753005981445, 1.6331123113632202, -0.98291015625, 0.146240234375, -0.217041015625, 
257, 3332451254, 0.8710070252418518, -0.04777310788631439, -0.46213871240615845, -0.15974479913711548, 8.240382194519043, 0.7301739454269409, 5.1998724937438965, 3.183797836303711, -0.6880111694335938, 2.1532349586486816, -0.98095703125, 0.142822265625, -0.21826171875, 
258, 3332459587, 0.8709121942520142, -0.04773895442485809, -0.462405800819397, -0.1594984233379364, 8.361235618591309, 0.7512385249137878, 5.305168151855469, 2.343625545501709, -4.38409423828125, 2.572770595550537, -0.98095703125, 0.14501953125, -0.21630859375, 
259, 3332467920, 0.8707498908042908, -0.0477818101644516, -0.4627948999404907, -0.1592431664466858, 8.461380958557129, 0.6650643944740295, 5.629800319671631, 1.7097759246826172, -6.457131385803223, 2.931600570678711, -0.982666015625, 0.14892578125, -0.215087890625, 
260, 3332476253, 0.870652437210083, -0.04781395196914673, -0.463069349527359, -0.15896853804588318, 8.53439712524414, 0.5984398722648621, 5.891361236572266, 1.7853120565414429, -4.648714542388916, 3.350034713745117, -0.98095703125, 0.14306640625, -0.2119140625, 
261, 3332484586, 0.8707341551780701, -0.04774664342403412, -0.4630308747291565, -0.15865331888198853, 8.473966598510742, 0.5799640417098999, 6.097338676452637, 2.6351161003112793, 0.4180755615234375, 3.762833595275879, -0.98095703125, 0.14453125, -0.2158203125, 
262, 3332492919, 0.8709314465522766, -0.047494903206825256, -0.46281886100769043, -0.15826377272605896, 8.267423629760742, 0.5748814940452576, 6.136553764343262, 5.040548801422119, 3.594881534576416, 3.87686824798584, -0.97900390625, 0.14599609375, -0.216796875, 
263, 3332501252, 0.871187686920166, -0.04705578088760376, -0.4625462293624878, -0.15778079628944397, 8.196709632873535, 0.6203338503837585, 6.027965545654297, 7.759499549865723, 5.033786296844482, 3.9405453205108643, -0.98095703125, 0.146484375, -0.214599609375, 
264, 3332509585, 0.8714174628257751, -0.04648089408874512, -0.4623655676841736, -0.15721040964126587, 8.136048316955566, 0.5826456546783447, 5.9000349044799805, 10.126306533813477, 4.00908899307251, 4.0216145515441895, -0.98291015625, 0.144287109375, -0.217041015625, 
265, 3332517918, 0.8715613484382629, -0.04585030674934387, -0.4623856842517853, -0.15653744339942932, 8.017277717590332, 0.43539419770240784, 5.949743747711182, 11.823660850524902, 1.1045116186141968, 4.568325519561768, -0.97900390625, 0.14697265625, -0.2177734375, 
266, 3332526251, 0.8716146349906921, -0.04525493085384369, -0.46259790658950806, -0.15578487515449524, 7.966760635375977, 0.3943113684654236, 5.957307815551758, 12.254081726074219, -1.8936734199523926, 5.435187339782715, -0.98291015625, 0.146240234375, -0.217529296875, 
267, 3332534584, 0.8716143369674683, -0.04475000500679016, -0.46292737126350403, -0.154951810836792, 7.890147686004639, 0.5053837299346924, 5.959836006164551, 11.909751892089844, -3.8901495933532715, 6.780627250671387, -0.9833984375, 0.142822265625, -0.218505859375, 
268, 3332542917, 0.8715132474899292, -0.04431167244911194, -0.4634670317173004, -0.15403041243553162, 7.735573768615723, 0.5951355695724487, 5.9819440841674805, 12.015844345092773, -7.244436740875244, 7.903350353240967, -0.98046875, 0.147216796875, -0.220458984375, 
269, 3332551250, 0.871320366859436, -0.04388183355331421, -0.4641924798488617, -0.1530570387840271, 7.786899089813232, 0.6944231986999512, 5.836856842041016, 12.627310752868652, -10.10849380493164, 8.289051055908203, -0.982177734375, 0.14892578125, -0.217529296875, 
270, 3332559583, 0.8710784912109375, -0.04332078993320465, -0.4650001525878906, -0.1521388292312622, 8.111268043518066, 0.7825828790664673, 5.527884006500244, 13.963142395019531, -11.09354019165039, 6.6334991455078125, -0.982421875, 0.1484375, -0.214111328125, 
271, 3332567916, 0.8707156777381897, -0.04278263449668884, -0.4660034775733948, -0.15129676461219788, 8.620752334594727, 0.6946814656257629, 5.158265113830566, 13.565890312194824, -14.21696662902832, 5.502195358276367, -0.983154296875, 0.14892578125, -0.215576171875, 
272, 3332576249, 0.87001633644104, -0.042210519313812256, -0.4676717519760132, -0.15032929182052612, 9.07504940032959, 0.43976855278015137, 5.054147720336914, 15.959141731262207, -24.33230209350586, 5.706471920013428, -0.98193359375, 0.1484375, -0.213623046875, 
273, 3332584582, 0.8688572645187378, -0.041711390018463135, -0.4702109098434448, -0.14924827218055725, 9.506305694580078, 0.4663393199443817, 5.279162406921387, 17.352134704589844, -37.93019485473633, 6.067740440368652, -0.977294921875, 0.150634765625, -0.209228515625, 
274, 3332592915, 0.8675276041030884, -0.04153148829936981, -0.4729970693588257, -0.1482255458831787, 9.638463973999023, 0.6228419542312622, 5.6022443771362305, 13.544268608093262, -42.600685119628906, 6.938447952270508, -0.98486328125, 0.148193359375, -0.202392578125, 
275, 3332601248, 0.8664357662200928, -0.04133686423301697, -0.47533586621284485, -0.14718025922775269, 9.845831871032715, 0.6167959570884705, 5.782896041870117, 13.117143630981445, -35.70451354980469, 7.856562614440918, -0.985595703125, 0.149658203125, -0.199951171875, 
276, 3332609581, 0.8655158877372742, -0.041157156229019165, -0.4773637056350708, -0.1460762917995453, 10.068389892578125, 0.541752815246582, 6.133955955505371, 12.779647827148438, -30.932645797729492, 9.184250831604004, -0.987060546875, 0.14990234375, -0.192626953125, 
277, 3332617914, 0.8647175431251526, -0.04118335247039795, -0.47909194231033325, -0.14513587951660156, 10.091761589050293, 0.6531471610069275, 6.468461990356445, 8.734410285949707, -26.8973388671875, 8.99675178527832, -0.989501953125, 0.1494140625, -0.18994140625, 
278, 3332626247, 0.8643537759780884, -0.04119947552680969, -0.4800040125846863, -0.14428231120109558, 9.884061813354492, 0.8379529118537903, 6.385236740112305, 6.905701637268066, -14.250059127807617, 9.24312973022461, -0.989013671875, 0.153076171875, -0.18896484375, 
279, 3332634580, 0.8645576238632202, -0.04083581268787384, -0.4799169898033142, -0.1434515416622162, 9.478524208068848, 0.9558749794960022, 6.072470188140869, 9.602266311645508, 2.128620147705078, 8.141639709472656, -0.989990234375, 0.15087890625, -0.18798828125, 
280, 3332642913, 0.8651643991470337, -0.04027076065540314, -0.47910016775131226, -0.14268144965171814, 8.74988842010498, 0.9692200422286987, 5.830085754394531, 10.376815795898438, 13.902643203735352, 7.303721904754639, -0.988037109375, 0.15234375, -0.19091796875, 
281, 3332651246, 0.8661274909973145, -0.03940075635910034, -0.4776339828968048, -0.14199501276016235, 8.028414726257324, 0.8679244518280029, 5.209210395812988, 12.380929946899414, 24.61288833618164, 5.351406574249268, -0.988037109375, 0.15185546875, -0.19287109375, 
282, 3332659579, 0.8672811388969421, -0.03847871720790863, -0.4757465720176697, -0.14154192805290222, 7.631860733032227, 0.6950014233589172, 4.664792537689209, 10.744081497192383, 31.116893768310547, 2.8377015590667725, -0.989501953125, 0.154296875, -0.19677734375, 
283, 3332667912, 0.8682297468185425, -0.03751872479915619, -0.4741927683353424, -0.14119762182235718, 7.6392364501953125, 0.7396546006202698, 4.671166896820068, 11.031494140625, 25.920930862426758, 0.7084389925003052, -0.983642578125, 0.154296875, -0.198974609375, 
284, 3332676245, 0.868848443031311, -0.037019386887550354, -0.4731653928756714, -0.14096936583518982, 7.457287788391113, 0.846614420413971, 5.168246269226074, 5.613156318664551, 16.657222747802734, 1.4163650274276733, -0.984130859375, 0.1533203125, -0.201904296875, 
285, 3332684578, 0.869399905204773, -0.03657811880111694, -0.47228819131851196, -0.14062735438346863, 7.246334075927734, 0.9059942960739136, 5.192079067230225, 5.929824352264404, 14.246562957763672, 2.9444594383239746, -0.986572265625, 0.154541015625, -0.2041015625, 
286, 3332692911, 0.87018883228302, -0.03583836555480957, -0.47105178236961365, -0.1400820016860962, 7.418707370758057, 0.9988580346107483, 4.9976701736450195, 10.237886428833008, 20.56839370727539, 4.086112976074219, -0.984619140625, 0.153564453125, -0.208251953125, 
287, 3332701244, 0.8708853721618652, -0.03479689359664917, -0.47001731395721436, -0.13948926329612732, 7.661135673522949, 0.9069039225578308, 4.649060249328613, 14.505475997924805, 18.10146141052246, 2.4119913578033447, -0.983642578125, 0.156494140625, -0.2109375, 
288, 3332709577, 0.8712259531021118, -0.03363044559955597, -0.469690203666687, -0.13874948024749756, 7.702169418334961, 0.6006218194961548, 4.6755595207214355, 18.13572883605957, 7.5080718994140625, 2.3568687438964844, -0.981689453125, 0.152587890625, -0.213623046875, 
289, 3332717910, 0.8713552951812744, -0.03273162245750427, -0.4696958065032959, -0.1381320357322693, 7.51226806640625, 0.22912485897541046, 4.962825298309326, 14.679471969604492, 1.6952531337738037, 2.0505483150482178, -0.981689453125, 0.152587890625, -0.213134765625, 
290, 3332726243, 0.8713927268981934, -0.03199151158332825, -0.4698053002357483, -0.13769587874412537, 7.249451637268066, 0.21820752322673798, 5.123776435852051, 11.752758979797363, -0.3552566468715668, 0.686717689037323, -0.982177734375, 0.153076171875, -0.214111328125, 
291, 3332734576, 0.8712238073348999, -0.03097553551197052, -0.4703330993652344, -0.13719475269317627, 7.221066474914551, 0.7111117839813232, 5.066086292266846, 16.188817977905273, -6.21518087387085, -0.8963065147399902, -0.983642578125, 0.15087890625, -0.213623046875, 
292, 3332742909, 0.8709520101547241, -0.02995923161506653, -0.47102633118629456, -0.13676634430885315, 7.560832977294922, 1.1075762510299683, 4.953854084014893, 15.988229751586914, -8.82099437713623, -2.0242295265197754, -0.982177734375, 0.155029296875, -0.212158203125, 
293, 3332751242, 0.8705808520317078, -0.029069870710372925, -0.4718855917453766, -0.13635873794555664, 7.917060852050781, 1.1448290348052979, 4.630209445953369, 14.606853485107422, -11.692657470703125, -1.7176012992858887, -0.983642578125, 0.14990234375, -0.212158203125, 
294, 3332759575, 0.8700745105743408, -0.028522908687591553, -0.472895085811615, -0.13620904088020325, 8.272835731506348, 1.3699538707733154, 4.622368812561035, 9.059370994567871, -14.898327827453613, -2.884713888168335, -0.985595703125, 0.1484375, -0.212646484375, 
295, 3332767908, 0.8694499731063843, -0.02807706594467163, -0.4740855097770691, -0.13615131378173828, 8.686617851257324, 1.37459135055542, 4.965889930725098, 7.547799587249756, -17.994504928588867, -3.630549907684326, -0.984619140625, 0.148681640625, -0.207763671875, 
296, 3332776241, 0.8688748478889465, -0.027698010206222534, -0.47516512870788574, -0.1361379623413086, 8.731239318847656, 1.0969703197479248, 5.603790760040283, 6.263706684112549, -16.445430755615234, -3.5813961029052734, -0.984619140625, 0.149169921875, -0.208740234375, 
297, 3332784574, 0.8685040473937988, -0.02728557586669922, -0.47587350010871887, -0.13611307740211487, 8.761357307434082, 0.8946012854576111, 6.088573455810547, 6.127796649932861, -10.6261568069458, -3.147951364517212, -0.986328125, 0.1474609375, -0.205810546875, 
298, 3332792907, 0.8686205148696899, -0.02656581997871399, -0.47572842240333557, -0.13601866364479065, 8.814996719360352, 0.7862526178359985, 5.816245079040527, 8.833120346069336, 3.3141491413116455, -3.084760904312134, -0.986083984375, 0.148193359375, -0.205810546875, 
299, 3332801240, 0.8692296743392944, -0.025160163640975952, -0.47478461265563965, -0.13569170236587524, 8.852716445922852, 0.8869447708129883, 5.184755802154541, 17.238544464111328, 17.2657470703125, -3.5916683673858643, -0.9873046875, 0.1474609375, -0.205810546875, 
300, 3332809573, 0.8699029088020325, -0.02337758243083954, -0.4737180471420288, -0.1354237198829651, 8.574503898620605, 1.3093181848526, 4.867268085479736, 21.141132354736328, 19.885061264038086, -6.589407444000244, -0.98583984375, 0.14599609375, -0.210693359375, 
301, 3332817906, 0.8704116940498352, -0.021737217903137207, -0.47288182377815247, -0.13535010814666748, 8.296502113342285, 1.7160990238189697, 4.697135925292969, 18.560802459716797, 15.845948219299316, -8.373746871948242, -0.9853515625, 0.143310546875, -0.213134765625, 
302, 3332826239, 0.8707325458526611, -0.020107075572013855, -0.4723571538925171, -0.13536998629570007, 8.412215232849121, 1.8145943880081177, 4.605983734130859, 18.34215545654297, 10.914844512939453, -9.862060546875, -0.98193359375, 0.141845703125, -0.2138671875, 
303, 3332834572, 0.8708831667900085, -0.018570661544799805, -0.4720894992351532, -0.13555529713630676, 8.451106071472168, 1.6481623649597168, 4.82637882232666, 16.589345932006836, 6.591928482055664, -11.630159378051758, -0.987060546875, 0.13916015625, -0.216552734375, 
304, 3332842905, 0.8712230920791626, -0.017383858561515808, -0.4713740944862366, -0.13601696491241455, 8.098491668701172, 1.1391770839691162, 5.0620198249816895, 9.81151008605957, 12.615681648254395, -12.1918306350708, -0.985107421875, 0.13818359375, -0.21728515625, 
305, 3332851238, 0.8718686699867249, -0.016635313630104065, -0.46999746561050415, -0.13673600554466248, 7.766520977020264, 0.6709843277931213, 5.156939506530762, 1.7407445907592773, 21.746139526367188, -11.715457916259766, -0.982666015625, 0.13818359375, -0.22314453125, 
306, 3332859571, 0.8726330995559692, -0.015930265188217163, -0.46839767694473267, -0.13743126392364502, 7.478543758392334, 0.3176475167274475, 5.094316482543945, 0.9713947176933289, 25.11702537536621, -10.862887382507324, -0.982177734375, 0.1357421875, -0.2236328125, 
307, 3332867904, 0.8732514977455139, -0.015666410326957703, -0.4671263098716736, -0.1378609836101532, 7.1866302490234375, 0.08747522532939911, 5.670309066772461, -2.0163917541503906, 19.329330444335938, -5.194632530212402, -0.986083984375, 0.1318359375, -0.228515625, 
308, 3332876237, 0.8736746311187744, -0.016144603490829468, -0.4661804139614105, -0.13832509517669678, 6.992059230804443, 0.3276549279689789, 6.1797614097595215, -10.582921028137207, 12.780072212219238, -1.2716830968856812, -0.983154296875, 0.132568359375, -0.23046875, 
309, 3332884570, 0.8739871382713318, -0.01687885820865631, -0.46546193957328796, -0.13868269324302673, 7.054859638214111, 0.679515540599823, 6.13627290725708, -12.55923843383789, 8.814654350280762, 1.3784302473068237, -0.981201171875, 0.132080078125, -0.2294921875, 
310, 3332892903, 0.8741147518157959, -0.017377272248268127, -0.4651191532611847, -0.1389661431312561, 7.264031887054443, 0.8085758090019226, 5.762831687927246, -8.583830833435059, 3.559072732925415, 0.3302187919616699, -0.981201171875, 0.134033203125, -0.232421875, 
311, 3332901236, 0.8738283514976501, -0.017743900418281555, -0.4655575156211853, -0.13925305008888245, 7.650359630584717, 0.9327348470687866, 5.350776672363281, -5.620518684387207, -8.235143661499023, -1.5414005517959595, -0.982177734375, 0.135009765625, -0.2294921875, 
312, 3332909569, 0.8731581568717957, -0.018261924386024475, -0.46670421957969666, -0.13955116271972656, 8.039677619934082, 0.8606472611427307, 5.227665901184082, -6.2481207847595215, -19.479747772216797, -1.5996479988098145, -0.981689453125, 0.134521484375, -0.2294921875, 
313, 3332917902, 0.872403621673584, -0.019154280424118042, -0.4679645299911499, -0.1399291455745697, 8.318094253540039, 0.5309681296348572, 5.387561321258545, -11.058503150939941, -22.09488868713379, -0.362249493598938, -0.984130859375, 0.135986328125, -0.2275390625, 
314, 3332926235, 0.8718213438987732, -0.020138144493103027, -0.46888160705566406, -0.14034968614578247, 8.247660636901855, 0.25889500975608826, 5.798488616943359, -13.04919147491455, -17.02242088317871, 0.15089353919029236, -0.983154296875, 0.13525390625, -0.22265625, 
315, 3332934568, 0.8714970350265503, -0.021133050322532654, -0.4693140387535095, -0.1407715380191803, 7.983680725097656, 0.38136518001556396, 6.195584774017334, -14.050934791564941, -9.581711769104004, 0.8269301056861877, -0.985595703125, 0.1337890625, -0.2197265625, 
316, 3332942901, 0.8713462948799133, -0.02210254967212677, -0.46944260597229004, -0.1411268711090088, 7.777609825134277, 0.727778434753418, 6.191240310668945, -13.8489408493042, -4.777657508850098, 1.8975284099578857, -0.983642578125, 0.1376953125, -0.21875, 
317, 3332951234, 0.8711869120597839, -0.022818967700004578, -0.46966642141342163, -0.14125165343284607, 7.666365623474121, 1.00777268409729, 5.970993518829346, -9.151416778564453, -5.565934658050537, 2.9681010246276855, -0.986083984375, 0.13525390625, -0.22216796875, 
318, 3332959567, 0.8709723949432373, -0.02362915873527527, -0.47003373503685, -0.14121925830841064, 7.784695625305176, 1.1076170206069946, 5.780944347381592, -8.991225242614746, -7.861688613891602, 5.318898677825928, -0.983154296875, 0.13671875, -0.21826171875, 
319, 3332967900, 0.8706805109977722, -0.024534150958061218, -0.47057294845581055, -0.1410692036151886, 7.99765157699585, 1.146615982055664, 5.455303192138672, -9.062817573547363, -10.653512954711914, 7.11970853805542, -0.985595703125, 0.13916015625, -0.218017578125, 
320, 3332976233, 0.8703715205192566, -0.02533121407032013, -0.47117099165916443, -0.14083850383758545, 8.301919937133789, 1.1033439636230469, 5.238808631896973, -7.152711868286133, -11.27834701538086, 7.339606285095215, -0.983154296875, 0.137451171875, -0.21484375, 
321, 3332984566, 0.8701511025428772, -0.026064112782478333, -0.4716019928455353, -0.14062440395355225, 8.41275405883789, 0.846639096736908, 5.294926166534424, -6.7732110023498535, -8.583728790283203, 6.949193954467773, -0.98583984375, 0.140380859375, -0.213134765625, 
322, 3332992899, 0.8701204061508179, -0.026734694838523865, -0.4716627597808838, -0.14048457145690918, 8.315878868103027, 0.6404867172241211, 5.4330878257751465, -7.176814556121826, -2.7681946754455566, 6.15435791015625, -0.98583984375, 0.140869140625, -0.216064453125, 
323, 3333001232, 0.8702100515365601, -0.02746535837650299, -0.4715035855770111, -0.14032307267189026, 8.029119491577148, 0.5025627017021179, 5.679092884063721, -8.116549491882324, 0.5122847557067871, 7.118452548980713, -0.98779296875, 0.142822265625, -0.214599609375, 
324, 3333009565, 0.8702484369277954, -0.02825053036212921, -0.4714117646217346, -0.1402374804019928, 7.431769371032715, 0.60109543800354, 5.919297695159912, -9.160560607910156, -0.6944147348403931, 6.44510555267334, -0.9833984375, 0.14453125, -0.213134765625, 
325, 3333017898, 0.8702678680419922, -0.02895621955394745, -0.4713427424430847, -0.1402050256729126, 7.088631629943848, 0.9541042447090149, 5.8675856590271, -8.505860328674316, -0.9244305491447449, 5.239930152893066, -0.9853515625, 0.145751953125, -0.214599609375, 
326, 3333026231, 0.870195746421814, -0.02921415865421295, -0.47151535749435425, -0.14001885056495667, 7.033177852630615, 1.109588384628296, 5.52242374420166, -1.7305872440338135, -3.601015329360962, 3.915008068084717, -0.984375, 0.1455078125, -0.209716796875, 
327, 3333034564, 0.8699543476104736, -0.028951123356819153, -0.47207772731781006, -0.13967743515968323, 7.206171035766602, 0.9526090621948242, 5.186347484588623, 6.200003147125244, -8.427738189697266, 1.902907133102417, -0.986328125, 0.146484375, -0.212158203125, 
328, 3333042897, 0.8696084022521973, -0.028509721159934998, -0.47282499074935913, -0.13939496874809265, 7.416855812072754, 0.8110285997390747, 5.111915111541748, 8.259286880493164, -10.946412086486816, -0.22462408244609833, -0.9853515625, 0.14599609375, -0.211669921875, 
329, 3333051230, 0.8692549467086792, -0.028148695826530457, -0.4735736846923828, -0.13913071155548096, 7.723283767700195, 0.6053204536437988, 5.204085350036621, 7.185716152191162, -11.165464401245117, 0.05742712318897247, -0.9853515625, 0.146484375, -0.207275390625, 
330, 3333059563, 0.8689287900924683, -0.028059974312782288, -0.47423118352890015, -0.1389462947845459, 8.254298210144043, 0.2952905595302582, 5.219360828399658, 3.2342841625213623, -10.382256507873535, 0.9672190546989441, -0.98681640625, 0.14453125, -0.209716796875, 
331, 3333067896, 0.8686572313308716, -0.028385624289512634, -0.47476381063461304, -0.13875889778137207, 8.81761360168457, 0.18019774556159973, 5.098519802093506, -1.9032275676727295, -9.331459045410156, 3.853816032409668, -0.98876953125, 0.14697265625, -0.206298828125, 
332, 3333076229, 0.8683884143829346, -0.029046863317489624, -0.4752922058105469, -0.13849595189094543, 9.027081489562988, 0.27389663457870483, 5.007296085357666, -5.433637619018555, -9.927680969238281, 6.960335731506348, -0.98583984375, 0.1455078125, -0.205810546875, 
333, 3333084562, 0.8681480884552002, -0.029927417635917664, -0.4757182002067566, -0.13835260272026062, 8.819153785705566, 0.7368463277816772, 5.030036926269531, -9.00861644744873, -8.893940925598145, 7.054186820983887, -0.989013671875, 0.148681640625, -0.2041015625, 
334, 3333092895, 0.8680245876312256, -0.03059929609298706, -0.4759137034416199, -0.1383087933063507, 8.340940475463867, 1.2024881839752197, 5.195120811462402, -7.5676116943359375, -4.934288501739502, 4.822187900543213, -0.97705078125, 0.14990234375, -0.2001953125, 
335, 3333101228, 0.8681199550628662, -0.03077450394630432, -0.4757775068283081, -0.13813939690589905, 8.071375846862793, 1.2305164337158203, 5.275310516357422, -1.3491657972335815, 1.3434152603149414, 3.621724843978882, -0.983642578125, 0.150146484375, -0.200439453125, 
336, 3333109561, 0.8683199882507324, -0.03047339618206024, -0.4755205512046814, -0.137833833694458, 8.15404224395752, 0.9645439386367798, 5.1960835456848145, 5.02448844909668, 4.3228373527526855, 2.37994647026062, -0.988037109375, 0.150146484375, -0.20263671875, 
337, 3333117894, 0.8684003353118896, -0.03003007173538208, -0.4754888117313385, -0.13753369450569153, 8.1919527053833, 0.7301455736160278, 5.313962936401367, 7.082669258117676, 1.11683189868927, 1.0655266046524048, -0.986083984375, 0.151611328125, -0.2021484375, 
338, 3333126227, 0.8683645725250244, -0.029696360230445862, -0.47563156485557556, -0.13733789324760437, 8.204771041870117, 0.6923074126243591, 5.533803462982178, 5.369665622711182, -1.883453130722046, 0.25496408343315125, -0.986572265625, 0.150146484375, -0.203369140625, 
339, 3333134560, 0.8683340549468994, -0.029469862580299377, -0.475739449262619, -0.1372060775756836, 8.466485023498535, 0.8388436436653137, 5.6634202003479, 3.610146999359131, -1.6160147190093994, 0.20429910719394684, -0.984619140625, 0.150634765625, -0.204345703125, 
340, 3333142893, 0.8683475255966187, -0.029319480061531067, -0.47577086091041565, -0.1370435655117035, 8.704324722290039, 0.8499886989593506, 5.866540908813477, 2.779784917831421, -0.5636796355247498, 1.1965433359146118, -0.982666015625, 0.150146484375, -0.204833984375, 
341, 3333151226, 0.8683918118476868, -0.02917376160621643, -0.4757704734802246, -0.13679566979408264, 8.741085052490234, 0.6896287798881531, 5.900890827178955, 3.2315430641174316, -0.03407973796129227, 2.304948091506958, -0.987060546875, 0.150634765625, -0.2021484375, 
342, 3333159559, 0.868439793586731, -0.02890145778656006, -0.475780725479126, -0.13651242852210999, 8.500041961669922, 0.6853688359260559, 5.7165303230285645, 5.0045857429504395, 0.09625829011201859, 1.9181987047195435, -0.987548828125, 0.149169921875, -0.202392578125, 
343, 3333167892, 0.8684555888175964, -0.028395876288414, -0.475863516330719, -0.13622868061065674, 8.22754192352295, 0.9815013408660889, 5.434658527374268, 7.908831596374512, -0.5517435073852539, 0.29243776202201843, -0.984130859375, 0.149169921875, -0.201904296875, 
344, 3333176225, 0.8685062527656555, -0.027422204613685608, -0.47595539689064026, -0.13578423857688904, 8.238555908203125, 1.2233363389968872, 4.928117275238037, 14.569864273071289, 0.3894388675689697, -0.7848330140113831, -0.986083984375, 0.148193359375, -0.205322265625, 
345, 3333184558, 0.8685907125473022, -0.026332616806030273, -0.4759907126426697, -0.1353360414505005, 8.278432846069336, 1.0358551740646362, 4.603395462036133, 15.896529197692871, 1.4937456846237183, -1.4205784797668457, -0.97412109375, 0.1494140625, -0.20361328125, 
346, 3333192891, 0.8685738444328308, -0.02578100562095642, -0.47612205147743225, -0.13508695363998413, 8.176121711730957, 0.7194830775260925, 4.653646945953369, 8.25234317779541, -1.2422518730163574, -0.5261291861534119, -0.9853515625, 0.148193359375, -0.204833984375, 
347, 3333201224, 0.8684384226799011, -0.025932177901268005, -0.4763741195201874, -0.1350404918193817, 7.998706817626953, 0.7322229743003845, 4.99754524230957, -1.2292399406433105, -4.697227954864502, 1.4195407629013062, -0.98779296875, 0.147216796875, -0.203369140625, 
348, 3333209557, 0.8682862520217896, -0.026326969265937805, -0.476636677980423, -0.13501578569412231, 7.973062515258789, 1.0779874324798584, 5.408360958099365, -4.292215824127197, -5.369653701782227, 2.7129828929901123, -0.98828125, 0.146484375, -0.202880859375, 
349, 3333217890, 0.8681895136833191, -0.026730433106422424, -0.47682642936706543, -0.13488763570785522, 8.033190727233887, 1.3370188474655151, 5.657437324523926, -3.807415246963501, -4.197314739227295, 4.14210319519043, -0.98291015625, 0.148681640625, -0.204345703125, 
350, 3333226223, 0.8681701421737671, -0.027168214321136475, -0.47687283158302307, -0.1347620189189911, 7.993420600891113, 1.3145666122436523, 5.703680038452148, -4.499742031097412, -2.0362162590026855, 4.52595853805542, -0.986083984375, 0.149169921875, -0.200927734375, 
351, 3333234556, 0.8682498931884766, -0.027528181672096252, -0.47671225666999817, -0.1347436010837555, 7.912126064300537, 1.129363775253296, 5.585139274597168, -4.591620922088623, 1.263473391532898, 3.0021674633026123, -0.987548828125, 0.150146484375, -0.203125, 
352, 3333242889, 0.8683620691299438, -0.027661293745040894, -0.47651275992393494, -0.134698748588562, 7.857303142547607, 0.7879582643508911, 5.520087718963623, -1.7911652326583862, 2.3564841747283936, 1.9054430723190308, -0.986572265625, 0.150146484375, -0.205322265625, 
353, 3333251222, 0.8684699535369873, -0.027707025408744812, -0.4763551354408264, -0.1345510482788086, 8.06169605255127, 0.476222962141037, 5.410909175872803, 0.023104039952158928, 1.945939302444458, 2.537038803100586, -0.987060546875, 0.153076171875, -0.20166015625, 
354, 3333259555, 0.8685515522956848, -0.027819305658340454, -0.4762392044067383, -0.13441133499145508, 8.286742210388184, 0.33694469928741455, 5.199560165405273, -0.7520211935043335, 1.164576768875122, 2.83170485496521, -0.985107421875, 0.149658203125, -0.205322265625, 
355, 3333267888, 0.8685753345489502, -0.027975812554359436, -0.4762152433395386, -0.1343100368976593, 8.405848503112793, 0.35201025009155273, 5.113180160522461, -1.387407898902893, -0.38901618123054504, 2.5010509490966797, -0.982177734375, 0.15234375, -0.202392578125, 
356, 3333276221, 0.8685763478279114, -0.028140246868133545, -0.4762319028377533, -0.13421079516410828, 8.326990127563477, 0.43876734375953674, 5.250372409820557, -1.4338977336883545, -1.02880859375, 2.4824295043945312, -0.988037109375, 0.151611328125, -0.20361328125, 
357, 3333284554, 0.8685292601585388, -0.0281827449798584, -0.4763612151145935, -0.13404744863510132, 8.057249069213867, 0.6542229652404785, 5.501353740692139, 0.6350537538528442, -2.496427536010742, 2.3069205284118652, -0.987060546875, 0.151611328125, -0.201171875, 
358, 3333292887, 0.8685486912727356, -0.028028056025505066, -0.47639918327331543, -0.13381844758987427, 7.792313098907471, 0.9330213069915771, 5.735074043273926, 3.2837705612182617, -0.6244878768920898, 1.971604347229004, -0.987548828125, 0.151611328125, -0.20263671875, 
359, 3333301220, 0.8687052726745605, -0.027703970670700073, -0.4762190282344818, -0.13351044058799744, 7.768453598022461, 1.0441720485687256, 5.5546112060546875, 5.4699201583862305, 3.1528050899505615, 2.1273133754730225, -0.982177734375, 0.1513671875, -0.202880859375, 
360, 3333309553, 0.8688809871673584, -0.02746206521987915, -0.47598642110824585, -0.13324680924415588, 7.829373836517334, 0.9789798259735107, 5.318772792816162, 4.11264705657959, 3.7779457569122314, 2.2055647373199463, -0.985107421875, 0.154296875, -0.203125, 
361, 3333317886, 0.8688836097717285, -0.027687877416610718, -0.4759922921657562, -0.133161723613739, 7.760233402252197, 0.773078978061676, 5.449816703796387, -2.2763497829437256, -1.0012987852096558, 2.7134950160980225, -0.986083984375, 0.153076171875, -0.20556640625, 
362, 3333326219, 0.868676483631134, -0.028375014662742615, -0.47626572847366333, -0.1333899199962616, 7.448999404907227, 0.5668356418609619, 5.909067630767822, -9.43563175201416, -6.290177345275879, 1.5094726085662842, -0.985107421875, 0.15478515625, -0.20361328125, 
363, 3333334552, 0.868445873260498, -0.028872549533843994, -0.4765544533729553, -0.1337527632713318, 7.2135233879089355, 0.5837355852127075, 6.119564056396484, -8.028053283691406, -6.232161998748779, -1.3975000381469727, -0.986572265625, 0.154052734375, -0.20361328125, 
364, 3333342885, 0.8683298230171204, -0.02864435315132141, -0.4767144024372101, -0.1339849829673767, 7.384586811065674, 0.7499060034751892, 5.679457664489746, 1.2982062101364136, -2.657464027404785, -4.323849201202393, -0.985107421875, 0.154296875, -0.20068359375, 
365, 3333351218, 0.8683421611785889, -0.027842357754707336, -0.476729154586792, -0.1340218186378479, 7.728736400604248, 0.7595746517181396, 4.8858747482299805, 9.219332695007324, 0.8944236636161804, -5.465041637420654, -0.986572265625, 0.153564453125, -0.20263671875, 
366, 3333359551, 0.8682389259338379, -0.027144774794578552, -0.47697028517723083, -0.13397511839866638, 7.941621780395508, 0.5644126534461975, 4.507749557495117, 8.869109153747559, -2.7881224155426025, -4.087712287902832, -0.986083984375, 0.151123046875, -0.202880859375, 
367, 3333367884, 0.8678681254386902, -0.02704969048500061, -0.4776178002357483, -0.13409069180488586, 7.954627513885498, 0.5126155614852905, 4.7535529136657715, 1.2838881015777588, -10.447240829467773, -2.7140204906463623, -0.987548828125, 0.149658203125, -0.201171875, 
368, 3333376217, 0.8673229217529297, -0.02761971950531006, -0.4784775972366333, -0.1344369351863861, 8.019386291503906, 0.7101247906684875, 5.132566928863525, -7.847497940063477, -15.261926651000977, -1.4911202192306519, -0.987060546875, 0.149658203125, -0.201904296875, 
369, 3333384550, 0.8666959404945374, -0.02861402928829193, -0.4794694781303406, -0.13473770022392273, 8.167329788208008, 0.9335741400718689, 5.319362163543701, -12.38852310180664, -18.18082618713379, 1.6342145204544067, -0.987060546875, 0.150146484375, -0.201171875, 
370, 3333392883, 0.8660868406295776, -0.029867202043533325, -0.48043063282966614, -0.13495877385139465, 8.335165023803711, 0.9658185243606567, 5.326916217803955, -15.006784439086914, -18.20505714416504, 4.342587947845459, -0.985107421875, 0.153564453125, -0.1923828125, 
371, 3333401216, 0.8655606508255005, -0.031327441334724426, -0.48122090101242065, -0.13518750667572021, 8.302149772644043, 0.8360183238983154, 5.297568321228027, -17.798789978027344, -16.00568962097168, 5.835795879364014, -0.988037109375, 0.154296875, -0.1923828125, 
372, 3333409549, 0.8650928139686584, -0.033025965094566345, -0.481825053691864, -0.1356247067451477, 8.110002517700195, 0.7681200504302979, 5.471920967102051, -22.3065128326416, -13.751047134399414, 5.150359153747559, -0.988525390625, 0.15380859375, -0.1904296875, 
373, 3333417882, 0.8646749258041382, -0.03506961464881897, -0.4822165369987488, -0.13638371229171753, 7.917396068572998, 0.7058296799659729, 5.699620246887207, -28.948808670043945, -11.394796371459961, 3.769778251647949, -0.9912109375, 0.156982421875, -0.18896484375, 
374, 3333426215, 0.8643068075180054, -0.03709132969379425, -0.48244765400886536, -0.1373615562915802, 7.849646091461182, 0.6777535676956177, 5.7004523277282715, -30.419170379638672, -9.008264541625977, 1.1998486518859863, -0.988525390625, 0.155517578125, -0.185546875, 
375, 3333434548, 0.8639072179794312, -0.038533732295036316, -0.48276275396347046, -0.13836783170700073, 7.731817722320557, 0.7206867933273315, 5.550929546356201, -23.575855255126953, -9.110078811645508, -3.0916271209716797, -0.98974609375, 0.15771484375, -0.181640625, 
376, 3333442881, 0.8635791540145874, -0.03934985399246216, -0.4830353558063507, -0.13923189043998718, 7.74843168258667, 0.6762742400169373, 5.252258777618408, -15.260208129882812, -7.013550281524658, -5.406282424926758, -0.9912109375, 0.158203125, -0.179931640625, 
377, 3333451214, 0.8631942272186279, -0.03991101682186127, -0.4834743142127991, -0.1399332880973816, 7.90436315536499, 0.28506937623023987, 5.019491195678711, -10.838191032409668, -8.966789245605469, -5.3627119064331055, -0.9912109375, 0.15673828125, -0.1806640625, 
378, 3333459547, 0.8625332713127136, -0.04059317708015442, -0.48436439037323, -0.14073246717453003, 7.868849754333496, 0.23420841991901398, 4.759557723999023, -12.218008995056152, -16.33383560180664, -6.491867542266846, -0.991455078125, 0.15625, -0.1806640625, 
379, 3333467880, 0.8618094325065613, -0.04139694571495056, -0.48536908626556396, -0.14146998524665833, 8.254508018493652, 0.5294010043144226, 4.494944095611572, -13.052956581115723, -18.38555908203125, -5.141406059265137, -0.98974609375, 0.1591796875, -0.177734375, 
380, 3333476213, 0.8612541556358337, -0.04227568209171295, -0.4861004054546356, -0.14207932353019714, 8.974127769470215, 0.6558056473731995, 4.80390739440918, -13.462550163269043, -14.230491638183594, -2.5897152423858643, -0.990478515625, 0.15576171875, -0.17333984375, 
381, 3333484546, 0.8609957695007324, -0.043310120701789856, -0.4863056242465973, -0.14262914657592773, 9.424118995666504, 0.6857574582099915, 5.257431983947754, -15.822288513183594, -6.360362529754639, -0.006518824491649866, -0.993408203125, 0.1552734375, -0.173583984375, 
382, 3333492879, 0.8611845970153809, -0.044351935386657715, -0.4857267141342163, -0.14314162731170654, 9.508712768554688, 0.5734208822250366, 5.375683784484863, -16.924468994140625, 5.881542205810547, 1.8453013896942139, -0.99169921875, 0.157958984375, -0.172119140625, 
383, 3333501212, 0.8617653846740723, -0.04543638229370117, -0.48449286818504333, -0.14348739385604858, 9.138507843017578, 0.15578730404376984, 5.510759353637695, -17.373491287231445, 16.06484603881836, 5.257811069488525, -0.9921875, 0.15771484375, -0.176025390625, 
384, 3333509545, 0.8620088696479797, -0.046570777893066406, -0.483761727809906, -0.14412647485733032, 9.096695899963379, 0.25425028800964355, 5.439180374145508, -19.14228057861328, 7.948868274688721, 1.1443419456481934, -0.990234375, 0.158203125, -0.17626953125, 
385, 3333517878, 0.862179160118103, -0.047404155135154724, -0.4832921326160431, -0.14441120624542236, 9.038307189941406, 0.6299830675125122, 5.601255416870117, -12.740869522094727, 4.727672100067139, 3.021635055541992, -0.99365234375, 0.15869140625, -0.174560546875, 
386, 3333526211, 0.8625777363777161, -0.04825581610202789, -0.48238420486450195, -0.14478451013565063, 9.164852142333984, 0.7473102807998657, 6.066802024841309, -14.289968490600586, 11.46534538269043, 2.8290162086486816, -0.990234375, 0.162353515625, -0.174560546875, 
387, 3333534544, 0.8634657263755798, -0.049022555351257324, -0.4806112051010132, -0.1451297402381897, 9.319893836975098, 0.7980467677116394, 6.071041107177734, -14.471860885620117, 25.121540069580078, 4.1515069007873535, -0.9873046875, 0.16015625, -0.18017578125, 
388, 3333542877, 0.8649073839187622, -0.049922749400138855, -0.47781050205230713, -0.14548549056053162, 9.352116584777832, 1.0194945335388184, 5.8217692375183105, -17.827322006225586, 40.7265510559082, 6.700209617614746, -0.9892578125, 0.1611328125, -0.184814453125, 
389, 3333551210, 0.8662872910499573, -0.0507863312959671, -0.4751783013343811, -0.1455974578857422, 9.226016998291016, 1.301343321800232, 5.376887321472168, -15.472212791442871, 38.21903610229492, 9.124624252319336, -0.9873046875, 0.16357421875, -0.18798828125, 
390, 3333559543, 0.8670759797096252, -0.05174970626831055, -0.4736810028553009, -0.14544269442558289, 8.913355827331543, 1.003905177116394, 5.039059162139893, -13.077981948852539, 20.45402717590332, 10.978652000427246, -0.986572265625, 0.166015625, -0.192626953125, 
391, 3333567876, 0.8672811985015869, -0.05273228883743286, -0.47333064675331116, -0.14500612020492554, 8.299083709716797, 0.34626504778862, 4.697757720947266, -9.573641777038574, 2.7354211807250977, 12.479717254638672, -0.988037109375, 0.1669921875, -0.194091796875, 
392, 3333576209, 0.8670768141746521, -0.052704229950904846, -0.47387760877609253, -0.14445197582244873, 7.399966239929199, -0.08173949271440506, 4.4137187004089355, 4.738531589508057, -8.696379661560059, 5.849344253540039, -0.981201171875, 0.170166015625, -0.19482421875, 
393, 3333584542, 0.8668507933616638, -0.05155448615550995, -0.4744994044303894, -0.14418098330497742, 6.824540138244629, -0.342935711145401, 4.355953216552734, 16.398649215698242, -7.301225662231445, -4.9444580078125, -0.985595703125, 0.169677734375, -0.188232421875, 
394, 3333592875, 0.8667619228363037, -0.05011777579784393, -0.47471189498901367, -0.14452192187309265, 6.991915225982666, -0.43128204345703125, 4.573846817016602, 15.111045837402344, -0.5189317464828491, -13.542031288146973, -0.985107421875, 0.16796875, -0.191650390625, 
395, 3333601208, 0.8665861487388611, -0.04889465868473053, -0.4750252068042755, -0.14496561884880066, 7.663853645324707, -0.22893555462360382, 4.9118170738220215, 12.035466194152832, -2.6485257148742676, -13.624177932739258, -0.988037109375, 0.166015625, -0.191650390625, 
396, 3333609541, 0.8663206696510315, -0.04824812710285187, -0.4754660427570343, -0.14532217383384705, 8.49521255493164, 0.19188539683818817, 5.168618202209473, 5.919270038604736, -5.956526279449463, -9.082230567932129, -0.98583984375, 0.1630859375, -0.19091796875, 
397, 3333617874, 0.8662866950035095, -0.04786543548107147, -0.47561171650886536, -0.14517521858215332, 9.195709228515625, 0.7625057101249695, 5.316686630249023, 5.639255523681641, -1.792497158050537, -0.7003828883171082, -0.9873046875, 0.16357421875, -0.189697265625, 
398, 3333626207, 0.8664165735244751, -0.04743313789367676, -0.4756685793399811, -0.14435318112373352, 9.293310165405273, 1.0049790143966675, 5.6891937255859375, 10.572226524353027, -0.002779145259410143, 7.405358791351318, -0.98876953125, 0.16259765625, -0.188232421875, 
399, 3333634540, 0.8665250539779663, -0.04727475345134735, -0.4758094847202301, -0.14328554272651672, 9.230335235595703, 1.0036110877990723, 5.94284200668335, 9.073869705200195, -1.854048252105713, 12.02260684967041, -0.9892578125, 0.164306640625, -0.192626953125, 
400, 3333642873, 0.8666467070579529, -0.04730673134326935, -0.4758819341659546, -0.14229530096054077, 9.00029182434082, 1.0239531993865967, 5.851466655731201, 6.1725969314575195, -1.2689423561096191, 12.425904273986816, -0.986328125, 0.1650390625, -0.190673828125, 
401, 3333651206, 0.8668779134750366, -0.04698653519153595, -0.47572046518325806, -0.1415308713912964, 8.43237018585205, 1.0466543436050415, 5.501991271972656, 8.504875183105469, 3.064385414123535, 7.787164688110352, -0.98681640625, 0.1650390625, -0.190673828125, 
402, 3333659539, 0.8670801520347595, -0.046057239174842834, -0.47558343410491943, -0.14105752110481262, 7.816345691680908, 0.9317958950996399, 5.166676044464111, 13.891216278076172, 3.9638030529022217, 0.2701021432876587, -0.97900390625, 0.166259765625, -0.19189453125, 
403, 3333667872, 0.8669661283493042, -0.04467335343360901, -0.47604992985725403, -0.1406288743019104, 7.503800392150879, 0.6679477691650391, 4.8476481437683105, 19.989795684814453, -4.398132801055908, -4.24139928817749, -0.986572265625, 0.1669921875, -0.191650390625, 
404, 3333676205, 0.8665643930435181, -0.04322798550128937, -0.4770274758338928, -0.14024388790130615, 7.639691352844238, 0.702376663684845, 4.613994598388672, 21.2293701171875, -12.221467018127441, -6.0363688468933105, -0.986328125, 0.163330078125, -0.193359375, 
405, 3333684538, 0.8661260008811951, -0.04201717674732208, -0.4780517518520355, -0.13983142375946045, 8.057268142700195, 0.8686841726303101, 4.656800270080566, 18.702035903930664, -13.494338989257812, -4.26708984375, -0.98681640625, 0.16162109375, -0.19091796875, 
406, 3333692871, 0.8657734990119934, -0.04118607938289642, -0.47887614369392395, -0.1394398808479309, 8.299333572387695, 1.0673887729644775, 5.06789493560791, 13.729157447814941, -11.2576265335083, -1.7144763469696045, -0.98681640625, 0.16259765625, -0.19140625, 
407, 3333701204, 0.8657647371292114, -0.04051598906517029, -0.4790915846824646, -0.13894954323768616, 8.467327117919922, 1.1708040237426758, 5.086832523345947, 11.467315673828125, -2.117875099182129, 1.5027363300323486, -0.990234375, 0.160888671875, -0.190185546875, 
408, 3333709537, 0.8661828637123108, -0.03966277837753296, -0.4786143898963928, -0.13823246955871582, 8.394969940185547, 1.1830315589904785, 4.688705921173096, 14.046006202697754, 9.171332359313965, 4.2009148597717285, -0.98388671875, 0.16064453125, -0.19091796875, 
409, 3333717870, 0.8667455315589905, -0.038549259305000305, -0.47798433899879456, -0.13719651103019714, 8.140766143798828, 1.132288932800293, 4.421331882476807, 19.0430908203125, 12.25703239440918, 6.640007019042969, -0.984375, 0.16162109375, -0.189453125, 
410, 3333726203, 0.8671101331710815, -0.03756612539291382, -0.4776906371116638, -0.13618546724319458, 7.765785217285156, 0.8321083784103394, 4.356523513793945, 17.860811233520508, 6.724277019500732, 6.661906719207764, -0.98681640625, 0.160888671875, -0.193359375, 
411, 3333734536, 0.8673321604728699, -0.03656098246574402, -0.47764140367507935, -0.13521447777748108, 7.585271835327148, 0.7505546808242798, 4.597529411315918, 18.23941421508789, 2.923840045928955, 5.632443428039551, -0.986328125, 0.159423828125, -0.1953125, 
412, 3333742869, 0.8675025105476379, -0.03559936583042145, -0.4776209890842438, -0.13444781303405762, 7.663462162017822, 0.7007808089256287, 4.674710273742676, 16.427820205688477, 2.274646759033203, 3.3988304138183594, -0.98583984375, 0.162841796875, -0.1943359375, 
413, 3333751202, 0.8677947521209717, -0.034582287073135376, -0.47735118865966797, -0.13378500938415527, 7.92754602432251, 0.7461426258087158, 4.683129787445068, 15.983054161071777, 6.191295146942139, 2.113917827606201, -0.98486328125, 0.160400390625, -0.193359375, 
414, 3333759535, 0.8681735992431641, -0.03367672860622406, -0.4768833518028259, -0.13322493433952332, 8.431278228759766, 0.8604724407196045, 4.734278678894043, 13.6376371383667, 8.975947380065918, 1.8757308721542358, -0.9853515625, 0.159912109375, -0.19873046875, 
415, 3333767868, 0.8684870600700378, -0.03272624313831329, -0.47653263807296753, -0.1326720416545868, 8.817870140075684, 0.8097935914993286, 4.829409122467041, 14.328707695007324, 7.2257256507873535, 1.3188515901565552, -0.98486328125, 0.161865234375, -0.197265625, 
416, 3333776201, 0.868867039680481, -0.031590357422828674, -0.47606635093688965, -0.13213256001472473, 9.132553100585938, 0.6595897674560547, 5.0879130363464355, 16.27090835571289, 9.39622688293457, 0.13006913661956787, -0.9833984375, 0.160400390625, -0.201171875, 
417, 3333784534, 0.8693805932998657, -0.030389592051506042, -0.47533032298088074, -0.13168489933013916, 9.298555374145508, 0.6378464102745056, 5.481181621551514, 16.01530647277832, 13.63996696472168, -1.044126272201538, -0.984375, 0.16015625, -0.203125, 
418, 3333792867, 0.8701080679893494, -0.029283225536346436, -0.47415101528167725, -0.13138189911842346, 9.266694068908691, 0.8112733364105225, 5.79008150100708, 13.236444473266602, 20.241069793701172, -1.5662726163864136, -0.98486328125, 0.16015625, -0.205078125, 
419, 3333801200, 0.871187150478363, -0.028211161494255066, -0.4723091721534729, -0.131099671125412, 9.156331062316895, 0.9733161330223083, 5.615806579589844, 11.626619338989258, 30.395158767700195, -0.706069827079773, -0.982421875, 0.15869140625, -0.2080078125, 
420, 3333809533, 0.8725539445877075, -0.027192816138267517, -0.46991029381752014, -0.13084527850151062, 8.852630615234375, 0.90109783411026, 5.439117908477783, 9.907317161560059, 38.86276626586914, 0.05384119600057602, -0.9814453125, 0.157958984375, -0.213623046875, 
421, 3333817866, 0.8739415407180786, -0.026503831148147583, -0.46739625930786133, -0.13073039054870605, 8.447006225585938, 0.8572934865951538, 5.303401947021484, 4.856235504150391, 39.82691192626953, 0.578216552734375, -0.967041015625, 0.1572265625, -0.21875, 
422, 3333826199, 0.8752734661102295, -0.02614384889602661, -0.4649174213409424, -0.13073062896728516, 8.042767524719238, 0.8050870299339294, 5.100867748260498, 0.1853192150592804, 38.50644302368164, 1.1955715417861938, -0.97705078125, 0.158935546875, -0.225341796875, 
423, 3333834532, 0.8765394687652588, -0.025992661714553833, -0.46250760555267334, -0.13082703948020935, 7.656501293182373, 0.8564149737358093, 4.993984222412109, -2.8205273151397705, 36.90226364135742, 1.2293310165405273, -0.978271484375, 0.1572265625, -0.228759765625, 
424, 3333842865, 0.877685546875, -0.026199057698249817, -0.46024855971336365, -0.13106822967529297, 7.525121212005615, 0.9964970946311951, 5.128762722015381, -7.8750152587890625, 33.74056625366211, 1.4692084789276123, -0.9755859375, 0.158447265625, -0.238037109375, 
425, 3333851198, 0.8786908388137817, -0.0267142653465271, -0.45821326971054077, -0.13136038184165955, 7.570559024810791, 1.0349507331848145, 5.361095905303955, -11.520359992980957, 29.60037612915039, 2.494316577911377, -0.9736328125, 0.1591796875, -0.237548828125, 
426, 3333859531, 0.8795725107192993, -0.027215242385864258, -0.45640280842781067, -0.1316584348678589, 7.752083778381348, 0.954150915145874, 5.483875751495361, -11.0459566116333, 26.145906448364258, 2.0276246070861816, -0.9716796875, 0.158935546875, -0.241455078125, 
427, 3333867864, 0.8805598616600037, -0.027746737003326416, -0.4543471038341522, -0.1320573389530182, 7.923275947570801, 0.8505740761756897, 5.575578689575195, -12.431253433227539, 29.745174407958984, 1.2826340198516846, -0.97216796875, 0.159423828125, -0.245361328125, 
428, 3333876197, 0.8816275596618652, -0.02836032211780548, -0.45210155844688416, -0.1325095295906067, 8.101481437683105, 0.8144543170928955, 5.486783981323242, -14.078202247619629, 32.43244934082031, 1.3803269863128662, -0.97216796875, 0.161376953125, -0.248291015625, 
429, 3333884530, 0.8825503587722778, -0.029126599431037903, -0.4500814974308014, -0.1330767273902893, 8.380361557006836, 0.7118530869483948, 5.657111167907715, -16.2849178314209, 28.54893684387207, 0.5717871189117432, -0.96923828125, 0.162353515625, -0.249755859375, 
430, 3333892863, 0.8832520246505737, -0.030107438564300537, -0.4484142065048218, -0.133829265832901, 8.49421215057373, 0.6535253524780273, 5.865808963775635, -19.49891471862793, 22.59479522705078, -0.89469313621521, -0.96923828125, 0.162841796875, -0.257080078125, 
431, 3333901196, 0.8839593529701233, -0.03123939037322998, -0.44668224453926086, -0.1346883773803711, 8.412135124206543, 0.7759578824043274, 6.064678192138672, -22.087440490722656, 23.167478561401367, -1.2215821743011475, -0.9677734375, 0.16259765625, -0.26025390625, 
432, 3333909529, 0.8847230672836304, -0.03220975399017334, -0.4448241591453552, -0.13559174537658691, 8.215630531311035, 0.7458426356315613, 6.319063186645508, -20.613447189331055, 25.379940032958984, -2.5825960636138916, -0.96044921875, 0.161865234375, -0.26220703125, 
433, 3333917862, 0.8856281042098999, -0.032955750823020935, -0.4426756501197815, -0.13653221726417542, 8.11864185333252, 0.6895385384559631, 6.331654071807861, -18.58165168762207, 30.197681427001953, -4.024704933166504, -0.966796875, 0.1630859375, -0.2646484375, 
434, 3333926195, 0.8867415189743042, -0.03350473940372467, -0.4401266872882843, -0.13740971684455872, 8.017316818237305, 0.6684661507606506, 6.279616355895996, -16.446630477905273, 36.70097351074219, -3.858675241470337, -0.96240234375, 0.16552734375, -0.26953125, 
435, 3333934528, 0.8877310752868652, -0.03412008285522461, -0.4378165006637573, -0.1382468044757843, 7.69350004196167, 0.5769187211990356, 6.566237926483154, -16.627113342285156, 32.8802490234375, -3.3348233699798584, -0.96337890625, 0.16552734375, -0.27392578125, 
436, 3333942861, 0.8886179327964783, -0.03471307456493378, -0.4357045888900757, -0.13907060027122498, 7.459125518798828, 0.4597618281841278, 6.450956344604492, -15.967493057250977, 29.889829635620117, -3.5951149463653564, -0.9599609375, 0.166015625, -0.27783203125, 
437, 3333951194, 0.8895732760429382, -0.03520424664020538, -0.43345773220062256, -0.13985875248908997, 7.405762672424316, 0.539978563785553, 6.30251407623291, -14.712067604064941, 32.11336135864258, -3.5731136798858643, -0.958740234375, 0.1689453125, -0.28076171875, 
438, 3333959527, 0.8904491662979126, -0.035737693309783936, -0.4313613176345825, -0.14062830805778503, 7.381141662597656, 0.6477054357528687, 6.324483394622803, -14.898789405822754, 29.72205352783203, -3.3283936977386475, -0.95556640625, 0.166748046875, -0.285400390625, 
439, 3333967860, 0.8911739587783813, -0.03629380464553833, -0.4295586049556732, -0.1414107084274292, 7.412782669067383, 0.6936455965042114, 6.421695709228516, -14.728528022766113, 25.17920684814453, -3.7785122394561768, -0.9560546875, 0.166259765625, -0.286376953125, 
440, 3333976193, 0.8917436599731445, -0.03691965341567993, -0.42803966999053955, -0.14226195216178894, 7.484786510467529, 0.6838436722755432, 6.650768756866455, -15.566367149353027, 20.692893981933594, -4.680516719818115, -0.953857421875, 0.168701171875, -0.292236328125, 
441, 3333984526, 0.8922433853149414, -0.03751711547374725, -0.4266544282436371, -0.143130362033844, 7.615661144256592, 0.6080331206321716, 6.80396032333374, -15.042248725891113, 18.697439193725586, -5.237882614135742, -0.95263671875, 0.167236328125, -0.291748046875, 
442, 3333992859, 0.8927607536315918, -0.037992700934410095, -0.4252517819404602, -0.14395031332969666, 7.7998480796813965, 0.5034618377685547, 6.955356597900391, -13.308136940002441, 19.24097442626953, -5.312394618988037, -0.954345703125, 0.16796875, -0.296630859375, 
443, 3334001192, 0.8933116793632507, -0.03836210072040558, -0.4237712025642395, -0.144797682762146, 7.8353495597839355, 0.34400469064712524, 7.014516830444336, -12.280445098876953, 20.606678009033203, -6.166861057281494, -0.95556640625, 0.1669921875, -0.300048828125, 
444, 3334009525, 0.8938804268836975, -0.03865547478199005, -0.4222562313079834, -0.14563417434692383, 7.626382827758789, 0.268777459859848, 6.951968669891357, -11.409072875976562, 21.28553009033203, -6.456865310668945, -0.95166015625, 0.16552734375, -0.300048828125, 
445, 3334017858, 0.8944910168647766, -0.038782790303230286, -0.4207150340080261, -0.14630955457687378, 7.443851470947266, 0.18472328782081604, 6.683206081390381, -8.397193908691406, 22.091581344604492, -5.3047614097595215, -0.9501953125, 0.16748046875, -0.301513671875, 
446, 3334026191, 0.8951906561851501, -0.038853153586387634, -0.41903164982795715, -0.1468418538570404, 7.36334753036499, 0.23711444437503815, 6.49316930770874, -7.169607639312744, 24.400043487548828, -3.6576120853424072, -0.9453125, 0.16650390625, -0.3056640625, 
