sep=,
PacketCounter,SampleTimeFine,Quat_W,Quat_X,Quat_Y,Quat_Z,Acc_X,Acc_Y,Acc_Z,Gyr_X,Gyr_Y,Gyr_Z,Mag_X,Mag_Y,Mag_Z,
0, 3709319512, 0.8737169504165649, -0.05774523317813873, -0.43231019377708435, -0.21544930338859558, 0, 0, 0, 0, 0, 0, -0.89794921875, 0.065185546875, -0.21875, 
1, 3709327845, 0.8736465573310852, -0.05759681761264801, -0.4324711859226227, -0.21545127034187317, 7.666616439819336, 0.7334970831871033, 6.023203372955322, 1.9264978170394897, -2.359416961669922, -1.1940715312957764, -0.8984375, 0.063232421875, -0.22021484375, 
2, 3709336178, 0.8735758066177368, -0.057476311922073364, -0.43261152505874634, -0.21548894047737122, 7.641524791717529, 0.7584354877471924, 6.029623508453369, 1.4002279043197632, -2.2212281227111816, -1.2797768115997314, -0.8955078125, 0.064697265625, -0.218505859375, 
3, 3709344511, 0.8735151290893555, -0.0573558509349823, -0.4327377676963806, -0.2155134379863739, 7.657005786895752, 0.7603991627693176, 6.040689945220947, 1.3617808818817139, -1.948513388633728, -1.2416115999221802, -0.89599609375, 0.062744140625, -0.219482421875, 
4, 3709352844, 0.8734430074691772, -0.057239845395088196, -0.4328824579715729, -0.21554642915725708, 7.697195053100586, 0.7768616080284119, 5.990818023681641, 1.3860628604888916, -2.2980964183807373, -1.2057260274887085, -0.8984375, 0.064208984375, -0.21728515625, 
5, 3709361177, 0.8733523488044739, -0.05716301500797272, -0.4330674409866333, -0.2155623435974121, 7.744673252105713, 0.7743820548057556, 5.963570594787598, 1.055306315422058, -2.969189167022705, -0.999428927898407, -0.90087890625, 0.064208984375, -0.2197265625, 
6, 3709369510, 0.8732452392578125, -0.057140931487083435, -0.4332645535469055, -0.21560600399971008, 7.775437355041504, 0.7930561304092407, 5.984746932983398, 0.3220990002155304, -3.4055020809173584, -0.9191539287567139, -0.89794921875, 0.063720703125, -0.21484375, 
7, 3709377843, 0.8731358051300049, -0.05714447796344757, -0.4334689676761627, -0.21563738584518433, 7.800117492675781, 0.8472962975502014, 6.013512134552002, 0.0018186105880886316, -3.544100761413574, -0.8101654052734375, -0.8974609375, 0.062744140625, -0.218505859375, 
8, 3709386176, 0.8730410933494568, -0.057155340909957886, -0.4336383640766144, -0.2156772017478943, 7.761956214904785, 0.8635505437850952, 6.05289888381958, -0.1232685074210167, -3.100846529006958, -0.6175464391708374, -0.896484375, 0.063232421875, -0.219482421875, 
9, 3709394509, 0.8729534149169922, -0.057173341512680054, -0.4337969422340393, -0.21570831537246704, 7.783293724060059, 0.8627967238426208, 6.085846900939941, -0.22580227255821228, -2.899364709854126, -0.5693404078483582, -0.89697265625, 0.063720703125, -0.215087890625, 
10, 3709402842, 0.8728786706924438, -0.05719637870788574, -0.43391069769859314, -0.21577632427215576, 7.800041675567627, 0.8678519129753113, 6.085634231567383, -0.5859640836715698, -2.329038381576538, -0.7804017066955566, -0.89990234375, 0.063720703125, -0.21728515625, 
11, 3709411175, 0.8728295564651489, -0.05720348656177521, -0.43397289514541626, -0.21584758162498474, 7.8208842277526855, 0.8438822627067566, 6.061556339263916, -0.644864022731781, -1.4539151191711426, -0.9686278700828552, -0.8994140625, 0.062255859375, -0.21533203125, 
12, 3709419508, 0.872796893119812, -0.05720891058444977, -0.43399643898010254, -0.2159310281276703, 7.798251152038574, 0.8367825150489807, 6.087605953216553, -0.7032004594802856, -0.9289131164550781, -0.8761990070343018, -0.8984375, 0.062744140625, -0.21728515625, 
13, 3709427841, 0.8727915287017822, -0.05719378590583801, -0.4339717924594879, -0.21600642800331116, 7.8086652755737305, 0.8069980144500732, 6.03041934967041, -0.6225155591964722, -0.08338713645935059, -0.9480724334716797, -0.90087890625, 0.061767578125, -0.2158203125, 
14, 3709436174, 0.8728200197219849, -0.05716371536254883, -0.43387651443481445, -0.21609067916870117, 7.8087592124938965, 0.8208963871002197, 5.948747634887695, -0.5849907398223877, 0.9693451523780823, -0.8216918706893921, -0.8984375, 0.062255859375, -0.2158203125, 
15, 3709444507, 0.8728817105293274, -0.05708567798137665, -0.4337396025657654, -0.2161363661289215, 7.816741943359375, 0.8089055418968201, 5.835247993469238, 0.040086280554533005, 1.8301116228103638, -0.6717973351478577, -0.89990234375, 0.060302734375, -0.21484375, 
16, 3709452840, 0.8728776574134827, -0.0570773184299469, -0.4337141513824463, -0.2162064015865326, 7.679356098175049, 0.8257313370704651, 5.990184783935547, -0.5787408947944641, -0.13963600993156433, -0.67343670129776, -0.8974609375, 0.063720703125, -0.21826171875, 
17, 3709461173, 0.8728373050689697, -0.057155728340148926, -0.4337369203567505, -0.21630308032035828, 7.666913032531738, 0.7647385001182556, 6.0287275314331055, -1.7130159139633179, -1.1157944202423096, -0.7519955039024353, -0.89892578125, 0.063232421875, -0.21728515625, 
18, 3709469506, 0.8728715181350708, -0.057136282324790955, -0.4336482584476471, -0.21634748578071594, 7.75641393661499, 0.7585375308990479, 5.8732709884643555, -0.45171985030174255, 0.8601260185241699, -0.26814258098602295, -0.89794921875, 0.062255859375, -0.217041015625, 
19, 3709477839, 0.8729087710380554, -0.057136982679367065, -0.43355613946914673, -0.21638184785842896, 7.635209083557129, 0.812283992767334, 5.885716915130615, -0.7158282399177551, 0.9059497714042664, -0.16747866570949554, -0.8994140625, 0.064208984375, -0.21484375, 
20, 3709486172, 0.8728219270706177, -0.05724996328353882, -0.43368127942085266, -0.2164514660835266, 7.643155097961426, 0.79686439037323, 5.93351411819458, -1.651055097579956, -2.8022358417510986, -0.3099706768989563, -0.8984375, 0.061767578125, -0.216064453125, 
21, 3709494505, 0.8727052211761475, -0.05735921859741211, -0.43387264013290405, -0.21650978922843933, 7.735879898071289, 0.7370003461837769, 5.9390411376953125, -1.427263617515564, -3.7174317836761475, -0.47917822003364563, -0.89599609375, 0.061767578125, -0.217529296875, 
22, 3709502838, 0.8726257681846619, -0.05738471448421478, -0.43401435017585754, -0.21653902530670166, 7.759710311889648, 0.7298903465270996, 6.00999116897583, -0.30510392785072327, -2.728773832321167, -0.33911964297294617, -0.8955078125, 0.061767578125, -0.215576171875, 
23, 3709511171, 0.8725763559341431, -0.05740243196487427, -0.43410563468933105, -0.21655040979385376, 7.799361705780029, 0.7395458817481995, 6.0135626792907715, -0.30456602573394775, -1.8825054168701172, -0.19268308579921722, -0.89794921875, 0.061279296875, -0.212646484375, 
24, 3709519504, 0.8725451231002808, -0.057431161403656006, -0.4341450333595276, -0.21658936142921448, 7.78666353225708, 0.7550040483474731, 5.97651481628418, -0.6682113409042358, -1.2134358882904053, -0.20963969826698303, -0.896484375, 0.061279296875, -0.216064453125, 
25, 3709527837, 0.8724916577339172, -0.05746909976005554, -0.4342305362224579, -0.2166232168674469, 7.778313636779785, 0.7315923571586609, 6.050987243652344, -0.6277152299880981, -1.9322481155395508, -0.19765223562717438, -0.89794921875, 0.062744140625, -0.216552734375, 
26, 3709536170, 0.8724417686462402, -0.05750031769275665, -0.4343167841434479, -0.21664303541183472, 7.806071758270264, 0.7618283033370972, 6.051172733306885, -0.5440078973770142, -1.8582998514175415, -0.21873275935649872, -0.8994140625, 0.062255859375, -0.2138671875, 
27, 3709544503, 0.8724269866943359, -0.05747045576572418, -0.4343509078025818, -0.21664273738861084, 7.81021785736084, 0.7806827425956726, 6.054752826690674, 0.1672097146511078, -0.8587300181388855, -0.2097165435552597, -0.89892578125, 0.060791015625, -0.216552734375, 
28, 3709552836, 0.8724216818809509, -0.05748182535171509, -0.4343380928039551, -0.2166863977909088, 7.810511112213135, 0.7876710891723633, 6.06129789352417, -0.6234888434410095, -0.3766188621520996, -0.2523130476474762, -0.8994140625, 0.061279296875, -0.21337890625, 
29, 3709561169, 0.8724244236946106, -0.057534098625183105, -0.43429726362228394, -0.2167431116104126, 7.8092451095581055, 0.7759118676185608, 6.054896831512451, -1.3139972686767578, -0.04862862452864647, -0.24731822311878204, -0.8974609375, 0.062255859375, -0.214599609375, 
30, 3709569502, 0.8724485635757446, -0.0575413703918457, -0.43422242999076843, -0.21679437160491943, 7.778459548950195, 0.7732220888137817, 6.057012557983398, -0.7804785370826721, 0.5601576566696167, -0.23061776161193848, -0.89599609375, 0.061279296875, -0.212158203125, 
31, 3709577835, 0.8724796772003174, -0.057524681091308594, -0.4341505169868469, -0.21681717038154602, 7.724004745483398, 0.7471001148223877, 6.035726070404053, -0.40376999974250793, 0.6669434309005737, -0.18341073393821716, -0.8974609375, 0.061279296875, -0.216552734375, 
32, 3709586168, 0.872511625289917, -0.05752144753932953, -0.43407249450683594, -0.21684619784355164, 7.722395420074463, 0.7398972511291504, 6.003059387207031, -0.5255401134490967, 0.6575687527656555, -0.0006019346183165908, -0.8974609375, 0.060791015625, -0.216064453125, 
33, 3709594501, 0.8725390434265137, -0.05754886567592621, -0.4340008497238159, -0.2168717086315155, 7.720149040222168, 0.7277084589004517, 5.981120586395264, -0.9308341145515442, 0.5145643949508667, 0.05509622022509575, -0.89892578125, 0.060302734375, -0.217041015625, 
34, 3709602834, 0.8725600242614746, -0.05757121741771698, -0.43393826484680176, -0.21690678596496582, 7.711744785308838, 0.7444750666618347, 5.99746561050415, -0.8309385776519775, 0.33598190546035767, 0.03281182795763016, -0.9013671875, 0.061767578125, -0.21435546875, 
35, 3709611167, 0.8725730180740356, -0.05758453905582428, -0.4339110255241394, -0.21690550446510315, 7.696744918823242, 0.7305126786231995, 5.97750186920166, -0.49861955642700195, -0.08646085113286972, 0.1970759481191635, -0.89892578125, 0.060791015625, -0.217041015625, 
36, 3709619500, 0.8725751638412476, -0.05759727954864502, -0.43390512466430664, -0.21690556406974792, 7.727781295776367, 0.7342178821563721, 5.97501277923584, -0.35167062282562256, -0.4543324410915375, 0.29589563608169556, -0.8984375, 0.062255859375, -0.216796875, 
37, 3709627833, 0.8725794553756714, -0.05760693550109863, -0.4339037537574768, -0.2168881893157959, 7.733067035675049, 0.7414279580116272, 5.991085529327393, -0.27882373332977295, -0.44931209087371826, 0.3309870958328247, -0.8974609375, 0.062744140625, -0.215087890625, 
38, 3709636166, 0.8725804090499878, -0.05760549008846283, -0.4339069724082947, -0.21687796711921692, 7.718539714813232, 0.7560340166091919, 6.020426273345947, -0.09465740621089935, -0.5378860831260681, 0.32235515117645264, -0.89990234375, 0.059814453125, -0.214599609375, 
39, 3709644499, 0.8725756406784058, -0.05760829150676727, -0.43392544984817505, -0.21685940027236938, 7.704470157623291, 0.7669779062271118, 5.997036457061768, -0.09678338468074799, -0.7154183983802795, 0.29387208819389343, -0.8984375, 0.059814453125, -0.216064453125, 
40, 3709652832, 0.8725571632385254, -0.057593539357185364, -0.43397873640060425, -0.21683141589164734, 7.716402053833008, 0.8171409964561462, 6.010935306549072, 0.30583396553993225, -1.2298803329467773, 0.35806140303611755, -0.900390625, 0.062744140625, -0.21533203125, 
41, 3709661165, 0.8725314140319824, -0.057583585381507874, -0.43405231833457947, -0.2167898416519165, 7.728968620300293, 0.7890802025794983, 6.034567356109619, 0.2891462743282318, -1.4891859292984009, 0.34624043107032776, -0.90283203125, 0.061767578125, -0.2158203125, 
42, 3709669498, 0.8725091218948364, -0.057567477226257324, -0.43410974740982056, -0.21676912903785706, 7.7380242347717285, 0.8011041283607483, 6.044896125793457, 0.2864440083503723, -1.2918667793273926, 0.24953389167785645, -0.9013671875, 0.059814453125, -0.212890625, 
43, 3709677831, 0.8724947571754456, -0.05753523111343384, -0.43415993452072144, -0.2167348563671112, 7.7569074630737305, 0.7770634293556213, 6.062735557556152, 0.4853385090827942, -1.0642330646514893, 0.20327456295490265, -0.9013671875, 0.063720703125, -0.21435546875, 
44, 3709686164, 0.8724810481071472, -0.05750928819179535, -0.4342144727706909, -0.21668791770935059, 7.765533924102783, 0.757951021194458, 6.089458465576172, 0.5598503351211548, -1.1979392766952515, 0.5336469411849976, -0.90234375, 0.061279296875, -0.21484375, 
45, 3709694497, 0.8724706172943115, -0.057502493262290955, -0.4342661499977112, -0.21662846207618713, 7.765119552612305, 0.7557911276817322, 6.067971229553223, 0.34476760029792786, -1.154676914215088, 0.6710929870605469, -0.9033203125, 0.062255859375, -0.2158203125, 
46, 3709702830, 0.8724802136421204, -0.05747586488723755, -0.43427252769470215, -0.21658387780189514, 7.7418365478515625, 0.7593029141426086, 6.073786735534668, 0.4286029636859894, -0.4752849042415619, 0.6113861203193665, -0.90234375, 0.062255859375, -0.21435546875, 
47, 3709711163, 0.8725056052207947, -0.057451412081718445, -0.4342392086982727, -0.21655452251434326, 7.773889541625977, 0.749660849571228, 6.022264003753662, 0.2063738852739334, 0.10061270743608475, 0.5169464349746704, -0.90283203125, 0.061279296875, -0.2158203125, 
48, 3709719496, 0.8725306987762451, -0.057449012994766235, -0.43420976400375366, -0.21651342511177063, 7.786298751831055, 0.7435308694839478, 5.99340295791626, -0.030647432431578636, 0.031736038625240326, 0.6488341689109802, -0.90283203125, 0.061767578125, -0.21435546875, 
49, 3709727829, 0.8725494742393494, -0.057473912835121155, -0.43419042229652405, -0.21646979451179504, 7.773001670837402, 0.7361920475959778, 5.996650218963623, -0.27254825830459595, -0.2053365260362625, 0.8510330319404602, -0.90283203125, 0.061279296875, -0.2138671875, 
50, 3709736162, 0.8725663423538208, -0.057501375675201416, -0.4341709613800049, -0.21643322706222534, 7.727751731872559, 0.756291389465332, 5.982380390167236, -0.338095098733902, -0.27728691697120667, 0.8786963224411011, -0.90478515625, 0.062255859375, -0.21533203125, 
51, 3709744495, 0.8725883364677429, -0.057533785700798035, -0.4341414272785187, -0.21639519929885864, 7.707688808441162, 0.7451044917106628, 5.99406099319458, -0.4783587157726288, -0.0875878781080246, 0.804338276386261, -0.900390625, 0.059326171875, -0.21630859375, 
52, 3709752828, 0.8726184964179993, -0.05757409334182739, -0.43408870697021484, -0.21636897325515747, 7.704062461853027, 0.7643527984619141, 6.020276069641113, -0.6434167623519897, 0.17153851687908173, 0.8961139917373657, -0.90380859375, 0.062255859375, -0.2158203125, 
53, 3709761161, 0.8726302981376648, -0.057615965604782104, -0.4340745806694031, -0.21633881330490112, 7.665644645690918, 0.7364709973335266, 6.015161991119385, -0.6118600368499756, -0.3580998480319977, 0.7152519822120667, -0.90380859375, 0.061279296875, -0.21484375, 
54, 3709769494, 0.8726255297660828, -0.057670533657073975, -0.43408435583114624, -0.21632403135299683, 7.669414043426514, 0.7282881736755371, 5.999232292175293, -0.7247931957244873, -0.8199244141578674, 0.6899449825286865, -0.9013671875, 0.062744140625, -0.216796875, 
55, 3709777827, 0.872605562210083, -0.0577244758605957, -0.43412813544273376, -0.21630209684371948, 7.70308256149292, 0.7124446034431458, 6.0021796226501465, -0.690739095211029, -1.2735910415649414, 0.522056519985199, -0.9013671875, 0.060791015625, -0.216796875, 
56, 3709786160, 0.8725762367248535, -0.05778104066848755, -0.4341794550418854, -0.2163023054599762, 7.703338146209717, 0.7011053562164307, 6.0070576667785645, -0.7347443103790283, -1.4606258869171143, 0.41516831517219543, -0.9033203125, 0.062744140625, -0.21337890625, 
57, 3709794493, 0.8725502490997314, -0.05783309042453766, -0.434228777885437, -0.21629390120506287, 7.710042476654053, 0.6977168917655945, 6.005033493041992, -0.7259073257446289, -1.3576568365097046, 0.3344578444957733, -0.90185546875, 0.063720703125, -0.21630859375, 
58, 3709802826, 0.8725271224975586, -0.05785571038722992, -0.43426838517189026, -0.2163017988204956, 7.740213871002197, 0.6734042167663574, 6.01574182510376, -0.4037187099456787, -1.1764488220214844, 0.1501506268978119, -0.9013671875, 0.061279296875, -0.21533203125, 
59, 3709811159, 0.8725025653839111, -0.057877227663993835, -0.4343124330043793, -0.21630632877349854, 7.742122650146484, 0.6888545155525208, 6.000548362731934, -0.40161845088005066, -1.1811621189117432, 0.041751205921173096, -0.90234375, 0.060791015625, -0.2158203125, 
60, 3709819492, 0.872473955154419, -0.05788484215736389, -0.43435904383659363, -0.21632656455039978, 7.748039245605469, 0.6969799399375916, 6.004533290863037, -0.28028374910354614, -1.2380768060684204, -0.10923190414905548, -0.90234375, 0.062255859375, -0.21435546875, 
61, 3709827825, 0.8724400997161865, -0.05790272355079651, -0.4344114661216736, -0.21635305881500244, 7.731542587280273, 0.7133246660232544, 6.008723735809326, -0.4890397787094116, -1.3105396032333374, -0.28991472721099854, -0.9013671875, 0.061767578125, -0.21337890625, 
62, 3709836158, 0.8723975419998169, -0.0579129159450531, -0.4344767928123474, -0.21639075875282288, 7.746242046356201, 0.753101646900177, 5.998974323272705, -0.3710606098175049, -1.5377633571624756, -0.3605843782424927, -0.90087890625, 0.061767578125, -0.2138671875, 
63, 3709844491, 0.872348964214325, -0.057925015687942505, -0.4345495104789734, -0.21643739938735962, 7.732753753662109, 0.7528191208839417, 5.994812488555908, -0.4289488196372986, -1.6622487306594849, -0.4798187017440796, -0.90380859375, 0.063720703125, -0.21484375, 
64, 3709852824, 0.8722950220108032, -0.05794528126716614, -0.4346299469470978, -0.21648776531219482, 7.7318115234375, 0.7558393478393555, 6.024354457855225, -0.5914454460144043, -1.7552282810211182, -0.6406760215759277, -0.90185546875, 0.060302734375, -0.212890625, 
65, 3709861157, 0.8722492456436157, -0.057961031794548035, -0.43469324707984924, -0.21654075384140015, 7.7357330322265625, 0.7479816675186157, 5.998867034912109, -0.5677778720855713, -1.4807716608047485, -0.6397795081138611, -0.90234375, 0.05908203125, -0.21435546875, 
66, 3709869490, 0.872202455997467, -0.05798020958900452, -0.4347536265850067, -0.2166031301021576, 7.732848644256592, 0.7398681044578552, 6.032249927520752, -0.6435960531234741, -1.5119954347610474, -0.6121418476104736, -0.90283203125, 0.062744140625, -0.2138671875, 
67, 3709877823, 0.872148871421814, -0.05800175666809082, -0.434832900762558, -0.21665361523628235, 7.712510108947754, 0.7168301939964294, 6.049299240112305, -0.5881413221359253, -1.740397572517395, -0.615266740322113, -0.90234375, 0.062255859375, -0.21142578125, 
68, 3709886156, 0.8720898032188416, -0.05802774429321289, -0.43491461873054504, -0.21672043204307556, 7.753894805908203, 0.7217328548431396, 6.042850494384766, -0.6984360218048096, -1.8585047721862793, -0.6784313917160034, -0.9033203125, 0.059326171875, -0.2138671875, 
69, 3709894489, 0.8720093369483948, -0.05807796120643616, -0.4350348711013794, -0.21678930521011353, 7.771965026855469, 0.7263343334197998, 6.042479038238525, -0.892950713634491, -2.4585697650909424, -0.7419291138648987, -0.90185546875, 0.061279296875, -0.21240234375, 
70, 3709902822, 0.8719137907028198, -0.05816181004047394, -0.4351724088191986, -0.21687528491020203, 7.782895088195801, 0.7145761847496033, 6.120244026184082, -1.3687734603881836, -2.902758836746216, -0.7135101556777954, -0.904296875, 0.060791015625, -0.212890625, 
71, 3709911155, 0.8718417286872864, -0.05825112760066986, -0.4352627694606781, -0.21695953607559204, 7.8291096687316895, 0.7188795804977417, 6.11433744430542, -1.6051288843154907, -2.161905527114868, -0.6956185698509216, -0.90283203125, 0.060302734375, -0.21240234375, 
72, 3709919488, 0.8718140125274658, -0.05828246474266052, -0.4352697432041168, -0.21704858541488647, 7.793179988861084, 0.704826831817627, 6.0744733810424805, -1.094637155532837, -0.7725637555122375, -0.7591676115989685, -0.9033203125, 0.062255859375, -0.21240234375, 
73, 3709927821, 0.8718038201332092, -0.05823187530040741, -0.4352725148200989, -0.21709749102592468, 7.746972560882568, 0.6592274904251099, 5.992008209228516, 0.053482525050640106, -0.3533099591732025, -0.871229887008667, -0.9013671875, 0.059326171875, -0.21337890625, 
74, 3709936154, 0.871793806552887, -0.058136582374572754, -0.43530142307281494, -0.21710538864135742, 7.769954681396484, 0.7363994717597961, 5.921230792999268, 0.9899774193763733, -0.6176104545593262, -0.5085450410842896, -0.90283203125, 0.059814453125, -0.212890625, 
75, 3709944487, 0.8716654777526855, -0.0581807941198349, -0.4355154037475586, -0.21717995405197144, 7.679352760314941, 0.7436291575431824, 6.103816509246826, -0.684028148651123, -3.8540968894958496, -1.1183431148529053, -0.90234375, 0.060302734375, -0.21142578125, 
76, 3709952820, 0.8715324401855469, -0.058311909437179565, -0.4356862008571625, -0.2173362374305725, 7.707517623901367, 0.7230177521705627, 6.110037803649902, -2.2869925498962402, -3.6111462116241455, -1.4139058589935303, -0.9033203125, 0.058837890625, -0.21044921875, 
77, 3709961153, 0.8715428709983826, -0.058345139026641846, -0.4355968236923218, -0.217463880777359, 7.834442138671875, 0.6737596392631531, 5.894609451293945, -1.7124526500701904, 0.6840537786483765, -1.1981444358825684, -0.90234375, 0.060791015625, -0.21240234375, 
78, 3709969486, 0.8716049790382385, -0.05841602385044098, -0.4354083836078644, -0.21757343411445618, 7.77460241317749, 0.7750632166862488, 5.821102619171143, -2.201709747314453, 2.0040066242218018, -0.34170669317245483, -0.900390625, 0.062744140625, -0.2109375, 
79, 3709977819, 0.8715579509735107, -0.05861730873584747, -0.43541622161865234, -0.2176920771598816, 7.647871494293213, 0.7843061089515686, 5.928375720977783, -3.4586002826690674, -1.3387919664382935, -0.36045628786087036, -0.90234375, 0.063232421875, -0.21240234375, 
80, 3709986152, 0.871452808380127, -0.05884380638599396, -0.43553468585014343, -0.21781489253044128, 7.679501056671143, 0.7105669975280762, 5.960250377655029, -3.363008499145508, -3.1287150382995605, -0.31680968403816223, -0.9033203125, 0.0595703125, -0.21435546875, 
81, 3709994485, 0.8713936805725098, -0.058956414461135864, -0.43562769889831543, -0.2178347408771515, 7.747883319854736, 0.7234854102134705, 5.903744697570801, -1.4187085628509521, -2.2317299842834473, 0.2981497049331665, -0.90234375, 0.061767578125, -0.2109375, 
82, 3710002818, 0.8713347911834717, -0.05899530649185181, -0.43575310707092285, -0.21780896186828613, 7.676222324371338, 0.8056471943855286, 5.903031349182129, -0.16727377474308014, -2.4931488037109375, 0.4720959961414337, -0.9052734375, 0.061767578125, -0.2119140625, 
83, 3710011151, 0.8711979389190674, -0.059023573994636536, -0.43602442741394043, -0.2178056240081787, 7.685393333435059, 0.8062193393707275, 5.850212574005127, 0.12942874431610107, -4.606937885284424, -0.3642216622829437, -0.904296875, 0.062255859375, -0.21044921875, 
84, 3710019484, 0.8709971904754639, -0.059068724513053894, -0.4364011287689209, -0.2178420126438141, 7.76824951171875, 0.7504498362541199, 5.878544807434082, 0.022924738004803658, -6.324730396270752, -0.8629563450813293, -0.90380859375, 0.060791015625, -0.21240234375, 
85, 3710027817, 0.8708103895187378, -0.05912169814109802, -0.43674686551094055, -0.217881977558136, 7.816910266876221, 0.7291836142539978, 5.949228763580322, -0.22882477939128876, -5.835217475891113, -0.931474506855011, -0.90234375, 0.059326171875, -0.20947265625, 
86, 3710036150, 0.8707171082496643, -0.05911847949028015, -0.4369142949581146, -0.21792027354240417, 7.8724870681762695, 0.7577638030052185, 5.984289646148682, 0.05040881410241127, -3.024170398712158, -0.6851295828819275, -0.90478515625, 0.061279296875, -0.20703125, 
87, 3710044483, 0.8706948161125183, -0.05909764766693115, -0.436955988407135, -0.2179306447505951, 7.882768154144287, 0.7908112406730652, 6.008079528808594, 0.05911765620112419, -1.0086758136749268, -0.27867013216018677, -0.90576171875, 0.058349609375, -0.20849609375, 
88, 3710052816, 0.870702862739563, -0.05908116698265076, -0.4369310736656189, -0.21795296669006348, 7.860323429107666, 0.7936222553253174, 5.97491979598999, -0.18712477385997772, -0.0873829573392868, -0.11148595064878464, -0.90576171875, 0.0576171875, -0.21044921875, 
89, 3710061149, 0.8707011938095093, -0.05904942750930786, -0.43694543838500977, -0.21793919801712036, 7.804532527923584, 0.7780007123947144, 5.918856620788574, 0.26345521211624146, -0.5455064177513123, 0.025089144706726074, -0.90283203125, 0.059814453125, -0.2099609375, 
90, 3710069482, 0.8706701993942261, -0.05899982154369354, -0.43702372908592224, -0.21791976690292358, 7.758052349090576, 0.7683369517326355, 5.937782287597656, 0.7366909980773926, -1.492323637008667, -0.013178523629903793, -0.90380859375, 0.060791015625, -0.20654296875, 
91, 3710077815, 0.8706233501434326, -0.05896782875061035, -0.43713802099227905, -0.2178860604763031, 7.768240451812744, 0.7847039699554443, 5.9348554611206055, 0.6562879681587219, -2.02602219581604, 0.050895486027002335, -0.90283203125, 0.059326171875, -0.21044921875, 
92, 3710086148, 0.8705904483795166, -0.05895023047924042, -0.4372153580188751, -0.2178674340248108, 7.775097370147705, 0.7839086651802063, 5.9457292556762695, 0.34463953971862793, -1.5885307788848877, 0.16574972867965698, -0.90673828125, 0.058349609375, -0.20751953125, 
93, 3710094481, 0.8705785870552063, -0.05893045663833618, -0.43725278973579407, -0.21784496307373047, 7.8032732009887695, 0.7777073383331299, 5.9386701583862305, 0.24699808657169342, -0.9232267737388611, 0.1630602329969406, -0.9052734375, 0.059326171875, -0.20751953125, 
94, 3710102814, 0.870586633682251, -0.05888676643371582, -0.43725281953811646, -0.21782460808753967, 7.8022780418396, 0.7857750058174133, 5.9300923347473145, 0.46909910440444946, -0.33973443508148193, 0.2126493901014328, -0.904296875, 0.058349609375, -0.208984375, 
95, 3710111147, 0.870593786239624, -0.058844536542892456, -0.43725448846817017, -0.2178036868572235, 7.806119441986084, 0.7809831500053406, 5.92482852935791, 0.429883748292923, -0.30876681208610535, 0.1075797975063324, -0.90380859375, 0.059326171875, -0.20751953125, 
96, 3710119480, 0.8705999255180359, -0.05881071090698242, -0.4372531771659851, -0.21779116988182068, 7.7931227684021, 0.7575075030326843, 5.91205358505249, 0.29884129762649536, -0.3583303391933441, 0.17312662303447723, -0.90283203125, 0.058837890625, -0.20556640625, 
97, 3710127813, 0.8705963492393494, -0.05878390371799469, -0.4372733235359192, -0.21777242422103882, 7.79928731918335, 0.7664411664009094, 5.91925573348999, 0.24984122812747955, -0.6456195712089539, 0.1051720455288887, -0.90380859375, 0.058349609375, -0.2109375, 
98, 3710136146, 0.8705906867980957, -0.05876770615577698, -0.43729543685913086, -0.21775546669960022, 7.778909683227539, 0.7525434494018555, 5.930078983306885, 0.1739206612110138, -0.765289306640625, 0.27934885025024414, -0.90380859375, 0.059326171875, -0.20703125, 
99, 3710144479, 0.8705765604972839, -0.058741748332977295, -0.4373478889465332, -0.21771344542503357, 7.787993907928467, 0.7351763248443604, 5.946723461151123, 0.4520144462585449, -1.1168445348739624, 0.3166687786579132, -0.90283203125, 0.058837890625, -0.20654296875, 
100, 3710152812, 0.870560348033905, -0.058709755539894104, -0.4374009370803833, -0.21768006682395935, 7.801398754119873, 0.7469068169593811, 5.9486613273620605, 0.5455319881439209, -1.1652171611785889, 0.32568496465682983, -0.904296875, 0.060791015625, -0.20947265625, 
101, 3710161145, 0.8705383539199829, -0.05867698788642883, -0.4374621510505676, -0.21765395998954773, 7.79182767868042, 0.7751964926719666, 5.962652683258057, 0.5310215353965759, -1.2892156839370728, 0.20843584835529327, -0.90478515625, 0.060302734375, -0.20751953125, 
102, 3710169478, 0.8705164194107056, -0.058643803000450134, -0.4375315010547638, -0.21761110424995422, 7.818700313568115, 0.7629290819168091, 5.965620517730713, 0.5724397301673889, -1.347334384918213, 0.23510023951530457, -0.9033203125, 0.058349609375, -0.2080078125, 
103, 3710177811, 0.8704843521118164, -0.058618947863578796, -0.43761295080184937, -0.2175823152065277, 7.810912609100342, 0.7907971143722534, 5.9998555183410645, 0.45986518263816833, -1.5636465549468994, 0.10859154164791107, -0.90478515625, 0.058837890625, -0.208984375, 
104, 3710186144, 0.870453417301178, -0.05859403312206268, -0.43768376111984253, -0.21757042407989502, 7.829659461975098, 0.7908755540847778, 6.002530097961426, 0.3723284900188446, -1.4698344469070435, 0.0527397058904171, -0.9052734375, 0.058349609375, -0.20703125, 
105, 3710194477, 0.8704510927200317, -0.05855737626552582, -0.4377027153968811, -0.2175513207912445, 7.868277549743652, 0.7906824350357056, 5.963911533355713, 0.40867510437965393, -0.5890889763832092, 0.08442451804876328, -0.90234375, 0.058349609375, -0.20849609375, 
106, 3710202810, 0.870503842830658, -0.058443933725357056, -0.4376426041126251, -0.21749162673950195, 7.883896350860596, 0.8006212711334229, 5.828862190246582, 1.3959757089614868, 0.8278776407241821, 0.44579017162323, -0.90576171875, 0.060791015625, -0.20556640625, 
107, 3710211143, 0.8705333471298218, -0.058300361037254333, -0.43764230608940125, -0.21741309762001038, 7.77930212020874, 0.8285653591156006, 5.983268737792969, 1.9341562986373901, 0.09597653895616531, 0.2016608715057373, -0.90576171875, 0.059814453125, -0.2080078125, 
108, 3710219476, 0.8705103993415833, -0.05827951431274414, -0.43768829107284546, -0.21741801500320435, 7.744868278503418, 0.7748674154281616, 6.140743732452393, 0.15660542249679565, -1.123171329498291, -0.0790071114897728, -0.9052734375, 0.060302734375, -0.208984375, 
109, 3710227809, 0.8705511093139648, -0.05820462107658386, -0.43763038516044617, -0.2173912227153778, 7.841540336608887, 0.7490099668502808, 5.971465110778809, 0.6607192754745483, 0.6919942498207092, 0.09318459033966064, -0.9052734375, 0.057861328125, -0.20703125, 
110, 3710236142, 0.8706633448600769, -0.058063805103302, -0.43743762373924255, -0.21736815571784973, 7.7866387367248535, 0.7716056108474731, 5.898782730102539, 1.1549971103668213, 2.8840091228485107, 0.12730275094509125, -0.9013671875, 0.059326171875, -0.20751953125, 
111, 3710244475, 0.8706939816474915, -0.057983338832855225, -0.4374026656150818, -0.2173367440700531, 7.697782516479492, 0.8150378465652466, 5.877276420593262, 0.8338329792022705, 0.37113744020462036, 0.08067203313112259, -0.90234375, 0.058349609375, -0.20849609375, 
112, 3710252808, 0.8706327676773071, -0.057971447706222534, -0.43752002716064453, -0.21734869480133057, 7.745054721832275, 0.7652468085289001, 5.864286422729492, 0.18775233626365662, -2.230090618133545, -0.28197431564331055, -0.90283203125, 0.058837890625, -0.20751953125, 
113, 3710261141, 0.8705762624740601, -0.05793146789073944, -0.43764474987983704, -0.21733441948890686, 7.7952117919921875, 0.7363312840461731, 5.927380561828613, 0.6574918031692505, -2.1718437671661377, -0.2653762698173523, -0.9052734375, 0.059814453125, -0.20654296875, 
114, 3710269474, 0.8705456852912903, -0.05787357687950134, -0.4377284348011017, -0.2173040211200714, 7.765013694763184, 0.7784020304679871, 5.946430683135986, 0.917348325252533, -1.536098599433899, 0.06736543774604797, -0.904296875, 0.057861328125, -0.20703125, 
115, 3710277807, 0.8705341815948486, -0.057847023010253906, -0.43776294589042664, -0.21728765964508057, 7.776671886444092, 0.813829243183136, 5.918191432952881, 0.3260948061943054, -0.9185648560523987, 0.1822964996099472, -0.90625, 0.058837890625, -0.20703125, 
116, 3710286140, 0.8704855442047119, -0.057845160365104675, -0.43787431716918945, -0.21725866198539734, 7.769203186035156, 0.7993313670158386, 5.9425129890441895, 0.27571162581443787, -2.0876753330230713, 0.1890842765569687, -0.903076171875, 0.057373046875, -0.20947265625, 
117, 3710294473, 0.8704231977462769, -0.05786576867103577, -0.4380000829696655, -0.21724918484687805, 7.801225185394287, 0.8086814880371094, 5.981794834136963, -0.11376563459634781, -2.3981969356536865, 0.011347105726599693, -0.9033203125, 0.057861328125, -0.21142578125, 
118, 3710302806, 0.8703843951225281, -0.057832151651382446, -0.4380883276462555, -0.21723589301109314, 7.849509239196777, 0.8181800842285156, 5.977583885192871, 0.5318283438682556, -1.7011311054229736, -0.02093963697552681, -0.90380859375, 0.058349609375, -0.20654296875, 
119, 3710311139, 0.870356559753418, -0.05781550705432892, -0.4381365180015564, -0.21725422143936157, 7.858134746551514, 0.8249874711036682, 6.034789085388184, -0.018788041546940804, -1.1259377002716064, -0.3648107349872589, -0.904052734375, 0.055908203125, -0.20556640625, 
120, 3710319472, 0.8703390955924988, -0.05785384774208069, -0.43813467025756836, -0.2173178493976593, 7.837663173675537, 0.8083710074424744, 6.050061225891113, -1.0451503992080688, -0.6486164927482605, -0.3734683692455292, -0.90380859375, 0.059326171875, -0.20703125, 
121, 3710327805, 0.8703518509864807, -0.057882070541381836, -0.4380810856819153, -0.2173675000667572, 7.855123519897461, 0.7951958775520325, 6.0040178298950195, -1.046968936920166, 0.22294628620147705, -0.2921431362628937, -0.905029296875, 0.056884765625, -0.20654296875, 
122, 3710336138, 0.8703935146331787, -0.05788341164588928, -0.4379787743091583, -0.21740666031837463, 7.824501991271973, 0.7761693000793457, 5.986757755279541, -0.7086818814277649, 1.0022337436676025, -0.043685078620910645, -0.90478515625, 0.058349609375, -0.20703125, 
123, 3710344471, 0.8704476952552795, -0.05788213014602661, -0.43785589933395386, -0.21743762493133545, 7.763817310333252, 0.7840588688850403, 5.956737518310547, -0.7304539084434509, 1.3780969381332397, -0.047629669308662415, -0.90380859375, 0.058349609375, -0.208984375, 
124, 3710352804, 0.8704969882965088, -0.05788883566856384, -0.43774011731147766, -0.21747177839279175, 7.751857757568359, 0.7852035760879517, 5.934256553649902, -0.7772766947746277, 1.188398003578186, 0.07971149682998657, -0.903564453125, 0.056884765625, -0.2080078125, 
125, 3710361137, 0.8705248236656189, -0.05790512263774872, -0.43766987323760986, -0.2174968421459198, 7.765140533447266, 0.7920491099357605, 5.892477035522461, -0.7518417835235596, 0.534466564655304, 0.02259175293147564, -0.903564453125, 0.055908203125, -0.2060546875, 
126, 3710369470, 0.8705259561538696, -0.05793049931526184, -0.4376518130302429, -0.21752208471298218, 7.7617573738098145, 0.775761604309082, 5.900852203369141, -0.6919045448303223, -0.33450907468795776, 0.07745744287967682, -0.90234375, 0.059326171875, -0.2099609375, 
127, 3710377803, 0.8705072999000549, -0.05797041952610016, -0.43767568469047546, -0.21753740310668945, 7.7636027336120605, 0.7891374230384827, 5.937145709991455, -0.8368682861328125, -0.9615582823753357, -0.014062213711440563, -0.903076171875, 0.056884765625, -0.2080078125, 
128, 3710386136, 0.8704789280891418, -0.05801866948604584, -0.4377131462097168, -0.2175634205341339, 7.7686381340026855, 0.8113827109336853, 5.971786975860596, -0.8277239799499512, -1.2439807653427124, 0.07390987128019333, -0.903076171875, 0.057861328125, -0.20751953125, 
129, 3710394469, 0.8704566359519958, -0.058082595467567444, -0.43773725628852844, -0.2175869643688202, 7.789567470550537, 0.809630274772644, 5.971286296844482, -1.0967501401901245, -1.0432677268981934, 0.08200397342443466, -0.905029296875, 0.057373046875, -0.20654296875, 
130, 3710402802, 0.8704429864883423, -0.058125004172325134, -0.4377478361129761, -0.2176089584827423, 7.781485080718994, 0.7948310375213623, 5.97158670425415, -0.8031215071678162, -0.8196170330047607, 0.1517387181520462, -0.904296875, 0.058837890625, -0.20849609375, 
131, 3710411135, 0.8704352974891663, -0.058149248361587524, -0.43775925040245056, -0.21761029958724976, 7.797420501708984, 0.7792238593101501, 5.974010944366455, -0.5193926692008972, -0.7032003998756409, 0.15850088000297546, -0.904296875, 0.057861328125, -0.2080078125, 
132, 3710419468, 0.8704282641410828, -0.05816611647605896, -0.4377578794956207, -0.21763676404953003, 7.79976749420166, 0.7887654304504395, 5.964076042175293, -0.5536900758743286, -0.5565589070320129, -0.02529405616223812, -0.904052734375, 0.056884765625, -0.2060546875, 
133, 3710427801, 0.8704288005828857, -0.05818988382816315, -0.43774423003196716, -0.21765553951263428, 7.8086371421813965, 0.7643457651138306, 5.956765174865723, -0.6642283201217651, -0.33595630526542664, 0.010719556361436844, -0.904052734375, 0.056396484375, -0.20947265625, 
134, 3710436134, 0.870434045791626, -0.05820155143737793, -0.43771952390670776, -0.21768158674240112, 7.819094657897949, 0.7674499750137329, 5.935092926025391, -0.5506163835525513, -0.18809811770915985, 0.0032273931428790092, -0.9033203125, 0.058837890625, -0.20654296875, 
135, 3710444467, 0.8704456090927124, -0.05820100009441376, -0.43769019842147827, -0.2176937758922577, 7.804144859313965, 0.7751821875572205, 5.955078125, -0.37825819849967957, -0.01481783390045166, -0.01819891296327114, -0.901611328125, 0.056396484375, -0.207763671875, 
136, 3710452800, 0.8704610466957092, -0.05820001661777496, -0.4376467168331146, -0.21772029995918274, 7.797457218170166, 0.7818631529808044, 5.924407482147217, -0.44982442259788513, 0.13585790991783142, -0.03331131488084793, -0.904052734375, 0.056884765625, -0.2080078125, 
137, 3710461133, 0.8704915046691895, -0.05819942057132721, -0.4375767111778259, -0.21773871779441833, 7.8086371421813965, 0.7728146314620972, 5.931294918060303, -0.5115802884101868, 0.59248286485672, 0.006967071443796158, -0.90380859375, 0.058349609375, -0.2099609375, 
138, 3710469466, 0.8705198764801025, -0.05821239948272705, -0.43750491738319397, -0.2177664339542389, 7.779996871948242, 0.7622928023338318, 5.9178547859191895, -0.6961052417755127, 0.5111576318740845, 0.098358653485775, -0.902587890625, 0.056396484375, -0.2060546875, 
139, 3710477799, 0.8705438375473022, -0.058233097195625305, -0.43745383620262146, -0.2177676558494568, 7.764031887054443, 0.7845522165298462, 5.916981220245361, -0.6470796465873718, 0.244052454829216, 0.27676182985305786, -0.90283203125, 0.058837890625, -0.20751953125, 
140, 3710486132, 0.8705668449401855, -0.05826340615749359, -0.4373994767665863, -0.21777689456939697, 7.793830871582031, 0.786061704158783, 5.917876243591309, -0.745387077331543, 0.20655320584774017, 0.3932553827762604, -0.904052734375, 0.056884765625, -0.20947265625, 
141, 3710494465, 0.8705829381942749, -0.05830736458301544, -0.4373593032360077, -0.21778139472007751, 7.765305042266846, 0.7989653944969177, 5.906188488006592, -0.8999176621437073, 0.001408782904036343, 0.3616217374801636, -0.90478515625, 0.058837890625, -0.20751953125, 
142, 3710502798, 0.8705832362174988, -0.05837291479110718, -0.4373428225517273, -0.2177956998348236, 7.774925708770752, 0.799308717250824, 5.926180362701416, -1.103371500968933, -0.48496708273887634, 0.44614872336387634, -0.905029296875, 0.056884765625, -0.20849609375, 
143, 3710511131, 0.8705750107765198, -0.05844773352146149, -0.4373425543308258, -0.21780890226364136, 7.792815685272217, 0.8047594428062439, 5.933361530303955, -1.202088713645935, -0.7062996625900269, 0.3493013083934784, -0.90234375, 0.058349609375, -0.208984375, 
144, 3710519464, 0.8705710172653198, -0.058501988649368286, -0.43733319640159607, -0.21782934665679932, 7.800325393676758, 0.7888368368148804, 5.9503936767578125, -0.987800121307373, -0.5606571435928345, 0.2864183485507965, -0.90380859375, 0.058837890625, -0.20654296875, 
145, 3710527797, 0.8705856800079346, -0.05855219066143036, -0.4372926950454712, -0.21783828735351562, 7.825889587402344, 0.7811548113822937, 5.966300964355469, -0.9921673536300659, -0.015880824998021126, 0.34864816069602966, -0.902099609375, 0.056884765625, -0.207763671875, 
146, 3710536130, 0.8706089854240417, -0.05859297513961792, -0.4372303783893585, -0.21785956621170044, 7.8363542556762695, 0.7883434295654297, 5.965277671813965, -0.9685127139091492, 0.28080886602401733, 0.31984496116638184, -0.904541015625, 0.056884765625, -0.20654296875, 
147, 3710544463, 0.8706427812576294, -0.058633655309677124, -0.43714919686317444, -0.2178764045238495, 7.823479175567627, 0.7690883874893188, 5.948069095611572, -1.0367745161056519, 0.6194546222686768, 0.2833702862262726, -0.902587890625, 0.057861328125, -0.20458984375, 
148, 3710552796, 0.8706676363945007, -0.05868016183376312, -0.4370770752429962, -0.2179093360900879, 7.804924964904785, 0.7724424004554749, 5.9622802734375, -1.1330585479736328, 0.39845502376556396, 0.22699333727359772, -0.9033203125, 0.060791015625, -0.20654296875, 
149, 3710561129, 0.8706811666488647, -0.058740317821502686, -0.43702414631843567, -0.21794506907463074, 7.80084753036499, 0.7818413376808167, 5.9389262199401855, -1.3314790725708008, 0.1157379150390625, 0.07916079461574554, -0.90087890625, 0.059326171875, -0.20654296875, 
150, 3710569462, 0.8707023859024048, -0.05879044532775879, -0.4369521141052246, -0.21799132227897644, 7.779632091522217, 0.7873849272727966, 5.964719772338867, -1.260412335395813, 0.37594011425971985, 0.07789288461208344, -0.90380859375, 0.057861328125, -0.20751953125, 
151, 3710577795, 0.8707315325737, -0.05883811414241791, -0.4368693232536316, -0.21802756190299988, 7.792056560516357, 0.7725785970687866, 5.9510722160339355, -1.2472209930419922, 0.6057510375976562, 0.07986517995595932, -0.90380859375, 0.059326171875, -0.2080078125, 
152, 3710586128, 0.8707600235939026, -0.05888989567756653, -0.43678486347198486, -0.21806922554969788, 7.776012897491455, 0.7739802598953247, 5.946364879608154, -1.2834908962249756, 0.5599528551101685, 0.1762259304523468, -0.90234375, 0.060791015625, -0.208984375, 
153, 3710594461, 0.8707811236381531, -0.05894465744495392, -0.4367215633392334, -0.21809756755828857, 7.789381504058838, 0.7603045701980591, 5.940737247467041, -1.253035545349121, 0.2946917712688446, 0.16065248847007751, -0.902587890625, 0.057861328125, -0.20751953125, 
154, 3710602794, 0.8708032369613647, -0.05899433791637421, -0.4366500675678253, -0.21813911199569702, 7.796405792236328, 0.7350904941558838, 5.941859722137451, -1.2242708206176758, 0.3713039457798004, 0.13252803683280945, -0.9033203125, 0.057861328125, -0.21044921875, 
155, 3710611127, 0.8708452582359314, -0.05904597043991089, -0.4365467131137848, -0.21816343069076538, 7.780082702636719, 0.7421002984046936, 5.939055442810059, -1.267225742340088, 0.9089211225509644, 0.3098297715187073, -0.9033203125, 0.058349609375, -0.2080078125, 
156, 3710619460, 0.8708940148353577, -0.059094831347465515, -0.43642324209213257, -0.21820276975631714, 7.760921955108643, 0.7366052865982056, 5.9585652351379395, -1.3351548910140991, 1.155791163444519, 0.27717167139053345, -0.90380859375, 0.060791015625, -0.2109375, 
157, 3710627793, 0.8709161281585693, -0.05917850136756897, -0.43634921312332153, -0.2182396650314331, 7.733724594116211, 0.7368505001068115, 6.018538475036621, -1.6139403581619263, 0.3566270172595978, 0.2961006164550781, -0.9013671875, 0.058837890625, -0.2080078125, 
158, 3710636126, 0.8709056973457336, -0.05931955575942993, -0.4363250136375427, -0.21829158067703247, 7.711744785308838, 0.7452787756919861, 6.108338356018066, -2.265617609024048, -0.6538418531417847, 0.42150789499282837, -0.9033203125, 0.058837890625, -0.20849609375, 
159, 3710644459, 0.8709082007408142, -0.05947132408618927, -0.4362778663635254, -0.21833479404449463, 7.770286560058594, 0.756828248500824, 6.117037296295166, -2.4521148204803467, -0.2892743945121765, 0.5111064910888672, -0.90283203125, 0.059326171875, -0.20751953125, 
160, 3710652792, 0.8709489703178406, -0.05949684977531433, -0.4361814260482788, -0.21835774183273315, 7.738002777099609, 0.7408056259155273, 6.050418376922607, -0.8837807178497314, 0.840966522693634, 0.28710994124412537, -0.90283203125, 0.058837890625, -0.2099609375, 
161, 3710661125, 0.8710050582885742, -0.05938355624675751, -0.4361114501953125, -0.2183046042919159, 7.722230911254883, 0.7467285394668579, 5.882447242736816, 1.2698256969451904, 1.021572470664978, 0.24909842014312744, -0.9033203125, 0.059326171875, -0.20947265625, 
162, 3710669458, 0.8709940910339355, -0.05931179225444794, -0.43614885210990906, -0.21829348802566528, 7.745828151702881, 0.7782078385353088, 5.9340128898620605, 0.8455002903938293, -0.8076040148735046, -0.15203328430652618, -0.90234375, 0.058349609375, -0.208984375, 
163, 3710677791, 0.8708372712135315, -0.05947692692279816, -0.4364018142223358, -0.21836808323860168, 7.738021373748779, 0.7153493762016296, 6.148342132568359, -2.008283853530884, -4.85107946395874, -0.4932020902633667, -0.90283203125, 0.059814453125, -0.2099609375, 
164, 3710686124, 0.870764970779419, -0.059614211320877075, -0.436475932598114, -0.21847116947174072, 7.869041442871094, 0.693097710609436, 6.030172348022461, -2.2835347652435303, -2.1506993770599365, -0.4797033369541168, -0.9013671875, 0.058349609375, -0.208984375, 
165, 3710694457, 0.8708918690681458, -0.059608206152915955, -0.43619170784950256, -0.21853408217430115, 7.93718957901001, 0.7555614709854126, 5.907054901123047, -1.2886265516281128, 3.78751277923584, -0.10099692642688751, -0.903076171875, 0.057373046875, -0.2060546875, 
166, 3710702790, 0.8710453510284424, -0.059652045369148254, -0.43585121631622314, -0.21859022974967957, 7.802485942840576, 0.8619059324264526, 5.899878025054932, -1.9426859617233276, 4.41068172454834, 0.5388339161872864, -0.90087890625, 0.059326171875, -0.2099609375, 
167, 3710711123, 0.8711280822753906, -0.05976969003677368, -0.43561914563179016, -0.218690425157547, 7.688475131988525, 0.7973629236221313, 5.953665733337402, -2.8792831897735596, 2.5556087493896484, 0.013780457898974419, -0.90087890625, 0.059814453125, -0.20849609375, 
168, 3710719456, 0.8711583614349365, -0.05992057919502258, -0.4354880452156067, -0.21879062056541443, 7.679087162017822, 0.7145857810974121, 6.033411979675293, -2.9598913192749023, 0.8783120512962341, 0.11185736954212189, -0.90234375, 0.059326171875, -0.208984375, 
169, 3710727789, 0.8712018728256226, -0.060005635023117065, -0.43537402153015137, -0.21882092952728271, 7.756345748901367, 0.7280935049057007, 5.975457191467285, -1.6919866800308228, 0.8951406478881836, 0.5796757340431213, -0.90283203125, 0.05859375, -0.21337890625, 
170, 3710736122, 0.8712340593338013, -0.059996455907821655, -0.43533334136009216, -0.21877560019493103, 7.647619247436523, 0.784008800983429, 5.91472864151001, 0.04989653080701828, 0.2222803384065628, 0.6903804540634155, -0.90234375, 0.059814453125, -0.21142578125, 
171, 3710744455, 0.87117600440979, -0.05998826026916504, -0.4354662299156189, -0.21874505281448364, 7.5960164070129395, 0.7631739377975464, 5.900520324707031, 0.3642856478691101, -2.391524076461792, 0.07843078672885895, -0.89990234375, 0.060302734375, -0.21044921875, 
172, 3710752788, 0.8710412383079529, -0.060018107295036316, -0.43572998046875, -0.21874794363975525, 7.738164901733398, 0.7345757484436035, 5.903801918029785, 0.12356307357549667, -4.55476188659668, -0.2702174186706543, -0.9033203125, 0.059814453125, -0.2138671875, 
173, 3710761121, 0.870924174785614, -0.05999059975147247, -0.43598225712776184, -0.21871891617774963, 7.835165977478027, 0.7231006622314453, 5.984965801239014, 0.9116875529289246, -4.114171504974365, -0.32131779193878174, -0.901611328125, 0.057861328125, -0.21044921875, 
174, 3710769454, 0.8708764314651489, -0.059932172298431396, -0.43609315156936646, -0.21870440244674683, 7.864391803741455, 0.755107045173645, 6.057527542114258, 0.8973307609558105, -1.9520866870880127, -0.20140475034713745, -0.90283203125, 0.059326171875, -0.20703125, 
175, 3710777787, 0.8709185719490051, -0.05989505350589752, -0.4360208511352539, -0.21869072318077087, 7.855187892913818, 0.7919126749038696, 6.018831253051758, 0.12844257056713104, 0.7736139297485352, 0.21519798040390015, -0.90380859375, 0.057861328125, -0.2099609375, 
176, 3710786120, 0.8709949851036072, -0.059867873787879944, -0.43586641550064087, -0.21870166063308716, 7.828015327453613, 0.8011115193367004, 6.024232387542725, -0.32518547773361206, 1.8974511623382568, 0.2719975709915161, -0.90380859375, 0.059814453125, -0.21142578125, 
177, 3710794453, 0.8710513114929199, -0.05985838174819946, -0.4357566237449646, -0.2186986804008484, 7.7749247550964355, 0.7737086415290833, 5.960906982421875, -0.3744417130947113, 1.2319679260253906, 0.3201267421245575, -0.90185546875, 0.059326171875, -0.21044921875, 
178, 3710802786, 0.8710704445838928, -0.05982507765293121, -0.4357268810272217, -0.21869072318077087, 7.751707553863525, 0.769023597240448, 5.9463372230529785, 0.18821339309215546, 0.06500893086194992, 0.1857544183731079, -0.904296875, 0.059326171875, -0.20947265625, 
179, 3710811119, 0.8710852861404419, -0.05978545546531677, -0.4357058107852936, -0.21868419647216797, 7.738095760345459, 0.7655543684959412, 5.969010829925537, 0.2107539176940918, 0.005225303117185831, -0.037383973598480225, -0.9013671875, 0.059326171875, -0.21240234375, 
180, 3710819452, 0.8711169958114624, -0.059735044836997986, -0.4356408715248108, -0.21870097517967224, 7.748961925506592, 0.7802106142044067, 5.972503185272217, 0.15161064267158508, 0.6317494511604309, -0.1440928727388382, -0.89990234375, 0.060302734375, -0.21044921875, 
181, 3710827785, 0.8711683750152588, -0.05967263877391815, -0.4355456829071045, -0.21870309114456177, 7.748023986816406, 0.7678290605545044, 5.991965293884277, 0.2194499522447586, 1.1853113174438477, -0.12261534482240677, -0.90283203125, 0.058349609375, -0.2099609375, 
182, 3710836118, 0.871204137802124, -0.05962014198303223, -0.4354819655418396, -0.21870195865631104, 7.74718713760376, 0.7633799910545349, 5.932188987731934, 0.28959453105926514, 0.6332607269287109, 0.06754474341869354, -0.90234375, 0.060791015625, -0.2109375, 
183, 3710844451, 0.8712195754051208, -0.059605613350868225, -0.4354597330093384, -0.2186887562274933, 7.747824668884277, 0.7619066834449768, 5.93124532699585, -0.06996528059244156, -0.05938659980893135, 0.1830393224954605, -0.90185546875, 0.058349609375, -0.21240234375, 
184, 3710852784, 0.8712153434753418, -0.05963002145290375, -0.43545544147491455, -0.21870729327201843, 7.763946056365967, 0.76215660572052, 5.931859970092773, -0.6030487418174744, -0.5328401327133179, 0.12271779775619507, -0.9013671875, 0.058349609375, -0.21337890625, 
185, 3710861117, 0.8712182641029358, -0.05966746807098389, -0.43544042110443115, -0.218715637922287, 7.7681660652160645, 0.7611984014511108, 5.946723461151123, -0.7805554270744324, -0.3575875461101532, 0.21503150463104248, -0.903076171875, 0.057861328125, -0.20947265625, 
186, 3710869450, 0.8712378740310669, -0.059680670499801636, -0.4353993833065033, -0.2187156081199646, 7.784395694732666, 0.7461415529251099, 5.961836338043213, -0.44856926798820496, 0.06872299313545227, 0.3804738223552704, -0.901123046875, 0.057861328125, -0.211181640625, 
187, 3710877783, 0.8712759017944336, -0.059665560722351074, -0.43533968925476074, -0.21868693828582764, 7.788201332092285, 0.7217504382133484, 5.963818550109863, -0.03250446543097496, 0.5160884261131287, 0.48594042658805847, -0.90087890625, 0.059814453125, -0.2109375, 
188, 3710886116, 0.8713012933731079, -0.05965632200241089, -0.4352989196777344, -0.2186698019504547, 7.762100696563721, 0.7403478622436523, 5.984333038330078, -0.07347442954778671, 0.15253275632858276, 0.46909910440444946, -0.89990234375, 0.059814453125, -0.212646484375, 
189, 3710894449, 0.8713053464889526, -0.05966901779174805, -0.43529078364372253, -0.21866583824157715, 7.762644290924072, 0.7570354342460632, 5.986021041870117, -0.374749094247818, -0.36598899960517883, 0.2223827838897705, -0.9013671875, 0.058349609375, -0.21142578125, 
190, 3710902782, 0.8713036179542542, -0.05967631936073303, -0.43528684973716736, -0.21867886185646057, 7.767008304595947, 0.7728858590126038, 6.006994247436523, -0.36224931478500366, -0.4755154252052307, 0.09385055303573608, -0.90380859375, 0.058837890625, -0.21240234375, 
191, 3710911115, 0.8713089227676392, -0.05968119204044342, -0.4352712333202362, -0.21868747472763062, 7.771442413330078, 0.7750820517539978, 6.0480217933654785, -0.37720802426338196, -0.23617607355117798, 0.03565501421689987, -0.90185546875, 0.058837890625, -0.2138671875, 
192, 3710919448, 0.8713166117668152, -0.059702068567276, -0.43524104356765747, -0.2187110185623169, 7.76761531829834, 0.7737587690353394, 6.000441074371338, -0.6592463254928589, -0.1372794806957245, 0.09874287247657776, -0.902587890625, 0.057373046875, -0.2099609375, 
193, 3710927781, 0.8713356852531433, -0.05973106622695923, -0.43519067764282227, -0.21872761845588684, 7.802328109741211, 0.7551468014717102, 5.966958045959473, -0.8197194933891296, 0.1963074803352356, 0.14474603533744812, -0.90087890625, 0.061279296875, -0.212890625, 
194, 3710936114, 0.8713715076446533, -0.059722691774368286, -0.43512362241744995, -0.21872040629386902, 7.822120189666748, 0.7426438927650452, 5.919070720672607, -0.21184252202510834, 0.5360547304153442, 0.40862390398979187, -0.90087890625, 0.060302734375, -0.20947265625, 
195, 3710944447, 0.8714138865470886, -0.05965085327625275, -0.43508660793304443, -0.2186446487903595, 7.78217887878418, 0.7658262848854065, 6.01167106628418, 1.0212138891220093, 0.40598562359809875, 0.7217322587966919, -0.90087890625, 0.059814453125, -0.21142578125, 
196, 3710952780, 0.8714377880096436, -0.05962619185447693, -0.43505895137786865, -0.21861129999160767, 7.723911762237549, 0.7546177506446838, 6.107748031616211, 0.24797141551971436, 0.018749620765447617, 0.5557008385658264, -0.900390625, 0.059326171875, -0.21142578125, 
197, 3710961113, 0.8714942932128906, -0.059565141797065735, -0.4349721074104309, -0.21857494115829468, 7.757980823516846, 0.7182741761207581, 6.0364556312561035, 0.5082632303237915, 1.0865558385849, 0.39092445373535156, -0.90234375, 0.058837890625, -0.208984375, 
198, 3710969446, 0.8715989589691162, -0.05946628749370575, -0.4347846806049347, -0.21855813264846802, 7.766516208648682, 0.7004855275154114, 5.892853736877441, 0.6251922249794006, 2.653839588165283, 0.28749415278434753, -0.902099609375, 0.057861328125, -0.212890625, 
199, 3710977779, 0.8716374635696411, -0.05943518877029419, -0.434713214635849, -0.2185552716255188, 7.6747002601623535, 0.7570640444755554, 5.919120788574219, -0.02494826354086399, 0.7291988134384155, 0.09785918146371841, -0.9033203125, 0.060302734375, -0.21142578125, 
200, 3710986112, 0.8715444803237915, -0.05951133370399475, -0.4348781704902649, -0.21857723593711853, 7.697813034057617, 0.7179605960845947, 6.027064323425293, -0.8080138564109802, -3.2450802326202393, -0.013767652213573456, -0.9013671875, 0.058837890625, -0.2119140625, 
201, 3710994445, 0.8715119957923889, -0.0595259964466095, -0.4349418878555298, -0.21857541799545288, 7.784545421600342, 0.6909146308898926, 6.004209995269775, -0.22454719245433807, -1.4503675699234009, 0.03865187615156174, -0.89990234375, 0.060302734375, -0.21533203125, 
202, 3711002778, 0.8715542554855347, -0.05942259728908539, -0.4348888397216797, -0.21854090690612793, 7.771020412445068, 0.7060354948043823, 5.994976997375488, 1.1376817226409912, 0.6705293655395508, 0.1764308512210846, -0.899658203125, 0.056884765625, -0.212158203125, 
203, 3711011111, 0.8715810775756836, -0.05939571559429169, -0.4348563253879547, -0.21850597858428955, 7.703919410705566, 0.72796630859375, 6.0213847160339355, 0.28032219409942627, 0.16057562828063965, 0.48280274868011475, -0.8994140625, 0.059326171875, -0.212158203125, 
204, 3711019444, 0.8715596199035645, -0.05941665172576904, -0.4348999261856079, -0.21849897503852844, 7.728038787841797, 0.7508339285850525, 5.994797706604004, -0.2789902687072754, -1.2212867736816406, 0.3174884617328644, -0.89990234375, 0.060791015625, -0.2099609375, 
205, 3711027777, 0.8715288043022156, -0.05941668152809143, -0.43497234582901, -0.2184777557849884, 7.768309116363525, 0.7936866283416748, 6.0477213859558105, 0.1339368373155594, -1.569960355758667, 0.31041890382766724, -0.9013671875, 0.059326171875, -0.21142578125, 
206, 3711036110, 0.8715064525604248, -0.05941574275493622, -0.43503057956695557, -0.21845117211341858, 7.766292095184326, 0.7812620997428894, 6.0826416015625, 0.09164772927761078, -1.299807071685791, 0.27043506503105164, -0.901611328125, 0.056396484375, -0.210205078125, 
207, 3711044443, 0.8714938759803772, -0.05946378409862518, -0.4350511133670807, -0.21844759583473206, 7.8135294914245605, 0.7943017482757568, 6.07390832901001, -0.6800451874732971, -0.9104963541030884, 0.3900023400783539, -0.900390625, 0.060302734375, -0.21044921875, 
208, 3711052776, 0.871501088142395, -0.059516459703445435, -0.43501657247543335, -0.21847334504127502, 7.8141303062438965, 0.7770204544067383, 6.045897483825684, -1.0672554969787598, -0.18210439383983612, 0.26690033078193665, -0.90234375, 0.060791015625, -0.21240234375, 
209, 3711061109, 0.8715382218360901, -0.05954869091510773, -0.43493151664733887, -0.21848562359809875, 7.8007330894470215, 0.7982568740844727, 6.03393030166626, -0.9551165103912354, 0.701804518699646, 0.269180029630661, -0.90185546875, 0.059326171875, -0.21484375, 
210, 3711069442, 0.8715909719467163, -0.059555768966674805, -0.4348113536834717, -0.21851277351379395, 7.783515453338623, 0.7764623761177063, 6.023215293884277, -0.7488706111907959, 1.256096601486206, 0.1830393373966217, -0.90087890625, 0.060302734375, -0.21044921875, 
211, 3711077775, 0.871648907661438, -0.059561654925346375, -0.4346901774406433, -0.2185211479663849, 7.760449409484863, 0.7591958045959473, 6.013195514678955, -0.6495642066001892, 1.3413662910461426, 0.29674091935157776, -0.90185546875, 0.059326171875, -0.21240234375, 
212, 3711086108, 0.8717044591903687, -0.0595661997795105, -0.4345608949661255, -0.2185552716255188, 7.750570297241211, 0.741399347782135, 5.996743202209473, -0.7854734063148499, 1.3964625597000122, 0.10097131133079529, -0.90283203125, 0.058837890625, -0.21240234375, 
213, 3711094441, 0.871740460395813, -0.059598952531814575, -0.43447527289390564, -0.21857252717018127, 7.7375664710998535, 0.7225019335746765, 6.004147052764893, -0.9510948657989502, 0.7081567645072937, 0.24441103637218475, -0.899169921875, 0.057861328125, -0.213623046875, 
214, 3711102774, 0.8717608451843262, -0.0596233606338501, -0.4344238042831421, -0.21858730912208557, 7.739011287689209, 0.7047410011291504, 5.984168529510498, -0.7027906179428101, 0.17579048871994019, 0.28037339448928833, -0.902587890625, 0.057373046875, -0.2119140625, 
215, 3711111107, 0.8717641830444336, -0.059658050537109375, -0.434415727853775, -0.21858036518096924, 7.727309226989746, 0.7256701588630676, 6.009705543518066, -0.6174952387809753, -0.4412180185317993, 0.3893876075744629, -0.900390625, 0.058837890625, -0.213623046875, 
216, 3711119440, 0.8717608451843262, -0.05969624221324921, -0.4344160556793213, -0.21858268976211548, 7.721007347106934, 0.7292321920394897, 6.0266852378845215, -0.6574534773826599, -0.6373206377029419, 0.39971014857292175, -0.9013671875, 0.060791015625, -0.21435546875, 
217, 3711127773, 0.871766209602356, -0.059739843010902405, -0.43440648913383484, -0.21856829524040222, 7.7502055168151855, 0.7341464161872864, 6.032271385192871, -0.6704141497612, -0.4426523745059967, 0.5489130020141602, -0.903076171875, 0.057373046875, -0.2109375, 
218, 3711136106, 0.8717769980430603, -0.05976828932762146, -0.43438732624053955, -0.21855556964874268, 7.7288899421691895, 0.7383093237876892, 6.0087456703186035, -0.49713388085365295, -0.3023120164871216, 0.5781901478767395, -0.90234375, 0.058349609375, -0.212890625, 
219, 3711144439, 0.8717808127403259, -0.05979403853416443, -0.4343951940536499, -0.21851792931556702, 7.730077266693115, 0.7183528542518616, 6.021978378295898, -0.2696794867515564, -0.6280995011329651, 0.6989868879318237, -0.901611328125, 0.0576171875, -0.213623046875, 
220, 3711152772, 0.8717797994613647, -0.05982348322868347, -0.4344046711921692, -0.21849477291107178, 7.753688812255859, 0.7449972033500671, 6.005641460418701, -0.3716241419315338, -0.728481650352478, 0.6513956189155579, -0.8994140625, 0.059326171875, -0.213623046875, 
221, 3711161105, 0.8717678785324097, -0.05985407531261444, -0.4344307780265808, -0.21848198771476746, 7.741772174835205, 0.7413564324378967, 6.00875997543335, -0.4047689139842987, -0.9861607551574707, 0.4876181483268738, -0.899169921875, 0.057861328125, -0.212646484375, 
222, 3711169438, 0.8717625737190247, -0.059867843985557556, -0.43445703387260437, -0.21844777464866638, 7.740527629852295, 0.7446181178092957, 6.016363620758057, -0.16222776472568512, -0.8714860081672668, 0.4947645962238312, -0.9013671875, 0.059326171875, -0.212890625, 
223, 3711177771, 0.8717645406723022, -0.05985961854457855, -0.434468537569046, -0.2184189260005951, 7.765619277954102, 0.7366067171096802, 6.019539833068848, 0.07298776507377625, -0.574885904788971, 0.36296650767326355, -0.900390625, 0.058837890625, -0.211669921875, 
224, 3711186104, 0.8717726469039917, -0.05984535813331604, -0.43446603417396545, -0.21839559078216553, 7.773716926574707, 0.7360990643501282, 6.028580665588379, 0.12471572309732437, -0.39864715933799744, 0.43129250407218933, -0.900390625, 0.059326171875, -0.2119140625, 
225, 3711194437, 0.8717818260192871, -0.05984143912792206, -0.43445897102355957, -0.2183741331100464, 7.772014617919922, 0.7392248511314392, 6.0003981590271, -0.05841325968503952, -0.3153240382671356, 0.3490963876247406, -0.898681640625, 0.055908203125, -0.212646484375, 
226, 3711202770, 0.871792197227478, -0.05984850227832794, -0.43444201350212097, -0.218364417552948, 7.749181747436523, 0.7577362656593323, 5.995247840881348, -0.2522873878479004, -0.26389065384864807, 0.41233792901039124, -0.898681640625, 0.057373046875, -0.212646484375, 
227, 3711211103, 0.8717970848083496, -0.05987006425857544, -0.4344419538974762, -0.21833914518356323, 7.727809906005859, 0.7606118321418762, 6.025383472442627, -0.29306524991989136, -0.5019749402999878, 0.5542663931846619, -0.9013671875, 0.061279296875, -0.2109375, 
228, 3711219436, 0.8717985153198242, -0.059883564710617065, -0.4344520568847656, -0.21830964088439941, 7.730027198791504, 0.7479084134101868, 6.0174150466918945, -0.13817597925662994, -0.6783801317214966, 0.6388958692550659, -0.90087890625, 0.059814453125, -0.21337890625, 
229, 3711227769, 0.8717961311340332, -0.059910550713539124, -0.4344747066497803, -0.21826672554016113, 7.746163845062256, 0.7356698513031006, 6.024825572967529, -0.2300030142068863, -0.8504053354263306, 0.7263940572738647, -0.900390625, 0.059326171875, -0.2109375, 
230, 3711236102, 0.8717933893203735, -0.05993562936782837, -0.43449199199676514, -0.2182362973690033, 7.748310089111328, 0.7593029141426086, 6.014325141906738, -0.2513396739959717, -0.8260205984115601, 0.7017275094985962, -0.90234375, 0.061279296875, -0.212890625, 
231, 3711244435, 0.8717893362045288, -0.05996169149875641, -0.4345177114009857, -0.2181938886642456, 7.755019187927246, 0.7537737488746643, 6.020140171051025, -0.2361888587474823, -0.8980349898338318, 0.6881392002105713, -0.90087890625, 0.058837890625, -0.2119140625, 
232, 3711252768, 0.8717836141586304, -0.06000223755836487, -0.43453869223594666, -0.21816414594650269, 7.737730979919434, 0.7674428224563599, 5.997587203979492, -0.4337386190891266, -0.9319866895675659, 0.7748050093650818, -0.9013671875, 0.058837890625, -0.212890625, 
233, 3711261101, 0.8717851638793945, -0.06004913151264191, -0.4345439374446869, -0.218134343624115, 7.758975982666016, 0.7694456577301025, 6.0077948570251465, -0.5842479467391968, -0.6677246689796448, 0.7234485149383545, -0.90234375, 0.058837890625, -0.2119140625, 
234, 3711269434, 0.8717836141586304, -0.06008453667163849, -0.4345461130142212, -0.21812671422958374, 7.758166790008545, 0.7525292038917542, 6.023873805999756, -0.5579420328140259, -0.6498715281486511, 0.5051639676094055, -0.90234375, 0.060302734375, -0.21240234375, 
235, 3711277767, 0.8717820644378662, -0.06010013818740845, -0.4345625042915344, -0.21809566020965576, 7.742587566375732, 0.7368358373641968, 6.016163349151611, -0.17903071641921997, -0.727252185344696, 0.5262700915336609, -0.90087890625, 0.059326171875, -0.212890625, 
236, 3711286100, 0.8717767000198364, -0.06010867655277252, -0.4345793128013611, -0.21808117628097534, 7.765111923217773, 0.7416210770606995, 6.008824348449707, -0.15441539883613586, -0.7717952728271484, 0.4033985733985901, -0.900634765625, 0.056396484375, -0.212646484375, 
237, 3711294433, 0.8717762231826782, -0.06010851263999939, -0.4345952272415161, -0.21805158257484436, 7.748502254486084, 0.7374364137649536, 6.036319255828857, -0.028828822076320648, -0.6684931516647339, 0.39584240317344666, -0.8994140625, 0.060302734375, -0.213623046875, 
238, 3711302766, 0.8717715740203857, -0.06011708080768585, -0.43460530042648315, -0.21804797649383545, 7.713389873504639, 0.7268003821372986, 6.0327863693237305, -0.2392497956752777, -0.679430365562439, 0.28114181756973267, -0.8994140625, 0.061767578125, -0.21044921875, 
239, 3711311099, 0.8717698454856873, -0.060137420892715454, -0.43461108207702637, -0.21803736686706543, 7.721959114074707, 0.7133601903915405, 6.036326885223389, -0.36716723442077637, -0.5965171456336975, 0.33536720275878906, -0.89990234375, 0.060791015625, -0.212890625, 
240, 3711319432, 0.8717631697654724, -0.06015096604824066, -0.4346248209476471, -0.21803301572799683, 7.745879173278809, 0.7541670799255371, 6.016550064086914, -0.2835623621940613, -0.7505098581314087, 0.309548020362854, -0.90283203125, 0.061279296875, -0.21142578125, 
241, 3711327765, 0.871747612953186, -0.06019480526447296, -0.4346556067466736, -0.21802166104316711, 7.748523712158203, 0.7485451698303223, 6.0016350746154785, -0.6107970476150513, -1.0540002584457397, 0.40077313780784607, -0.9013671875, 0.058837890625, -0.2138671875, 
242, 3711336098, 0.8717331886291504, -0.06023886799812317, -0.4346802830696106, -0.21801826357841492, 7.764697074890137, 0.7542601227760315, 6.0230584144592285, -0.6299436688423157, -1.0177687406539917, 0.44814664125442505, -0.90380859375, 0.061279296875, -0.21142578125, 
243, 3711344431, 0.8717314004898071, -0.06028279662132263, -0.4346827268600464, -0.21800833940505981, 7.765434265136719, 0.7279592752456665, 5.987673282623291, -0.6950806379318237, -0.630430281162262, 0.4496322572231293, -0.9013671875, 0.059326171875, -0.212890625, 
244, 3711352764, 0.8717359304428101, -0.06033328175544739, -0.43466195464134216, -0.21801739931106567, 7.77264404296875, 0.7396039366722107, 5.995291233062744, -0.9005323648452759, -0.36788442730903625, 0.43152299523353577, -0.90087890625, 0.059814453125, -0.2138671875, 
245, 3711361097, 0.8717445731163025, -0.06038728356361389, -0.43464115262031555, -0.21800994873046875, 7.765548229217529, 0.7311707735061646, 5.972244739532471, -0.8925663828849792, -0.31888440251350403, 0.528472900390625, -0.90234375, 0.061279296875, -0.212890625, 
246, 3711369430, 0.8717489242553711, -0.060449838638305664, -0.4346185624599457, -0.21801993250846863, 7.772207736968994, 0.7363064885139465, 5.965793132781982, -1.0567536354064941, -0.38263824582099915, 0.4943290650844574, -0.90087890625, 0.060791015625, -0.212890625, 
247, 3711377763, 0.8717621564865112, -0.06050094962120056, -0.43458667397499084, -0.2180163860321045, 7.76477575302124, 0.7276945114135742, 5.983561992645264, -0.9085752367973328, -0.14498937129974365, 0.4889757037162781, -0.9013671875, 0.060791015625, -0.212890625, 
248, 3711386096, 0.8717739582061768, -0.060529232025146484, -0.43456003069877625, -0.21801480650901794, 7.775290489196777, 0.7293682098388672, 5.9733967781066895, -0.5834025740623474, -0.19795960187911987, 0.4546014368534088, -0.901611328125, 0.057861328125, -0.21142578125, 
249, 3711394429, 0.8717828392982483, -0.06055991351604462, -0.4345383048057556, -0.21801382303237915, 7.7865705490112305, 0.7215144038200378, 5.983853816986084, -0.6619614362716675, -0.23061776161193848, 0.30634623765945435, -0.8994140625, 0.059326171875, -0.211669921875, 
250, 3711402762, 0.8717761039733887, -0.06059625744819641, -0.4345362186431885, -0.21803465485572815, 7.752451419830322, 0.7207274436950684, 6.012608528137207, -0.7552741169929504, -0.6070701479911804, 0.15883386135101318, -0.8994140625, 0.059814453125, -0.214599609375, 
251, 3711411095, 0.8717511892318726, -0.06067866086959839, -0.4345614016056061, -0.21806129813194275, 7.718161106109619, 0.702574610710144, 6.077737331390381, -1.2951452732086182, -1.1225054264068604, 0.173715740442276, -0.90283203125, 0.060302734375, -0.212890625, 
252, 3711419428, 0.871715784072876, -0.0608130544424057, -0.43459075689315796, -0.2181071639060974, 7.749078273773193, 0.7284108996391296, 6.1329851150512695, -2.010141134262085, -1.4296456575393677, 0.33178117871284485, -0.90087890625, 0.060791015625, -0.21142578125, 
253, 3711427761, 0.8717074990272522, -0.06096005439758301, -0.43457019329071045, -0.21813958883285522, 7.763270854949951, 0.7443718910217285, 6.145309925079346, -2.244908332824707, -0.6668922901153564, 0.5633979439735413, -0.89990234375, 0.058837890625, -0.212158203125, 
254, 3711436094, 0.8717548251152039, -0.0610322505235672, -0.4344634413719177, -0.2181432843208313, 7.770407199859619, 0.7587737441062927, 6.045295238494873, -1.3520985841751099, 0.8476646542549133, 0.8286076784133911, -0.89990234375, 0.060791015625, -0.21142578125, 
255, 3711444427, 0.8718315958976746, -0.060953289270401, -0.4343632161617279, -0.21805807948112488, 7.72526741027832, 0.734018087387085, 5.869454860687256, 1.0001076459884644, 1.3759710788726807, 0.9477522373199463, -0.899169921875, 0.056396484375, -0.212646484375, 
256, 3711452760, 0.8718447685241699, -0.06090173125267029, -0.43436694145202637, -0.21801230311393738, 7.676753044128418, 0.769917905330658, 5.928833961486816, 0.7307228446006775, -0.3496471047401428, 0.48505672812461853, -0.898193359375, 0.058837890625, -0.211669921875, 
257, 3711461093, 0.8716847896575928, -0.06112635135650635, -0.434628427028656, -0.2180679440498352, 7.693159580230713, 0.6687260866165161, 6.134436130523682, -2.606017827987671, -5.169132232666016, 0.05116443336009979, -0.89990234375, 0.059814453125, -0.210205078125, 
258, 3711469426, 0.8715572953224182, -0.06133951246738434, -0.43482905626296997, -0.21811774373054504, 7.837319850921631, 0.669143557548523, 6.051372051239014, -2.5417134761810303, -4.2641682624816895, 0.33503416180610657, -0.8984375, 0.060302734375, -0.209228515625, 
259, 3711477759, 0.8716200590133667, -0.061382293701171875, -0.434688925743103, -0.21813389658927917, 7.883504867553711, 0.7540387511253357, 5.948917388916016, -1.160132884979248, 1.4392895698547363, 0.5774217844009399, -0.90087890625, 0.058837890625, -0.2109375, 
260, 3711486092, 0.8716827034950256, -0.061516180634498596, -0.43453988432884216, -0.21814334392547607, 7.786584377288818, 0.8417385220527649, 5.938086986541748, -2.2636451721191406, 1.3185182809829712, 1.09605872631073, -0.90283203125, 0.059326171875, -0.2138671875, 
261, 3711494425, 0.8717166185379028, -0.06166817247867584, -0.4344211220741272, -0.2182019054889679, 7.697995662689209, 0.7888574004173279, 5.931941509246826, -2.7136363983154297, 0.7705530524253845, 0.49724918603897095, -0.8994140625, 0.061767578125, -0.21142578125, 
262, 3711502758, 0.8717055916786194, -0.06187126040458679, -0.43436092138290405, -0.21830755472183228, 7.712825775146484, 0.64989173412323, 6.036159038543701, -3.4384679794311523, -0.3641960024833679, 0.17284487187862396, -0.90185546875, 0.059326171875, -0.21142578125, 
263, 3711511091, 0.8716809749603271, -0.062089160084724426, -0.4343540668487549, -0.2183573842048645, 7.785088062286377, 0.6127637028694153, 5.990813255310059, -3.1360533237457275, -1.1233892440795898, 0.7459121942520142, -0.89892578125, 0.060302734375, -0.213134765625, 
264, 3711519424, 0.8716797232627869, -0.06216311454772949, -0.4343591630458832, -0.21833163499832153, 7.725413799285889, 0.6999486684799194, 5.948912620544434, -0.9025431275367737, -0.8142252564430237, 0.9507362842559814, -0.90234375, 0.059814453125, -0.2138671875, 
265, 3711527757, 0.8716087341308594, -0.06221652030944824, -0.4345109164714813, -0.21829771995544434, 7.6655378341674805, 0.7020823955535889, 5.9672627449035645, -0.24470558762550354, -2.8787708282470703, 0.48026689887046814, -0.90185546875, 0.062255859375, -0.2119140625, 
266, 3711536090, 0.8714927434921265, -0.06223323941230774, -0.43475475907325745, -0.21827086806297302, 7.777290344238281, 0.6552004814147949, 5.933902263641357, 0.4106217920780182, -4.189861297607422, 0.07466550171375275, -0.89990234375, 0.06298828125, -0.20947265625, 
267, 3711544423, 0.8713971376419067, -0.06217527389526367, -0.4349871873855591, -0.21820619702339172, 7.817603588104248, 0.6720208525657654, 5.953082084655762, 1.4678109884262085, -3.6904220581054688, 0.01968453824520111, -0.89990234375, 0.060791015625, -0.2109375, 
268, 3711552756, 0.871350884437561, -0.06207975745201111, -0.4351225197315216, -0.21814873814582825, 7.8145294189453125, 0.7134929895401001, 5.99591588973999, 1.671572208404541, -2.161252498626709, 0.0717838928103447, -0.90087890625, 0.061279296875, -0.21142578125, 
269, 3711561089, 0.8713470101356506, -0.06202508509159088, -0.4351617395877838, -0.21810075640678406, 7.842341423034668, 0.7407417297363281, 5.988574981689453, 0.8233823180198669, -0.8205007314682007, 0.2777479290962219, -0.9013671875, 0.059814453125, -0.21240234375, 
270, 3711569422, 0.8713514804840088, -0.06201934814453125, -0.43516412377357483, -0.2180798351764679, 7.815088272094727, 0.7410343885421753, 5.976243495941162, 0.02031208947300911, -0.5022567510604858, 0.43464791774749756, -0.9013671875, 0.060302734375, -0.2109375, 
271, 3711577755, 0.871338427066803, -0.062028393149375916, -0.4352078437805176, -0.2180415689945221, 7.7906975746154785, 0.7360346913337708, 5.979140281677246, 0.03570624440908432, -1.1098519563674927, 0.5329041481018066, -0.9013671875, 0.062255859375, -0.20947265625, 
272, 3711586088, 0.8713182210922241, -0.062022849917411804, -0.43526890873908997, -0.21800246834754944, 7.78200101852417, 0.7132532000541687, 5.9749064445495605, 0.281730979681015, -1.3698620796203613, 0.5306757688522339, -0.90283203125, 0.058837890625, -0.2109375, 
273, 3711594421, 0.871322751045227, -0.06198868155479431, -0.43528416752815247, -0.21796345710754395, 7.776406288146973, 0.7210351824760437, 5.989003658294678, 0.5093902349472046, -0.5878594517707825, 0.47240331768989563, -0.90234375, 0.06298828125, -0.208984375, 
274, 3711602754, 0.8713513016700745, -0.061938196420669556, -0.43524646759033203, -0.2179393172264099, 7.778916835784912, 0.7170799970626831, 5.989425182342529, 0.4766808748245239, 0.30655112862586975, 0.21697817742824554, -0.90185546875, 0.059326171875, -0.2099609375, 
275, 3711611087, 0.871383547782898, -0.06187225878238678, -0.43520304560661316, -0.2179153561592102, 7.756042003631592, 0.7338316440582275, 5.961400985717773, 0.640816867351532, 0.44404837489128113, 0.13350138068199158, -0.900390625, 0.060791015625, -0.20947265625, 
276, 3711619420, 0.8713988065719604, -0.06183736026287079, -0.43518996238708496, -0.2178904116153717, 7.758381366729736, 0.7196975946426392, 5.937424659729004, 0.3563196659088135, -0.16868256032466888, 0.3543217182159424, -0.9033203125, 0.058837890625, -0.2119140625, 
277, 3711627753, 0.8713899254798889, -0.061846986413002014, -0.43522095680236816, -0.2178613841533661, 7.7566142082214355, 0.7283382415771484, 5.90872049331665, -0.06394593417644501, -0.9272736310958862, 0.4457901120185852, -0.90087890625, 0.060791015625, -0.208984375, 
278, 3711636086, 0.8713608980178833, -0.06190185248851776, -0.43526405096054077, -0.21787559986114502, 7.7488322257995605, 0.7601683735847473, 5.926430702209473, -0.8213332295417786, -1.3422755002975464, 0.24410365521907806, -0.90087890625, 0.061279296875, -0.21142578125, 
279, 3711644419, 0.8713401556015015, -0.06196233630180359, -0.4352964162826538, -0.2178770899772644, 7.804932117462158, 0.7593100666999817, 5.955063819885254, -0.8861884474754333, -1.1428686380386353, 0.32968083024024963, -0.90283203125, 0.058837890625, -0.2099609375, 
280, 3711652752, 0.8713390827178955, -0.061989814043045044, -0.4352981746196747, -0.2178698480129242, 7.801641464233398, 0.743259072303772, 5.957581520080566, -0.46468061208724976, -0.616649866104126, 0.455625981092453, -0.900390625, 0.061279296875, -0.2109375, 
281, 3711661085, 0.8713573813438416, -0.06198333203792572, -0.4352708160877228, -0.21785330772399902, 7.799409866333008, 0.7574788928031921, 5.96024227142334, -0.07457584142684937, -0.0592329166829586, 0.44543153047561646, -0.9013671875, 0.060302734375, -0.21044921875, 
282, 3711669418, 0.8713726997375488, -0.0619814395904541, -0.43524694442749023, -0.21784034371376038, 7.792850494384766, 0.736864447593689, 5.938840866088867, -0.16171546280384064, -0.07521619647741318, 0.30767813324928284, -0.90185546875, 0.061279296875, -0.2109375, 
283, 3711677751, 0.8713756203651428, -0.06200923025608063, -0.4352304935455322, -0.2178533971309662, 7.793888092041016, 0.7468284368515015, 5.96368932723999, -0.6420080065727234, -0.35825350880622864, 0.2422594279050827, -0.90234375, 0.058837890625, -0.20947265625, 
284, 3711686084, 0.8713781237602234, -0.06202979385852814, -0.43521714210510254, -0.21786415576934814, 7.81561803817749, 0.7627436518669128, 5.977844715118408, -0.5514616370201111, -0.3248269259929657, 0.11267703026533127, -0.90185546875, 0.058837890625, -0.2119140625, 
285, 3711694417, 0.871385395526886, -0.06204815208911896, -0.4351920485496521, -0.2178800106048584, 7.824087142944336, 0.7455193400382996, 5.983531951904297, -0.579201877117157, -0.14396479725837708, 0.06523945182561874, -0.90283203125, 0.059814453125, -0.21044921875, 
286, 3711702750, 0.8714215755462646, -0.06206214427947998, -0.43510347604751587, -0.21790805459022522, 7.844537258148193, 0.7130740880966187, 5.964104652404785, -0.7543520331382751, 0.7585399746894836, 0.1409551352262497, -0.90185546875, 0.059326171875, -0.2109375, 
287, 3711711083, 0.8714776039123535, -0.06205888092517853, -0.43497952818870544, -0.21793246269226074, 7.832834243774414, 0.7324509024620056, 5.955542087554932, -0.5948521494865417, 1.4092439413070679, 0.09044385701417923, -0.90234375, 0.058837890625, -0.2099609375, 
288, 3711719416, 0.8715494871139526, -0.06202022731304169, -0.43483981490135193, -0.21793502569198608, 7.824197292327881, 0.6671333312988281, 5.906810283660889, -0.09212159365415573, 1.720943808555603, 0.2824738025665283, -0.90234375, 0.061279296875, -0.2119140625, 
289, 3711727749, 0.8716175556182861, -0.06192402541637421, -0.4347546696662903, -0.21786022186279297, 7.802210330963135, 0.6563946008682251, 5.9389424324035645, 1.1936616897583008, 1.2040098905563354, 0.6914946436882019, -0.8994140625, 0.060302734375, -0.213623046875, 
290, 3711736082, 0.8716621994972229, -0.06185448169708252, -0.4347153902053833, -0.2177797555923462, 7.719176292419434, 0.6260096430778503, 6.113871097564697, 1.0515283346176147, 0.3770287036895752, 0.9257624745368958, -0.8994140625, 0.061279296875, -0.21044921875, 
291, 3711744415, 0.871766209602356, -0.06176352500915527, -0.43456488847732544, -0.21768927574157715, 7.752721786499023, 0.6216257810592651, 6.01065731048584, 1.064297080039978, 2.17362380027771, 1.0766942501068115, -0.9013671875, 0.058837890625, -0.2099609375, 
292, 3711752748, 0.8719235062599182, -0.06161065399646759, -0.4343208074569702, -0.2175896167755127, 7.71726131439209, 0.6223914623260498, 5.865437984466553, 1.6474565267562866, 3.739089250564575, 1.1677017211914062, -0.89990234375, 0.061279296875, -0.21240234375, 
293, 3711761081, 0.8720171451568604, -0.06151437759399414, -0.43419480323791504, -0.21749308705329895, 7.566875457763672, 0.6172521710395813, 5.911188125610352, 1.2414963245391846, 1.8302139043807983, 1.073133945465088, -0.89990234375, 0.061279296875, -0.21435546875, 
294, 3711769414, 0.8719555139541626, -0.06151123344898224, -0.434381902217865, -0.21736714243888855, 7.564018249511719, 0.5849007964134216, 6.046853542327881, 1.1135404109954834, -3.2082083225250244, 1.357259750366211, -0.900390625, 0.060791015625, -0.21435546875, 
295, 3711777747, 0.8719244599342346, -0.061492353677749634, -0.4345402717590332, -0.21718057990074158, 7.660090446472168, 0.5831965208053589, 6.040173530578613, 1.5435905456542969, -2.638227701187134, 1.961922287940979, -0.899169921875, 0.057861328125, -0.211181640625, 
296, 3711786080, 0.8719866871833801, -0.061344146728515625, -0.4345705509185791, -0.21691209077835083, 7.649880886077881, 0.6266511082649231, 5.987802028656006, 3.3413257598876953, -0.27708199620246887, 2.704786539077759, -0.89892578125, 0.060791015625, -0.213134765625, 
297, 3711794413, 0.8720322251319885, -0.061280757188797, -0.4346359968185425, -0.21661558747291565, 7.585143089294434, 0.7175887823104858, 5.992213726043701, 2.5433144569396973, -1.022584319114685, 3.3379194736480713, -0.900390625, 0.062255859375, -0.21044921875, 
298, 3711802746, 0.8719987869262695, -0.06132866442203522, -0.43483424186706543, -0.21633881330490112, 7.6482954025268555, 0.773952841758728, 5.927753925323486, 1.4582439661026, -3.4543228149414062, 3.550055980682373, -0.90087890625, 0.062744140625, -0.2109375, 
299, 3711811079, 0.8718993663787842, -0.06139490008354187, -0.4351736903190613, -0.21603840589523315, 7.746517181396484, 0.8121331930160522, 6.000496864318848, 1.7189970016479492, -5.564961910247803, 3.5072038173675537, -0.89990234375, 0.062744140625, -0.2109375, 
300, 3711819412, 0.8717912435531616, -0.06146740913391113, -0.4355204403400421, -0.21575471758842468, 7.801626205444336, 0.8549836277961731, 6.083220958709717, 1.5835487842559814, -5.7600908279418945, 3.430540084838867, -0.90087890625, 0.06396484375, -0.208984375, 
301, 3711827745, 0.8717285394668579, -0.06154721975326538, -0.43576475977897644, -0.21549129486083984, 7.880910873413086, 0.939344048500061, 6.108855724334717, 1.0847373008728027, -4.212555408477783, 3.3368945121765137, -0.90283203125, 0.062744140625, -0.21240234375, 
302, 3711836078, 0.8717365860939026, -0.061611682176589966, -0.4358386993408203, -0.21529114246368408, 7.929316997528076, 0.9862759709358215, 6.098607540130615, 0.4688173532485962, -1.6990306377410889, 2.954576253890991, -0.9013671875, 0.064453125, -0.2109375, 
303, 3711844411, 0.8718116879463196, -0.061656609177589417, -0.435763418674469, -0.21512636542320251, 7.9035444259643555, 1.0071027278900146, 6.061791896820068, 0.056735534220933914, 0.6271645426750183, 2.6058642864227295, -0.8994140625, 0.0615234375, -0.20947265625, 
304, 3711852744, 0.8719291687011719, -0.06165473163127899, -0.4355970621109009, -0.21498802304267883, 7.942321300506592, 0.9865065813064575, 6.028817176818848, 0.2745077311992645, 2.0866634845733643, 2.345931053161621, -0.89990234375, 0.06494140625, -0.208984375, 
305, 3711861077, 0.8720881342887878, -0.06163881719112396, -0.435337096452713, -0.21487489342689514, 7.947420597076416, 0.9101818203926086, 5.9827189445495605, 0.03083953820168972, 3.57080340385437, 2.051879405975342, -0.90087890625, 0.06591796875, -0.20947265625, 
306, 3711869410, 0.872287392616272, -0.06162014603614807, -0.43497514724731445, -0.21480420231819153, 7.914041996002197, 0.8393323421478271, 5.958245277404785, -0.4372349679470062, 5.027318477630615, 1.8406517505645752, -0.900390625, 0.062744140625, -0.2109375, 
307, 3711877743, 0.8724914789199829, -0.06164950132369995, -0.4345748722553253, -0.21477651596069336, 7.884899139404297, 0.7824634909629822, 5.928190231323242, -1.4005736112594604, 5.464515209197998, 1.5479451417922974, -0.89892578125, 0.06591796875, -0.20654296875, 
308, 3711886076, 0.8726885318756104, -0.06168559193611145, -0.43416956067085266, -0.21478542685508728, 7.857751369476318, 0.7226759195327759, 5.873980522155762, -1.6994916200637817, 5.44066858291626, 1.2447749376296997, -0.89990234375, 0.062255859375, -0.21240234375, 
309, 3711894409, 0.87287837266922, -0.06173531711101532, -0.43378007411956787, -0.2147863209247589, 7.834126949310303, 0.6691742539405823, 5.8526201248168945, -1.7324572801589966, 5.219976902008057, 1.325357437133789, -0.8984375, 0.06494140625, -0.21337890625, 
310, 3711902742, 0.8730706572532654, -0.061827465891838074, -0.43337470293045044, -0.21479731798171997, 7.821005344390869, 0.6217957139015198, 5.84965705871582, -2.3904869556427, 5.246870994567871, 1.5388264656066895, -0.8984375, 0.0654296875, -0.21240234375, 
311, 3711911075, 0.8732700347900391, -0.061966389417648315, -0.43295222520828247, -0.2147984802722931, 7.808426380157471, 0.5952479243278503, 5.852342128753662, -2.9420125484466553, 5.4063191413879395, 1.8757046461105347, -0.89794921875, 0.0654296875, -0.21435546875, 
312, 3711919408, 0.8734662532806396, -0.062138378620147705, -0.4325307011604309, -0.21480000019073486, 7.796111106872559, 0.6063799262046814, 5.90056037902832, -3.335447072982788, 5.222896099090576, 2.1526458263397217, -0.898681640625, 0.0673828125, -0.21533203125, 
313, 3711927741, 0.873635470867157, -0.062335819005966187, -0.43217068910598755, -0.21477961540222168, 7.752696514129639, 0.6154826879501343, 5.921209335327148, -3.3528904914855957, 4.229345321655273, 2.434197425842285, -0.89892578125, 0.06640625, -0.21533203125, 
314, 3711936074, 0.8737670183181763, -0.06254206597805023, -0.43188947439193726, -0.21475011110305786, 7.75651741027832, 0.5986735820770264, 5.988855838775635, -3.2429800033569336, 3.078267812728882, 2.2966747283935547, -0.89794921875, 0.066162109375, -0.216796875, 
315, 3711944407, 0.8738856315612793, -0.06270843744277954, -0.43164294958114624, -0.21471458673477173, 7.750199317932129, 0.5434637665748596, 6.05657434463501, -2.591789484024048, 2.700739622116089, 2.0987024307250977, -0.898681640625, 0.0703125, -0.21875, 
316, 3711952740, 0.8740334510803223, -0.06283052265644073, -0.4313453435897827, -0.21467530727386475, 7.793201446533203, 0.4766330122947693, 6.103764057159424, -2.1681299209594727, 3.558176279067993, 2.098318338394165, -0.89794921875, 0.06689453125, -0.21630859375, 
317, 3711961073, 0.8742155432701111, -0.06288929283618927, -0.43100473284721375, -0.21460023522377014, 7.787503719329834, 0.453828901052475, 6.130029201507568, -1.3402262926101685, 4.487819194793701, 2.1608169078826904, -0.897705078125, 0.06982421875, -0.21826171875, 
318, 3711969406, 0.8744019269943237, -0.06292523443698883, -0.430658757686615, -0.214525043964386, 7.746523857116699, 0.49270546436309814, 6.09531307220459, -1.0292184352874756, 4.5920939445495605, 2.1769537925720215, -0.89794921875, 0.067138671875, -0.2177734375, 
319, 3711977739, 0.8745822906494141, -0.06296512484550476, -0.4303370416164398, -0.21442312002182007, 7.7269392013549805, 0.5034374594688416, 6.089135646820068, -0.839032769203186, 4.2864909172058105, 2.3957252502441406, -0.89453125, 0.0673828125, -0.220947265625, 
320, 3711986072, 0.8747313618659973, -0.06300331652164459, -0.43009153008461, -0.2142968475818634, 7.689483642578125, 0.5227817893028259, 6.073211669921875, -0.4904997944831848, 3.111873149871826, 2.6066579818725586, -0.893310546875, 0.068359375, -0.222412109375, 
321, 3711994405, 0.8748407363891602, -0.06307321786880493, -0.4299304485321045, -0.21415314078330994, 7.659090042114258, 0.5573639869689941, 6.0710530281066895, -0.5684439539909363, 1.8075453042984009, 2.7039668560028076, -0.892822265625, 0.0693359375, -0.220458984375, 
322, 3712002738, 0.8749180436134338, -0.06314566731452942, -0.42983579635620117, -0.21400609612464905, 7.6615824699401855, 0.5969964265823364, 6.076837539672852, -0.39708462357521057, 0.7546721696853638, 2.7160563468933105, -0.892333984375, 0.068359375, -0.219482421875, 
323, 3712011071, 0.8749563097953796, -0.06321007013320923, -0.4298253655433655, -0.21385133266448975, 7.675822734832764, 0.6472442746162415, 6.13339900970459, -0.045350003987550735, -0.41844695806503296, 2.4739253520965576, -0.893310546875, 0.06884765625, -0.221923828125, 
324, 3712019404, 0.8749660849571228, -0.06326331198215485, -0.4298672676086426, -0.213711678981781, 7.711359024047852, 0.7034196853637695, 6.146522521972656, 0.1320669949054718, -1.2245781421661377, 2.1953701972961426, -0.890869140625, 0.07080078125, -0.219970703125, 
325, 3712027737, 0.8749748468399048, -0.06327003240585327, -0.4299241304397583, -0.21355947852134705, 7.754035472869873, 0.6740752458572388, 6.107178688049316, 0.7896100878715515, -1.2318782806396484, 1.9439924955368042, -0.890869140625, 0.0703125, -0.222412109375, 
326, 3712036070, 0.8750364780426025, -0.06322026252746582, -0.4298867881298065, -0.2133963406085968, 7.820197582244873, 0.6791046857833862, 6.1108856201171875, 1.3232313394546509, 0.3176933526992798, 2.0903778076171875, -0.893310546875, 0.06884765625, -0.219970703125, 
327, 3712044403, 0.8751318454742432, -0.06313692033290863, -0.42979735136032104, -0.21321019530296326, 7.751537799835205, 0.6970123648643494, 6.075753211975098, 1.7162307500839233, 1.2748461961746216, 2.196805000305176, -0.892822265625, 0.0703125, -0.22021484375, 
328, 3712052736, 0.8752427101135254, -0.06305205821990967, -0.4296715259552002, -0.21303412318229675, 7.664205551147461, 0.6755237579345703, 6.064530849456787, 1.6040912866592407, 1.7646667957305908, 2.2612500190734863, -0.893798828125, 0.07177734375, -0.22216796875, 
329, 3712061069, 0.8753606081008911, -0.06294591724872589, -0.4295490086078644, -0.2128278613090515, 7.627382278442383, 0.6467192769050598, 6.038856029510498, 2.0422229766845703, 1.8566477298736572, 2.4115548133850098, -0.893310546875, 0.07080078125, -0.22021484375, 
330, 3712069402, 0.8754502534866333, -0.0628405213356018, -0.42948171496391296, -0.21262606978416443, 7.603838920593262, 0.6567858457565308, 6.023938179016113, 2.157256603240967, 0.9720346331596375, 2.3348913192749023, -0.893310546875, 0.072265625, -0.22314453125, 
331, 3712077735, 0.8754801750183105, -0.06276705861091614, -0.4295259416103363, -0.21243488788604736, 7.5546979904174805, 0.7101278901100159, 6.041910171508789, 1.9468995332717896, -0.7543392181396484, 1.998128056526184, -0.892822265625, 0.06982421875, -0.222412109375, 
332, 3712086068, 0.8754475116729736, -0.0627334862947464, -0.4296708405017853, -0.2122865617275238, 7.556675910949707, 0.7319172024726868, 6.0480122566223145, 1.4919906854629517, -2.4678802490234375, 1.5764154195785522, -0.891357421875, 0.07177734375, -0.220458984375, 
333, 3712094401, 0.8753967881202698, -0.06274887919425964, -0.42983800172805786, -0.21215221285820007, 7.631799221038818, 0.7517869472503662, 6.068568229675293, 0.83501136302948, -2.9210474491119385, 1.5022878646850586, -0.892822265625, 0.07275390625, -0.21923828125, 
334, 3712102734, 0.8753830790519714, -0.0627749115228653, -0.4299243092536926, -0.21202656626701355, 7.686072826385498, 0.756750226020813, 6.071399211883545, 0.4849415123462677, -1.8061366081237793, 1.7598645687103271, -0.893310546875, 0.0712890625, -0.220703125, 
335, 3712111067, 0.8754349946975708, -0.06281240284442902, -0.4298751950263977, -0.21190065145492554, 7.746654510498047, 0.7461993098258972, 6.0481038093566895, -0.04149506241083145, 0.2294907569885254, 2.004967212677002, -0.892333984375, 0.074951171875, -0.220703125, 
336, 3712119400, 0.8755112886428833, -0.06289669871330261, -0.4297606945037842, -0.2117929756641388, 7.717360019683838, 0.7378633618354797, 6.094464302062988, -0.8300036787986755, 0.9894395470619202, 2.3246583938598633, -0.891845703125, 0.072265625, -0.22119140625, 
337, 3712127733, 0.8755948543548584, -0.06301338970661163, -0.42962682247161865, -0.21168369054794312, 7.711029529571533, 0.6987665295600891, 6.115267276763916, -1.3047508001327515, 1.2220808267593384, 2.443777561187744, -0.892333984375, 0.07275390625, -0.22216796875, 
338, 3712136066, 0.87568598985672, -0.06310407817363739, -0.42947715520858765, -0.2115839719772339, 7.763587474822998, 0.6722146272659302, 6.115708827972412, -1.0434855222702026, 1.4883919954299927, 2.340782403945923, -0.890380859375, 0.074462890625, -0.220703125, 
339, 3712144399, 0.8757491707801819, -0.06319820880889893, -0.4293699562549591, -0.21151146292686462, 7.737847328186035, 0.6510630249977112, 6.130453586578369, -1.1710699796676636, 0.8786963224411011, 1.803165316581726, -0.892822265625, 0.07373046875, -0.220703125, 
340, 3712152732, 0.8757896423339844, -0.06327478587627411, -0.4292968809604645, -0.21146908402442932, 7.699122905731201, 0.6012206077575684, 6.1620402336120605, -1.0322153568267822, 0.3604435324668884, 1.3533282279968262, -0.892822265625, 0.075927734375, -0.2216796875, 
341, 3712161065, 0.8758384585380554, -0.06332646310329437, -0.4292108118534088, -0.2114260196685791, 7.708547115325928, 0.5817335844039917, 6.1944193840026855, -0.8023018836975098, 0.6865126490592957, 1.1209300756454468, -0.892333984375, 0.076171875, -0.22265625, 
342, 3712169398, 0.8759122490882874, -0.0633305013179779, -0.429081529378891, -0.211381733417511, 7.685488224029541, 0.5752545595169067, 6.24045467376709, -0.282665878534317, 1.4410568475723267, 1.0941376686096191, -0.893310546875, 0.07421875, -0.22119140625, 
343, 3712177731, 0.876009464263916, -0.0632980614900589, -0.42892077565193176, -0.21131524443626404, 7.657508373260498, 0.5663560032844543, 6.252003192901611, 0.1859593540430069, 2.097421884536743, 1.123594045639038, -0.892822265625, 0.07568359375, -0.2236328125, 
344, 3712186064, 0.8761205077171326, -0.06324581801891327, -0.4287339150905609, -0.21124956011772156, 7.642407417297363, 0.5734959244728088, 6.173011779785156, 0.3854174017906189, 2.4991297721862793, 1.175257921218872, -0.893798828125, 0.07373046875, -0.2236328125, 
345, 3712194397, 0.8762258291244507, -0.06323015689849854, -0.428555428981781, -0.21117958426475525, 7.64024543762207, 0.5632701516151428, 6.168521881103516, -0.004597754683345556, 2.307765483856201, 1.32955801486969, -0.89111328125, 0.076904296875, -0.2236328125, 
346, 3712202730, 0.8763177990913391, -0.06325152516365051, -0.42839688062667847, -0.2111130952835083, 7.619195461273193, 0.5513255596160889, 6.139208793640137, -0.4294995367527008, 1.8326858282089233, 1.5414263010025024, -0.892333984375, 0.07421875, -0.2236328125, 
347, 3712211063, 0.8763978481292725, -0.0632956475019455, -0.4282752275466919, -0.21101433038711548, 7.633771896362305, 0.56328284740448, 6.1148681640625, -0.4196380078792572, 1.2764084339141846, 1.9029840230941772, -0.892822265625, 0.076171875, -0.224609375, 
348, 3712219396, 0.8764463067054749, -0.06335872411727905, -0.4282144010066986, -0.21091791987419128, 7.601151466369629, 0.5554884672164917, 6.110701560974121, -0.510735034942627, 0.2509170472621918, 1.9344124794006348, -0.892578125, 0.076904296875, -0.22216796875, 
349, 3712227729, 0.8764654994010925, -0.06344765424728394, -0.4282139241695404, -0.21081238985061646, 7.584113597869873, 0.5471885800361633, 6.155701160430908, -0.6183533072471619, -0.733130693435669, 2.0605499744415283, -0.89306640625, 0.076171875, -0.22509765625, 
350, 3712236062, 0.8764644265174866, -0.06354005634784698, -0.428260862827301, -0.21069392561912537, 7.593382358551025, 0.5570845603942871, 6.145701885223389, -0.5521532893180847, -1.3983194828033447, 1.9737306833267212, -0.892578125, 0.076904296875, -0.22216796875, 
351, 3712244395, 0.8764422535896301, -0.06363491714000702, -0.42835158109664917, -0.21057277917861938, 7.61149787902832, 0.5728618502616882, 6.192724704742432, -0.4366586208343506, -2.0569379329681396, 1.9383825063705444, -0.89208984375, 0.07666015625, -0.22509765625, 
352, 3712252728, 0.8764017820358276, -0.06372317671775818, -0.42846620082855225, -0.2104814350605011, 7.642393589019775, 0.5983507037162781, 6.2435784339904785, -0.41331127285957336, -2.4569175243377686, 1.610661506652832, -0.892578125, 0.077880859375, -0.22314453125, 
353, 3712261061, 0.876347541809082, -0.06382404267787933, -0.4285966157913208, -0.21041101217269897, 7.65916633605957, 0.6622574329376221, 6.249387741088867, -0.7077468633651733, -2.697486162185669, 1.2431483268737793, -0.890625, 0.077880859375, -0.22509765625, 
354, 3712269394, 0.8762738704681396, -0.06393104791641235, -0.4287402033805847, -0.21039295196533203, 7.69518518447876, 0.6919482350349426, 6.229456424713135, -1.0160654783248901, -2.990717887878418, 0.7183895707130432, -0.8935546875, 0.07861328125, -0.22412109375, 
355, 3712277727, 0.8761880993843079, -0.06406676769256592, -0.4288825988769531, -0.21041855216026306, 7.707715034484863, 0.7439731955528259, 6.238282680511475, -1.6823556423187256, -3.04546856880188, 0.19407905638217926, -0.89208984375, 0.077880859375, -0.2216796875, 
356, 3712286060, 0.8760672211647034, -0.06427004933357239, -0.4290353059768677, -0.21054860949516296, 7.697533130645752, 0.7707217931747437, 6.251747131347656, -3.0643208026885986, -3.5270421504974365, -0.6413164734840393, -0.892822265625, 0.0751953125, -0.224609375, 
357, 3712294393, 0.8759177923202515, -0.06454065442085266, -0.4291956424713135, -0.21076089143753052, 7.708097457885742, 0.8122254014015198, 6.26224422454834, -4.336541175842285, -3.856658697128296, -1.3966162204742432, -0.892578125, 0.077392578125, -0.220703125, 
358, 3712302726, 0.875779390335083, -0.06486308574676514, -0.42929065227508545, -0.2110428512096405, 7.686525344848633, 0.8047382831573486, 6.215839385986328, -5.58017635345459, -3.1465935707092285, -1.7691876888275146, -0.892578125, 0.076904296875, -0.22216796875, 
359, 3712311059, 0.875682532787323, -0.06513914465904236, -0.42931419610977173, -0.21131211519241333, 7.7797465324401855, 0.7932067513465881, 6.076630115509033, -5.176675796508789, -1.8717219829559326, -1.8487203121185303, -0.89208984375, 0.078369140625, -0.220703125, 
360, 3712319392, 0.8756184577941895, -0.06530411541461945, -0.42929208278656006, -0.21157193183898926, 7.789862155914307, 0.7864574193954468, 5.876513957977295, -3.8258447647094727, -0.859741747379303, -2.1120986938476562, -0.89013671875, 0.077392578125, -0.2216796875, 
361, 3712327725, 0.8754762411117554, -0.06557683646678925, -0.42936021089553833, -0.21193677186965942, 7.759613990783691, 0.732077956199646, 6.025583267211914, -5.60713529586792, -2.5801475048065186, -3.1834394931793213, -0.892822265625, 0.075439453125, -0.22119140625, 
362, 3712336058, 0.8752255439758301, -0.06608088314533234, -0.42955875396728516, -0.21241331100463867, 7.886667251586914, 0.5515187978744507, 6.116270065307617, -8.713221549987793, -5.409061431884766, -3.4617388248443604, -0.89453125, 0.076416015625, -0.21923828125, 
363, 3712344391, 0.8751447200775146, -0.0664260983467102, -0.4294588565826416, -0.2128399908542633, 8.030065536499023, 0.4719579219818115, 5.9507317543029785, -7.2539143562316895, -0.34752121567726135, -3.1461331844329834, -0.894287109375, 0.07373046875, -0.21923828125, 
364, 3712352724, 0.8752380013465881, -0.06663388013839722, -0.42903009057044983, -0.21325549483299255, 7.980924606323242, 0.45344433188438416, 6.0233659744262695, -6.308312892913818, 4.981354236602783, -2.898571014404297, -0.895751953125, 0.07421875, -0.21923828125, 
365, 3712361057, 0.8753625154495239, -0.06686604022979736, -0.42855265736579895, -0.2136310636997223, 7.792496204376221, 0.4786169230937958, 5.988335609436035, -6.50359582901001, 5.693045616149902, -2.249634265899658, -0.893798828125, 0.07568359375, -0.22216796875, 
366, 3712369390, 0.8754891157150269, -0.06703157722949982, -0.42807507514953613, -0.21401777863502502, 7.6030497550964355, 0.4650149643421173, 6.028308391571045, -5.7419562339782715, 5.863943576812744, -2.6605632305145264, -0.894775390625, 0.07470703125, -0.22265625, 
367, 3712377723, 0.8755323886871338, -0.06726883351802826, -0.4277785122394562, -0.21435940265655518, 7.508579730987549, 0.4808553159236908, 6.075362205505371, -5.924829483032227, 2.9910125732421875, -2.2315125465393066, -0.891845703125, 0.07421875, -0.22265625, 
368, 3712386056, 0.8755156993865967, -0.0675266683101654, -0.4276449680328369, -0.2146131992340088, 7.510931968688965, 0.6516540050506592, 5.911910057067871, -5.18986701965332, 0.48300766944885254, -1.2554689645767212, -0.892333984375, 0.074951171875, -0.220703125, 
369, 3712394389, 0.8754056692123413, -0.06776393949985504, -0.4277476966381073, -0.2147814929485321, 7.511363506317139, 0.8210428357124329, 5.939062595367432, -3.86538028717041, -2.8785152435302734, -0.9601625204086304, -0.892333984375, 0.07568359375, -0.22314453125, 
370, 3712402722, 0.8751925826072693, -0.06811469793319702, -0.4280340373516083, -0.21496865153312683, 7.636012554168701, 0.788768470287323, 6.040229320526123, -4.8608269691467285, -6.061648368835449, -0.8787348866462708, -0.894287109375, 0.0751953125, -0.22265625, 
371, 3712411055, 0.8750100135803223, -0.06843344867229462, -0.42828169465065, -0.2151174247264862, 7.909158229827881, 0.6387245655059814, 6.049384593963623, -4.388063907623291, -5.310432434082031, -0.6085045337677002, -0.892333984375, 0.075927734375, -0.220703125, 
372, 3712419388, 0.8749781250953674, -0.06858950853347778, -0.42827242612838745, -0.21521583199501038, 8.063273429870605, 0.3747449815273285, 6.150485038757324, -2.698754072189331, -0.9461002349853516, -0.14288899302482605, -0.892333984375, 0.075439453125, -0.2197265625, 
373, 3712427721, 0.8751590847969055, -0.06856758892536163, -0.4278881549835205, -0.21525132656097412, 8.09427547454834, 0.1461365520954132, 6.192127704620361, -1.1379507780075073, 5.337289810180664, 0.42745038866996765, -0.892822265625, 0.074951171875, -0.22021484375, 
374, 3712436054, 0.8755204677581787, -0.06834247708320618, -0.42719271779060364, -0.2152349352836609, 8.059453010559082, 0.034862447530031204, 6.093439102172852, 0.9041569828987122, 10.645532608032227, 0.807924211025238, -0.893798828125, 0.07470703125, -0.22412109375, 
375, 3712444387, 0.8759402632713318, -0.06797780096530914, -0.4264453649520874, -0.21512442827224731, 7.844976425170898, -0.01517476700246334, 6.046789646148682, 3.0281150341033936, 11.993048667907715, 1.242700457572937, -0.892822265625, 0.07421875, -0.2265625, 
376, 3712452720, 0.8763064742088318, -0.06751160323619843, -0.425889790058136, -0.21488019824028015, 7.586980819702148, -0.0679599791765213, 6.019322395324707, 5.563258647918701, 9.489792823791504, 2.018683671951294, -0.892822265625, 0.07373046875, -0.22509765625, 
377, 3712461053, 0.876550555229187, -0.06701278686523438, -0.4256627559661865, -0.2144903540611267, 7.377171516418457, -0.0070561980828642845, 6.063194274902344, 7.655148029327393, 4.8295392990112305, 2.8151073455810547, -0.891845703125, 0.07373046875, -0.224609375, 
378, 3712469386, 0.8766773343086243, -0.0665314644575119, -0.4257238507270813, -0.21400010585784912, 7.2039570808410645, 0.2040783315896988, 6.136147975921631, 8.784249305725098, 0.47278761863708496, 3.6176271438598633, -0.893798828125, 0.07470703125, -0.228515625, 
379, 3712477719, 0.8767423629760742, -0.06613588333129883, -0.4259434938430786, -0.21341875195503235, 7.148345947265625, 0.45969879627227783, 6.114987373352051, 8.678027153015137, -2.0839359760284424, 4.783280372619629, -0.892822265625, 0.07568359375, -0.22705078125, 
380, 3712486052, 0.876750648021698, -0.06581646203994751, -0.42628759145736694, -0.21279525756835938, 7.170470714569092, 0.663532018661499, 6.046581268310547, 8.336563110351562, -4.230485916137695, 5.567049980163574, -0.889892578125, 0.0751953125, -0.22607421875, 
381, 3712494385, 0.8766515254974365, -0.06563852727413177, -0.42684048414230347, -0.2121487259864807, 7.352138519287109, 0.8597894906997681, 5.974600791931152, 7.286405086517334, -7.760946750640869, 6.0788984298706055, -0.89111328125, 0.0791015625, -0.22802734375, 
382, 3712502718, 0.8764156103134155, -0.06567703187465668, -0.42761391401290894, -0.21155321598052979, 7.5179924964904785, 1.1017932891845703, 5.971216678619385, 4.889886379241943, -11.858304977416992, 6.2267961502075195, -0.89111328125, 0.078125, -0.2255859375, 
383, 3712511051, 0.8760848045349121, -0.06592102348804474, -0.42851099371910095, -0.21103161573410034, 7.727388858795166, 1.2521705627441406, 6.029900074005127, 2.2468557357788086, -14.386531829833984, 6.059611797332764, -0.89208984375, 0.077392578125, -0.2236328125, 
384, 3712519384, 0.8757694959640503, -0.06621895730495453, -0.429321825504303, -0.21059879660606384, 7.913848400115967, 1.122875690460205, 6.173231601715088, 0.8442708849906921, -13.383938789367676, 5.526425361633301, -0.892578125, 0.079345703125, -0.2216796875, 
385, 3712527717, 0.8756160140037537, -0.06639410555362701, -0.4297947585582733, -0.21021732687950134, 8.085705757141113, 0.8864849805831909, 6.3176655769348145, 1.095495343208313, -7.9124555587768555, 4.798571586608887, -0.893798828125, 0.07568359375, -0.2216796875, 
386, 3712536050, 0.8756880164146423, -0.06627868115901947, -0.4298262596130371, -0.2098890244960785, 8.093774795532227, 0.6811060905456543, 6.365900993347168, 3.303621768951416, -0.42223790287971497, 3.657559394836426, -0.89501953125, 0.079833984375, -0.220703125, 
387, 3712544383, 0.8759289979934692, -0.06588767468929291, -0.4295441508293152, -0.20958399772644043, 8.014787673950195, 0.5352387428283691, 6.262272357940674, 5.678574085235596, 5.219028949737549, 2.3905768394470215, -0.89111328125, 0.078369140625, -0.2197265625, 
388, 3712552716, 0.8762370347976685, -0.06535491347312927, -0.4291180372238159, -0.20933619141578674, 7.834996700286865, 0.4572657346725464, 6.174304008483887, 6.748301029205322, 7.763060569763184, 1.3204395771026611, -0.890625, 0.079345703125, -0.22119140625, 
389, 3712561049, 0.8765169382095337, -0.06479644775390625, -0.4287284016609192, -0.20913642644882202, 7.689690113067627, 0.5197263360023499, 6.060781955718994, 6.8540754318237305, 7.273098945617676, 0.47592535614967346, -0.8916015625, 0.077392578125, -0.22216796875, 
390, 3712569382, 0.8767197728157043, -0.06429141759872437, -0.42847156524658203, -0.20896798372268677, 7.570297718048096, 0.6006683707237244, 5.982497692108154, 6.315523624420166, 5.142852783203125, -0.03405413031578064, -0.89013671875, 0.079833984375, -0.22412109375, 
391, 3712577715, 0.8768098950386047, -0.06393344700336456, -0.42839866876602173, -0.20884868502616882, 7.475695610046387, 0.680465817451477, 5.928581714630127, 4.627185821533203, 1.8762683868408203, -0.29076001048088074, -0.89111328125, 0.079833984375, -0.22314453125, 
392, 3712586048, 0.8767794370651245, -0.06379660964012146, -0.428519070148468, -0.20877164602279663, 7.4370222091674805, 0.7224912643432617, 5.922175884246826, 2.2395806312561035, -1.8060210943222046, 0.13785581290721893, -0.8916015625, 0.078369140625, -0.22216796875, 
393, 3712594381, 0.876666784286499, -0.06383025646209717, -0.4287832975387573, -0.2086917757987976, 7.525291442871094, 0.7671644687652588, 5.9071173667907715, 0.5125280618667603, -4.468531608581543, 0.7019453048706055, -0.892578125, 0.077880859375, -0.22216796875, 
394, 3712602714, 0.8764982223510742, -0.06397119164466858, -0.42915967106819153, -0.20858293771743774, 7.5668230056762695, 0.8102874755859375, 6.018607139587402, -0.3085746765136719, -6.53073263168335, 1.5385061502456665, -0.89208984375, 0.079345703125, -0.22314453125, 
395, 3712611047, 0.8762890696525574, -0.06427545845508575, -0.42957690358161926, -0.208509624004364, 7.580399513244629, 0.7982117533683777, 6.241973876953125, -2.4379501342773438, -7.652469635009766, 1.8070330619812012, -0.892578125, 0.0771484375, -0.22412109375, 
396, 3712619380, 0.8761848211288452, -0.06452842056751251, -0.4297981560230255, -0.20841339230537415, 7.783373832702637, 0.7165271043777466, 6.169198513031006, -2.120948314666748, -4.592926979064941, 2.36824107170105, -0.89404296875, 0.079345703125, -0.2197265625, 
397, 3712627713, 0.8761922121047974, -0.06465893983840942, -0.4298195242881775, -0.20829784870147705, 7.859148025512695, 0.6099965572357178, 6.102243423461914, -1.0216622352600098, -1.141075849533081, 2.2748515605926514, -0.8935546875, 0.078857421875, -0.22216796875, 
398, 3712636046, 0.8762057423591614, -0.0648098737001419, -0.429795503616333, -0.208243727684021, 7.823850154876709, 0.5642324686050415, 6.115268707275391, -1.738553524017334, -0.6120137572288513, 1.812745213508606, -0.89404296875, 0.080322265625, -0.21923828125, 
399, 3712644379, 0.8761601448059082, -0.06493774056434631, -0.4298955500125885, -0.20818907022476196, 7.831631660461426, 0.5019687414169312, 6.213432312011719, -1.167765736579895, -2.3398988246917725, 1.3061209917068481, -0.89306640625, 0.078857421875, -0.22021484375, 
400, 3712652712, 0.8761721849441528, -0.06491723656654358, -0.4298970401287079, -0.2081417441368103, 7.900737285614014, 0.48577818274497986, 6.210992336273193, 0.35783085227012634, -0.4319712221622467, 0.6913025379180908, -0.89208984375, 0.079345703125, -0.22021484375, 
401, 3712661045, 0.876343846321106, -0.064663365483284, -0.42963171005249023, -0.20804575085639954, 7.863548755645752, 0.46912911534309387, 6.167527198791504, 2.827657699584961, 4.401575565338135, 0.49607089161872864, -0.8916015625, 0.079345703125, -0.22119140625, 
402, 3712669378, 0.8765514492988586, -0.06436076760292053, -0.42929086089134216, -0.2079685926437378, 7.704866409301758, 0.46453142166137695, 6.195819854736328, 3.1276772022247314, 5.630956172943115, 0.24735666811466217, -0.89453125, 0.083251953125, -0.221923828125, 
403, 3712677711, 0.8766972422599792, -0.06413441896438599, -0.42903822660446167, -0.20794525742530823, 7.660031318664551, 0.47348856925964355, 6.145062446594238, 2.08907151222229, 4.031732082366943, -0.20590004324913025, -0.890625, 0.079833984375, -0.22216796875, 
404, 3712686044, 0.8767682313919067, -0.06394374370574951, -0.42894846200942993, -0.20789027214050293, 7.641207695007324, 0.5049832463264465, 6.118356704711914, 2.1521849632263184, 1.5390057563781738, -0.1356145739555359, -0.89208984375, 0.078369140625, -0.2216796875, 
405, 3712694377, 0.8767783641815186, -0.06377649307250977, -0.42897430062294006, -0.20784515142440796, 7.620663166046143, 0.5684804916381836, 6.110970973968506, 2.187289237976074, -0.2614957094192505, -0.31085434556007385, -0.89208984375, 0.078857421875, -0.22314453125, 
406, 3712702710, 0.8767496347427368, -0.06367845833301544, -0.429050087928772, -0.20784035325050354, 7.630531311035156, 0.5372753143310547, 6.135351657867432, 1.2170859575271606, -1.309771180152893, -0.45999324321746826, -0.89208984375, 0.079345703125, -0.22412109375, 
407, 3712711043, 0.8767361044883728, -0.06365568935871124, -0.4290754795074463, -0.2078515887260437, 7.672875881195068, 0.5397893190383911, 6.130701541900635, 0.04725826159119606, -0.7636243104934692, -0.2414269596338272, -0.892578125, 0.079345703125, -0.22216796875, 
408, 3712719376, 0.876753032207489, -0.0636272132396698, -0.4290392994880676, -0.2078639268875122, 7.709920883178711, 0.503824770450592, 6.119900703430176, -0.001754575059749186, 0.1271490603685379, -0.029546018689870834, -0.89208984375, 0.079345703125, -0.22314453125, 
409, 3712727709, 0.8768066167831421, -0.06356626749038696, -0.4289601445198059, -0.20781990885734558, 7.674800395965576, 0.5312416553497314, 6.074459075927734, 0.6314164996147156, 0.9060010313987732, 0.6033945083618164, -0.8916015625, 0.078369140625, -0.22314453125, 
410, 3712736042, 0.8768700361251831, -0.06350772082805634, -0.42888015508651733, -0.20773518085479736, 7.707716464996338, 0.5519423484802246, 6.025834083557129, 0.8027758002281189, 0.9750313758850098, 1.011480450630188, -0.89111328125, 0.079833984375, -0.22216796875, 
411, 3712744375, 0.8769185543060303, -0.06349967420101166, -0.4288177192211151, -0.2076619565486908, 7.685980319976807, 0.5818980932235718, 6.03280782699585, 0.1768406629562378, 0.5440975427627563, 1.1236451864242554, -0.890380859375, 0.075927734375, -0.22314453125, 
412, 3712752708, 0.8769413232803345, -0.06349782645702362, -0.42879971861839294, -0.20760348439216614, 7.686237812042236, 0.6160600781440735, 6.073636531829834, 0.15199486911296844, -0.1950395703315735, 0.9828437566757202, -0.89013671875, 0.078857421875, -0.22265625, 
413, 3712761041, 0.8769518733024597, -0.06346414983272552, -0.42881566286087036, -0.20753630995750427, 7.702531814575195, 0.6128126382827759, 6.100981712341309, 0.6508833765983582, -0.5454423427581787, 0.7282896041870117, -0.89501953125, 0.079345703125, -0.22314453125, 
414, 3712769374, 0.8769649863243103, -0.06335462629795074, -0.4288303256034851, -0.20748403668403625, 7.715785980224609, 0.587069571018219, 6.112462043762207, 1.4973312616348267, -0.33322837948799133, 0.21810521185398102, -0.890625, 0.078369140625, -0.2236328125, 
415, 3712777707, 0.8770059943199158, -0.06321360170841217, -0.4287905693054199, -0.2074357569217682, 7.739548206329346, 0.5562952160835266, 6.1154961585998535, 1.6866461038589478, 0.6274462938308716, -0.00792760495096445, -0.892578125, 0.081298828125, -0.22509765625, 
416, 3712786040, 0.8770567178726196, -0.06306949257850647, -0.42871904373168945, -0.2074127495288849, 7.69645881652832, 0.5631827712059021, 6.086214065551758, 1.5300663709640503, 1.0524121522903442, -0.15633650124073029, -0.89208984375, 0.079345703125, -0.22314453125, 
417, 3712794373, 0.8770865201950073, -0.06293237209320068, -0.42869722843170166, -0.20737376809120178, 7.672818660736084, 0.5746236443519592, 6.077498912811279, 1.6362372636795044, 0.3420780897140503, -0.13622929155826569, -0.89111328125, 0.080322265625, -0.22412109375, 
418, 3712802706, 0.8770800232887268, -0.06279781460762024, -0.42874419689178467, -0.2073448896408081, 7.63393497467041, 0.551183819770813, 6.104213237762451, 1.736773133277893, -0.7469494938850403, -0.2934238612651825, -0.89208984375, 0.078369140625, -0.22412109375, 
419, 3712811039, 0.8770363330841064, -0.06269524991512299, -0.4288763999938965, -0.20728713274002075, 7.585339069366455, 0.5685269236564636, 6.112202167510986, 1.6968917846679688, -2.0631113052368164, -0.05605674907565117, -0.8916015625, 0.078369140625, -0.22509765625, 
420, 3712819372, 0.8769581317901611, -0.06264540553092957, -0.42905834317207336, -0.20725685358047485, 7.599668979644775, 0.6041870713233948, 6.090088844299316, 1.0460853576660156, -3.040576219558716, -0.10165008902549744, -0.892578125, 0.077880859375, -0.22412109375, 
421, 3712827705, 0.8768548965454102, -0.06261618435382843, -0.4292948246002197, -0.2072126567363739, 7.631065368652344, 0.6511736512184143, 6.101394176483154, 1.0136064291000366, -3.8681461811065674, -0.018557513132691383, -0.8916015625, 0.079345703125, -0.2255859375, 
422, 3712836038, 0.8767369985580444, -0.06258238852024078, -0.4295709729194641, -0.207149475812912, 7.635831356048584, 0.6718946695327759, 6.138675689697266, 1.2819284200668335, -4.483695030212402, 0.19734488427639008, -0.8916015625, 0.079833984375, -0.22412109375, 
423, 3712844371, 0.8766320943832397, -0.06254574656486511, -0.4298294186592102, -0.2070688009262085, 7.693175792694092, 0.7014365196228027, 6.186240196228027, 1.3277138471603394, -4.156895637512207, 0.31518319249153137, -0.89501953125, 0.07763671875, -0.2236328125, 
424, 3712852704, 0.8765677213668823, -0.06248435378074646, -0.4300105571746826, -0.2069835066795349, 7.7458882331848145, 0.743910551071167, 6.180747032165527, 1.5210758447647095, -2.9639642238616943, 0.5330578684806824, -0.892578125, 0.079833984375, -0.22265625, 
425, 3712861037, 0.8765358328819275, -0.0624060183763504, -0.4301161468029022, -0.20692303776741028, 7.769989967346191, 0.7652435302734375, 6.128569602966309, 1.390725016593933, -1.7902942895889282, 0.29320618510246277, -0.892333984375, 0.076416015625, -0.220703125, 
426, 3712869370, 0.8765358328819275, -0.062315359711647034, -0.4301503300666809, -0.2068789005279541, 7.807142734527588, 0.7245041131973267, 6.104156970977783, 1.1912668943405151, -0.6511010527610779, 0.027740217745304108, -0.8916015625, 0.078369140625, -0.22021484375, 
427, 3712877703, 0.8765697479248047, -0.0622033029794693, -0.43011003732681274, -0.20685210824012756, 7.81985330581665, 0.6711586117744446, 6.04212760925293, 1.2024859189987183, 0.5270640850067139, -0.11663442105054855, -0.89306640625, 0.079833984375, -0.2216796875, 
428, 3712886036, 0.8766094446182251, -0.06207402050495148, -0.43005046248435974, -0.20684701204299927, 7.793759346008301, 0.6226837635040283, 6.031097412109375, 1.269210934638977, 0.8135080933570862, -0.3308974802494049, -0.89013671875, 0.079833984375, -0.22216796875, 
429, 3712894369, 0.8766419887542725, -0.06196989119052887, -0.42999494075775146, -0.20685574412345886, 7.764947414398193, 0.597376823425293, 6.046548366546631, 0.8293761014938354, 0.7085025310516357, -0.5070849657058716, -0.89306640625, 0.077880859375, -0.22265625, 
430, 3712902702, 0.8766777515411377, -0.06186994910240173, -0.4299275875091553, -0.20687422156333923, 7.723252773284912, 0.5786866545677185, 6.056418418884277, 0.7509068250656128, 0.8239842653274536, -0.4450344443321228, -0.89111328125, 0.076904296875, -0.2236328125, 
431, 3712911035, 0.876701831817627, -0.06178519129753113, -0.4298996031284332, -0.20685526728630066, 7.692739486694336, 0.5566912889480591, 6.0608978271484375, 0.8672595620155334, 0.24985402822494507, -0.07789288461208344, -0.8935546875, 0.07763671875, -0.2236328125, 
432, 3712919368, 0.8766976594924927, -0.06172266602516174, -0.42992842197418213, -0.20683175325393677, 7.673884868621826, 0.5814617276191711, 6.044438362121582, 0.7871638536453247, -0.7141759991645813, 0.08676821738481522, -0.890625, 0.077392578125, -0.22412109375, 
433, 3712927701, 0.876677393913269, -0.061717018485069275, -0.42998868227005005, -0.2067941129207611, 7.6885480880737305, 0.6066898107528687, 6.081161022186279, 0.2063738852739334, -1.3209388256072998, 0.3912830650806427, -0.8935546875, 0.077392578125, -0.2216796875, 
434, 3712936034, 0.8766544461250305, -0.06175081431865692, -0.43004611134529114, -0.20676180720329285, 7.676666259765625, 0.6706575751304626, 6.103376865386963, -0.25592464208602905, -1.451340913772583, 0.6832596659660339, -0.8935546875, 0.077880859375, -0.22216796875, 
435, 3712944367, 0.8766335248947144, -0.06181894242763519, -0.430103063583374, -0.2067117989063263, 7.71345329284668, 0.7126129865646362, 6.131685733795166, -0.5929823517799377, -1.500289797782898, 0.9984941482543945, -0.891845703125, 0.07470703125, -0.22265625, 
436, 3712952700, 0.8766191005706787, -0.061884745955467224, -0.4301452934741974, -0.2066657543182373, 7.735276699066162, 0.7131676077842712, 6.172184944152832, -0.5968756675720215, -1.322065830230713, 1.0744147300720215, -0.89404296875, 0.077392578125, -0.22216796875, 
437, 3712961033, 0.8766323328018188, -0.061933934688568115, -0.4301339387893677, -0.20661786198616028, 7.75474739074707, 0.7144331336021423, 6.175306797027588, -0.4917292892932892, -0.4157830774784088, 1.0585339069366455, -0.89208984375, 0.077880859375, -0.2216796875, 
438, 3712969366, 0.8766851425170898, -0.06194968521595001, -0.4300326108932495, -0.2066003680229187, 7.773581027984619, 0.7096979022026062, 6.141230583190918, -0.5132964849472046, 0.9744678735733032, 0.749267578125, -0.8935546875, 0.07666015625, -0.2236328125, 
439, 3712977699, 0.876762330532074, -0.061949923634529114, -0.42987263202667236, -0.20660585165023804, 7.780681610107422, 0.7101126909255981, 6.114672660827637, -0.6793791651725769, 1.92900812625885, 0.3557049036026001, -0.89013671875, 0.078369140625, -0.22412109375, 
440, 3712986032, 0.876846194267273, -0.06193487346172333, -0.4296824634075165, -0.2066498100757599, 7.7853193283081055, 0.648479163646698, 6.068611145019531, -0.7322726249694824, 2.368446111679077, -0.010053587146103382, -0.890625, 0.076904296875, -0.22314453125, 
441, 3712994365, 0.8769639134407043, -0.06190440058708191, -0.42942121624946594, -0.20670261979103088, 7.809946537017822, 0.6213892102241516, 5.971698760986328, -0.7695668935775757, 3.476261854171753, -0.050728991627693176, -0.89453125, 0.0791015625, -0.22412109375, 
442, 3713002698, 0.8771259784698486, -0.06186749041080475, -0.4290546774864197, -0.20678722858428955, 7.815470218658447, 0.5973604917526245, 5.886280536651611, -1.128114938735962, 5.1030731201171875, -0.33158907294273376, -0.89111328125, 0.078857421875, -0.22314453125, 
443, 3713011031, 0.8772968649864197, -0.06186671555042267, -0.4286534786224365, -0.20689430832862854, 7.770654678344727, 0.5776764750480652, 5.892557144165039, -1.829893946647644, 5.485929489135742, -0.36634761095046997, -0.8916015625, 0.077392578125, -0.22412109375, 
444, 3713019364, 0.8774113655090332, -0.061955928802490234, -0.42834699153900146, -0.20701682567596436, 7.708155155181885, 0.5799888968467712, 5.940424919128418, -2.7551825046539307, 3.721595048904419, -0.15526068210601807, -0.8916015625, 0.078125, -0.2255859375, 
445, 3713027697, 0.8775054216384888, -0.062093690037727356, -0.4280679225921631, -0.2071540355682373, 7.72165060043335, 0.6357868909835815, 5.996579647064209, -3.395794630050659, 3.193685293197632, -0.2353563904762268, -0.89111328125, 0.078369140625, -0.22607421875, 
