sep=,
PacketCounter,SampleTimeFine,Quat_W,Quat_X,Quat_Y,Quat_Z,Acc_X,Acc_Y,Acc_Z,Gyr_X,Gyr_Y,Gyr_Z,Mag_X,Mag_Y,Mag_Z,
0, 3031029978, 0.8581392168998718, -0.0413522869348526, -0.48344337940216064, -0.16793280839920044, 0, 0, 0, 0, 0, 0, -1.008544921875, 0.0751953125, -0.23486328125, 
1, 3031038311, 0.8581105470657349, -0.041296496987342834, -0.48351356387138367, -0.16789096593856812, 8.326441764831543, 0.8361238837242126, 5.172129154205322, 0.9578955173492432, -1.4282879829406738, 0.22358664870262146, -1.006103515625, 0.076171875, -0.234375, 
2, 3031046644, 0.8581597805023193, -0.04116864502429962, -0.4834705591201782, -0.1677943468093872, 8.386197090148926, 0.9833164811134338, 5.02812385559082, 1.9553393125534058, 0.5557520389556885, 0.6334400177001953, -1.010009765625, 0.07568359375, -0.234130859375, 
3, 3031054977, 0.8582412600517273, -0.04113036394119263, -0.4833344519138336, -0.16777914762496948, 8.216337203979492, 1.0639994144439697, 5.0536699295043945, 0.15348051488399506, 1.7133619785308838, 0.39217960834503174, -1.008544921875, 0.07568359375, -0.23583984375, 
4, 3031063310, 0.8582340478897095, -0.041247621178627014, -0.483306884765625, -0.16786658763885498, 8.146183967590332, 0.9825373888015747, 5.144093036651611, -2.155578851699829, -0.463271826505661, -0.050267938524484634, -1.008056640625, 0.076171875, -0.23388671875, 
5, 3031071643, 0.8581429719924927, -0.0414702445268631, -0.4834054708480835, -0.16799378395080566, 8.285455703735352, 0.9038426876068115, 5.230296611785889, -3.4238929748535156, -2.7257773876190186, -0.08156853169202805, -1.0078125, 0.07421875, -0.2333984375, 
6, 3031079976, 0.8581275939941406, -0.04165799915790558, -0.48339271545410156, -0.1680624783039093, 8.367878913879395, 0.8723744750022888, 5.154806137084961, -2.834228038787842, -0.8654922246932983, 0.6140500903129578, -1.0078125, 0.07421875, -0.2333984375, 
7, 3031088309, 0.8581559658050537, -0.04170726239681244, -0.4833415150642395, -0.1680527925491333, 8.350186347961426, 0.9190902709960938, 5.112723350524902, -0.752072274684906, 0.1570664644241333, 0.7386632561683655, -1.002197265625, 0.0771484375, -0.23388671875, 
8, 3031096642, 0.8581219911575317, -0.04179544746875763, -0.4833828806877136, -0.16808539628982544, 8.29423713684082, 0.8676087856292725, 5.156355381011963, -1.3044177293777466, -1.4174790382385254, 0.30427151918411255, -1.008056640625, 0.076171875, -0.2333984375, 
9, 3031104975, 0.8580471277236938, -0.04184040427207947, -0.4835014343261719, -0.16811564564704895, 8.338874816894531, 0.8034198880195618, 5.164164066314697, -0.6256148815155029, -2.497554302215576, -0.09227527678012848, -1.0087890625, 0.07373046875, -0.23291015625, 
10, 3031113308, 0.8579972982406616, -0.04172314703464508, -0.48362115025520325, -0.1680549681186676, 8.404852867126465, 0.8057122230529785, 5.207412242889404, 1.9100024700164795, -2.027251720428467, -0.04437666013836861, -1.009033203125, 0.07861328125, -0.232177734375, 
11, 3031121641, 0.8579626083374023, -0.04156927764415741, -0.48373323678970337, -0.1679471731185913, 8.31965160369873, 0.8498850464820862, 5.262895107269287, 2.6340653896331787, -1.7751818895339966, 0.3022992014884949, -1.009521484375, 0.07568359375, -0.23388671875, 
12, 3031129974, 0.8579422235488892, -0.04147498309612274, -0.4838009774684906, -0.16787943243980408, 8.305906295776367, 0.8943087458610535, 5.261087894439697, 1.58383047580719, -1.2740904092788696, 0.2906703054904938, -1.009033203125, 0.076171875, -0.2353515625, 
13, 3031138307, 0.8579638004302979, -0.041454166173934937, -0.48376256227493286, -0.1678844690322876, 8.342811584472656, 0.9493324756622314, 5.223120212554932, 0.00404704874381423, 0.13209259510040283, 0.07661217451095581, -1.00830078125, 0.073486328125, -0.2353515625, 
14, 3031146640, 0.857987642288208, -0.04147636890411377, -0.4837050437927246, -0.16792291402816772, 8.320752143859863, 0.9307640194892883, 5.202792644500732, -0.7586039900779724, 0.28921031951904297, -0.012512554414570332, -1.00439453125, 0.0751953125, -0.2353515625, 
15, 3031154973, 0.8579827547073364, -0.04149612784385681, -0.4837040901184082, -0.16794589161872864, 8.282076835632324, 0.9258067607879639, 5.241260051727295, -0.5047156810760498, -0.5680596828460693, 0.06334399431943893, -1.007568359375, 0.0751953125, -0.23388671875, 
16, 3031163306, 0.8579878807067871, -0.04147852957248688, -0.483700692653656, -0.1679341197013855, 8.3232421875, 0.9202492833137512, 5.248534202575684, 0.1572713851928711, -0.4113517999649048, 0.23959554731845856, -1.007080078125, 0.07763671875, -0.23193359375, 
17, 3031171639, 0.8580435514450073, -0.0414450466632843, -0.48361140489578247, -0.16791492700576782, 8.355765342712402, 0.8900496959686279, 5.222261905670166, 0.24973876774311066, 0.9794370532035828, 0.40693333745002747, -1.007568359375, 0.0771484375, -0.232421875, 
18, 3031179972, 0.8581271171569824, -0.04139697551727295, -0.48347771167755127, -0.16788482666015625, 8.288725852966309, 0.8961025476455688, 5.164633750915527, 0.38193386793136597, 1.7068301439285278, 0.5092878341674805, -1.0068359375, 0.07470703125, -0.23486328125, 
19, 3031188305, 0.8581748008728027, -0.04135394096374512, -0.483407586812973, -0.1678542196750641, 8.23530387878418, 0.8966518044471741, 5.116392612457275, 0.45380738377571106, 0.7124856114387512, 0.43329036235809326, -1.006591796875, 0.07763671875, -0.234375, 
20, 3031196638, 0.8581579923629761, -0.0413200706243515, -0.48345085978507996, -0.16782355308532715, 8.23209285736084, 0.9174808859825134, 5.091865539550781, 0.5711462497711182, -1.0815738439559937, 0.27696672081947327, -1.008056640625, 0.07666015625, -0.2333984375, 
21, 3031204971, 0.8581048250198364, -0.04130484163761139, -0.4835495054721832, -0.1678151786327362, 8.254426956176758, 0.9151284694671631, 5.148403167724609, 0.3023119866847992, -2.001649856567383, 0.022809477522969246, -1.009033203125, 0.076416015625, -0.2373046875, 
22, 3031213304, 0.8580629825592041, -0.041328251361846924, -0.48361629247665405, -0.1678314507007599, 8.302898406982422, 0.908976137638092, 5.171169281005859, -0.3784887492656708, -1.631434679031372, 0.032530076801776886, -1.008056640625, 0.074951171875, -0.23583984375, 
23, 3031221637, 0.858048677444458, -0.041350364685058594, -0.483630895614624, -0.16785630583763123, 8.287490844726562, 0.8985544443130493, 5.185732364654541, -0.5205196738243103, -0.8178497552871704, 0.020465772598981857, -1.00830078125, 0.07421875, -0.23291015625, 
24, 3031229970, 0.8580507636070251, -0.041357576847076416, -0.48362264037132263, -0.1678672432899475, 8.28058910369873, 0.9012156128883362, 5.182749271392822, -0.2994175851345062, -0.41959959268569946, 0.13385997712612152, -1.008544921875, 0.0751953125, -0.2333984375, 
25, 3031238303, 0.8580464124679565, -0.04133757948875427, -0.48363393545150757, -0.1678619682788849, 8.306890487670898, 0.9140762686729431, 5.196670055389404, 0.16772200167179108, -0.63130122423172, 0.11800477653741837, -1.005126953125, 0.0771484375, -0.23388671875, 
26, 3031246636, 0.8580338358879089, -0.04134243726730347, -0.4836556315422058, -0.16786232590675354, 8.31185245513916, 0.9079675674438477, 5.2062249183654785, -0.14004582166671753, -0.8718701004981995, 0.19144080579280853, -1.008544921875, 0.0751953125, -0.23095703125, 
27, 3031254969, 0.8580260276794434, -0.041346967220306396, -0.4836675524711609, -0.16786721348762512, 8.317647933959961, 0.8997132182121277, 5.2252092361450195, -0.17616188526153564, -0.7130106091499329, 0.1630346029996872, -1.008056640625, 0.07763671875, -0.234375, 
28, 3031263302, 0.8580264449119568, -0.04133923351764679, -0.48366719484329224, -0.16786840558052063, 8.316853523254395, 0.9150345921516418, 5.23643159866333, -0.041738394647836685, -0.4945981204509735, 0.13859863579273224, -1.007568359375, 0.0751953125, -0.2333984375, 
29, 3031271635, 0.8580238819122314, -0.04134500026702881, -0.4836692214012146, -0.1678740680217743, 8.308586120605469, 0.901529848575592, 5.2460174560546875, -0.22459842264652252, -0.5642431378364563, 0.17356204986572266, -1.005126953125, 0.07568359375, -0.234375, 
30, 3031279968, 0.8580210208892822, -0.041360363364219666, -0.4836686849594116, -0.16788604855537415, 8.32083797454834, 0.9163936376571655, 5.264142036437988, -0.38673654198646545, -0.5607852935791016, 0.1571945697069168, -1.007080078125, 0.076171875, -0.23291015625, 
31, 3031288301, 0.8580383658409119, -0.04139026999473572, -0.48362433910369873, -0.16791781783103943, 8.336201667785645, 0.922552227973938, 5.230180263519287, -0.7759448289871216, 0.07504971325397491, 0.09974183887243271, -1.008056640625, 0.076171875, -0.23486328125, 
32, 3031296634, 0.8580712080001831, -0.04140244424343109, -0.48355937004089355, -0.16793400049209595, 8.340622901916504, 0.8937334418296814, 5.191469192504883, -0.5062268972396851, 0.44586697220802307, 0.20832055807113647, -1.004150390625, 0.078125, -0.23291015625, 
33, 3031304967, 0.8581002950668335, -0.041383326053619385, -0.4835149645805359, -0.16791820526123047, 8.310564994812012, 0.8987334966659546, 5.144775390625, 0.09846111387014389, 0.23664991557598114, 0.3446907699108124, -1.0068359375, 0.07470703125, -0.2333984375, 
34, 3031313300, 0.858121395111084, -0.04134863615036011, -0.48348885774612427, -0.16789394617080688, 8.257871627807617, 0.9253848195075989, 5.198606967926025, 0.39812201261520386, -0.005955308675765991, 0.3231235146522522, -1.006591796875, 0.0771484375, -0.2353515625, 
35, 3031321633, 0.8581286668777466, -0.04135344922542572, -0.48347461223602295, -0.1678968071937561, 8.257434844970703, 0.9138615131378174, 5.2827677726745605, -0.2777479290962219, -0.31137940287590027, 0.19889451563358307, -1.006591796875, 0.07568359375, -0.2353515625, 
36, 3031329966, 0.8581571578979492, -0.041326358914375305, -0.4834360182285309, -0.16786900162696838, 8.278621673583984, 0.856002151966095, 5.198071002960205, 0.3074732720851898, 0.171410471200943, 0.44018062949180603, -1.00634765625, 0.07470703125, -0.2353515625, 
37, 3031338299, 0.8582309484481812, -0.04127834737300873, -0.4833170473575592, -0.1678454577922821, 8.274717330932617, 0.9278450608253479, 5.119569301605225, 0.4127221405506134, 1.4820650815963745, 0.4324707090854645, -1.005859375, 0.07470703125, -0.2353515625, 
38, 3031346632, 0.8582457304000854, -0.041296035051345825, -0.48328471183776855, -0.16785874962806702, 8.212529182434082, 0.9635451436042786, 5.146234512329102, -0.48696500062942505, -0.07314144819974899, 0.2184125781059265, -1.007080078125, 0.076171875, -0.234375, 
39, 3031354965, 0.8581967353820801, -0.04136505722999573, -0.48335134983062744, -0.16790053248405457, 8.234580993652344, 0.9061878323554993, 5.166218280792236, -1.1016298532485962, -1.7636042833328247, 0.012883960269391537, -1.007568359375, 0.0751953125, -0.2353515625, 
40, 3031363298, 0.858161211013794, -0.04141367971897125, -0.48339778184890747, -0.16793638467788696, 8.323827743530273, 0.8755580186843872, 5.191175937652588, -0.849406361579895, -1.3959885835647583, -0.0037012568209320307, -1.008544921875, 0.076171875, -0.232421875, 
41, 3031371631, 0.8581675291061401, -0.04139666259288788, -0.48339104652404785, -0.16792750358581543, 8.336867332458496, 0.8660876750946045, 5.189580917358398, 0.11444439738988876, -0.3588426113128662, 0.21039532124996185, -1.008544921875, 0.074951171875, -0.23486328125, 
42, 3031379964, 0.8581833839416504, -0.04140442609786987, -0.48336631059646606, -0.16791579127311707, 8.276396751403809, 0.8799570202827454, 5.1880784034729, -0.18540863692760468, -0.1462956964969635, 0.4454571604728699, -1.003662109375, 0.07666015625, -0.2333984375, 
43, 3031388297, 0.8581608533859253, -0.04143810272216797, -0.48340046405792236, -0.16792449355125427, 8.291482925415039, 0.8744493722915649, 5.186404705047607, -0.5246691703796387, -1.1413319110870361, 0.24807386100292206, -1.008544921875, 0.07568359375, -0.2333984375, 
44, 3031396630, 0.8581199645996094, -0.04147012531757355, -0.4834688603878021, -0.16792896389961243, 8.304900169372559, 0.9003062844276428, 5.210201740264893, -0.3977762460708618, -1.6706243753433228, 0.2305281162261963, -1.007080078125, 0.07666015625, -0.23388671875, 
45, 3031404963, 0.8580877780914307, -0.04146385192871094, -0.48352891206741333, -0.16792187094688416, 8.323636054992676, 0.9110076427459717, 5.265708923339844, 0.11977217346429825, -1.4264695644378662, 0.1424151510000229, -1.004638671875, 0.07568359375, -0.236328125, 
46, 3031413296, 0.8580771684646606, -0.04144193232059479, -0.48355206847190857, -0.16791462898254395, 8.311065673828125, 0.89346843957901, 5.266737937927246, 0.2309635728597641, -0.8160823583602905, 0.10499275475740433, -1.00732421875, 0.07421875, -0.2333984375, 
47, 3031421629, 0.8580958843231201, -0.04143187403678894, -0.483515202999115, -0.1679278016090393, 8.341695785522461, 0.9012578129768372, 5.242353916168213, -0.19765223562717438, 0.07294933497905731, 0.03107006661593914, -1.005126953125, 0.076171875, -0.2353515625, 
48, 3031429962, 0.8581349849700928, -0.04145976901054382, -0.48343297839164734, -0.16795819997787476, 8.330816268920898, 0.9070594310760498, 5.192978858947754, -0.8238689303398132, 0.6620510816574097, 0.16687673330307007, -1.00927734375, 0.072998046875, -0.2353515625, 
49, 3031438295, 0.8581749796867371, -0.04147668182849884, -0.4833521246910095, -0.1679820418357849, 8.310473442077637, 0.9100633859634399, 5.18758487701416, -0.6284836530685425, 0.6840025186538696, 0.1889818161725998, -1.006591796875, 0.076171875, -0.2353515625, 
50, 3031446628, 0.858195424079895, -0.04148116707801819, -0.48330938816070557, -0.16799956560134888, 8.26346492767334, 0.9245120882987976, 5.1825995445251465, -0.3797694444656372, 0.11959285289049149, 0.09876849502325058, -1.00732421875, 0.07421875, -0.23388671875, 
51, 3031454961, 0.8582128286361694, -0.04148983955383301, -0.4832717180252075, -0.1680164933204651, 8.271289825439453, 0.9214864373207092, 5.195660591125488, -0.4086623191833496, 0.036653969436883926, 0.132067009806633, -1.00439453125, 0.0751953125, -0.234375, 
52, 3031463294, 0.8582277297973633, -0.041520386934280396, -0.4832352101802826, -0.16803833842277527, 8.294736862182617, 0.8890197277069092, 5.1923136711120605, -0.7037125825881958, -0.04811633378267288, 0.2044784128665924, -1.006591796875, 0.0771484375, -0.234375, 
53, 3031471627, 0.8582329750061035, -0.04156917333602905, -0.48321425914764404, -0.1680602729320526, 8.264924049377441, 0.8757941126823425, 5.190181732177734, -0.8871617913246155, -0.3319220244884491, 0.3000451326370239, -1.00634765625, 0.0732421875, -0.2333984375, 
54, 3031479960, 0.8582208156585693, -0.041616857051849365, -0.4832252264022827, -0.16807836294174194, 8.262406349182129, 0.8846707940101624, 5.1839799880981445, -0.78959721326828, -0.829504132270813, 0.27307334542274475, -1.007080078125, 0.076171875, -0.2353515625, 
55, 3031488293, 0.858206033706665, -0.041647374629974365, -0.48324403166770935, -0.16809216141700745, 8.272442817687988, 0.8717668056488037, 5.182971954345703, -0.5445713996887207, -0.896101176738739, 0.2001752406358719, -1.008056640625, 0.078125, -0.23388671875, 
56, 3031496626, 0.858201265335083, -0.04167209565639496, -0.4832502007484436, -0.16809266805648804, 8.306432723999023, 0.8946631550788879, 5.180118083953857, -0.40679246187210083, -0.6821455359458923, 0.3476107716560364, -1.00537109375, 0.0751953125, -0.2353515625, 
57, 3031504959, 0.8582146167755127, -0.04167915880680084, -0.48322224617004395, -0.16810321807861328, 8.310952186584473, 0.8887121081352234, 5.173229217529297, -0.33942699432373047, -0.10659362375736237, 0.17409995198249817, -1.006591796875, 0.0771484375, -0.23583984375, 
58, 3031513292, 0.8582248091697693, -0.04169142246246338, -0.4831983149051666, -0.1681167483329773, 8.303942680358887, 0.8990336656570435, 5.187820911407471, -0.40576785802841187, -0.19017288088798523, 0.16444337368011475, -1.006103515625, 0.07568359375, -0.2353515625, 
59, 3031521625, 0.858224630355835, -0.041707515716552734, -0.48319271206855774, -0.16812971234321594, 8.296839714050293, 0.903032124042511, 5.203199863433838, -0.41340094804763794, -0.4784611165523529, 0.16495566070079803, -1.00537109375, 0.07470703125, -0.234375, 
60, 3031529958, 0.8582143783569336, -0.04171013832092285, -0.48320260643959045, -0.1681530773639679, 8.287670135498047, 0.9009792804718018, 5.197799205780029, -0.2925786077976227, -0.6985898613929749, -0.08359205722808838, -1.006591796875, 0.0771484375, -0.2353515625, 
61, 3031538291, 0.8582018613815308, -0.04171821475028992, -0.4832181930541992, -0.16817033290863037, 8.308871269226074, 0.8973527550697327, 5.2057390213012695, -0.28824982047080994, -0.7883678674697876, 0.02966129034757614, -1.007080078125, 0.0751953125, -0.23388671875, 
62, 3031546624, 0.8581950664520264, -0.041714444756507874, -0.48322436213493347, -0.16818881034851074, 8.28837776184082, 0.8968520760536194, 5.229743957519531, -0.192862406373024, -0.619621217250824, -0.057260625064373016, -1.00634765625, 0.07470703125, -0.23388671875, 
63, 3031554957, 0.8581920266151428, -0.0416894406080246, -0.4832296371459961, -0.16819462180137634, 8.318248748779297, 0.9020950794219971, 5.233649253845215, 0.1302996277809143, -0.5357345342636108, -0.04565737396478653, -1.00830078125, 0.0732421875, -0.2314453125, 
64, 3031563290, 0.8581951260566711, -0.04166610538959503, -0.4832249879837036, -0.1681978404521942, 8.29737663269043, 0.9035041928291321, 5.208263874053955, 0.12174446880817413, -0.3880172669887543, 0.019902260974049568, -1.004150390625, 0.0771484375, -0.2333984375, 
65, 3031571623, 0.8581911325454712, -0.041656702756881714, -0.48322904109954834, -0.1682087481021881, 8.309757232666016, 0.8748142123222351, 5.195245265960693, -0.06612315028905869, -0.5589154362678528, 0.011449563317000866, -1.005615234375, 0.076171875, -0.2333984375, 
66, 3031579956, 0.8581798672676086, -0.041673868894577026, -0.48324108123779297, -0.16822761297225952, 8.308256149291992, 0.8881255984306335, 5.190668106079102, -0.42964035272598267, -0.7655197381973267, 0.06280609965324402, -1.007080078125, 0.0751953125, -0.2353515625, 
67, 3031588289, 0.8581687211990356, -0.041690289974212646, -0.48325255513191223, -0.1682473123073578, 8.31478500366211, 0.8912373781204224, 5.1928558349609375, -0.3978787064552307, -0.7464627623558044, 0.07059282809495926, -1.006591796875, 0.076171875, -0.23388671875, 
68, 3031596622, 0.8581719398498535, -0.041698530316352844, -0.4832434058189392, -0.16825485229492188, 8.31651782989502, 0.8843917846679688, 5.1993584632873535, -0.28970980644226074, -0.4050763249397278, 0.1833467036485672, -1.006591796875, 0.07568359375, -0.2333984375, 
69, 3031604955, 0.8581831455230713, -0.041686803102493286, -0.4832242727279663, -0.16825613379478455, 8.303814888000488, 0.8871243000030518, 5.2042012214660645, -0.0361032634973526, -0.1866893470287323, 0.14784535765647888, -1.0068359375, 0.07470703125, -0.23583984375, 
70, 3031613288, 0.8581893444061279, -0.041675180196762085, -0.48321211338043213, -0.16826191544532776, 8.297798156738281, 0.9117228388786316, 5.182077407836914, -0.049243368208408356, -0.30415624380111694, 0.08137642592191696, -1.006103515625, 0.0771484375, -0.23583984375, 
71, 3031621621, 0.8581945300102234, -0.04165250062942505, -0.4832020699977875, -0.1682705283164978, 8.30986499786377, 0.9154565930366516, 5.188257217407227, 0.07269319891929626, -0.3019021451473236, -0.024013344198465347, -1.007080078125, 0.076171875, -0.234375, 
72, 3031629954, 0.8581949472427368, -0.04162220656871796, -0.48320436477661133, -0.16826921701431274, 8.313714981079102, 0.9059507846832275, 5.196218967437744, 0.24909842014312744, -0.47566911578178406, 0.017520135268568993, -1.005615234375, 0.07568359375, -0.234375, 
73, 3031638287, 0.8581932783126831, -0.041579559445381165, -0.48321160674095154, -0.1682676076889038, 8.316496849060059, 0.9225448966026306, 5.221481800079346, 0.41080108284950256, -0.5126560926437378, -0.0617431104183197, -1.007568359375, 0.076171875, -0.23388671875, 
74, 3031646620, 0.8582004308700562, -0.041546836495399475, -0.48320233821868896, -0.16826602816581726, 8.291003227233887, 0.9048846960067749, 5.224979877471924, 0.2558349668979645, -0.2884034514427185, 0.026357047259807587, -1.0068359375, 0.073486328125, -0.23583984375, 
75, 3031654953, 0.8582156896591187, -0.041525617241859436, -0.4831724166870117, -0.16827914118766785, 8.272662162780762, 0.9045984745025635, 5.218456745147705, 0.0014856255147606134, 0.0006659700884483755, -0.022860703989863396, -1.00634765625, 0.07470703125, -0.234375, 
76, 3031663286, 0.8582313656806946, -0.04150412976741791, -0.4831441044807434, -0.16828566789627075, 8.271183013916016, 0.9213791489601135, 5.193321704864502, 0.029123380780220032, -0.02803477831184864, 0.03739678114652634, -1.00732421875, 0.0751953125, -0.23193359375, 
77, 3031671619, 0.8582513332366943, -0.04149520397186279, -0.48310792446136475, -0.16828960180282593, 8.307047843933105, 0.9294834733009338, 5.173365592956543, -0.09601496160030365, 0.07064405828714371, 0.180836483836174, -1.0078125, 0.074462890625, -0.2373046875, 
78, 3031679952, 0.8582659959793091, -0.04149554669857025, -0.4830825924873352, -0.1682879626750946, 8.25954532623291, 0.9076599478721619, 5.179788589477539, -0.16655655205249786, -0.12529203295707703, 0.2759677767753601, -1.006591796875, 0.078125, -0.23583984375, 
79, 3031688285, 0.8582611083984375, -0.041512176394462585, -0.4830843210220337, -0.16830340027809143, 8.277706146240234, 0.9163650274276733, 5.19444465637207, -0.4031040072441101, -0.5939300656318665, 0.13304033875465393, -1.004638671875, 0.076171875, -0.23388671875, 
80, 3031696618, 0.8582581281661987, -0.041542425751686096, -0.4830855131149292, -0.16830754280090332, 8.305244445800781, 0.8968020081520081, 5.191440582275391, -0.5076100826263428, -0.6210298538208008, 0.3495062291622162, -1.007568359375, 0.0751953125, -0.23388671875, 
81, 3031704951, 0.8582567572593689, -0.04155406355857849, -0.4830906391143799, -0.1682966649532318, 8.300009727478027, 0.9019162654876709, 5.186369895935059, -0.23653462529182434, -0.6233351826667786, 0.36851194500923157, -1.005615234375, 0.076171875, -0.234375, 
82, 3031713284, 0.8582525253295898, -0.04154764115810394, -0.48310387134552, -0.16828212141990662, 8.283485412597656, 0.9143836498260498, 5.222598075866699, 0.07658656686544418, -0.6987435221672058, 0.31641265749931335, -1.005126953125, 0.07568359375, -0.23291015625, 
83, 3031721617, 0.8582494258880615, -0.041532278060913086, -0.48311322927474976, -0.16827431321144104, 8.295788764953613, 0.9075455665588379, 5.222848415374756, 0.13160592317581177, -0.6125515699386597, 0.185421422123909, -1.007080078125, 0.076171875, -0.2353515625, 
84, 3031729950, 0.8582497835159302, -0.04151448607444763, -0.48311519622802734, -0.1682717502117157, 8.304279327392578, 0.9114438891410828, 5.221632480621338, 0.10850188881158829, -0.5013858079910278, 0.11749248951673508, -1.006591796875, 0.07568359375, -0.23583984375, 
85, 3031738283, 0.8582490682601929, -0.04149940609931946, -0.4831216335296631, -0.16826096177101135, 8.307046890258789, 0.9127456545829773, 5.2159104347229, 0.1099875196814537, -0.5687127709388733, 0.20931951701641083, -1.00830078125, 0.07470703125, -0.23486328125, 
86, 3031746616, 0.858250617980957, -0.04149657487869263, -0.48311561346054077, -0.16827085614204407, 8.317748069763184, 0.9116798043251038, 5.210531711578369, -0.16927167773246765, -0.42597755789756775, 0.07558760792016983, -1.004638671875, 0.07568359375, -0.23486328125, 
87, 3031754949, 0.858265221118927, -0.04149088263511658, -0.4830874800682068, -0.1682787835597992, 8.311295509338379, 0.9076385498046875, 5.204558849334717, -0.153314009308815, -0.06730140000581741, 0.13324524462223053, -1.007080078125, 0.0751953125, -0.2353515625, 
88, 3031763282, 0.8582824468612671, -0.04148441553115845, -0.4830569624900818, -0.1682799756526947, 8.28661823272705, 0.8945774435997009, 5.215853214263916, -0.11619895696640015, -0.028342146426439285, 0.20465771853923798, -1.006591796875, 0.07568359375, -0.236328125, 
89, 3031771615, 0.8583033680915833, -0.041468456387519836, -0.48301851749420166, -0.1682872176170349, 8.308205604553223, 0.8939909338951111, 5.194909572601318, -0.05185602232813835, 0.1187732145190239, 0.09070000797510147, -1.00927734375, 0.074462890625, -0.2353515625, 
90, 3031779948, 0.8583288192749023, -0.04144640266895294, -0.482975572347641, -0.16828611493110657, 8.293900489807129, 0.9263575673103333, 5.173436641693115, 0.05832361802458763, 0.20760338008403778, 0.15458190441131592, -1.006591796875, 0.075439453125, -0.2373046875, 
91, 3031788281, 0.8583399653434753, -0.0414307564496994, -0.48295873403549194, -0.16828179359436035, 8.259065628051758, 0.9002997279167175, 5.188743591308594, 0.05709412693977356, -0.20464493334293365, 0.1903393715620041, -1.008544921875, 0.0751953125, -0.23486328125, 
92, 3031796614, 0.8583442568778992, -0.04143570363521576, -0.4829511344432831, -0.16828104853630066, 8.273114204406738, 0.9121162295341492, 5.18500280380249, -0.19404064118862152, -0.41529640555381775, 0.25916481018066406, -1.00732421875, 0.07373046875, -0.23486328125, 
93, 3031804947, 0.8583365082740784, -0.04144202172756195, -0.4829660654067993, -0.16827601194381714, 8.279751777648926, 0.9118873476982117, 5.179638385772705, -0.1358194798231125, -0.7582454085350037, 0.2825506031513214, -1.007080078125, 0.07568359375, -0.23388671875, 
94, 3031813280, 0.8583172559738159, -0.04145310819149017, -0.4829968810081482, -0.16828274726867676, 8.287784576416016, 0.9099059700965881, 5.206747531890869, -0.23989011347293854, -1.0340337753295898, 0.13601158559322357, -1.00732421875, 0.074462890625, -0.236328125, 
95, 3031821613, 0.8582971692085266, -0.041450440883636475, -0.4830341935157776, -0.16827884316444397, 8.281768798828125, 0.9139330387115479, 5.212727069854736, 0.019364362582564354, -1.0822142362594604, 0.1742280125617981, -1.006103515625, 0.0751953125, -0.23583984375, 
96, 3031829946, 0.8582823276519775, -0.0414399653673172, -0.48306137323379517, -0.1682790219783783, 8.304413795471191, 0.9041407108306885, 5.215058326721191, 0.05322638526558876, -0.9147228598594666, 0.08416838198900223, -1.00732421875, 0.074951171875, -0.23876953125, 
97, 3031838279, 0.8582785129547119, -0.04143984615802765, -0.48307004570961, -0.1682729721069336, 8.320931434631348, 0.9146412014961243, 5.245774269104004, -0.13955914974212646, -0.6523049473762512, 0.21613293886184692, -1.006103515625, 0.0771484375, -0.2353515625, 
98, 3031846612, 0.8582797050476074, -0.04144477844238281, -0.483062744140625, -0.16828718781471252, 8.30484390258789, 0.9223591089248657, 5.216454029083252, -0.292911559343338, -0.43025508522987366, 0.07650972157716751, -1.00634765625, 0.0732421875, -0.23388671875, 
99, 3031854945, 0.8582834005355835, -0.04145002365112305, -0.483048677444458, -0.16830718517303467, 8.30869197845459, 0.9210355877876282, 5.224565505981445, -0.3330747187137604, -0.32216307520866394, 0.033733952790498734, -1.00732421875, 0.073486328125, -0.2353515625, 
100, 3031863278, 0.858291745185852, -0.04145936667919159, -0.4830264449119568, -0.16832619905471802, 8.307741165161133, 0.8892772197723389, 5.2054314613342285, -0.4072791039943695, -0.2136867493391037, 0.07287249714136124, -1.003173828125, 0.0771484375, -0.23486328125, 
101, 3031871611, 0.8583065271377563, -0.04146921634674072, -0.4829893708229065, -0.16835442185401917, 8.303406715393066, 0.8879539370536804, 5.220623970031738, -0.42413330078125, 0.023206496611237526, 0.046720363199710846, -1.007080078125, 0.075927734375, -0.23779296875, 
102, 3031879944, 0.858335018157959, -0.041469112038612366, -0.4829323887825012, -0.16837292909622192, 8.296324729919434, 0.8977819085121155, 5.216196537017822, -0.36055871844291687, 0.35311779379844666, 0.08273397386074066, -1.00390625, 0.07568359375, -0.23583984375, 
103, 3031888277, 0.8583621978759766, -0.041464611887931824, -0.48288217186927795, -0.16837921738624573, 8.277362823486328, 0.8942198157310486, 5.1985931396484375, -0.21699100732803345, 0.27379053831100464, 0.19310572743415833, -1.005859375, 0.07421875, -0.2353515625, 
104, 3031896610, 0.8583782315254211, -0.04145091772079468, -0.48285406827926636, -0.16838186979293823, 8.272148132324219, 0.9016087055206299, 5.222991466522217, -0.034822553396224976, -0.049192141741514206, 0.13601158559322357, -1.00830078125, 0.072998046875, -0.236328125, 
105, 3031904943, 0.8583896160125732, -0.04142886400222778, -0.48283684253692627, -0.1683788001537323, 8.258501052856445, 0.8910225033760071, 5.200009346008301, 0.07497286051511765, -0.19183780252933502, 0.10168851166963577, -1.00537109375, 0.07470703125, -0.2353515625, 
106, 3031913276, 0.8583920001983643, -0.04143263399600983, -0.48282933235168457, -0.16838690638542175, 8.259051322937012, 0.9215078949928284, 5.196933746337891, -0.237431138753891, -0.41903603076934814, 0.1438751518726349, -1.00390625, 0.07373046875, -0.2333984375, 
107, 3031921609, 0.8583837747573853, -0.041436806321144104, -0.4828411340713501, -0.16839423775672913, 8.276846885681152, 0.9157642722129822, 5.176197052001953, -0.19217079877853394, -0.7125495672225952, 0.12720027565956116, -1.00439453125, 0.07421875, -0.23779296875, 
108, 3031929942, 0.8583747744560242, -0.041457727551460266, -0.48285168409347534, -0.16840454936027527, 8.289624214172363, 0.9048987627029419, 5.19332218170166, -0.4207138121128082, -0.7466037273406982, 0.19436080753803253, -1.00732421875, 0.073974609375, -0.23583984375, 
109, 3031938275, 0.8583630919456482, -0.04148174822330475, -0.48286518454551697, -0.16841968894004822, 8.287785530090332, 0.9223378896713257, 5.190896511077881, -0.49190858006477356, -0.7990232706069946, 0.14886993169784546, -1.007080078125, 0.07568359375, -0.2353515625, 
110, 3031946608, 0.8583556413650513, -0.041506603360176086, -0.48287248611450195, -0.168430358171463, 8.301897048950195, 0.9221802949905396, 5.195052623748779, -0.4752337336540222, -0.7075291872024536, 0.2206922471523285, -1.00634765625, 0.074462890625, -0.236328125, 
111, 3031954941, 0.8583635091781616, -0.041530415415763855, -0.4828524887561798, -0.16844213008880615, 8.326202392578125, 0.9175379872322083, 5.207485198974609, -0.5306629538536072, -0.27431565523147583, 0.2518903911113739, -1.006103515625, 0.076171875, -0.2353515625, 
112, 3031963274, 0.8583686947822571, -0.041547805070877075, -0.48284006118774414, -0.16844716668128967, 8.356423377990723, 0.9052208662033081, 5.19045352935791, -0.38840141892433167, -0.37605541944503784, 0.27904146909713745, -1.004638671875, 0.076171875, -0.234375, 
113, 3031971607, 0.8583756685256958, -0.04154752194881439, -0.4828231930732727, -0.16846022009849548, 8.313413619995117, 0.8919666409492493, 5.214529991149902, -0.21591520309448242, -0.25843483209609985, 0.09515688568353653, -1.008056640625, 0.076171875, -0.236328125, 
114, 3031979940, 0.8583874702453613, -0.04155366122722626, -0.48279279470443726, -0.16848516464233398, 8.316145896911621, 0.8993269205093384, 5.208249568939209, -0.425068199634552, -0.082247294485569, -0.005635131616145372, -1.005859375, 0.07421875, -0.23388671875, 
115, 3031988273, 0.8584017753601074, -0.041576504707336426, -0.48275691270828247, -0.16850972175598145, 8.30268383026123, 0.9073810577392578, 5.235029697418213, -0.6343236565589905, -0.03643624857068062, 0.12100164592266083, -1.006591796875, 0.076416015625, -0.23876953125, 
116, 3031996606, 0.8584315776824951, -0.04159039258956909, -0.4826965928077698, -0.1685272455215454, 8.297548294067383, 0.9158573150634766, 5.2534990310668945, -0.5266158580780029, 0.3688961863517761, 0.19395098090171814, -1.006103515625, 0.07568359375, -0.23486328125, 
117, 3032004939, 0.8584767580032349, -0.041576772928237915, -0.48261523246765137, -0.16853341460227966, 8.241713523864746, 0.8988620042800903, 5.280343055725098, -0.1536213755607605, 0.782591700553894, 0.2047089785337448, -1.006103515625, 0.0751953125, -0.236328125, 
118, 3032013272, 0.8585183620452881, -0.041542887687683105, -0.4825494885444641, -0.1685178577899933, 8.213830947875977, 0.8916519284248352, 5.228048801422119, 0.25278690457344055, 0.6025492548942566, 0.29725319147109985, -1.005859375, 0.072265625, -0.23388671875, 
119, 3032021605, 0.8585464954376221, -0.04146099090576172, -0.48252832889556885, -0.1684553325176239, 8.269895553588867, 0.9131534099578857, 5.133967399597168, 1.291008710861206, 0.08324626833200455, 0.5231707096099854, -1.00537109375, 0.073974609375, -0.2373046875, 
120, 3032029938, 0.8585398197174072, -0.041397854685783386, -0.4825548529624939, -0.16842931509017944, 8.245776176452637, 0.9111505746841431, 5.173965930938721, 0.8524929285049438, -0.7461041808128357, 0.061704691499471664, -1.00634765625, 0.073974609375, -0.2373046875, 
121, 3032038271, 0.8584367036819458, -0.041432321071624756, -0.48272430896759033, -0.1684606671333313, 8.228072166442871, 0.8519808053970337, 5.31210994720459, -0.41259410977363586, -3.260589599609375, -0.27568599581718445, -1.008544921875, 0.07470703125, -0.234375, 
122, 3032046604, 0.8583859801292419, -0.04137839376926422, -0.48283499479293823, -0.16841503977775574, 8.369344711303711, 0.8574913144111633, 5.171899318695068, 1.04369056224823, -2.063918352127075, 0.20497792959213257, -1.005126953125, 0.07666015625, -0.2373046875, 
123, 3032054937, 0.858420729637146, -0.0412462055683136, -0.4828169345855713, -0.1683218777179718, 8.435805320739746, 0.9634671211242676, 5.079389572143555, 2.0865354537963867, 0.18800847232341766, 0.5556495785713196, -1.00439453125, 0.07470703125, -0.23779296875, 
124, 3032063270, 0.8584796190261841, -0.04124538600444794, -0.4827083945274353, -0.16833320260047913, 8.255502700805664, 1.0506809949874878, 5.105004787445068, -0.4072535037994385, 1.1613494157791138, 0.2615981698036194, -1.009033203125, 0.075927734375, -0.23583984375, 
125, 3032071603, 0.8584580421447754, -0.041414931416511536, -0.4826826751232147, -0.16847524046897888, 8.193155288696289, 0.9458473920822144, 5.197244644165039, -3.124846935272217, -0.6647022366523743, -0.37123993039131165, -1.00537109375, 0.0732421875, -0.2353515625, 
126, 3032079936, 0.8583987951278687, -0.04167136549949646, -0.4827099144458771, -0.1686362624168396, 8.267904281616211, 0.8598234057426453, 5.28300666809082, -4.190475940704346, -1.7371959686279297, -0.14729465544223785, -1.0078125, 0.072998046875, -0.2353515625, 
127, 3032088269, 0.8584240674972534, -0.0418107807636261, -0.48263299465179443, -0.16869255900382996, 8.333856582641602, 0.8707659244537354, 5.214725494384766, -2.317255973815918, 0.2680273652076721, 0.5639230608940125, -1.0068359375, 0.073974609375, -0.23681640625, 
128, 3032096602, 0.8584619760513306, -0.041828542947769165, -0.4825708866119385, -0.1686733067035675, 8.26489543914795, 0.8947705626487732, 5.170196533203125, -0.3288995623588562, 0.41297829151153564, 0.673500657081604, -1.006591796875, 0.0751953125, -0.23486328125, 
129, 3032104935, 0.8584059476852417, -0.04187533259391785, -0.48265767097473145, -0.1686980426311493, 8.229046821594238, 0.8731985092163086, 5.186993598937988, -0.6455939412117004, -2.0027129650115967, 0.061627842485904694, -1.00634765625, 0.07421875, -0.23583984375, 
130, 3032113268, 0.8582922220230103, -0.041884586215019226, -0.4828526973724365, -0.16871672868728638, 8.338395118713379, 0.7951305508613586, 5.20923376083374, 0.030762698501348495, -3.586902379989624, -0.3320758044719696, -1.005859375, 0.07373046875, -0.23486328125, 
131, 3032121601, 0.8582091331481934, -0.04174381494522095, -0.4830358624458313, -0.16864952445030212, 8.364448547363281, 0.80274897813797, 5.252313613891602, 2.3545114994049072, -2.9396817684173584, -0.23497216403484344, -1.00732421875, 0.07421875, -0.2353515625, 
132, 3032129934, 0.8581637740135193, -0.041572004556655884, -0.48317068815231323, -0.16853711009025574, 8.323931694030762, 0.892659604549408, 5.285116672515869, 2.9374916553497314, -2.079069137573242, 0.20591284334659576, -1.008544921875, 0.0751953125, -0.2353515625, 
133, 3032138267, 0.8581491112709045, -0.04146754741668701, -0.48322755098342896, -0.168474018573761, 8.304078102111816, 0.9551388621330261, 5.223689079284668, 1.6369800567626953, -1.0785512924194336, 0.18403828144073486, -1.006591796875, 0.07568359375, -0.234375, 
134, 3032146600, 0.858161211013794, -0.04147833585739136, -0.483195424079895, -0.1685020923614502, 8.330079078674316, 0.9641031622886658, 5.1679368019104, -0.5044851303100586, -0.06863334029912949, -0.009105859324336052, -1.00439453125, 0.07421875, -0.236328125, 
135, 3032154933, 0.8581629991531372, -0.04154309630393982, -0.48316603899002075, -0.16856104135513306, 8.28746223449707, 0.9563279747962952, 5.176455974578857, -1.3691962957382202, -0.27464866638183594, -0.05177917703986168, -1.00537109375, 0.07470703125, -0.23486328125, 
136, 3032163266, 0.858141303062439, -0.04158984124660492, -0.4831838607788086, -0.16860896348953247, 8.309171676635742, 0.9229602217674255, 5.20777702331543, -0.9643887877464294, -0.9545785784721375, -0.11066629737615585, -1.00830078125, 0.07470703125, -0.23388671875, 
137, 3032171599, 0.8581434488296509, -0.041580259799957275, -0.48317950963974, -0.1686130166053772, 8.340758323669434, 0.9244834780693054, 5.24975061416626, -0.07903271913528442, -0.42666909098625183, 0.08314380049705505, -1.0068359375, 0.072998046875, -0.234375, 
138, 3032179932, 0.8581907749176025, -0.04155316948890686, -0.48310041427612305, -0.16860514879226685, 8.332877159118652, 0.9277806878089905, 5.211605072021484, 0.09274914860725403, 0.7858960032463074, 0.2738417685031891, -1.006103515625, 0.076171875, -0.23486328125, 
139, 3032188265, 0.8582526445388794, -0.041512906551361084, -0.48299893736839294, -0.16859129071235657, 8.29404354095459, 0.9265864491462708, 5.153995513916016, 0.2831653356552124, 1.1849913597106934, 0.3292197287082672, -1.007080078125, 0.0751953125, -0.234375, 
140, 3032196598, 0.8582805395126343, -0.041458263993263245, -0.48296692967414856, -0.16855433583259583, 8.236312866210938, 0.9040907621383667, 5.1238532066345215, 0.7095655202865601, 0.14779412746429443, 0.362082839012146, -1.00634765625, 0.0732421875, -0.23291015625, 
141, 3032204931, 0.8582485914230347, -0.041411638259887695, -0.48304110765457153, -0.1685160994529724, 8.201521873474121, 0.9107003211975098, 5.122472763061523, 0.893655002117157, -1.5094596147537231, 0.26961541175842285, -1.005859375, 0.0751953125, -0.234375, 
142, 3032213264, 0.8581831455230713, -0.04141612350940704, -0.4831591844558716, -0.16851013898849487, 8.245809555053711, 0.9386606216430664, 5.167238712310791, 0.10043340176343918, -2.361619472503662, 0.08631996810436249, -1.0078125, 0.07421875, -0.23486328125, 
143, 3032221597, 0.8581239581108093, -0.04146525263786316, -0.4832461178302765, -0.16854959726333618, 8.290491104125977, 0.9266061186790466, 5.194185733795166, -0.8021993637084961, -2.025074005126953, -0.11945197731256485, -1.0078125, 0.074462890625, -0.2353515625, 
144, 3032229930, 0.8580951690673828, -0.04151630401611328, -0.48327839374542236, -0.16859138011932373, 8.316546440124512, 0.9046200513839722, 5.224700927734375, -0.9448451399803162, -1.186079978942871, -0.03397728502750397, -1.01025390625, 0.072509765625, -0.23681640625, 
145, 3032238263, 0.8580754399299622, -0.04156014323234558, -0.4832991361618042, -0.16862145066261292, 8.317261695861816, 0.907874584197998, 5.1981282234191895, -0.792491614818573, -0.9734817743301392, 0.09372248500585556, -1.00830078125, 0.073486328125, -0.23681640625, 
146, 3032246596, 0.8580671548843384, -0.041578322649002075, -0.4833141565322876, -0.1686159372329712, 8.33149528503418, 0.8993626832962036, 5.189366340637207, -0.2704222798347473, -0.797332763671875, 0.3632355034351349, -1.008544921875, 0.0751953125, -0.2353515625, 
147, 3032254929, 0.8580601215362549, -0.04159174859523773, -0.48332756757736206, -0.1686098575592041, 8.321195602416992, 0.8840413093566895, 5.2037577629089355, -0.1958848536014557, -0.7509965300559998, 0.3571392595767975, -1.00732421875, 0.072998046875, -0.23486328125, 
148, 3032263262, 0.8580656051635742, -0.04158397018909454, -0.48332375288009644, -0.1685948669910431, 8.324636459350586, 0.9317510724067688, 5.22032356262207, 0.06075696274638176, -0.4300757944583893, 0.3442040979862213, -1.009765625, 0.073486328125, -0.23291015625, 
149, 3032271595, 0.8580735921859741, -0.0415651798248291, -0.4833161234855652, -0.1685810387134552, 8.300909996032715, 0.9162002801895142, 5.2217254638671875, 0.18908430635929108, -0.33440667390823364, 0.2758396863937378, -1.00732421875, 0.072998046875, -0.23583984375, 
150, 3032279928, 0.858081042766571, -0.04154260456562042, -0.4833073616027832, -0.16857343912124634, 8.296955108642578, 0.9163082242012024, 5.222699165344238, 0.17722487449645996, -0.31850019097328186, 0.16626200079917908, -1.00830078125, 0.073974609375, -0.2353515625, 
151, 3032288261, 0.8580784797668457, -0.04154765605926514, -0.4833093285560608, -0.1685793399810791, 8.30085277557373, 0.9183606505393982, 5.230430603027344, -0.21074111759662628, -0.5610157251358032, 0.1705651730298996, -1.00634765625, 0.0751953125, -0.234375, 
152, 3032296594, 0.8580847978591919, -0.04156239330768585, -0.48328495025634766, -0.16861358284950256, 8.334914207458496, 0.9131605625152588, 5.246545791625977, -0.5783053636550903, -0.20461931824684143, -0.07237301766872406, -1.008056640625, 0.0751953125, -0.2333984375, 
153, 3032304927, 0.8581032156944275, -0.041568487882614136, -0.4832419753074646, -0.16864171624183655, 8.320494651794434, 0.9145339131355286, 5.187699317932129, -0.42805227637290955, 0.12156513333320618, 0.009759021922945976, -1.00732421875, 0.07421875, -0.23486328125, 
154, 3032313260, 0.8581357002258301, -0.04152028262615204, -0.483190655708313, -0.16863533854484558, 8.319493293762207, 0.9066371321678162, 5.179566860198975, 0.38600650429725647, 0.4091874063014984, 0.06293417513370514, -1.009033203125, 0.075927734375, -0.236328125, 
155, 3032321593, 0.8581633567810059, -0.04144775867462158, -0.48316410183906555, -0.16858839988708496, 8.29096794128418, 0.925792396068573, 5.188492774963379, 0.9795651435852051, 0.12207744270563126, 0.3493013083934784, -1.007568359375, 0.076171875, -0.23583984375, 
156, 3032329926, 0.8581673502922058, -0.041457682847976685, -0.48315340280532837, -0.16859641671180725, 8.249202728271484, 0.9384246468544006, 5.276866436004639, -0.3169889450073242, -0.3858399987220764, 0.19005760550498962, -1.0048828125, 0.07470703125, -0.23583984375, 
157, 3032338259, 0.8581633567810059, -0.04147818684577942, -0.4831634759902954, -0.1685832142829895, 8.284930229187012, 0.8936547636985779, 5.233041286468506, -0.244756817817688, -0.7137790322303772, 0.4929971396923065, -1.00927734375, 0.072021484375, -0.23681640625, 
158, 3032346592, 0.8582178354263306, -0.04146134853363037, -0.48308414220809937, -0.1685369312763214, 8.325165748596191, 0.9060645699501038, 5.127400875091553, 0.22955475747585297, 0.7917103171348572, 0.8091793060302734, -1.00390625, 0.07421875, -0.2373046875, 
159, 3032354925, 0.8582485914230347, -0.041471824049949646, -0.4830348491668701, -0.16851931810379028, 8.2731351852417, 0.9670143127441406, 5.133566856384277, -0.21686293184757233, 0.23887836933135986, 0.5902288556098938, -1.0087890625, 0.073486328125, -0.23486328125, 
160, 3032363258, 0.8582029342651367, -0.04155197739601135, -0.48309317231178284, -0.1685645878314972, 8.264082908630371, 0.8943073153495789, 5.156444549560547, -1.2614881992340088, -1.671879529953003, 0.06426610797643661, -1.006591796875, 0.07568359375, -0.23486328125, 
161, 3032371591, 0.8581638336181641, -0.04162116348743439, -0.4831429719924927, -0.1686038076877594, 8.311014175415039, 0.8544120788574219, 5.197845935821533, -1.161259651184082, -1.5050538778305054, 0.050664953887462616, -1.005859375, 0.072998046875, -0.2353515625, 
162, 3032379924, 0.8581699132919312, -0.04161548614501953, -0.48313426971435547, -0.1685989499092102, 8.341896057128906, 0.8463029265403748, 5.222540855407715, -0.04076505824923515, -0.3667062520980835, 0.2426948994398117, -1.0068359375, 0.0732421875, -0.2314453125, 
163, 3032388257, 0.858211874961853, -0.04158151149749756, -0.48307663202285767, -0.1685594618320465, 8.28887939453125, 0.8825601935386658, 5.184452056884766, 0.4744012653827667, 0.5065727233886719, 0.6071597933769226, -1.0068359375, 0.073486328125, -0.23486328125, 
164, 3032396590, 0.858212947845459, -0.04157273471355438, -0.48308005928993225, -0.16854679584503174, 8.246712684631348, 0.8736124634742737, 5.170046329498291, 0.07131002843379974, -0.5411391258239746, 0.29528090357780457, -1.00732421875, 0.073486328125, -0.23583984375, 
165, 3032404923, 0.8581714630126953, -0.04159592092037201, -0.48314669728279114, -0.1685609519481659, 8.275832176208496, 0.8888837695121765, 5.216854572296143, -0.382894366979599, -1.624979853630066, 0.04485052824020386, -1.005859375, 0.07275390625, -0.2333984375, 
166, 3032413256, 0.8581408858299255, -0.041610002517700195, -0.48319941759109497, -0.16856169700622559, 8.303327560424805, 0.9154136776924133, 5.274148941040039, -0.1900448203086853, -1.3749336004257202, 0.1893147975206375, -1.00537109375, 0.073486328125, -0.23779296875, 
167, 3032421589, 0.8581292629241943, -0.041589587926864624, -0.4832262694835663, -0.16854918003082275, 8.28005313873291, 0.9297120571136475, 5.281637668609619, 0.323584645986557, -0.8618806600570679, 0.21938595175743103, -1.00830078125, 0.074951171875, -0.2353515625, 
168, 3032429922, 0.8581405282020569, -0.04159839451313019, -0.48320311307907104, -0.16855615377426147, 8.326024055480957, 0.9418792128562927, 5.245565891265869, -0.32072868943214417, -0.18745779991149902, 0.22005191445350647, -1.0078125, 0.07373046875, -0.234375, 
169, 3032438255, 0.8581634759902954, -0.041631996631622314, -0.4831470847129822, -0.16859129071235657, 8.317740440368652, 0.9227524995803833, 5.202470302581787, -0.8836783766746521, 0.23875030875205994, 0.09305652230978012, -1.00537109375, 0.072021484375, -0.23583984375, 
170, 3032446588, 0.8581871390342712, -0.04168581962585449, -0.48308783769607544, -0.16862696409225464, 8.299943923950195, 0.9056715369224548, 5.205524444580078, -1.120866060256958, 0.23298706114292145, 0.22819721698760986, -1.00732421875, 0.0732421875, -0.232421875, 
171, 3032454921, 0.8582085371017456, -0.041730135679244995, -0.48303574323654175, -0.16865578293800354, 8.295666694641113, 0.9003642797470093, 5.213436126708984, -0.9328064322471619, 0.15878261625766754, 0.24917525053024292, -1.00830078125, 0.074462890625, -0.23486328125, 
172, 3032463254, 0.8582332134246826, -0.041744962334632874, -0.4829897880554199, -0.16865891218185425, 8.288334846496582, 0.8992053270339966, 5.203829288482666, -0.4118896424770355, 0.1537366360425949, 0.350351482629776, -1.0068359375, 0.07470703125, -0.234375, 
173, 3032471587, 0.8582620620727539, -0.04175777733325958, -0.48293358087539673, -0.16867029666900635, 8.279837608337402, 0.8997779488563538, 5.1736884117126465, -0.45799529552459717, 0.31825685501098633, 0.2613932490348816, -1.0068359375, 0.073974609375, -0.23583984375, 
174, 3032479920, 0.858270525932312, -0.04179394245147705, -0.4829058051109314, -0.1686972975730896, 8.256562232971191, 0.889606237411499, 5.170840263366699, -0.7889312505722046, -0.2043631672859192, 0.1615746021270752, -1.005859375, 0.07373046875, -0.23583984375, 
175, 3032488253, 0.858254611492157, -0.04183478653430939, -0.4829205572605133, -0.16872641444206238, 8.279923439025879, 0.8871313333511353, 5.193336009979248, -0.7613703012466431, -0.8699490427970886, 0.09897340089082718, -1.007080078125, 0.076171875, -0.23388671875, 
176, 3032496586, 0.8582460880279541, -0.04185543954372406, -0.482927143573761, -0.16874536871910095, 8.30927848815918, 0.8720030784606934, 5.2010178565979, -0.4817140996456146, -0.6910592317581177, 0.09413230419158936, -1.007080078125, 0.07568359375, -0.2353515625, 
177, 3032504919, 0.8582541346549988, -0.04185439646244049, -0.48291128873825073, -0.16875028610229492, 8.287490844726562, 0.914262056350708, 5.211933135986328, -0.17011693120002747, -0.2683987319469452, 0.17409995198249817, -1.00634765625, 0.07421875, -0.2353515625, 
178, 3032513252, 0.8582672476768494, -0.041867464780807495, -0.4828803539276123, -0.1687690019607544, 8.294422149658203, 0.8946847319602966, 5.2049665451049805, -0.46611499786376953, -0.08745980262756348, 0.11728758364915848, -1.00830078125, 0.072998046875, -0.236328125, 
179, 3032521585, 0.8582845330238342, -0.04188334941864014, -0.48283934593200684, -0.16879448294639587, 8.294736862182617, 0.8710590600967407, 5.184423923492432, -0.5171129703521729, 0.06700684130191803, 0.10786154121160507, -1.00732421875, 0.073974609375, -0.236328125, 
180, 3032529918, 0.8582985401153564, -0.041898712515830994, -0.4828081727027893, -0.16880905628204346, 8.295574188232422, 0.9024670720100403, 5.199408054351807, -0.4653466045856476, -0.08605101704597473, 0.1844993382692337, -1.00732421875, 0.070068359375, -0.2373046875, 
181, 3032538251, 0.8582984209060669, -0.04191538691520691, -0.48280009627342224, -0.1688280701637268, 8.280288696289062, 0.9113651514053345, 5.203371524810791, -0.3873000144958496, -0.438349187374115, 0.14843448996543884, -1.006591796875, 0.0751953125, -0.234375, 
182, 3032546584, 0.8583065271377563, -0.041918814182281494, -0.48278066515922546, -0.16884204745292664, 8.287018775939941, 0.9066228270530701, 5.204029560089111, -0.2975221574306488, -0.2363041341304779, 0.09210879355669022, -1.008056640625, 0.074951171875, -0.23681640625, 
183, 3032554917, 0.8583087921142578, -0.04193924367427826, -0.48276567459106445, -0.16886809468269348, 8.281061172485352, 0.8948563933372498, 5.228055953979492, -0.45118191838264465, -0.34255194664001465, 0.12778940796852112, -1.00732421875, 0.074462890625, -0.23779296875, 
184, 3032563250, 0.8583110570907593, -0.041933536529541016, -0.4827604293823242, -0.1688723862171173, 8.267334938049316, 0.8985973596572876, 5.225037097930908, -0.09422197192907333, -0.4258494973182678, 0.12335816770792007, -1.0068359375, 0.074462890625, -0.23681640625, 
185, 3032571583, 0.8583019375801086, -0.0419297069311142, -0.4827765226364136, -0.1688741147518158, 8.281353950500488, 0.9050205945968628, 5.228656768798828, -0.04550369083881378, -0.7544288039207458, 0.1389828473329544, -1.007568359375, 0.07666015625, -0.2353515625, 
186, 3032579916, 0.8582937717437744, -0.0419187992811203, -0.4827898144721985, -0.16888019442558289, 8.282541275024414, 0.9141404628753662, 5.2180633544921875, -0.010796399787068367, -0.7013049721717834, 0.03457922115921974, -1.0078125, 0.073974609375, -0.23583984375, 
187, 3032588249, 0.858285129070282, -0.041913822293281555, -0.4828018546104431, -0.1688908338546753, 8.308941841125488, 0.9028748869895935, 5.233276844024658, -0.11937513947486877, -0.6968992948532104, 0.016572408378124237, -1.0068359375, 0.072509765625, -0.2353515625, 
188, 3032596582, 0.858285665512085, -0.041912928223609924, -0.48279669880867004, -0.16890332102775574, 8.307433128356934, 0.8864303827285767, 5.22976541519165, -0.20884568989276886, -0.4461359679698944, 0.05512183904647827, -1.0068359375, 0.074951171875, -0.2373046875, 
189, 3032604915, 0.8582916259765625, -0.041912779211997986, -0.48278242349624634, -0.1689140498638153, 8.313284873962402, 0.8892557621002197, 5.221453666687012, -0.15649017691612244, -0.29193827509880066, 0.1430554986000061, -1.0087890625, 0.073974609375, -0.23486328125, 
190, 3032613248, 0.8583065271377563, -0.041904836893081665, -0.4827567934989929, -0.1689140796661377, 8.28777027130127, 0.9074097275733948, 5.210981845855713, -0.08187589794397354, -0.10019008070230484, 0.1994580328464508, -1.009765625, 0.071044921875, -0.236328125, 
191, 3032621581, 0.8583184480667114, -0.041884422302246094, -0.48273760080337524, -0.16891276836395264, 8.27863597869873, 0.9054998755455017, 5.19770622253418, 0.07179670035839081, -0.16427691280841827, 0.116570383310318, -1.00390625, 0.072998046875, -0.23681640625, 
192, 3032629914, 0.8583231568336487, -0.04186272621154785, -0.48272860050201416, -0.16891995072364807, 8.304672241210938, 0.9100061655044556, 5.2197370529174805, 0.06557244062423706, -0.32800307869911194, -0.009746215306222439, -1.01025390625, 0.072998046875, -0.234375, 
193, 3032638247, 0.8583215475082397, -0.04184064269065857, -0.4827369451522827, -0.16890966892242432, 8.28706169128418, 0.9068517088890076, 5.216217994689941, 0.17760910093784332, -0.5836332440376282, 0.14413130283355713, -1.0068359375, 0.07421875, -0.2353515625, 
194, 3032646580, 0.8583246469497681, -0.041812777519226074, -0.48273834586143494, -0.16889676451683044, 8.300423622131348, 0.9071879386901855, 5.197234153747559, 0.29610055685043335, -0.4577391743659973, 0.17814700305461884, -1.00390625, 0.072265625, -0.234375, 
195, 3032654913, 0.858324408531189, -0.041792795062065125, -0.4827418327331543, -0.16889271140098572, 8.299543380737305, 0.9263504147529602, 5.195953845977783, 0.14313234388828278, -0.5132964849472046, 0.11905497312545776, -1.00732421875, 0.072998046875, -0.23583984375, 
196, 3032663246, 0.8583279848098755, -0.04178564250469208, -0.48273271322250366, -0.16890224814414978, 8.300467491149902, 0.9241185784339905, 5.225760459899902, -0.12165480852127075, -0.36468270421028137, 0.05732465907931328, -1.007080078125, 0.075439453125, -0.2373046875, 
197, 3032671579, 0.858335018157959, -0.041777774691581726, -0.4827191233634949, -0.16890749335289001, 8.291382789611816, 0.9251772165298462, 5.232526779174805, -0.12606045603752136, -0.29068315029144287, 0.09702672064304352, -1.00537109375, 0.075439453125, -0.23876953125, 
198, 3032679912, 0.8583481311798096, -0.04176805913448334, -0.48269933462142944, -0.16890037059783936, 8.278501510620117, 0.916858971118927, 5.225337982177734, 0.000128071173094213, -0.1812335103750229, 0.2663111984729767, -1.007568359375, 0.076171875, -0.23486328125, 
199, 3032688245, 0.858357310295105, -0.04175996780395508, -0.48268622159957886, -0.16889280080795288, 8.277877807617188, 0.9152847528457642, 5.215896129608154, -0.007850763387978077, -0.2840234637260437, 0.2684116065502167, -1.0078125, 0.072998046875, -0.2373046875, 
200, 3032696578, 0.8583652973175049, -0.041756853461265564, -0.4826720058917999, -0.1688937544822693, 8.27975845336914, 0.9014514088630676, 5.187792778015137, -0.12155235558748245, -0.2913235127925873, 0.19838224351406097, -1.0087890625, 0.073486328125, -0.23681640625, 
201, 3032704911, 0.8583614230155945, -0.041765451431274414, -0.4826752543449402, -0.16890186071395874, 8.29214096069336, 0.9026244282722473, 5.192749500274658, -0.29882848262786865, -0.5956718325614929, 0.1444130539894104, -1.00732421875, 0.072998046875, -0.23388671875, 
202, 3032713244, 0.8583561182022095, -0.04177200794219971, -0.48268258571624756, -0.16890639066696167, 8.28630542755127, 0.8787481188774109, 5.237298011779785, -0.21645312011241913, -0.6543540358543396, 0.1766357570886612, -1.005615234375, 0.076171875, -0.23486328125, 
203, 3032721577, 0.8583639860153198, -0.041757434606552124, -0.4826720058917999, -0.16890031099319458, 8.304264068603516, 0.8960221409797668, 5.228241920471191, 0.02207946963608265, -0.3122503459453583, 0.176840677857399, -1.00830078125, 0.072998046875, -0.2353515625, 
204, 3032729910, 0.8583877086639404, -0.0417325496673584, -0.48263150453567505, -0.16890135407447815, 8.308634757995605, 0.8949995040893555, 5.2072553634643555, 0.08316943049430847, 0.17384383082389832, 0.10366081446409225, -1.0078125, 0.072998046875, -0.23681640625, 
205, 3032738243, 0.8584200143814087, -0.041712433099746704, -0.48257219791412354, -0.16891154646873474, 8.296719551086426, 0.8950138092041016, 5.167364597320557, -0.05349532514810562, 0.4545758366584778, 0.07727814465761185, -1.00634765625, 0.072509765625, -0.234375, 
206, 3032746576, 0.8584431409835815, -0.041703492403030396, -0.4825308918952942, -0.16891449689865112, 8.300481796264648, 0.8933185338973999, 5.180510997772217, -0.12121935933828354, 0.14318357408046722, 0.1868046224117279, -1.007568359375, 0.07568359375, -0.2353515625, 
207, 3032754909, 0.858467698097229, -0.04169534146785736, -0.4824892580509186, -0.16891032457351685, 8.296954154968262, 0.8828396201133728, 5.191476345062256, -0.13387277722358704, 0.15073975920677185, 0.2505072057247162, -1.00634765625, 0.073974609375, -0.23779296875, 
208, 3032763242, 0.8584907650947571, -0.04168181121349335, -0.4824506640434265, -0.16890648007392883, 8.290987968444824, 0.8979036211967468, 5.194437503814697, -0.013998180627822876, 0.11744127422571182, 0.2368292361497879, -1.0078125, 0.074462890625, -0.23876953125, 
209, 3032771575, 0.8585124015808105, -0.04168550670146942, -0.482410728931427, -0.16891023516654968, 8.254831314086914, 0.887245774269104, 5.190389156341553, -0.14696167409420013, 0.10814330726861954, 0.34256476163864136, -1.007080078125, 0.075439453125, -0.2373046875, 
210, 3032779908, 0.858517050743103, -0.041686415672302246, -0.48240435123443604, -0.16890475153923035, 8.253908157348633, 0.9057645201683044, 5.181469917297363, -0.10974419862031937, -0.41780659556388855, 0.2900043725967407, -1.00634765625, 0.07421875, -0.23583984375, 
211, 3032788241, 0.8585168123245239, -0.04168678820133209, -0.48240989446640015, -0.1688893735408783, 8.247063636779785, 0.8908722996711731, 5.190839767456055, 0.012166761793196201, -0.5890120267868042, 0.4038083553314209, -1.0078125, 0.073486328125, -0.2373046875, 
212, 3032796574, 0.8585128784179688, -0.041680142283439636, -0.4824238717556, -0.1688712239265442, 8.260581970214844, 0.8661448955535889, 5.217777252197266, 0.10530012845993042, -0.7053520679473877, 0.35672950744628906, -1.0048828125, 0.072998046875, -0.23779296875, 
213, 3032804907, 0.8585124015808105, -0.04168260097503662, -0.48243290185928345, -0.16884714365005493, 8.275497436523438, 0.8506592512130737, 5.218106746673584, 0.04000943899154663, -0.6421104669570923, 0.509364664554596, -1.006591796875, 0.0771484375, -0.23583984375, 
214, 3032813240, 0.8585150241851807, -0.04170197248458862, -0.4824373722076416, -0.16881653666496277, 8.300923347473145, 0.862396776676178, 5.21821403503418, -0.13807353377342224, -0.6174182891845703, 0.6978854537010193, -1.00732421875, 0.072998046875, -0.2373046875, 
215, 3032821573, 0.8585177659988403, -0.041714802384376526, -0.4824411869049072, -0.16878852248191833, 8.31493091583252, 0.8938268423080444, 5.222462177276611, -0.00895217526704073, -0.5802009105682373, 0.6717589497566223, -1.00732421875, 0.072509765625, -0.2373046875, 
216, 3032829906, 0.8585119247436523, -0.04172973334789276, -0.48245614767074585, -0.16877195239067078, 8.277134895324707, 0.9002355337142944, 5.228471279144287, -0.15876983106136322, -0.7789416313171387, 0.4779872000217438, -1.01123046875, 0.073974609375, -0.237548828125, 
217, 3032838239, 0.8585009574890137, -0.04172809422016144, -0.4824833273887634, -0.16874998807907104, 8.280881881713867, 0.9140832424163818, 5.271509170532227, 0.08509048074483871, -0.9182831048965454, 0.40647226572036743, -1.0048828125, 0.073486328125, -0.23681640625, 
218, 3032846572, 0.8585078120231628, -0.041699230670928955, -0.4824838936328888, -0.16872063279151917, 8.3009672164917, 0.9078531265258789, 5.239657878875732, 0.4177681505680084, -0.4301014244556427, 0.3741983473300934, -1.00830078125, 0.074462890625, -0.23486328125, 
219, 3032854905, 0.858531653881073, -0.04165416955947876, -0.48245495557785034, -0.16869336366653442, 8.332947731018066, 0.8981539011001587, 5.252911567687988, 0.612385094165802, 0.08132518827915192, 0.35260552167892456, -1.00634765625, 0.074462890625, -0.236328125, 
220, 3032863238, 0.8585563898086548, -0.041595980525016785, -0.4824264347553253, -0.16866359114646912, 8.285173416137695, 0.9159859418869019, 5.233935356140137, 0.7094631791114807, 0.1004590317606926, 0.24243874847888947, -1.007568359375, 0.0771484375, -0.2373046875, 
221, 3032871571, 0.8585724234580994, -0.04154214262962341, -0.48240575194358826, -0.16865402460098267, 8.236662864685059, 0.9167514443397522, 5.251946926116943, 0.5810076594352722, -0.03948434069752693, 0.04295507073402405, -1.0068359375, 0.073974609375, -0.2353515625, 
222, 3032879904, 0.8586242198944092, -0.04146532714366913, -0.48233598470687866, -0.16860932111740112, 8.296647071838379, 0.8477696776390076, 5.216774940490723, 0.9487255811691284, 0.7998557090759277, 0.38224121928215027, -1.005859375, 0.072998046875, -0.23681640625, 
223, 3032888237, 0.8586863279342651, -0.041400060057640076, -0.48224541544914246, -0.1685682237148285, 8.300703048706055, 0.8885475993156433, 5.187305927276611, 0.7347955107688904, 1.0943937301635742, 0.44993963837623596, -1.00732421875, 0.073974609375, -0.23876953125, 
224, 3032896570, 0.8587379455566406, -0.04138271510601044, -0.48216506838798523, -0.16853967308998108, 8.249794960021973, 0.9185969829559326, 5.1880574226379395, 0.11393211781978607, 0.7944255471229553, 0.5917912721633911, -1.005126953125, 0.076171875, -0.23486328125, 
225, 3032904903, 0.8587731719017029, -0.041350945830345154, -0.48211467266082764, -0.16851183772087097, 8.248150825500488, 0.904140830039978, 5.1815266609191895, 0.3036567270755768, 0.3681533932685852, 0.4132600426673889, -1.00732421875, 0.072021484375, -0.23583984375, 
226, 3032913236, 0.8588196039199829, -0.041319459676742554, -0.48204559087753296, -0.16848012804985046, 8.300724983215332, 0.8458947539329529, 5.189280986785889, 0.3245323598384857, 0.6610777378082275, 0.5170488953590393, -1.00537109375, 0.071533203125, -0.234375, 
227, 3032921569, 0.8588674068450928, -0.04132179915904999, -0.48196491599082947, -0.1684672236442566, 8.333569526672363, 0.8423404097557068, 5.1886796951293945, -0.17880018055438995, 0.7464500069618225, 0.5607467889785767, -1.006103515625, 0.076171875, -0.23828125, 
228, 3032929902, 0.8589276075363159, -0.04132811725139618, -0.4818649888038635, -0.1684442162513733, 8.315895080566406, 0.8625184297561646, 5.1762189865112305, -0.2428869754076004, 1.0324585437774658, 0.714329719543457, -1.005859375, 0.074951171875, -0.23876953125, 
229, 3032938235, 0.8589709401130676, -0.041311100125312805, -0.4818000793457031, -0.16841313242912292, 8.28433609008789, 0.8440572619438171, 5.200009822845459, 0.07694515585899353, 0.5523709654808044, 0.5487849712371826, -1.00634765625, 0.074951171875, -0.23876953125, 
230, 3032946568, 0.8590261340141296, -0.04126499593257904, -0.48172295093536377, -0.16836336255073547, 8.302926063537598, 0.8630553483963013, 5.191618919372559, 0.6045471429824829, 0.8370988368988037, 0.6583369970321655, -1.005859375, 0.073486328125, -0.23828125, 
231, 3032954901, 0.8590821623802185, -0.04120062291622162, -0.48164504766464233, -0.16831645369529724, 8.318256378173828, 0.8610944747924805, 5.245244026184082, 0.7867924571037292, 0.8975739479064941, 0.5032172203063965, -1.00537109375, 0.072509765625, -0.23779296875, 
232, 3032963234, 0.8591604232788086, -0.041121333837509155, -0.48153358697891235, -0.16825497150421143, 8.287313461303711, 0.8391374945640564, 5.230156898498535, 1.0073565244674683, 1.4650830030441284, 0.6490390300750732, -1.00537109375, 0.073486328125, -0.23876953125, 
233, 3032971567, 0.8592338562011719, -0.04104575514793396, -0.48142531514167786, -0.1682087779045105, 8.2910795211792, 0.8681135177612305, 5.233443737030029, 0.8668625354766846, 1.398537039756775, 0.48390406370162964, -1.00927734375, 0.072998046875, -0.2392578125, 
234, 3032979900, 0.8593043088912964, -0.04096004366874695, -0.4813184142112732, -0.16817569732666016, 8.280075073242188, 0.8962579369544983, 5.241868495941162, 0.9012112617492676, 1.3898283243179321, 0.2520696818828583, -1.00830078125, 0.074462890625, -0.23681640625, 
235, 3032988233, 0.8593725562095642, -0.040855348110198975, -0.48121902346611023, -0.16813600063323975, 8.271063804626465, 0.8992940187454224, 5.227556228637695, 1.185836672782898, 1.3315304517745972, 0.19679418206214905, -1.005859375, 0.073974609375, -0.2412109375, 
236, 3032996566, 0.8594395518302917, -0.04076653718948364, -0.48111820220947266, -0.1681039035320282, 8.2450532913208, 0.8980680704116821, 5.29742431640625, 0.9417329430580139, 1.3020483255386353, 0.20703986287117004, -1.00634765625, 0.074462890625, -0.2392578125, 
237, 3033004899, 0.8595068454742432, -0.0406874418258667, -0.48101723194122314, -0.16806843876838684, 8.240318298339844, 0.9059719443321228, 5.2978034019470215, 0.825188159942627, 1.2842464447021484, 0.298252135515213, -1.0068359375, 0.074951171875, -0.23779296875, 
238, 3033013232, 0.859576940536499, -0.04058389365673065, -0.4809199869632721, -0.16801291704177856, 8.272614479064941, 0.9201192855834961, 5.242856979370117, 1.2822229862213135, 1.3009213209152222, 0.39374199509620667, -1.005859375, 0.074462890625, -0.24072265625, 
239, 3033021565, 0.8596620559692383, -0.040392130613327026, -0.4808203876018524, -0.1679084599018097, 8.299092292785645, 0.9716173410415649, 5.160521030426025, 2.6379330158233643, 1.6100596189498901, 0.4176657199859619, -1.006591796875, 0.075439453125, -0.23876953125, 
240, 3033029898, 0.859707772731781, -0.04022674262523651, -0.4807710647583008, -0.16785597801208496, 8.226702690124512, 0.9658365249633789, 5.254459381103516, 2.0912485122680664, 0.7171216607093811, -0.13533282279968262, -1.0078125, 0.072998046875, -0.2421875, 
241, 3033038231, 0.8596734404563904, -0.040157824754714966, -0.48083555698394775, -0.16786280274391174, 8.249837875366211, 0.9314215779304504, 5.335440635681152, 0.7182487845420837, -1.3466556072235107, -0.48115065693855286, -1.0048828125, 0.072998046875, -0.2392578125, 
242, 3033046564, 0.8596971035003662, -0.04000411927700043, -0.4808228015899658, -0.16781464219093323, 8.357202529907227, 0.9615373611450195, 5.172302722930908, 1.9955793619155884, 0.11587879061698914, -0.18097738921642303, -1.00537109375, 0.074462890625, -0.24169921875, 
243, 3033054897, 0.8597655296325684, -0.03981694579124451, -0.48073261976242065, -0.16776761412620544, 8.333660125732422, 1.0440987348556519, 5.11616325378418, 2.247469902038574, 1.4115750789642334, -0.2544133961200714, -1.00634765625, 0.072509765625, -0.2421875, 
244, 3033063230, 0.8598304986953735, -0.03979101777076721, -0.48059964179992676, -0.1678219735622406, 8.220843315124512, 1.0943048000335693, 5.164068698883057, -0.4460847079753876, 1.5723553895950317, -0.3870694935321808, -1.0048828125, 0.073486328125, -0.2412109375, 
245, 3033071563, 0.8598337173461914, -0.03993973135948181, -0.48052793741226196, -0.16797485947608948, 8.217169761657715, 0.9624132513999939, 5.242252826690674, -3.0672149658203125, 0.09477266669273376, -0.577101469039917, -1.0048828125, 0.072998046875, -0.244140625, 
246, 3033079896, 0.8598242998123169, -0.04018598794937134, -0.48046714067459106, -0.1681382954120636, 8.255306243896484, 0.8945660591125488, 5.3292341232299805, -4.261965751647949, -0.34401199221611023, -0.08838193118572235, -1.00634765625, 0.071044921875, -0.24072265625, 
247, 3033088229, 0.8599105477333069, -0.04032963514328003, -0.4802796244621277, -0.1681990921497345, 8.25649356842041, 0.9274578094482422, 5.230208396911621, -2.652008295059204, 1.9699907302856445, 0.7125367522239685, -1.00634765625, 0.072509765625, -0.2412109375, 
248, 3033096562, 0.8600159883499146, -0.04032088816165924, -0.480099081993103, -0.16817662119865417, 8.231436729431152, 0.9813072681427002, 5.192265033721924, -0.23125812411308289, 2.3206496238708496, 0.7561066150665283, -1.0068359375, 0.074462890625, -0.2412109375, 
249, 3033104895, 0.8600313663482666, -0.04032143950462341, -0.48005953431129456, -0.16821089386940002, 8.21778678894043, 0.9775645732879639, 5.191625595092773, -0.44693002104759216, 0.07066968083381653, -0.14217182993888855, -1.00439453125, 0.07177734375, -0.24560546875, 
250, 3033113228, 0.8599392175674438, -0.04030229151248932, -0.48020339012145996, -0.16827592253684998, 8.254158973693848, 0.9202632308006287, 5.22519063949585, -0.04371068626642227, -2.748445510864258, -0.9824723601341248, -1.008544921875, 0.075439453125, -0.24072265625, 
251, 3033121561, 0.859852135181427, -0.040214747190475464, -0.480356901884079, -0.1683041751384735, 8.292888641357422, 0.8844985961914062, 5.275012016296387, 1.1654222011566162, -2.6712958812713623, -0.9039648771286011, -1.006591796875, 0.074951171875, -0.244140625, 
252, 3033129894, 0.8597902059555054, -0.04009780287742615, -0.4804771840572357, -0.16830503940582275, 8.274637222290039, 0.9410771131515503, 5.35618257522583, 1.4986120462417603, -2.0798885822296143, -0.7875224351882935, -1.006103515625, 0.074951171875, -0.24462890625, 
253, 3033138227, 0.8597499132156372, -0.04002921283245087, -0.4805355370044708, -0.16836056113243103, 8.249052047729492, 1.0229564905166626, 5.317404747009277, 0.5412799715995789, -1.2690445184707642, -0.9594964385032654, -1.00537109375, 0.073974609375, -0.240234375, 
254, 3033146560, 0.8597480058670044, -0.040010854601860046, -0.48050007224082947, -0.1684758961200714, 8.256083488464355, 1.0439074039459229, 5.262604236602783, -0.7522003650665283, -0.006570050027221441, -1.2646130323410034, -1.005859375, 0.074462890625, -0.24365234375, 
255, 3033154893, 0.8597568869590759, -0.04002043604850769, -0.48043292760849, -0.16861948370933533, 8.246150970458984, 0.9778594970703125, 5.244960308074951, -1.3122299909591675, 0.39748165011405945, -1.3554924726486206, -1.00439453125, 0.073486328125, -0.24072265625, 
256, 3033163226, 0.8597466945648193, -0.04003329575061798, -0.4804045557975769, -0.1687491536140442, 8.256818771362305, 0.9776630401611328, 5.263537883758545, -1.2040610313415527, -0.21007513999938965, -1.2505767345428467, -1.0068359375, 0.07080078125, -0.24365234375, 
257, 3033171559, 0.8597248792648315, -0.04005773365497589, -0.48040342330932617, -0.16885775327682495, 8.260424613952637, 1.0016340017318726, 5.29775333404541, -1.0883103609085083, -0.6364496350288391, -0.9270430207252502, -1.00732421875, 0.071533203125, -0.240234375, 
258, 3033179892, 0.8597357273101807, -0.04009540379047394, -0.48034703731536865, -0.16895389556884766, 8.283235549926758, 0.9603692889213562, 5.2714948654174805, -1.3293659687042236, 0.18380774557590485, -0.6278689503669739, -1.005859375, 0.06982421875, -0.24365234375, 
259, 3033188225, 0.8597618341445923, -0.0401335209608078, -0.4802672564983368, -0.1690388023853302, 8.241570472717285, 0.9429088830947876, 5.248319149017334, -1.2524464130401611, 0.5654342174530029, -0.4046408534049988, -1.0068359375, 0.072509765625, -0.24169921875, 
260, 3033196558, 0.8597754836082458, -0.040157124400138855, -0.4802180826663971, -0.16910353302955627, 8.197637557983398, 0.9340111017227173, 5.196168422698975, -0.9370198845863342, 0.13251523673534393, -0.3460739254951477, -1.0078125, 0.0712890625, -0.24365234375, 
261, 3033204891, 0.8597539663314819, -0.040152937173843384, -0.4802425801753998, -0.16914358735084534, 8.180842399597168, 0.9374158382415771, 5.174073219299316, -0.2890437841415405, -0.9120844602584839, -0.35251584649086, -1.0048828125, 0.072509765625, -0.24267578125, 
262, 3033213224, 0.8597075939178467, -0.04017893970012665, -0.48029929399490356, -0.16921254992485046, 8.217628479003906, 0.9068342447280884, 5.193883419036865, -0.78009432554245, -1.5183477401733398, -0.5797397494316101, -1.00537109375, 0.072021484375, -0.24267578125, 
263, 3033221557, 0.8596577644348145, -0.040245383977890015, -0.48034706711769104, -0.16931453347206116, 8.272367477416992, 0.9049643278121948, 5.213146209716797, -1.5143007040023804, -1.5076923370361328, -0.7096808552742004, -1.00732421875, 0.072021484375, -0.24267578125, 
264, 3033229890, 0.8596276044845581, -0.040318846702575684, -0.4803568124771118, -0.16942280530929565, 8.257896423339844, 0.8704550862312317, 5.255975723266602, -1.7017971277236938, -0.9467917680740356, -0.6673917174339294, -1.0087890625, 0.07080078125, -0.24365234375, 
265, 3033238223, 0.8596092462539673, -0.040412381291389465, -0.4803479015827179, -0.16951891779899597, 8.227018356323242, 0.8318389654159546, 5.254393100738525, -1.923974871635437, -0.6981543898582458, -0.36547672748565674, -1.01123046875, 0.0693359375, -0.2431640625, 
266, 3033246556, 0.8596043586730957, -0.04049904644489288, -0.4803270995616913, -0.16958242654800415, 8.229657173156738, 0.8154678344726562, 5.263286113739014, -1.619037389755249, -0.4719294607639313, 0.025588620454072952, -1.0068359375, 0.07177734375, -0.24365234375, 
267, 3033254889, 0.8596187233924866, -0.04057638347148895, -0.4802812933921814, -0.16961967945098877, 8.234624862670898, 0.826675534248352, 5.24495792388916, -1.3657894134521484, -0.035667821764945984, 0.3475339412689209, -1.005859375, 0.072509765625, -0.2421875, 
268, 3033263222, 0.8596327304840088, -0.04063943028450012, -0.48025059700012207, -0.1696208119392395, 8.242321014404297, 0.8577904105186462, 5.265823841094971, -0.9400295615196228, -0.2117912918329239, 0.6570307016372681, -1.00732421875, 0.0712890625, -0.2421875, 
269, 3033271555, 0.8596405982971191, -0.04069626331329346, -0.4802383482456207, -0.16960248351097107, 8.245147705078125, 0.8553370237350464, 5.259407043457031, -0.7012025117874146, -0.45922479033470154, 0.8224218487739563, -1.00732421875, 0.071533203125, -0.24072265625, 
270, 3033279888, 0.8596349954605103, -0.040779903531074524, -0.48024827241897583, -0.16958248615264893, 8.261225700378418, 0.8561452031135559, 5.2863945960998535, -0.9609051942825317, -0.8787347674369812, 0.975979208946228, -1.0087890625, 0.072509765625, -0.24169921875, 
271, 3033288221, 0.8596184253692627, -0.04087929427623749, -0.480275958776474, -0.169563889503479, 8.27332878112793, 0.8558661937713623, 5.317687034606934, -1.0859795808792114, -1.1904088258743286, 1.0503630638122559, -1.005859375, 0.071044921875, -0.24267578125, 
272, 3033296554, 0.8596190214157104, -0.041002705693244934, -0.4802664518356323, -0.16955828666687012, 8.285541534423828, 0.858465850353241, 5.33856725692749, -1.567399024963379, -0.6936206817626953, 1.0934972763061523, -1.00732421875, 0.072021484375, -0.2421875, 
273, 3033304887, 0.8596410751342773, -0.04108239710330963, -0.4802303910255432, -0.1695285141468048, 8.281869888305664, 0.9181960821151733, 5.304333686828613, -0.9465101361274719, -0.145757794380188, 1.1535626649856567, -1.00634765625, 0.072998046875, -0.244140625, 
274, 3033313220, 0.8596658706665039, -0.04108805954456329, -0.48021233081817627, -0.16945281624794006, 8.290596008300781, 0.9432811737060547, 5.255157947540283, 0.28050142526626587, -0.1984974890947342, 1.2036895751953125, -1.0068359375, 0.073486328125, -0.2412109375, 
275, 3033321553, 0.8596756458282471, -0.04104691743850708, -0.48023027181625366, -0.16936257481575012, 8.271011352539062, 0.9610202312469482, 5.2882184982299805, 0.9752106666564941, -0.6210811138153076, 0.9961631298065186, -1.00634765625, 0.0703125, -0.2431640625, 
276, 3033329886, 0.8596788048744202, -0.04108743369579315, -0.48022952675819397, -0.1693389117717743, 8.219854354858398, 0.9520505666732788, 5.394423961639404, -0.44708359241485596, -0.5984637141227722, 0.7597693800926208, -1.00732421875, 0.072998046875, -0.240234375, 
277, 3033338219, 0.8596881628036499, -0.04114679992198944, -0.4802151620388031, -0.16931778192520142, 8.210920333862305, 0.8836765289306641, 5.3229241371154785, -0.7119604349136353, -0.4323042333126068, 0.8790292739868164, -1.0068359375, 0.072265625, -0.24365234375, 
278, 3033346552, 0.859747052192688, -0.041202113032341, -0.48011648654937744, -0.1692848801612854, 8.230419158935547, 0.9157713055610657, 5.213736057281494, -0.7567341923713684, 0.8890445232391357, 1.151641607284546, -1.0087890625, 0.07177734375, -0.24169921875, 
279, 3033354885, 0.8597979545593262, -0.041292235255241394, -0.48001623153686523, -0.16928890347480774, 8.225353240966797, 0.9978618621826172, 5.163524627685547, -1.4151991605758667, 0.7997276186943054, 0.9336132407188416, -1.00927734375, 0.073486328125, -0.24267578125, 
280, 3033363218, 0.8597711324691772, -0.04143790900707245, -0.4800298810005188, -0.16935116052627563, 8.21870231628418, 0.9166131615638733, 5.178643703460693, -2.240541458129883, -1.1622331142425537, 0.3593933582305908, -1.009765625, 0.07421875, -0.24365234375, 
281, 3033371551, 0.8597418069839478, -0.041591763496398926, -0.4800465703010559, -0.16941481828689575, 8.280033111572266, 0.8722760081291199, 5.192551136016846, -2.325939178466797, -1.2249112129211426, 0.4025789499282837, -1.00634765625, 0.073486328125, -0.2431640625, 
282, 3033379884, 0.859718918800354, -0.041669294238090515, -0.48007434606552124, -0.1694328486919403, 8.300238609313965, 0.8693711161613464, 5.239070892333984, -1.1069575548171997, -1.1686878204345703, 0.4348272383213043, -1.00732421875, 0.073486328125, -0.24462890625, 
283, 3033388217, 0.8597292900085449, -0.04168817400932312, -0.4800572395324707, -0.1694241166114807, 8.262112617492676, 0.9092121720314026, 5.234958171844482, -0.29045262932777405, -0.2880192995071411, 0.4900771677494049, -1.00634765625, 0.073974609375, -0.24267578125, 
284, 3033396550, 0.8597233295440674, -0.041697949171066284, -0.4800662398338318, -0.16942685842514038, 8.228595733642578, 0.9188684225082397, 5.218736171722412, -0.23971080780029297, -0.687421977519989, 0.219334676861763, -1.0087890625, 0.072265625, -0.2421875, 
285, 3033404883, 0.8596824407577515, -0.0417359322309494, -0.48012465238571167, -0.16945940256118774, 8.241106986999512, 0.8985608220100403, 5.248077392578125, -0.7231794595718384, -1.5502630472183228, -0.08676822483539581, -1.0068359375, 0.074951171875, -0.23974609375, 
286, 3033413216, 0.8596330881118774, -0.041765689849853516, -0.48019516468048096, -0.16950294375419617, 8.256390571594238, 0.8919216394424438, 5.2878336906433105, -0.6275103092193604, -1.7234410047531128, -0.2691415548324585, -1.0107421875, 0.07177734375, -0.24169921875, 
287, 3033421549, 0.8596038222312927, -0.04174360632896423, -0.48024097084999084, -0.16952642798423767, 8.240596771240234, 0.9074740409851074, 5.3282599449157715, 0.1117549017071724, -1.179599642753601, -0.28497114777565, -1.0087890625, 0.073486328125, -0.24267578125, 
288, 3033429882, 0.8596053123474121, -0.04174821078777313, -0.48022663593292236, -0.169558584690094, 8.248923301696777, 0.9083538055419922, 5.315942764282227, -0.4238259792327881, -0.3340224623680115, -0.13543526828289032, -1.0078125, 0.072265625, -0.24365234375, 
289, 3033438215, 0.8596243858337402, -0.0417894572019577, -0.4801695942878723, -0.1696133017539978, 8.257277488708496, 0.9152205586433411, 5.2746710777282715, -1.0859283208847046, 0.221844881772995, -0.08379697054624557, -1.0087890625, 0.073974609375, -0.2412109375, 
290, 3033446548, 0.859636664390564, -0.04185520112514496, -0.48011869192123413, -0.16967877745628357, 8.268550872802734, 0.9118800759315491, 5.210773944854736, -1.4448091983795166, 0.04779616370797157, -0.0778544694185257, -1.0087890625, 0.071533203125, -0.2412109375, 
291, 3033454881, 0.8596230149269104, -0.041931942105293274, -0.48010963201522827, -0.16975468397140503, 8.263479232788086, 0.8956289291381836, 5.2629547119140625, -1.543270230293274, -0.6294569969177246, -0.19760100543498993, -1.0068359375, 0.074462890625, -0.2392578125, 
292, 3033463214, 0.8595923185348511, -0.04197554290294647, -0.4801431894302368, -0.1698043942451477, 8.26705551147461, 0.8738413453102112, 5.266716957092285, -0.9079861640930176, -1.1925604343414307, -0.18684303760528564, -1.0068359375, 0.072509765625, -0.24072265625, 
293, 3033471547, 0.859581470489502, -0.04197940230369568, -0.48015251755714417, -0.1698320508003235, 8.279452323913574, 0.8614093661308289, 5.273970603942871, -0.3696262240409851, -0.6925960779190063, -0.1454760581254959, -1.00732421875, 0.072021484375, -0.24267578125, 
294, 3033479880, 0.8595857620239258, -0.04197372496128082, -0.4801284670829773, -0.16987979412078857, 8.277871131896973, 0.8819240927696228, 5.24371337890625, -0.4254909157752991, -0.16612111032009125, -0.37321218848228455, -1.009765625, 0.073974609375, -0.2431640625, 
295, 3033488213, 0.8596111536026001, -0.041938021779060364, -0.48006969690322876, -0.16992616653442383, 8.26581859588623, 0.8737841248512268, 5.211554050445557, -0.10733645409345627, 0.4604158401489258, -0.4699571430683136, -1.009765625, 0.07177734375, -0.2421875, 
296, 3033496546, 0.8596347570419312, -0.04188401997089386, -0.4800148606300354, -0.16997495293617249, 8.220755577087402, 0.8663594722747803, 5.184373378753662, 0.07840517908334732, 0.4385925233364105, -0.6423921585083008, -1.0068359375, 0.0712890625, -0.24267578125, 
297, 3033504879, 0.8596194982528687, -0.041852161288261414, -0.4800254702568054, -0.1700303554534912, 8.173661231994629, 0.8831543922424316, 5.207226753234863, -0.1515210121870041, -0.6404199600219727, -0.7339375615119934, -1.0068359375, 0.07275390625, -0.244140625, 
298, 3033513212, 0.859580397605896, -0.041836217045784, -0.48007285594940186, -0.17009776830673218, 8.170428276062012, 0.8926461935043335, 5.191469192504883, -0.29252737760543823, -1.262589693069458, -0.8176192045211792, -1.00732421875, 0.072021484375, -0.24267578125, 
299, 3033521545, 0.8595279455184937, -0.04183387756347656, -0.48014503717422485, -0.17015942931175232, 8.164932250976562, 0.9181370139122009, 5.185118675231934, -0.3748515546321869, -1.6732628345489502, -0.7066071629524231, -1.00732421875, 0.072998046875, -0.2431640625, 
300, 3033529878, 0.8594287633895874, -0.041861072182655334, -0.480292409658432, -0.17023828625679016, 8.153789520263672, 0.9384155869483948, 5.232928276062012, -0.677560567855835, -2.9356091022491455, -0.8639296889305115, -1.00732421875, 0.07080078125, -0.2431640625, 
301, 3033538211, 0.8592897057533264, -0.04191236197948456, -0.48050448298454285, -0.17032960057258606, 8.176239967346191, 0.9033017158508301, 5.254397869110107, -0.9329344630241394, -4.007565021514893, -0.9911556839942932, -1.005859375, 0.071044921875, -0.24072265625, 
302, 3033546544, 0.859123945236206, -0.04187390208244324, -0.48079514503479004, -0.17035460472106934, 8.225521087646484, 0.8684195280075073, 5.25116491317749, 0.7501384615898132, -4.945327281951904, -0.9026584029197693, -1.00732421875, 0.072021484375, -0.24072265625, 
303, 3033554877, 0.858937680721283, -0.04189285635948181, -0.4811132550239563, -0.17039042711257935, 8.260680198669434, 0.9013429880142212, 5.374931335449219, 0.03278622403740883, -5.528794288635254, -0.7216683030128479, -1.00732421875, 0.071044921875, -0.240234375, 
304, 3033563210, 0.8587888479232788, -0.041981279850006104, -0.48133862018585205, -0.17048290371894836, 8.317012786865234, 0.908107340335846, 5.315552234649658, -1.3359233140945435, -4.321903228759766, -0.7822971940040588, -1.00927734375, 0.071533203125, -0.2392578125, 
305, 3033571543, 0.8586919903755188, -0.041951194405555725, -0.4815090596675873, -0.17049607634544373, 8.371136665344238, 0.8581055998802185, 5.325770854949951, 0.503089189529419, -3.0880649089813232, -0.4627596139907837, -1.0078125, 0.0693359375, -0.24072265625, 
306, 3033579876, 0.8586418628692627, -0.04201361536979675, -0.4815645217895508, -0.17057690024375916, 8.364956855773926, 0.8718647360801697, 5.343367099761963, -1.2938902378082275, -1.6067681312561035, -0.4863758683204651, -1.0107421875, 0.07080078125, -0.24072265625, 
307, 3033588209, 0.8586047887802124, -0.04207700490951538, -0.48159998655319214, -0.1706477701663971, 8.326741218566895, 0.8888399004936218, 5.259151458740234, -1.254341721534729, -1.282927393913269, -0.2988796830177307, -1.00732421875, 0.071533203125, -0.2392578125, 
308, 3033596542, 0.8585761785507202, -0.04209934175014496, -0.4816368520259857, -0.17068243026733398, 8.324414253234863, 0.9125954508781433, 5.237476348876953, -0.5469279885292053, -1.1773710250854492, -0.14716659486293793, -1.00830078125, 0.071533203125, -0.23876953125, 
309, 3033604875, 0.8585419654846191, -0.042170584201812744, -0.48167121410369873, -0.17073950171470642, 8.308238983154297, 0.9111948609352112, 5.252311706542969, -1.3013696670532227, -1.2816210985183716, -0.10667048394680023, -1.013671875, 0.0712890625, -0.240478515625, 
310, 3033613208, 0.8585060238838196, -0.042215362191200256, -0.4817148745059967, -0.1707862913608551, 8.31339168548584, 0.9070162773132324, 5.246710300445557, -0.8806815147399902, -1.3505747318267822, -0.16038353741168976, -1.0087890625, 0.070068359375, -0.23779296875, 
311, 3033621541, 0.8584843873977661, -0.04225529730319977, -0.48173314332962036, -0.1708337664604187, 8.294450759887695, 0.9240400195121765, 5.2527546882629395, -0.8802459836006165, -0.9398502707481384, -0.1502659022808075, -1.00927734375, 0.070556640625, -0.2373046875, 
312, 3033629874, 0.8584667444229126, -0.04227064549922943, -0.48175251483917236, -0.17086362838745117, 8.298521041870117, 0.896773099899292, 5.227655410766602, -0.4668322205543518, -0.8838063478469849, -0.09947287291288376, -1.0107421875, 0.072509765625, -0.23779296875, 
313, 3033638207, 0.8584381341934204, -0.0422859787940979, -0.48179173469543457, -0.17089354991912842, 8.292320251464844, 0.9180455803871155, 5.234644412994385, -0.4367098808288574, -1.1860029697418213, -0.1399177461862564, -1.0107421875, 0.071533203125, -0.23876953125, 
314, 3033646540, 0.8584045171737671, -0.04232752323150635, -0.4818328320980072, -0.17093589901924133, 8.303627014160156, 0.9047848582267761, 5.2409443855285645, -0.8168763518333435, -1.3022406101226807, -0.12280744314193726, -1.0107421875, 0.070556640625, -0.23828125, 
315, 3033654873, 0.8583711385726929, -0.04237343370914459, -0.4818679690361023, -0.17099300026893616, 8.285788536071777, 0.9094048738479614, 5.234386444091797, -0.9826003909111023, -1.224808692932129, -0.2617134153842926, -1.01025390625, 0.06884765625, -0.23974609375, 
316, 3033663206, 0.8583356142044067, -0.042435839772224426, -0.4818981885910034, -0.17107078433036804, 8.287301063537598, 0.9166908264160156, 5.253096103668213, -1.3259336948394775, -1.212078332901001, -0.4019257426261902, -1.0087890625, 0.071533203125, -0.2373046875, 
317, 3033671539, 0.8582913875579834, -0.042490795254707336, -0.4819468855857849, -0.17114174365997314, 8.254129409790039, 0.9182386994361877, 5.24404239654541, -1.158800721168518, -1.471858024597168, -0.4020538628101349, -1.01171875, 0.0693359375, -0.236328125, 
318, 3033679872, 0.8582508563995361, -0.04253628849983215, -0.4819910526275635, -0.171208918094635, 8.271248817443848, 0.8884695768356323, 5.248635768890381, -1.0254273414611816, -1.3765729665756226, -0.40776580572128296, -1.0107421875, 0.0693359375, -0.23828125, 
319, 3033688205, 0.858218789100647, -0.04257217049598694, -0.4820284843444824, -0.17125555872917175, 8.283493041992188, 0.8754793405532837, 5.233391761779785, -0.7418779134750366, -1.221581220626831, -0.17467626929283142, -1.00927734375, 0.069580078125, -0.236328125, 
320, 3033696538, 0.858198881149292, -0.04260815680027008, -0.4820423126220703, -0.17130744457244873, 8.306818008422852, 0.9027388691902161, 5.211017608642578, -0.8713322877883911, -0.8699491620063782, -0.22370192408561707, -1.0107421875, 0.071533203125, -0.23828125, 
321, 3033704871, 0.8581863641738892, -0.04264001548290253, -0.482049822807312, -0.17134130001068115, 8.294930458068848, 0.9113222360610962, 5.2271904945373535, -0.7182871699333191, -0.7416473627090454, -0.017891544848680496, -1.01171875, 0.069580078125, -0.236328125, 
322, 3033713204, 0.8581739664077759, -0.042660146951675415, -0.48206257820129395, -0.17136192321777344, 8.287618637084961, 0.9121738076210022, 5.219328880310059, -0.4756178855895996, -0.7873174548149109, 0.057811327278614044, -1.01318359375, 0.0703125, -0.23681640625, 
323, 3033721537, 0.8581634759902954, -0.042675554752349854, -0.4820750951766968, -0.1713758111000061, 8.268228530883789, 0.9026387333869934, 5.226611137390137, -0.36913958191871643, -0.7585527896881104, 0.11528968811035156, -1.009765625, 0.0693359375, -0.2392578125, 
324, 3033729870, 0.8581545948982239, -0.04270628094673157, -0.4820826053619385, -0.17139145731925964, 8.290860176086426, 0.9141259789466858, 5.206819534301758, -0.578126072883606, -0.7312735915184021, 0.20002156496047974, -1.01025390625, 0.070556640625, -0.23828125, 
325, 3033738203, 0.8581434488296509, -0.04272739589214325, -0.48209983110427856, -0.17139416933059692, 8.29404354095459, 0.9278668165206909, 5.226818561553955, -0.3968670070171356, -0.8441684246063232, 0.25185197591781616, -1.01220703125, 0.072509765625, -0.237548828125, 
326, 3033746536, 0.8581447601318359, -0.04275016486644745, -0.4820951521396637, -0.17139524221420288, 8.290023803710938, 0.9082393646240234, 5.250594615936279, -0.4100838601589203, -0.509262204170227, 0.3490963876247406, -1.00927734375, 0.070068359375, -0.236328125, 
327, 3033754869, 0.8581504821777344, -0.04275430738925934, -0.48208844661712646, -0.17138421535491943, 8.30397891998291, 0.9173020124435425, 5.262024879455566, -0.11017964035272598, -0.4125044345855713, 0.38326576352119446, -1.01025390625, 0.072021484375, -0.23828125, 
328, 3033763202, 0.8581628799438477, -0.04274363815784454, -0.48207521438598633, -0.17136162519454956, 8.307576179504395, 0.9220658540725708, 5.237626552581787, 0.12896767258644104, -0.26983314752578735, 0.4381827116012573, -1.0087890625, 0.071533203125, -0.23876953125, 
329, 3033771535, 0.858184814453125, -0.04272587597370148, -0.48204463720321655, -0.1713416874408722, 8.297540664672852, 0.9162219762802124, 5.242976665496826, 0.16103671491146088, 0.023898083716630936, 0.39627787470817566, -1.0107421875, 0.071044921875, -0.23779296875, 
330, 3033779868, 0.858216404914856, -0.04269656538963318, -0.4819989502429962, -0.17131975293159485, 8.27873706817627, 0.9083535671234131, 5.231195449829102, 0.27945131063461304, 0.2834983468055725, 0.37050989270210266, -1.0107421875, 0.072021484375, -0.2373046875, 
331, 3033788201, 0.8582476377487183, -0.04266361892223358, -0.4819560945034027, -0.1712922751903534, 8.283778190612793, 0.9252490401268005, 5.224780082702637, 0.311674028635025, 0.255143404006958, 0.37681105732917786, -1.00927734375, 0.071044921875, -0.2373046875, 
332, 3033796534, 0.858272910118103, -0.042640671133995056, -0.4819214344024658, -0.17126873135566711, 8.276847839355469, 0.9248697757720947, 5.1984357833862305, 0.2367011457681656, 0.09595091640949249, 0.4107242524623871, -1.0107421875, 0.070068359375, -0.236328125, 
333, 3033804867, 0.8582888841629028, -0.04261837899684906, -0.4819033145904541, -0.17124512791633606, 8.246439933776855, 0.9538025259971619, 5.212512969970703, 0.21398133039474487, -0.16112636029720306, 0.3552950918674469, -1.013671875, 0.0693359375, -0.2373046875, 
334, 3033813200, 0.8583016395568848, -0.04260127246379852, -0.48189008235931396, -0.1712227463722229, 8.247170448303223, 0.9295477271080017, 5.216446876525879, 0.20283913612365723, -0.25246667861938477, 0.3938700556755066, -1.01171875, 0.07080078125, -0.23779296875, 
335, 3033821533, 0.8583062887191772, -0.04258430004119873, -0.4818871021270752, -0.17121198773384094, 8.26595401763916, 0.9241544604301453, 5.229565143585205, 0.1483832746744156, -0.41455358266830444, 0.23662430047988892, -1.0087890625, 0.070556640625, -0.23828125, 
336, 3033829866, 0.8583104610443115, -0.04257392883300781, -0.48188087344169617, -0.17121130228042603, 8.265873908996582, 0.9181959629058838, 5.217475891113281, -0.009157088585197926, -0.3934730291366577, 0.1591668277978897, -1.0107421875, 0.070556640625, -0.23779296875, 
337, 3033838199, 0.858309268951416, -0.04256562888622284, -0.4818875789642334, -0.17120051383972168, 8.275861740112305, 0.9203565716743469, 5.228499889373779, 0.05863098427653313, -0.589729368686676, 0.2701021432876587, -1.0107421875, 0.06982421875, -0.2373046875, 
338, 3033846532, 0.8583056926727295, -0.04256825149059296, -0.4818922281265259, -0.1712048053741455, 8.278465270996094, 0.9138399362564087, 5.237491130828857, -0.17442011833190918, -0.600922703742981, 0.15985843539237976, -1.01220703125, 0.0693359375, -0.23779296875, 
339, 3033854865, 0.8583120107650757, -0.04256349802017212, -0.48188304901123047, -0.17119988799095154, 8.302491188049316, 0.8940266966819763, 5.230881214141846, -0.043275248259305954, -0.35471871495246887, 0.26001009345054626, -1.00927734375, 0.06884765625, -0.23779296875, 
340, 3033863198, 0.8583301901817322, -0.04257136583328247, -0.4818529784679413, -0.17119181156158447, 8.287920951843262, 0.9093837738037109, 5.225481033325195, -0.22421419620513916, -0.06950422376394272, 0.41277340054512024, -1.0126953125, 0.070068359375, -0.23583984375, 
341, 3033871531, 0.8583532571792603, -0.042571619153022766, -0.48181456327438354, -0.17118430137634277, 8.28972339630127, 0.9088688492774963, 5.251073837280273, -0.16686391830444336, 0.08603820949792862, 0.3659505844116211, -1.01025390625, 0.071533203125, -0.236328125, 
342, 3033879864, 0.8583649396896362, -0.04258432984352112, -0.4817928671836853, -0.1711837351322174, 8.27737045288086, 0.9122807383537292, 5.246774673461914, -0.3145556151866913, -0.21834856271743774, 0.33523911237716675, -1.01123046875, 0.072021484375, -0.23876953125, 
343, 3033888197, 0.8583691120147705, -0.042601779103279114, -0.48178207874298096, -0.1711890697479248, 8.275938987731934, 0.9141905903816223, 5.241280555725098, -0.32026758790016174, -0.39016881585121155, 0.3189740478992462, -1.009765625, 0.069091796875, -0.23583984375, 
344, 3033896530, 0.8583660125732422, -0.04262341558933258, -0.48178768157958984, -0.17118319869041443, 8.290645599365234, 0.9218440651893616, 5.2900567054748535, -0.3304620385169983, -0.6605014204978943, 0.40765056014060974, -1.015625, 0.0703125, -0.239013671875, 
345, 3033904863, 0.8583728075027466, -0.04263894259929657, -0.4817730486392975, -0.17118602991104126, 8.284014701843262, 0.8935115933418274, 5.264843940734863, -0.3763371407985687, -0.3328697979450226, 0.2883906662464142, -1.01025390625, 0.071044921875, -0.23779296875, 
346, 3033913196, 0.8583984971046448, -0.04264083504676819, -0.48172926902770996, -0.17118045687675476, 8.282792091369629, 0.8890841007232666, 5.251667499542236, -0.19678135216236115, 0.15857771039009094, 0.36861443519592285, -1.01025390625, 0.06982421875, -0.2392578125, 
347, 3033921529, 0.858424186706543, -0.042662158608436584, -0.4816827178001404, -0.17117691040039062, 8.267406463623047, 0.8984041810035706, 5.235330581665039, -0.45294928550720215, 0.1523790806531906, 0.47306931018829346, -1.01123046875, 0.072998046875, -0.240234375, 
348, 3033929862, 0.8584522008895874, -0.042687371373176575, -0.48162853717803955, -0.17118236422538757, 8.260603904724121, 0.8986833691596985, 5.24334192276001, -0.5679572224617004, 0.24838121235370636, 0.40460243821144104, -1.00927734375, 0.070556640625, -0.2373046875, 
349, 3033938195, 0.8584821820259094, -0.04271475970745087, -0.4815709590911865, -0.1711873710155487, 8.265546798706055, 0.8865019083023071, 5.223942756652832, -0.6323001980781555, 0.2988668978214264, 0.41415658593177795, -1.00830078125, 0.06982421875, -0.24072265625, 
350, 3033946528, 0.8585017919540405, -0.04275926947593689, -0.48152896761894226, -0.17119592428207397, 8.241276741027832, 0.8943056464195251, 5.205567359924316, -0.7937467098236084, 0.006480401381850243, 0.46940651535987854, -1.01025390625, 0.07177734375, -0.24072265625, 
351, 3033954861, 0.8585141897201538, -0.04281526803970337, -0.48149269819259644, -0.1712220311164856, 8.259788513183594, 0.8966375589370728, 5.219451427459717, -0.9895931482315063, -0.11663442105054855, 0.3498391807079315, -1.01123046875, 0.068359375, -0.23974609375, 
352, 3033963194, 0.8585082292556763, -0.04286244511604309, -0.4814918637275696, -0.17124226689338684, 8.244924545288086, 0.9053138494491577, 5.242883682250977, -0.819847583770752, -0.6480017304420471, 0.26446694135665894, -1.01416015625, 0.072021484375, -0.237060546875, 
353, 3033971527, 0.8584984540939331, -0.04290284216403961, -0.4814974069595337, -0.17126551270484924, 8.283578872680664, 0.9138472080230713, 5.256609916687012, -0.7545056343078613, -0.727764368057251, 0.1704627275466919, -1.0107421875, 0.07177734375, -0.23974609375, 
354, 3033979860, 0.8584966659545898, -0.042942240834236145, -0.4814905524253845, -0.17128407955169678, 8.288578987121582, 0.9312071800231934, 5.2810797691345215, -0.7288658022880554, -0.5318924188613892, 0.24745911359786987, -1.01025390625, 0.071044921875, -0.23876953125, 
355, 3033988193, 0.8585145473480225, -0.042956843972206116, -0.4814489483833313, -0.17130813002586365, 8.25947380065918, 0.8900351524353027, 5.2765727043151855, -0.5543304681777954, 0.07171986252069473, 0.07840518653392792, -1.00927734375, 0.070556640625, -0.23828125, 
356, 3033996526, 0.8585472106933594, -0.04295961558818817, -0.48138418793678284, -0.17132505774497986, 8.247191429138184, 0.91021329164505, 5.237053394317627, -0.40271979570388794, 0.4651801288127899, 0.13859862089157104, -1.0087890625, 0.071533203125, -0.23974609375, 
357, 3034004859, 0.8585962057113647, -0.042901381850242615, -0.48131901025772095, -0.1712770164012909, 8.299193382263184, 0.9375585913658142, 5.142486572265625, 0.7422493100166321, 0.6864614486694336, 0.5337750911712646, -1.0107421875, 0.0712890625, -0.2392578125, 
358, 3034013192, 0.8586186170578003, -0.042863309383392334, -0.48127907514572144, -0.17128649353981018, 8.262928009033203, 0.9716779589653015, 5.234629154205322, 0.18265511095523834, 0.19576959311962128, -0.0836176648736, -1.00830078125, 0.071533203125, -0.23779296875, 
359, 3034021525, 0.858566164970398, -0.042932480573654175, -0.4813421964645386, -0.17135471105575562, 8.218609809875488, 0.9234862327575684, 5.338416576385498, -1.288741946220398, -1.7301263809204102, -0.3088436722755432, -1.00927734375, 0.072509765625, -0.2412109375, 
360, 3034029858, 0.8585644960403442, -0.04291465878486633, -0.48133862018585205, -0.17137771844863892, 8.309886932373047, 0.872553825378418, 5.2205023765563965, -0.07411478459835052, -0.43381547927856445, -0.18766269087791443, -1.0126953125, 0.07080078125, -0.2412109375, 
361, 3034038191, 0.8586235046386719, -0.042811185121536255, -0.4812614619731903, -0.17132481932640076, 8.389676094055176, 0.9083693623542786, 5.0971503257751465, 1.3093997240066528, 0.9995443224906921, 0.336135596036911, -1.01123046875, 0.072509765625, -0.23876953125, 
362, 3034046524, 0.8586794137954712, -0.042830899357795715, -0.48115330934524536, -0.1713438630104065, 8.250231742858887, 1.0494149923324585, 5.137479305267334, -0.7050446271896362, 1.0916019678115845, 0.3061925768852234, -1.01171875, 0.0703125, -0.24169921875, 
363, 3034054857, 0.8586413860321045, -0.043047502636909485, -0.481148362159729, -0.17149335145950317, 8.182034492492676, 0.9746820330619812, 5.2320990562438965, -3.720864772796631, -1.1314191818237305, -0.22139663994312286, -1.01220703125, 0.07080078125, -0.23876953125, 
364, 3034063190, 0.8585582971572876, -0.043321043252944946, -0.4812186658382416, -0.17164301872253418, 8.247391700744629, 0.8414015173912048, 5.337201118469238, -4.226899147033691, -2.456264019012451, 0.010373765602707863, -1.0107421875, 0.072509765625, -0.23828125, 
365, 3034071523, 0.858588695526123, -0.04347437620162964, -0.48113298416137695, -0.1716930866241455, 8.327061653137207, 0.8490311503410339, 5.268365859985352, -2.4643328189849854, 0.36487480998039246, 0.7445802688598633, -1.00927734375, 0.071044921875, -0.2392578125, 
366, 3034079856, 0.8586620688438416, -0.043506696820259094, -0.4810106158256531, -0.17166122794151306, 8.272188186645508, 0.939159095287323, 5.173101425170898, -0.5401658415794373, 1.3160851001739502, 1.0408856868743896, -1.00830078125, 0.072998046875, -0.24072265625, 
367, 3034088189, 0.858639121055603, -0.04354466497898102, -0.4810510277748108, -0.17165228724479675, 8.22653579711914, 0.9141762256622314, 5.1702470779418945, -0.37510764598846436, -1.2338504791259766, 0.5199945569038391, -1.009765625, 0.072265625, -0.2412109375, 
368, 3034096522, 0.8585432767868042, -0.04360707104206085, -0.4812003970146179, -0.17169785499572754, 8.276515007019043, 0.8441144227981567, 5.178982734680176, -0.8669778108596802, -3.038142681121826, -0.2362785041332245, -1.0126953125, 0.07080078125, -0.23828125, 
369, 3034104855, 0.8584567308425903, -0.04356946051120758, -0.48136037588119507, -0.17169126868247986, 8.313929557800293, 0.8088253140449524, 5.219571590423584, 0.7188123464584351, -2.886737108230591, -0.2449873387813568, -1.0107421875, 0.071533203125, -0.23828125, 
370, 3034113188, 0.8583977222442627, -0.043467968702316284, -0.48150014877319336, -0.1716204583644867, 8.30534839630127, 0.8445068597793579, 5.300248622894287, 1.8374372720718384, -2.3646421432495117, 0.1441056877374649, -1.01171875, 0.0712890625, -0.23828125, 
371, 3034121521, 0.8583704233169556, -0.04339402914047241, -0.48158174753189087, -0.17154613137245178, 8.315791130065918, 0.9673178791999817, 5.278497695922852, 1.41080641746521, -1.527799367904663, 0.4798314571380615, -1.01123046875, 0.07080078125, -0.23974609375, 
372, 3034129854, 0.8583778142929077, -0.04335838556289673, -0.48157817125320435, -0.17152804136276245, 8.32574462890625, 0.957829475402832, 5.213284492492676, 0.41269651055336, -0.35459062457084656, 0.20096927881240845, -1.01220703125, 0.073486328125, -0.237060546875, 
373, 3034138187, 0.8583831787109375, -0.04337547719478607, -0.4815526008605957, -0.17156901955604553, 8.296217918395996, 0.9622719883918762, 5.224257469177246, -0.7171857357025146, -0.20077717304229736, -0.17523977160453796, -1.0107421875, 0.071044921875, -0.23828125, 
374, 3034146520, 0.8583812713623047, -0.04338681697845459, -0.481548547744751, -0.17158696055412292, 8.28243350982666, 0.9359713792800903, 5.23497200012207, -0.3876073658466339, -0.4999001622200012, 0.06662262231111526, -1.01171875, 0.072509765625, -0.23828125, 
375, 3034154853, 0.858383297920227, -0.04335242509841919, -0.4815542697906494, -0.17156916856765747, 8.312576293945312, 0.9041265249252319, 5.2442426681518555, 0.41746076941490173, -0.4976973235607147, 0.19123587012290955, -1.01025390625, 0.0703125, -0.23974609375, 
376, 3034163186, 0.8583993315696716, -0.043294668197631836, -0.4815506935119629, -0.1715136468410492, 8.33077335357666, 0.9136683940887451, 5.254092216491699, 0.9271584749221802, -0.2685524523258209, 0.5187907814979553, -1.01025390625, 0.07080078125, -0.23974609375, 
377, 3034171519, 0.8584128618240356, -0.04324609041213989, -0.4815540611743927, -0.17144909501075745, 8.31026554107666, 0.9102565050125122, 5.23103141784668, 0.7970892786979675, -0.39762255549430847, 0.6171237230300903, -1.01123046875, 0.070556640625, -0.236328125, 
378, 3034179852, 0.8584310412406921, -0.04325532913208008, -0.4815261960029602, -0.17143398523330688, 8.267477989196777, 0.9196982383728027, 5.1727142333984375, -0.18768829107284546, -0.1026490330696106, 0.5023975372314453, -1.01025390625, 0.073486328125, -0.2392578125, 
379, 3034188185, 0.8584290146827698, -0.04321111738681793, -0.4815509617328644, -0.17138555645942688, 8.23373031616211, 0.8875390887260437, 5.170504093170166, 0.8360870480537415, -0.7386120557785034, 0.5050230026245117, -1.01025390625, 0.070068359375, -0.23779296875, 
380, 3034196518, 0.8584268093109131, -0.043172240257263184, -0.48157504200935364, -0.1713389754295349, 8.246140480041504, 0.8908293843269348, 5.205045223236084, 0.6988332271575928, -0.7544288635253906, 0.4764760434627533, -1.01171875, 0.071533203125, -0.23876953125, 
381, 3034204851, 0.85841965675354, -0.04316505789756775, -0.4815985858440399, -0.1713106334209442, 8.257377624511719, 0.9020376801490784, 5.161541938781738, 0.21165043115615845, -0.8384180068969727, 0.4736584722995758, -1.0107421875, 0.071533203125, -0.2392578125, 
382, 3034213184, 0.8584178686141968, -0.04315325617790222, -0.48161205649375916, -0.17128437757492065, 8.281318664550781, 0.8902356624603271, 5.184044361114502, 0.21938592195510864, -0.6780728101730347, 0.42365947365760803, -1.01513671875, 0.07177734375, -0.240966796875, 
383, 3034221517, 0.8584014773368835, -0.04315800964832306, -0.4816439747810364, -0.17127543687820435, 8.298192024230957, 0.8869954347610474, 5.180510997772217, -0.029904622584581375, -1.013645052909851, 0.30163323879241943, -1.00927734375, 0.072021484375, -0.23876953125, 
384, 3034229850, 0.8583903312683105, -0.043164387345314026, -0.48166894912719727, -0.1712600588798523, 8.317590713500977, 0.8787267804145813, 5.2206597328186035, -0.045734211802482605, -0.9132370948791504, 0.38685178756713867, -1.0107421875, 0.071044921875, -0.23828125, 
385, 3034238183, 0.8583996295928955, -0.0431419312953949, -0.48166102170944214, -0.17124027013778687, 8.320615768432617, 0.887717604637146, 5.235573768615723, 0.2762751281261444, -0.3154264986515045, 0.3314994275569916, -1.01318359375, 0.0703125, -0.23828125, 
386, 3034246516, 0.8584272861480713, -0.04308125376701355, -0.4816338121891022, -0.17119371891021729, 8.298048973083496, 0.8965373635292053, 5.258820533752441, 0.8534150719642639, 0.09946006536483765, 0.43183037638664246, -1.01171875, 0.073486328125, -0.239501953125, 
387, 3034254849, 0.858464777469635, -0.04303881525993347, -0.48158732056617737, -0.17114746570587158, 8.296138763427734, 0.9028961062431335, 5.240758895874023, 0.6616156697273254, 0.362108439207077, 0.6309554576873779, -1.01318359375, 0.0703125, -0.2392578125, 
388, 3034263182, 0.8584936261177063, -0.04302366077899933, -0.481550395488739, -0.17111068964004517, 8.272677421569824, 0.9343329668045044, 5.217891693115234, 0.23063057661056519, 0.1212834045290947, 0.6286757588386536, -1.01220703125, 0.072021484375, -0.23876953125, 
389, 3034271515, 0.8584967851638794, -0.043037936091423035, -0.4815525710582733, -0.17108502984046936, 8.248336791992188, 0.9051207304000854, 5.263376712799072, -0.07987799495458603, -0.563705325126648, 0.6352331042289734, -1.01220703125, 0.072021484375, -0.2373046875, 
390, 3034279848, 0.8584998846054077, -0.04308141767978668, -0.4815455377101898, -0.17107853293418884, 8.300158500671387, 0.9163077473640442, 5.291379928588867, -0.6086326241493225, -0.522491991519928, 0.579547643661499, -1.01123046875, 0.07080078125, -0.2392578125, 
391, 3034288181, 0.8585248589515686, -0.043101966381073, -0.48150548338890076, -0.17106029391288757, 8.319685935974121, 0.8828968405723572, 5.251946449279785, -0.32580024003982544, 0.06554682552814484, 0.6399460434913635, -1.01123046875, 0.073974609375, -0.238525390625, 
392, 3034296514, 0.8585778474807739, -0.04307137429714203, -0.48143327236175537, -0.17100515961647034, 8.308234214782715, 0.8880898356437683, 5.158565998077393, 0.46438607573509216, 0.7223213911056519, 0.8196811676025391, -1.01220703125, 0.072998046875, -0.239013671875, 
393, 3034304847, 0.8586330413818359, -0.043005943298339844, -0.48136550188064575, -0.17093583941459656, 8.276089668273926, 0.9323230385780334, 5.202599048614502, 1.0036424398422241, 0.7661985754966736, 0.7780323028564453, -1.0166015625, 0.0703125, -0.238037109375, 
394, 3034313180, 0.8586639165878296, -0.043033719062805176, -0.4813012480735779, -0.17095428705215454, 8.207779884338379, 0.9360707402229309, 5.333659648895264, -0.7061460018157959, 0.3891570568084717, 0.2819358706474304, -1.01220703125, 0.0712890625, -0.240234375, 
395, 3034321513, 0.858684778213501, -0.04304584860801697, -0.48126909136772156, -0.17093676328659058, 8.249186515808105, 0.8591564893722534, 5.307831287384033, -0.1648147851228714, -0.029443562030792236, 0.5952491760253906, -1.01171875, 0.071533203125, -0.23828125, 
396, 3034329846, 0.8587798476219177, -0.04297143220901489, -0.4811307489871979, -0.17086777091026306, 8.274446487426758, 0.8567884564399719, 5.205835342407227, 0.9421427249908447, 1.876242756843567, 0.8301317095756531, -1.01123046875, 0.072509765625, -0.23876953125, 
397, 3034338179, 0.8588557243347168, -0.04295101761817932, -0.4810028374195099, -0.17085102200508118, 8.228508949279785, 0.9257066249847412, 5.203507423400879, -0.03643624857068062, 1.5346256494522095, 0.5183039903640747, -1.01123046875, 0.0712890625, -0.240234375, 
398, 3034346512, 0.8588396310806274, -0.04299713671207428, -0.48101961612701416, -0.17087316513061523, 8.232121467590332, 0.9318938255310059, 5.2014546394348145, -0.7854476571083069, -0.9195894598960876, 0.20253174006938934, -1.01171875, 0.07275390625, -0.2421875, 
399, 3034354845, 0.8588183522224426, -0.04301655292510986, -0.4810446500778198, -0.17090484499931335, 8.282983779907227, 0.8394651412963867, 5.219986915588379, -0.5123999714851379, -0.9783229231834412, -0.1021367609500885, -1.0087890625, 0.072021484375, -0.24072265625, 
400, 3034363178, 0.8588165044784546, -0.042995721101760864, -0.4810495376586914, -0.17090564966201782, 8.328934669494629, 0.8644139170646667, 5.266108989715576, 0.1266367882490158, -0.5393205285072327, 0.04994776472449303, -1.01220703125, 0.07080078125, -0.23876953125, 
401, 3034371511, 0.8588361144065857, -0.04298469424247742, -0.48102545738220215, -0.17087697982788086, 8.258951187133789, 0.8919523358345032, 5.289970874786377, 0.1998678594827652, -0.08728049695491791, 0.5663819313049316, -1.01220703125, 0.06982421875, -0.23876953125, 
402, 3034379844, 0.8588675260543823, -0.04296529293060303, -0.48098325729370117, -0.17084315419197083, 8.228888511657715, 0.922645092010498, 5.2124409675598145, 0.24912403523921967, 0.21152234077453613, 0.5746297240257263, -1.01220703125, 0.073486328125, -0.240478515625, 
403, 3034388177, 0.8588669896125793, -0.0429912805557251, -0.4809805154800415, -0.170847088098526, 8.222372055053711, 0.8944200873374939, 5.2113823890686035, -0.3977506756782532, -0.5365285873413086, 0.37542787194252014, -1.01123046875, 0.0712890625, -0.2412109375, 
404, 3034396510, 0.8588346838951111, -0.0430336594581604, -0.481034517288208, -0.17084670066833496, 8.256719589233398, 0.8880040049552917, 5.247833251953125, -0.5127585530281067, -1.4706541299819946, 0.38024333119392395, -1.009765625, 0.07177734375, -0.2421875, 
405, 3034404843, 0.8588125705718994, -0.04303841292858124, -0.48107343912124634, -0.1708473563194275, 8.31307601928711, 0.8984400033950806, 5.25411319732666, -0.05216338485479355, -1.1271671056747437, 0.1914920061826706, -1.01318359375, 0.07177734375, -0.239990234375, 
406, 3034413176, 0.8588125705718994, -0.043029263615608215, -0.4810729920864105, -0.17085140943527222, 8.362768173217773, 0.9123808741569519, 5.273748397827148, -0.04532438516616821, -0.49060219526290894, 0.09605337679386139, -1.0107421875, 0.072265625, -0.24072265625, 
407, 3034421509, 0.85884028673172, -0.04305045306682587, -0.48100587725639343, -0.17089533805847168, 8.338240623474121, 0.903647243976593, 5.251266956329346, -0.808295726776123, 0.43813154101371765, -0.06842843443155289, -1.01123046875, 0.07275390625, -0.2412109375, 
408, 3034429842, 0.8588857650756836, -0.043083250522613525, -0.48090222477912903, -0.17095023393630981, 8.306775093078613, 0.8798211216926575, 5.263062000274658, -1.091256022453308, 0.960892379283905, -0.0582851879298687, -1.01318359375, 0.0712890625, -0.239013671875, 
409, 3034438175, 0.8589308261871338, -0.04310566186904907, -0.4808010160923004, -0.17100298404693604, 8.255131721496582, 0.8778111934661865, 5.268848419189453, -0.9574986100196838, 0.9560768604278564, -0.10720837861299515, -1.0126953125, 0.072265625, -0.240478515625, 
410, 3034446508, 0.8589708805084229, -0.04311859607696533, -0.48071569204330444, -0.17103874683380127, 8.249109268188477, 0.8817810416221619, 5.263140678405762, -0.6898810267448425, 0.7448107600212097, 0.012269219383597374, -1.01123046875, 0.0732421875, -0.2421875, 
411, 3034454841, 0.8590117692947388, -0.04313093423843384, -0.48062998056411743, -0.17107102274894714, 8.240840911865234, 0.8753505945205688, 5.291100978851318, -0.6879343390464783, 0.7539294362068176, 0.0365259014070034, -1.0126953125, 0.07275390625, -0.240478515625, 
412, 3034463174, 0.8590469360351562, -0.0431659072637558, -0.48055416345596313, -0.1710987389087677, 8.238079071044922, 0.8639994263648987, 5.233292579650879, -0.878555417060852, 0.5426632165908813, 0.2361888587474823, -1.01220703125, 0.07177734375, -0.23974609375, 
413, 3034471507, 0.8590728640556335, -0.043198809027671814, -0.4804973006248474, -0.17111948132514954, 8.253050804138184, 0.8566817045211792, 5.229350566864014, -0.8159798383712769, 0.25855007767677307, 0.24502575397491455, -1.0107421875, 0.07177734375, -0.2412109375, 
414, 3034479840, 0.8590837717056274, -0.043227970600128174, -0.4804697036743164, -0.1711350381374359, 8.246977806091309, 0.8563812971115112, 5.233177185058594, -0.6291752457618713, -0.18230929970741272, 0.25475916266441345, -1.01220703125, 0.07373046875, -0.241455078125, 
415, 3034488173, 0.8590933680534363, -0.04324059188365936, -0.48045074939727783, -0.1711365282535553, 8.238873481750488, 0.873326301574707, 5.228335380554199, -0.292591392993927, -0.25245389342308044, 0.3260308504104614, -1.01220703125, 0.0712890625, -0.240234375, 
416, 3034496506, 0.8591038584709167, -0.04323999583721161, -0.4804285764694214, -0.1711464822292328, 8.297369003295898, 0.8848065733909607, 5.22660493850708, -0.2289656400680542, -0.18173301219940186, 0.12047654390335083, -1.01123046875, 0.072265625, -0.240234375, 
417, 3034504839, 0.8591091632843018, -0.04324142634868622, -0.480410099029541, -0.17117154598236084, 8.29719066619873, 0.8799781203269958, 5.24919319152832, -0.34072059392929077, -0.24889354407787323, -0.05207374319434166, -1.01513671875, 0.07080078125, -0.239990234375, 
418, 3034513172, 0.8591092228889465, -0.04323919117450714, -0.480398952960968, -0.17120325565338135, 8.302726745605469, 0.8783547878265381, 5.2555012702941895, -0.3331771492958069, -0.36253103613853455, -0.1791587620973587, -1.01171875, 0.07177734375, -0.24169921875, 
419, 3034521505, 0.8591205477714539, -0.04320397973060608, -0.48037663102149963, -0.17121794819831848, 8.276375770568848, 0.8758655786514282, 5.263498306274414, 0.14871622622013092, -0.08407872170209885, -0.15766842663288116, -1.01123046875, 0.072998046875, -0.240234375, 
420, 3034529838, 0.8591436147689819, -0.043152570724487305, -0.4803355932235718, -0.1712302267551422, 8.285667419433594, 0.8763591647148132, 5.242082595825195, 0.31933265924453735, 0.24640892446041107, -0.20085401833057404, -1.0126953125, 0.0712890625, -0.240234375, 
421, 3034538171, 0.8591722249984741, -0.04311437904834747, -0.48028314113616943, -0.17124313116073608, 8.292390823364258, 0.9045056104660034, 5.226861476898193, 0.10834821313619614, 0.3873640298843384, -0.11781265586614609, -1.01123046875, 0.072265625, -0.2412109375, 
422, 3034546504, 0.859184980392456, -0.04309692978858948, -0.48025548458099365, -0.17126110196113586, 8.29235553741455, 0.8721673488616943, 5.239421367645264, -0.09429880976676941, -0.05649220198392868, -0.07554919272661209, -1.01123046875, 0.072998046875, -0.240234375, 
423, 3034554837, 0.8591704368591309, -0.04311801493167877, -0.48027390241622925, -0.1712774634361267, 8.328548431396484, 0.8787196278572083, 5.264413833618164, -0.4256189167499542, -0.865517795085907, 0.12038689851760864, -1.01123046875, 0.072509765625, -0.240234375, 
424, 3034563170, 0.8591674566268921, -0.043150901794433594, -0.4802703261375427, -0.17129448056221008, 8.344313621520996, 0.863841712474823, 5.245944976806641, -0.6342211961746216, -0.5655750632286072, 0.21595360338687897, -1.01220703125, 0.07373046875, -0.240966796875, 
425, 3034571503, 0.8591954112052917, -0.04320269823074341, -0.48020997643470764, -0.17131027579307556, 8.3454008102417, 0.898218035697937, 5.228462219238281, -0.9920777082443237, 0.26805296540260315, 0.4491712152957916, -1.0126953125, 0.0732421875, -0.241943359375, 
426, 3034579836, 0.859247088432312, -0.04326876997947693, -0.48010069131851196, -0.17134037613868713, 8.250732421875, 0.8951566815376282, 5.224973201751709, -1.3291866779327393, 0.9758767485618591, 0.4711225926876068, -1.009765625, 0.0712890625, -0.2431640625, 
427, 3034588169, 0.859283447265625, -0.043343305587768555, -0.48002326488494873, -0.17135575413703918, 8.176078796386719, 0.8772244453430176, 5.285585403442383, -1.3651490211486816, 0.4632590711116791, 0.5861561894416809, -1.0107421875, 0.07275390625, -0.24267578125, 
428, 3034596502, 0.859298586845398, -0.043427467346191406, -0.47998887300491333, -0.17135483026504517, 8.084894180297852, 0.9251201152801514, 5.329404354095459, -1.1857469081878662, -0.2123292088508606, 0.8256748914718628, -1.012451171875, 0.07421875, -0.242431640625, 
429, 3034604835, 0.8593031167984009, -0.04346473515033722, -0.4799913465976715, -0.17131605744361877, 8.030075073242188, 0.9245836138725281, 5.328038215637207, -0.27777355909347534, -0.6242316961288452, 0.9356880187988281, -1.011474609375, 0.07373046875, -0.244384765625, 
430, 3034613168, 0.8592825531959534, -0.04345518350601196, -0.4800574481487274, -0.17123618721961975, 8.098306655883789, 0.9287794828414917, 5.329118251800537, 0.658939003944397, -1.4610871076583862, 0.9978153109550476, -1.01025390625, 0.073974609375, -0.2412109375, 
431, 3034621501, 0.8592267036437988, -0.04343050718307495, -0.48018479347229004, -0.17116600275039673, 8.215144157409668, 0.9142173528671265, 5.257474422454834, 0.8820262551307678, -2.3722240924835205, 0.6552377939224243, -1.01806640625, 0.0712890625, -0.242431640625, 
432, 3034629834, 0.8591688871383667, -0.04343481361865997, -0.4803043007850647, -0.17111966013908386, 8.304801940917969, 0.9152953028678894, 5.250574588775635, 0.377989262342453, -2.35078501701355, 0.5736052393913269, -1.01171875, 0.0732421875, -0.24169921875, 
433, 3034638167, 0.8591233491897583, -0.04348134994506836, -0.48038268089294434, -0.171115905046463, 8.320712089538574, 0.9204564690589905, 5.272222518920898, -0.48865553736686707, -1.8539197444915771, 0.4075736999511719, -1.0126953125, 0.07177734375, -0.240478515625, 
434, 3034646500, 0.8591177463531494, -0.04354414343833923, -0.4803839325904846, -0.17112481594085693, 8.301690101623535, 0.9200702905654907, 5.29107141494751, -0.924456000328064, -0.714137613773346, 0.5001691579818726, -1.0126953125, 0.07080078125, -0.240234375, 
435, 3034654833, 0.8591572046279907, -0.043602004647254944, -0.48030325770378113, -0.17113804817199707, 8.297090530395508, 0.8988404273986816, 5.325012683868408, -1.082470417022705, 0.5696861743927002, 0.5605418682098389, -1.0107421875, 0.073486328125, -0.24072265625, 
436, 3034663166, 0.8592224717140198, -0.043647244572639465, -0.48018038272857666, -0.17114418745040894, 8.270001411437988, 0.8970365524291992, 5.289486885070801, -0.9482516050338745, 1.2595800161361694, 0.6569281816482544, -1.01025390625, 0.07373046875, -0.24365234375, 
437, 3034671499, 0.8592895865440369, -0.043656185269355774, -0.4800648093223572, -0.17112937569618225, 8.206815719604492, 0.8826966285705566, 5.28892707824707, -0.4199581444263458, 1.2581967115402222, 0.6337729692459106, -1.0107421875, 0.07275390625, -0.2412109375, 
438, 3034679832, 0.8593409657478333, -0.04362767934799194, -0.47999081015586853, -0.17108610272407532, 8.185942649841309, 0.8907936215400696, 5.249507427215576, 0.3557816743850708, 0.7351285219192505, 0.6940432786941528, -1.01416015625, 0.0732421875, -0.240478515625, 
439, 3034688165, 0.8593685626983643, -0.04355889558792114, -0.4799638092517853, -0.17104098200798035, 8.188345909118652, 0.8716310858726501, 5.2556586265563965, 1.0132991075515747, 0.12773819267749786, 0.4152579605579376, -1.0107421875, 0.07275390625, -0.2431640625, 
440, 3034696498, 0.8593829870223999, -0.04344598948955536, -0.4799710810184479, -0.17097696661949158, 8.18801498413086, 0.8706361651420593, 5.279124736785889, 1.6592646837234497, -0.28187185525894165, 0.2444622665643692, -1.0126953125, 0.0732421875, -0.241943359375, 
441, 3034704831, 0.8593947291374207, -0.04331527650356293, -0.47998547554016113, -0.17091044783592224, 8.220958709716797, 0.8480567932128906, 5.293237209320068, 1.8987064361572266, -0.340400367975235, 0.14840887486934662, -1.01220703125, 0.07373046875, -0.241943359375, 
442, 3034713164, 0.8594233989715576, -0.04316912591457367, -0.47996747493743896, -0.17085382342338562, 8.260387420654297, 0.8392133116722107, 5.271875381469727, 1.9522144794464111, 0.1914920061826706, -0.012947995215654373, -1.01318359375, 0.07177734375, -0.241455078125, 
443, 3034721497, 0.8594653606414795, -0.0430271178483963, -0.47991615533828735, -0.17082267999649048, 8.255592346191406, 0.8539416193962097, 5.232227802276611, 1.7157695293426514, 0.6905853152275085, -0.1998550444841385, -1.01220703125, 0.07373046875, -0.241943359375, 
444, 3034729830, 0.8595118522644043, -0.04290392994880676, -0.4798511564731598, -0.17080247402191162, 8.256490707397461, 0.8816165328025818, 5.213500022888184, 1.3396501541137695, 0.8319759368896484, -0.22201138734817505, -1.0107421875, 0.0712890625, -0.24169921875, 
445, 3034738163, 0.859550952911377, -0.04277622699737549, -0.47980260848999023, -0.17077434062957764, 8.281039237976074, 0.8711875081062317, 5.170740604400635, 1.4537103176116943, 0.5967603921890259, -0.19824135303497314, -1.012939453125, 0.07373046875, -0.244873046875, 
