sep=,
PacketCounter,SampleTimeFine,Quat_W,Quat_X,Quat_Y,Quat_Z,Acc_X,Acc_Y,Acc_Z,Gyr_X,Gyr_Y,Gyr_Z,Mag_X,Mag_Y,Mag_Z,
0, 3824498238, 0.884996771812439, -0.03233206272125244, -0.4501708745956421, -0.11448776721954346, 0, 0, 0, 0, 0, 0, -0.920166015625, 0.1630859375, -0.247802734375, 
1, 3824506571, 0.8850060701370239, -0.032230302691459656, -0.4501346945762634, -0.11458560824394226, 8.031319618225098, 0.4854777455329895, 5.758303165435791, 0.39898011088371277, 0.21617132425308228, -1.58854341506958, -0.918701171875, 0.1640625, -0.249755859375, 
2, 3824514904, 0.8849412202835083, -0.03216511011123657, -0.45023566484451294, -0.11470827460289001, 8.066582679748535, 0.48489800095558167, 5.741523265838623, -0.026818105950951576, -1.9680441617965698, -1.8441225290298462, -0.917236328125, 0.1640625, -0.249755859375, 
3, 3824523237, 0.8847531080245972, -0.032228097319602966, -0.450560986995697, -0.11486420035362244, 8.167604446411133, 0.3890811502933502, 5.8488311767578125, -1.5253790616989136, -5.641048908233643, -1.7793442010879517, -0.916259765625, 0.16552734375, -0.246337890625, 
4, 3824531570, 0.8845991492271423, -0.03225459158420563, -0.4508288502693176, -0.11499223113059998, 8.27462100982666, 0.36241859197616577, 5.8811540603637695, -0.9515432119369507, -4.692066669464111, -1.5557830333709717, -0.919677734375, 0.1630859375, -0.245361328125, 
5, 3824539903, 0.8846151828765869, -0.0321417897939682, -0.450792521238327, -0.1150413453578949, 8.166601181030273, 0.3379790186882019, 5.922003746032715, 0.7954884767532349, 0.2533375918865204, -1.0824575424194336, -0.919677734375, 0.16455078125, -0.246826171875, 
6, 3824548236, 0.8847179412841797, -0.032017216086387634, -0.450592041015625, -0.11507228016853333, 7.979876518249512, 0.3685913681983948, 5.943595886230469, 0.8630845546722412, 2.792527914047241, -0.6976293325424194, -0.916259765625, 0.16455078125, -0.246826171875, 
7, 3824556569, 0.8848117589950562, -0.03194260597229004, -0.4504045248031616, -0.11510631442070007, 7.837262153625488, 0.44044023752212524, 5.859290599822998, 0.14906205236911774, 2.5047521591186523, -0.526218831539154, -0.915771484375, 0.1640625, -0.245849609375, 
8, 3824564902, 0.8848943710327148, -0.03186376392841339, -0.45023858547210693, -0.11514165997505188, 7.799452304840088, 0.49269646406173706, 5.788722515106201, 0.324493944644928, 2.1758909225463867, -0.5156401991844177, -0.920654296875, 0.1630859375, -0.246337890625, 
9, 3824573235, 0.8849315047264099, -0.031796813011169434, -0.4501553177833557, -0.11519980430603027, 7.805037975311279, 0.5001479983329773, 5.808651447296143, 0.15741229057312012, 0.8903636932373047, -0.8268019556999207, -0.919677734375, 0.16552734375, -0.245361328125, 
10, 3824581568, 0.8849256038665771, -0.03180961310863495, -0.4501403570175171, -0.11530011892318726, 7.884614944458008, 0.47628647089004517, 5.796915054321289, -0.9925643801689148, -0.3249037563800812, -0.9436412453651428, -0.920166015625, 0.161376953125, -0.247314453125, 
11, 3824589901, 0.8849164247512817, -0.031877174973487854, -0.4501224756240845, -0.11542218923568726, 7.95062255859375, 0.45423516631126404, 5.781538009643555, -1.8139744997024536, -0.37919309735298157, -0.893065869808197, -0.919189453125, 0.16455078125, -0.246826171875, 
12, 3824598234, 0.8849175572395325, -0.03196294605731964, -0.4500839114189148, -0.11554080247879028, 7.978728771209717, 0.44028615951538086, 5.776671409606934, -2.0297741889953613, -0.10327658802270889, -0.6930186748504639, -0.920654296875, 0.1650390625, -0.246337890625, 
13, 3824606567, 0.8849429488182068, -0.032021746039390564, -0.45000824332237244, -0.11562380194664001, 8.022640228271484, 0.4308337867259979, 5.755721092224121, -1.6133766174316406, 0.5307013392448425, -0.44395869970321655, -0.91796875, 0.16162109375, -0.245361328125, 
14, 3824614900, 0.885001540184021, -0.03207215666770935, -0.44987133145332336, -0.11569467186927795, 8.019944190979004, 0.42986926436424255, 5.7742390632629395, -1.4340640306472778, 1.4851516485214233, -0.19648677110671997, -0.918212890625, 0.162109375, -0.246826171875, 
15, 3824623233, 0.8850885629653931, -0.03210495412349701, -0.4496801495552063, -0.11576381325721741, 7.963213920593262, 0.47433212399482727, 5.785832405090332, -1.307785987854004, 2.3566761016845703, -0.24115799367427826, -0.918701171875, 0.1650390625, -0.246826171875, 
16, 3824631566, 0.8851820230484009, -0.03217214345932007, -0.4494706392288208, -0.11584368348121643, 7.929808616638184, 0.5142917633056641, 5.77731990814209, -1.7938674688339233, 2.5615644454956055, -0.1137528270483017, -0.916748046875, 0.16357421875, -0.248779296875, 
17, 3824639899, 0.8852519989013672, -0.03224527835845947, -0.44930702447891235, -0.11592170596122742, 7.894277095794678, 0.5062020421028137, 5.796178817749023, -1.8697878122329712, 1.853381872177124, -0.1775834858417511, -0.916259765625, 0.16552734375, -0.250244140625, 
18, 3824648232, 0.8852908611297607, -0.03236322104930878, -0.4491978883743286, -0.11601617932319641, 7.883781909942627, 0.5046816468238831, 5.824455261230469, -2.3657307624816895, 0.9275811910629272, -0.11193420737981796, -0.916748046875, 0.16357421875, -0.250244140625, 
19, 3824656565, 0.8853116035461426, -0.032483041286468506, -0.4491254687309265, -0.11610427498817444, 7.900480270385742, 0.5109336972236633, 5.860071182250977, -2.32492733001709, 0.3715985119342804, -0.09154527634382248, -0.918701171875, 0.1650390625, -0.249755859375, 
20, 3824664898, 0.885343074798584, -0.032581061124801636, -0.44903257489204407, -0.11619627475738525, 7.916159152984619, 0.47090327739715576, 5.846909046173096, -2.086151599884033, 0.7147011756896973, -0.22386841475963593, -0.917724609375, 0.1650390625, -0.248291015625, 
21, 3824673231, 0.8853850364685059, -0.032631248235702515, -0.4489280581474304, -0.11626610159873962, 7.918521404266357, 0.4766334295272827, 5.844239234924316, -1.4658513069152832, 0.992999792098999, -0.29702264070510864, -0.918701171875, 0.1640625, -0.250244140625, 
22, 3824681564, 0.8854125142097473, -0.03266608715057373, -0.4488567113876343, -0.11632302403450012, 7.955506324768066, 0.46652987599372864, 5.828444004058838, -1.0683952569961548, 0.5137830972671509, -0.2016352415084839, -0.919677734375, 0.1640625, -0.248779296875, 
23, 3824689897, 0.8854396939277649, -0.0327092707157135, -0.44878503680229187, -0.1163797676563263, 7.940628528594971, 0.49305978417396545, 5.798280239105225, -1.168342113494873, 0.5039728879928589, -0.14981766045093536, -0.917724609375, 0.16357421875, -0.249267578125, 
24, 3824698230, 0.885465145111084, -0.03276816010475159, -0.4487147331237793, -0.11644193530082703, 7.928304195404053, 0.49885356426239014, 5.80709981918335, -1.4591916799545288, 0.4562279284000397, -0.1783263087272644, -0.91650390625, 0.160400390625, -0.248779296875, 
25, 3824706563, 0.8855019211769104, -0.032851964235305786, -0.44861775636672974, -0.11651131510734558, 7.938059329986572, 0.5051876902580261, 5.802848815917969, -1.7485300302505493, 0.8222808837890625, -0.010373765602707863, -0.914306640625, 0.1640625, -0.248779296875, 
26, 3824714896, 0.8855440616607666, -0.03292044997215271, -0.4485182464122772, -0.11655533313751221, 7.909172058105469, 0.5435131192207336, 5.847311019897461, -1.4366254806518555, 0.8874948024749756, 0.19685819745063782, -0.917236328125, 0.1640625, -0.250732421875, 
27, 3824723229, 0.8855798244476318, -0.03298042714595795, -0.44843578338623047, -0.11658301949501038, 7.927667617797852, 0.5245320200920105, 5.8362040519714355, -1.3113462924957275, 0.6491031050682068, 0.24273329973220825, -0.917724609375, 0.161865234375, -0.251708984375, 
28, 3824731562, 0.8856239318847656, -0.033019691705703735, -0.4483378231525421, -0.11661401391029358, 7.921022415161133, 0.5219503045082092, 5.850940227508545, -0.9967779517173767, 0.9215874075889587, 0.17941492795944214, -0.916748046875, 0.1630859375, -0.250732421875, 
29, 3824739895, 0.8856679797172546, -0.03305031359195709, -0.4482433795928955, -0.11663401126861572, 7.93065071105957, 0.5060712695121765, 5.84303617477417, -0.9139414429664612, 0.8914394974708557, 0.179056316614151, -0.916748046875, 0.16455078125, -0.250244140625, 
30, 3824748228, 0.8856991529464722, -0.033090740442276, -0.44817063212394714, -0.11666584014892578, 7.91261100769043, 0.47765254974365234, 5.855145454406738, -0.9803592562675476, 0.5328401923179626, 0.1449381560087204, -0.914306640625, 0.16357421875, -0.249267578125, 
31, 3824756561, 0.8857182860374451, -0.03314836323261261, -0.44811978936195374, -0.11669981479644775, 7.921644687652588, 0.4675312638282776, 5.867190837860107, -1.1751554012298584, 0.16591618955135345, 0.19460412859916687, -0.917724609375, 0.16357421875, -0.249267578125, 
32, 3824764894, 0.8857377767562866, -0.033185601234436035, -0.44807302951812744, -0.11672040820121765, 7.911022663116455, 0.4849843680858612, 5.863751411437988, -0.9050021171569824, 0.15034274756908417, 0.1761106699705124, -0.915283203125, 0.1640625, -0.250732421875, 
33, 3824773227, 0.8857758641242981, -0.03319936990737915, -0.44799554347991943, -0.11672532558441162, 7.920772075653076, 0.4969795346260071, 5.867040634155273, -0.5783950686454773, 0.6684931516647339, 0.2553355395793915, -0.916748046875, 0.16357421875, -0.248779296875, 
34, 3824781560, 0.8858394026756287, -0.033196404576301575, -0.4478667676448822, -0.11673817038536072, 7.937401294708252, 0.4970938563346863, 5.838285446166992, -0.4113902449607849, 1.4760329723358154, 0.1856391578912735, -0.918212890625, 0.1630859375, -0.248779296875, 
35, 3824789893, 0.8859182000160217, -0.03317365050315857, -0.4477155804634094, -0.11672645807266235, 7.915042400360107, 0.5074716210365295, 5.823986530303955, -0.06721174716949463, 1.8724133968353271, 0.3789497911930084, -0.917236328125, 0.163818359375, -0.252197265625, 
36, 3824798226, 0.8859872817993164, -0.03315894305706024, -0.447582483291626, -0.1167176365852356, 7.869801044464111, 0.5300471186637878, 5.82697057723999, -0.13788141310214996, 1.5722657442092896, 0.3885294795036316, -0.916259765625, 0.16455078125, -0.250244140625, 
37, 3824806559, 0.8860384821891785, -0.03318324685096741, -0.44747838377952576, -0.11672061681747437, 7.835860729217529, 0.5201547145843506, 5.83434534072876, -0.7214249968528748, 1.0566257238388062, 0.38181859254837036, -0.917724609375, 0.1650390625, -0.251708984375, 
38, 3824814892, 0.8860719799995422, -0.03324103355407715, -0.4474015235900879, -0.11674445867538452, 7.798351287841797, 0.5164352655410767, 5.854244232177734, -1.148747205734253, 0.5664972066879272, 0.3523622453212738, -0.921630859375, 0.164306640625, -0.25439453125, 
39, 3824823225, 0.8860901594161987, -0.03333239257335663, -0.4473503530025482, -0.11677613854408264, 7.806451320648193, 0.5073117613792419, 5.887522220611572, -1.6518875360488892, 0.11376561969518661, 0.36378616094589233, -0.914794921875, 0.163330078125, -0.253662109375, 
40, 3824831558, 0.8860951662063599, -0.03346516191959381, -0.4473142623901367, -0.11683869361877441, 7.815347671508789, 0.5114890336990356, 5.923511028289795, -2.2487759590148926, -0.20798757672309875, 0.2787981331348419, -0.918701171875, 0.16650390625, -0.252685546875, 
41, 3824839891, 0.8860753178596497, -0.03367915749549866, -0.4473154544830322, -0.11692264676094055, 7.826246738433838, 0.47992056608200073, 6.0204362869262695, -3.434049367904663, -0.9334852695465088, 0.3688065707683563, -0.917236328125, 0.16357421875, -0.251708984375, 
42, 3824848224, 0.886073887348175, -0.03385151922702789, -0.4472939372062683, -0.11696580052375793, 7.8572492599487305, 0.4951247274875641, 5.908162593841553, -2.590137004852295, -0.49742844700813293, 0.7424157857894897, -0.916748046875, 0.1669921875, -0.251220703125, 
43, 3824856557, 0.8861347436904907, -0.033773273229599, -0.4471997618675232, -0.11688768863677979, 7.88143253326416, 0.48029863834381104, 5.738397598266602, 1.0063191652297974, 1.1190986633300781, 0.7239478826522827, -0.917724609375, 0.16455078125, -0.251220703125, 
44, 3824864890, 0.8861610889434814, -0.03369329869747162, -0.44715720415115356, -0.11687424778938293, 7.809009075164795, 0.4620736539363861, 5.772165298461914, 0.8119840025901794, 0.3094327449798584, -0.06726296991109848, -0.916748046875, 0.16455078125, -0.252197265625, 
45, 3824873223, 0.8860165476799011, -0.033839672803878784, -0.4474053382873535, -0.11697855591773987, 7.8088059425354, 0.35289740562438965, 5.928177356719971, -2.2835090160369873, -4.59276008605957, -0.5177149176597595, -0.916748046875, 0.1650390625, -0.251220703125, 
46, 3824881556, 0.8858768939971924, -0.0340413898229599, -0.4476388096809387, -0.1170843243598938, 7.9953083992004395, 0.3649096190929413, 5.893558979034424, -3.0679962635040283, -4.469197750091553, -0.2443598061800003, -0.915283203125, 0.166015625, -0.250732421875, 
47, 3824889889, 0.8859283924102783, -0.034162744879722595, -0.4475098252296448, -0.11715185642242432, 8.04334831237793, 0.5071858763694763, 5.858240604400635, -2.3913962841033936, 1.2325443029403687, 0.16770921647548676, -0.916748046875, 0.16552734375, -0.251708984375, 
48, 3824898222, 0.886039137840271, -0.03431162238121033, -0.44726336002349854, -0.11721068620681763, 7.925562858581543, 0.5332618355751038, 5.843807697296143, -2.711458444595337, 2.9786791801452637, 0.6935822367668152, -0.915283203125, 0.1669921875, -0.248779296875, 
49, 3824906555, 0.8861336708068848, -0.03452453017234802, -0.44703209400177, -0.11731594800949097, 7.836328029632568, 0.5033789277076721, 5.831982612609863, -3.833080768585205, 2.6170575618743896, 0.4296788275241852, -0.917724609375, 0.1669921875, -0.249267578125, 
50, 3824914888, 0.8861685395240784, -0.034754976630210876, -0.44691720604896545, -0.11742299795150757, 7.829686164855957, 0.40754666924476624, 5.882282733917236, -3.825613260269165, 0.7976400256156921, 0.4224427044391632, -0.916748046875, 0.1640625, -0.249755859375, 
51, 3824923221, 0.8861799240112305, -0.0349259078502655, -0.44686591625213623, -0.11748155951499939, 7.8414788246154785, 0.41283532977104187, 5.849960803985596, -2.723741054534912, -0.038421355187892914, 0.5645762085914612, -0.916748046875, 0.1640625, -0.250244140625, 
52, 3824931554, 0.886191725730896, -0.03496210277080536, -0.44684237241744995, -0.11747130751609802, 7.804459571838379, 0.40905678272247314, 5.822607517242432, -0.5994499325752258, -0.1983053982257843, 0.5780492424964905, -0.916259765625, 0.16552734375, -0.249267578125, 
53, 3824939887, 0.8861262798309326, -0.03496544063091278, -0.4469723403453827, -0.11746987700462341, 7.795677185058594, 0.3753882050514221, 5.863582611083984, -0.09861478954553604, -2.480943441390991, 0.022783858701586723, -0.919189453125, 0.1650390625, -0.251220703125, 
54, 3824948220, 0.8859951496124268, -0.03498829901218414, -0.44722533226013184, -0.11748841404914856, 7.8444437980651855, 0.3723699748516083, 5.843884468078613, -0.23600958287715912, -4.4094133377075195, -0.2196676880121231, -0.914794921875, 0.16650390625, -0.251708984375, 
55, 3824956553, 0.8858892321586609, -0.0349171906709671, -0.4474472105503082, -0.11746388673782349, 7.922797679901123, 0.40474823117256165, 5.856167793273926, 0.9810122847557068, -3.7454922199249268, -0.3353671431541443, -0.915283203125, 0.16748046875, -0.250732421875, 
56, 3824964886, 0.8858439922332764, -0.034824490547180176, -0.44755059480667114, -0.11743834614753723, 7.9612040519714355, 0.44918444752693176, 5.8817925453186035, 1.2412785291671753, -1.8946592807769775, -0.18173299729824066, -0.916748046875, 0.16357421875, -0.250732421875, 
57, 3824973219, 0.8858562707901001, -0.03477148711681366, -0.4475303292274475, -0.1174391508102417, 7.973145484924316, 0.49315276741981506, 5.858486175537109, 0.3742367923259735, -0.08001887798309326, -0.1488187164068222, -0.915771484375, 0.1669921875, -0.249267578125, 
58, 3824981552, 0.8858952522277832, -0.034777045249938965, -0.44743844866752625, -0.11749336123466492, 7.956529140472412, 0.5175654292106628, 5.811663627624512, -0.7202466130256653, 0.8823718428611755, -0.3205364942550659, -0.914794921875, 0.16259765625, -0.248291015625, 
59, 3824989885, 0.8859257698059082, -0.034819647669792175, -0.44735220074653625, -0.11757868528366089, 7.9378461837768555, 0.5228942632675171, 5.810919761657715, -1.3899564743041992, 0.7237685918807983, -0.514897346496582, -0.915283203125, 0.16552734375, -0.249267578125, 
60, 3824998218, 0.8859134316444397, -0.034867703914642334, -0.44735077023506165, -0.11766335368156433, 7.9080328941345215, 0.499540239572525, 5.847227573394775, -1.3053781986236572, -0.5894860029220581, -0.5557264089584351, -0.916259765625, 0.1640625, -0.247802734375, 
61, 3825006551, 0.8858974575996399, -0.034881919622421265, -0.44735875725746155, -0.11774885654449463, 7.895458221435547, 0.47012776136398315, 5.881267547607422, -0.9618144631385803, -0.6667641401290894, -0.8428363800048828, -0.917236328125, 0.1640625, -0.250732421875, 
62, 3825014884, 0.8859244585037231, -0.034872859716415405, -0.4472822844982147, -0.11783894896507263, 7.910879611968994, 0.4796338975429535, 5.8783135414123535, -0.7448748350143433, 0.6625634431838989, -0.8733558058738708, -0.919189453125, 0.16650390625, -0.250244140625, 
63, 3825023217, 0.8859958052635193, -0.034811437129974365, -0.4471248984336853, -0.11791762709617615, 7.938431262969971, 0.5037979483604431, 5.840993404388428, -0.26155978441238403, 2.0020854473114014, -1.032266616821289, -0.916259765625, 0.1650390625, -0.251220703125, 
64, 3825031550, 0.8860886693000793, -0.034735873341560364, -0.44692379236221313, -0.11800426244735718, 7.946033000946045, 0.49032649397850037, 5.817530155181885, -0.08365608751773834, 2.6902501583099365, -1.0733388662338257, -0.918212890625, 0.166015625, -0.251220703125, 
65, 3825039883, 0.8861833214759827, -0.03468097746372223, -0.4467123746871948, -0.11811023950576782, 7.973590850830078, 0.5388636589050293, 5.813708305358887, -0.5587489604949951, 2.807307481765747, -1.2450567483901978, -0.916748046875, 0.16259765625, -0.248779296875, 
66, 3825048216, 0.8862675428390503, -0.03470128774642944, -0.4465041160583496, -0.11825981736183167, 8.004364013671875, 0.5269602537155151, 5.789726734161377, -1.6535013914108276, 2.6008567810058594, -1.2617830038070679, -0.913818359375, 0.16552734375, -0.253173828125, 
67, 3825056549, 0.8863611221313477, -0.03478141129016876, -0.4462650716304779, -0.11843675374984741, 7.995147705078125, 0.5135846138000488, 5.789115905761719, -2.598013401031494, 2.947967767715454, -1.1985796689987183, -0.915283203125, 0.16552734375, -0.251220703125, 
68, 3825064882, 0.8864884376525879, -0.03485894203186035, -0.44596463441848755, -0.11859261989593506, 8.014140129089355, 0.5005465745925903, 5.781955718994141, -2.631453037261963, 3.9013681411743164, -0.964068591594696, -0.914306640625, 0.16650390625, -0.251708984375, 
69, 3825073215, 0.8866527080535889, -0.034921109676361084, -0.44560015201568604, -0.11871644854545593, 7.99851655960083, 0.5233289003372192, 5.78989315032959, -2.4049720764160156, 4.913232803344727, -0.6259094476699829, -0.912353515625, 0.16357421875, -0.251708984375, 
70, 3825081548, 0.8868232369422913, -0.03498506546020508, -0.4452216327190399, -0.11884438991546631, 7.967297077178955, 0.5125844478607178, 5.819908618927002, -2.2894773483276367, 5.12319278717041, -0.5083913207054138, -0.916259765625, 0.16455078125, -0.253173828125, 
71, 3825089881, 0.886993408203125, -0.0350629985332489, -0.4448462128639221, -0.11895668506622314, 7.9009270668029785, 0.48808225989341736, 5.828899383544922, -2.4509236812591553, 5.057441711425781, -0.3044251799583435, -0.916259765625, 0.16748046875, -0.256591796875, 
72, 3825098214, 0.8871498703956604, -0.03513869643211365, -0.4444979131221771, -0.1190706193447113, 7.88357400894165, 0.5042145252227783, 5.877823352813721, -2.30466628074646, 4.642516136169434, -0.30309319496154785, -0.918701171875, 0.164306640625, -0.256591796875, 
73, 3825106547, 0.8872860670089722, -0.03521214425563812, -0.4441947937011719, -0.11916425824165344, 7.8649821281433105, 0.49108922481536865, 5.88164758682251, -2.1564881801605225, 3.9675557613372803, -0.17891542613506317, -0.915283203125, 0.164794921875, -0.256591796875, 
74, 3825114880, 0.8874199390411377, -0.03530324995517731, -0.44389474391937256, -0.11925825476646423, 7.835464000701904, 0.47454994916915894, 5.87124490737915, -2.3023102283477783, 3.88159441947937, -0.025537393987178802, -0.913818359375, 0.1640625, -0.255126953125, 
75, 3825123213, 0.887567400932312, -0.035374850034713745, -0.44357433915138245, -0.11933204531669617, 7.806159019470215, 0.40766414999961853, 5.802862644195557, -2.0337448120117188, 4.240910530090332, 0.0804671198129654, -0.912841796875, 0.16455078125, -0.256103515625, 
76, 3825131546, 0.8877195119857788, -0.03541187942028046, -0.4432586431503296, -0.11936336755752563, 7.758294105529785, 0.3912890553474426, 5.815972328186035, -1.2766646146774292, 4.241038799285889, 0.447365403175354, -0.915283203125, 0.166748046875, -0.259033203125, 
77, 3825139879, 0.8878117203712463, -0.03546850383281708, -0.443064421415329, -0.11938193440437317, 7.5959649085998535, 0.3528250455856323, 5.956336975097656, -1.4113445281982422, 2.358494758605957, 0.4524114727973938, -0.914794921875, 0.164794921875, -0.255615234375, 
78, 3825148212, 0.8878607749938965, -0.035490214824676514, -0.4429667294025421, -0.11937379837036133, 7.557372093200684, 0.3098468482494354, 5.94788932800293, -0.5424838662147522, 0.9578827023506165, 0.5605291128158569, -0.915283203125, 0.166748046875, -0.258544921875, 
79, 3825156545, 0.8879040479660034, -0.03546488285064697, -0.4428997039794922, -0.11930736899375916, 7.593243598937988, 0.30021196603775024, 5.8690290451049805, 0.33658382296562195, 0.6026901602745056, 0.8808350563049316, -0.913818359375, 0.163818359375, -0.258544921875, 
80, 3825164878, 0.8878933191299438, -0.03546229004859924, -0.4429319500923157, -0.11926886439323425, 7.596834182739258, 0.32830119132995605, 5.8417768478393555, 0.1245235949754715, -0.9681668281555176, 0.6202871203422546, -0.913330078125, 0.164794921875, -0.260498046875, 
81, 3825173211, 0.8877290487289429, -0.035533830523490906, -0.44326168298721313, -0.1192457377910614, 7.638583660125732, 0.3288535177707672, 5.953330039978027, -0.556955873966217, -5.644019603729248, 0.41281184554100037, -0.912841796875, 0.16650390625, -0.258056640625, 
82, 3825181544, 0.8874967098236084, -0.03566299378871918, -0.4437212347984314, -0.1192273497581482, 7.71791934967041, 0.2981257140636444, 6.0971221923828125, -1.016116976737976, -7.741954803466797, 0.6052772998809814, -0.915771484375, 0.163818359375, -0.255615234375, 
83, 3825189877, 0.8873343467712402, -0.035714805126190186, -0.44406747817993164, -0.11913105845451355, 7.810571670532227, 0.35402533411979675, 6.107612609863281, 0.21658118069171906, -5.834000587463379, 1.2252954244613647, -0.912353515625, 0.166015625, -0.256591796875, 
84, 3825198210, 0.8872763514518738, -0.035685017704963684, -0.44422292709350586, -0.1189928948879242, 7.83955717086792, 0.4091814458370209, 6.139002799987793, 1.2426363229751587, -2.7632896900177, 1.5312831401824951, -0.914306640625, 0.1640625, -0.253662109375, 
85, 3825206543, 0.887237548828125, -0.035716712474823, -0.4443303644657135, -0.11886987090110779, 7.806612014770508, 0.45823317766189575, 6.141448974609375, 0.2825634479522705, -2.147625684738159, 1.7390915155410767, -0.916259765625, 0.164794921875, -0.258056640625, 
86, 3825214876, 0.8871880769729614, -0.035804688930511475, -0.4444444477558136, -0.11878648400306702, 7.797313213348389, 0.48797908425331116, 6.111447811126709, -0.5913302302360535, -2.372825860977173, 1.6180126667022705, -0.919189453125, 0.1669921875, -0.254150390625, 
87, 3825223209, 0.8871375322341919, -0.03590939939022064, -0.4445573687553406, -0.11871001124382019, 7.871790885925293, 0.4634302258491516, 6.110561847686768, -0.9626854062080383, -2.3866829872131348, 1.5385061502456665, -0.913818359375, 0.166015625, -0.254638671875, 
88, 3825231542, 0.8870810866355896, -0.03600698709487915, -0.44467905163764954, -0.11864659190177917, 7.862361907958984, 0.426652729511261, 6.1358442306518555, -0.8235489726066589, -2.5143189430236816, 1.4169667959213257, -0.916748046875, 0.165771484375, -0.255126953125, 
89, 3825239875, 0.8870376348495483, -0.036120444536209106, -0.4447707235813141, -0.11859217286109924, 7.919920921325684, 0.35413655638694763, 6.114926815032959, -1.1798171997070312, -2.0846145153045654, 1.386434555053711, -0.913330078125, 0.16552734375, -0.255126953125, 
90, 3825248208, 0.8870261311531067, -0.03625425696372986, -0.44479265809059143, -0.11855554580688477, 7.919024467468262, 0.326364666223526, 6.096744060516357, -1.5689486265182495, -1.0690101385116577, 1.4347429275512695, -0.917236328125, 0.164794921875, -0.253173828125, 
91, 3825256541, 0.8870667815208435, -0.03632737696170807, -0.44472235441207886, -0.11849310994148254, 7.885726451873779, 0.32704228162765503, 6.053454399108887, -0.8288509845733643, 0.4682154059410095, 1.4784921407699585, -0.919189453125, 0.1669921875, -0.254150390625, 
92, 3825264874, 0.8871469497680664, -0.03632684051990509, -0.4445868730545044, -0.11840206384658813, 7.850505828857422, 0.33682554960250854, 6.023625373840332, 0.1916201114654541, 1.6046806573867798, 1.5053743124008179, -0.917236328125, 0.16748046875, -0.254150390625, 
93, 3825273207, 0.8872417211532593, -0.036263033747673035, -0.44443580508232117, -0.11827835440635681, 7.8178791999816895, 0.3676510751247406, 5.979487895965576, 1.0884512662887573, 1.974473237991333, 1.4985095262527466, -0.916259765625, 0.16552734375, -0.254638671875, 
94, 3825281540, 0.8873190879821777, -0.03619275987148285, -0.4443146586418152, -0.11817511916160583, 7.794607639312744, 0.38080543279647827, 5.937163829803467, 1.1388473510742188, 1.5195260047912598, 1.2167657613754272, -0.920166015625, 0.166259765625, -0.25439453125, 
95, 3825289873, 0.8873685598373413, -0.03614450991153717, -0.44424042105674744, -0.1180969774723053, 7.786906719207764, 0.4250791370868683, 5.936580657958984, 0.7718978524208069, 0.76175457239151, 0.9667963981628418, -0.912353515625, 0.1689453125, -0.253173828125, 
96, 3825298206, 0.8873883485794067, -0.0361158549785614, -0.44421419501304626, -0.11805576086044312, 7.815239429473877, 0.4039853811264038, 5.928426742553711, 0.37782272696495056, -0.02638266235589981, 0.5713638663291931, -0.913818359375, 0.165771484375, -0.257568359375, 
97, 3825306539, 0.8873997926712036, -0.036073118448257446, -0.4442043602466583, -0.11801990866661072, 7.8588786125183105, 0.3820333480834961, 5.925093173980713, 0.46813854575157166, -0.24930334091186523, 0.341450572013855, -0.915283203125, 0.16650390625, -0.255615234375, 
98, 3825314872, 0.8874260783195496, -0.03602038323879242, -0.4441605806350708, -0.11800244450569153, 7.892282485961914, 0.38060247898101807, 5.905738353729248, 0.501565158367157, 0.2784651219844818, 0.1554912030696869, -0.912353515625, 0.16748046875, -0.256103515625, 
99, 3825323205, 0.887470543384552, -0.03596170246601105, -0.4440811574459076, -0.1179850697517395, 7.891324520111084, 0.39012351632118225, 5.874135971069336, 0.5253095626831055, 0.8331926465034485, 0.16348285973072052, -0.914306640625, 0.16748046875, -0.253662109375, 
100, 3825331538, 0.887519121170044, -0.03587615489959717, -0.44399672746658325, -0.11796343326568604, 7.9033122062683105, 0.4218532145023346, 5.9035773277282715, 0.7724868655204773, 0.9647216200828552, -0.017007851973176003, -0.916748046875, 0.166259765625, -0.257080078125, 
101, 3825339871, 0.8875641226768494, -0.035770729184150696, -0.44391870498657227, -0.11794981360435486, 7.904113292694092, 0.4460870623588562, 5.8967180252075195, 1.0208425521850586, 0.9006605744361877, -0.21049779653549194, -0.914306640625, 0.16650390625, -0.256103515625, 
102, 3825348204, 0.8876001834869385, -0.035680025815963745, -0.4438534379005432, -0.11795157194137573, 7.920435905456543, 0.41904929280281067, 5.873793125152588, 0.8173630833625793, 0.6714388132095337, -0.285675585269928, -0.914306640625, 0.166015625, -0.255126953125, 
103, 3825356537, 0.8876316547393799, -0.03561842441558838, -0.44379064440727234, -0.11797025799751282, 7.9254560470581055, 0.4137633740901947, 5.887811660766602, 0.3067176938056946, 0.5783054828643799, -0.36600181460380554, -0.914306640625, 0.16650390625, -0.257568359375, 
104, 3825364870, 0.88765549659729, -0.03559894859790802, -0.44373035430908203, -0.11802369356155396, 7.8975324630737305, 0.4487479031085968, 5.873449802398682, -0.36420878767967224, 0.4460847079753876, -0.5042418241500854, -0.914794921875, 0.16796875, -0.255615234375, 
105, 3825373203, 0.8876786828041077, -0.03557494282722473, -0.44367408752441406, -0.11806854605674744, 7.889857769012451, 0.4432831406593323, 5.89225435256958, -0.3541423976421356, 0.39813485741615295, -0.5107478499412537, -0.916748046875, 0.166748046875, -0.256103515625, 
106, 3825381536, 0.8877020478248596, -0.035545140504837036, -0.44361597299575806, -0.11811965703964233, 7.855710029602051, 0.4298429489135742, 5.902533054351807, -0.22125574946403503, 0.43158698081970215, -0.5404602885246277, -0.914306640625, 0.1669921875, -0.258056640625, 
107, 3825389869, 0.88773512840271, -0.03550910949707031, -0.4435378313064575, -0.11817565560340881, 7.848607063293457, 0.4331260919570923, 5.886031627655029, -0.29256579279899597, 0.7514064311981201, -0.6847710013389587, -0.913330078125, 0.16748046875, -0.256591796875, 
108, 3825398202, 0.8877617120742798, -0.03547969460487366, -0.44346922636032104, -0.11824199557304382, 7.847305774688721, 0.4339847266674042, 5.888599395751953, -0.33421453833580017, 0.5862457752227783, -0.7123574614524841, -0.914306640625, 0.164794921875, -0.259033203125, 
109, 3825406535, 0.887769877910614, -0.035460710525512695, -0.4434358775615692, -0.11831149458885193, 7.861260414123535, 0.44008582830429077, 5.881753921508789, -0.5006046295166016, 0.0324404314160347, -0.7928887009620667, -0.914306640625, 0.16796875, -0.256591796875, 
110, 3825414868, 0.8877707123756409, -0.03545169532299042, -0.4434155225753784, -0.11838451027870178, 7.861067771911621, 0.44213876128196716, 5.889429569244385, -0.5587233304977417, -0.19049306213855743, -0.7350260615348816, -0.912353515625, 0.16748046875, -0.256103515625, 
111, 3825423201, 0.8877694606781006, -0.035443201661109924, -0.44339820742607117, -0.1184600293636322, 7.87482213973999, 0.4346065819263458, 5.899914741516113, -0.6573893427848816, -0.23506180942058563, -0.8341531157493591, -0.912841796875, 0.16748046875, -0.257568359375, 
112, 3825431534, 0.8877753019332886, -0.035436466336250305, -0.4433631896972656, -0.11854913830757141, 7.872154235839844, 0.37967291474342346, 5.901352882385254, -0.7050829529762268, 0.02373158559203148, -0.9028505086898804, -0.914306640625, 0.165771484375, -0.257568359375, 
113, 3825439867, 0.887784481048584, -0.03542603552341461, -0.44332626461982727, -0.11862221360206604, 7.857619762420654, 0.3705388009548187, 5.921666622161865, -0.6512418985366821, 0.06947861611843109, -0.7934008836746216, -0.914306640625, 0.166748046875, -0.258056640625, 
114, 3825448200, 0.8877884745597839, -0.035430774092674255, -0.4432995617389679, -0.11869090795516968, 7.845460414886475, 0.39592427015304565, 5.936265468597412, -0.7094886898994446, -0.11790231615304947, -0.5905361771583557, -0.913818359375, 0.1669921875, -0.256591796875, 
115, 3825456533, 0.8877679109573364, -0.03545255959033966, -0.44332391023635864, -0.11874714493751526, 7.836225509643555, 0.42761096358299255, 5.956401348114014, -0.8661198019981384, -0.922368586063385, -0.47747495770454407, -0.912353515625, 0.1669921875, -0.257080078125, 
116, 3825464866, 0.8877243995666504, -0.03548964858055115, -0.44338828325271606, -0.11882132291793823, 7.9102559089660645, 0.44042328000068665, 5.941093444824219, -1.0121465921401978, -1.568820834159851, -0.5839790105819702, -0.914794921875, 0.165283203125, -0.258544921875, 
117, 3825473199, 0.887679398059845, -0.035531580448150635, -0.4434618651866913, -0.1188703179359436, 7.886063575744629, 0.44258493185043335, 5.994771957397461, -0.990553617477417, -1.7065739631652832, -0.32289302349090576, -0.914306640625, 0.165771484375, -0.258544921875, 
118, 3825481532, 0.8876336216926575, -0.035580992698669434, -0.4435340166091919, -0.1189279556274414, 7.853235721588135, 0.432108074426651, 6.053498268127441, -1.0492486953735352, -1.7064330577850342, -0.3128650486469269, -0.915283203125, 0.166259765625, -0.256591796875, 
119, 3825489865, 0.8875834345817566, -0.03563667833805084, -0.44361230731010437, -0.11899405717849731, 7.841285228729248, 0.4587397575378418, 6.057468891143799, -1.2350159883499146, -1.8101322650909424, -0.441410094499588, -0.916259765625, 0.164306640625, -0.258544921875, 
120, 3825498198, 0.8875329494476318, -0.03569406270980835, -0.44368913769721985, -0.11906746029853821, 7.903192520141602, 0.4580400586128235, 6.076241970062256, -1.2381408214569092, -1.7973252534866333, -0.46920156478881836, -0.912353515625, 0.166015625, -0.257568359375, 
121, 3825506531, 0.88749760389328, -0.03579108417034149, -0.44372379779815674, -0.1191721260547638, 7.855629920959473, 0.46651491522789, 6.096368789672852, -1.973346471786499, -1.2399595975875854, -0.5601320862770081, -0.912841796875, 0.16650390625, -0.258056640625, 
122, 3825514864, 0.8875048160552979, -0.035948604345321655, -0.4436681270599365, -0.11927777528762817, 7.779660224914551, 0.46082964539527893, 6.137340068817139, -2.9824447631835938, 0.02442317269742489, -0.19879208505153656, -0.913330078125, 0.16552734375, -0.257080078125, 
123, 3825523197, 0.8875627517700195, -0.0360109806060791, -0.44353145360946655, -0.11933633685112, 7.7742600440979, 0.43347230553627014, 5.968759059906006, -1.5936920642852783, 1.4565150737762451, -0.044722456485033035, -0.915283203125, 0.165771484375, -0.257080078125, 
124, 3825531530, 0.8876612186431885, -0.035867542028427124, -0.4433552920818329, -0.11930134892463684, 7.761041641235352, 0.44643524289131165, 5.769829750061035, 1.532871127128601, 2.475142240524292, -0.0009989552199840546, -0.914794921875, 0.164306640625, -0.257568359375, 
125, 3825539863, 0.8876678943634033, -0.03577950596809387, -0.44334298372268677, -0.11932399868965149, 7.651618003845215, 0.3948726952075958, 5.878828525543213, 0.6616285443305969, -0.14341410994529724, -0.6495001912117004, -0.915283203125, 0.165771484375, -0.260498046875, 
126, 3825548196, 0.8874837160110474, -0.03597383201122284, -0.44365596771240234, -0.1194724440574646, 7.6560378074646, 0.28354600071907043, 6.0721940994262695, -3.0434577465057373, -5.682952880859375, -0.8831019401550293, -0.915771484375, 0.165771484375, -0.257080078125, 
127, 3825556529, 0.8873593211174011, -0.03620894253253937, -0.4438527822494507, -0.11959418654441833, 7.800481796264648, 0.29740285873413086, 5.977789878845215, -3.6134257316589355, -3.9758927822113037, -0.21124060451984406, -0.913818359375, 0.166748046875, -0.258544921875, 
128, 3825564862, 0.8874070644378662, -0.036319658160209656, -0.44373780488967896, -0.11963394284248352, 7.8442583084106445, 0.3751962184906006, 5.909383296966553, -1.9496145248413086, 1.038580298423767, 0.525885820388794, -0.913818359375, 0.166015625, -0.257080078125, 
129, 3825573195, 0.8874596357345581, -0.03646586835384369, -0.4436246156692505, -0.11961781978607178, 7.687644958496094, 0.3904779255390167, 5.928040504455566, -2.1582553386688232, 0.9605979323387146, 1.3343863487243652, -0.915283203125, 0.16552734375, -0.254638671875, 
130, 3825581528, 0.8874222040176392, -0.0366738885641098, -0.44368475675582886, -0.11960908770561218, 7.629519939422607, 0.2832574248313904, 5.937471389770508, -2.595477342605591, -1.8025121688842773, 1.4838581085205078, -0.915283203125, 0.166259765625, -0.259033203125, 
131, 3825589861, 0.8872731328010559, -0.036873698234558105, -0.4439924955368042, -0.11951214075088501, 7.6306843757629395, 0.16626928746700287, 6.009381294250488, -1.7094684839248657, -5.5342116355896, 2.1191298961639404, -0.915283203125, 0.166015625, -0.255126953125, 
132, 3825598194, 0.8870804309844971, -0.03697149455547333, -0.444431334733963, -0.11928176879882812, 7.687096118927002, 0.12780256569385529, 5.982444763183594, 0.6474127173423767, -7.302082061767578, 3.0673437118530273, -0.916259765625, 0.165283203125, -0.255126953125, 
133, 3825606527, 0.8868613839149475, -0.03689810633659363, -0.44497013092041016, -0.11892247200012207, 7.686182975769043, 0.19367295503616333, 5.924101829528809, 3.6136436462402344, -8.464608192443848, 3.4542462825775146, -0.915283203125, 0.16748046875, -0.254638671875, 
134, 3825614860, 0.8865627646446228, -0.03676791489124298, -0.44567450881004333, -0.11855161190032959, 7.708098888397217, 0.2455558329820633, 5.906129360198975, 4.667490005493164, -10.88525676727295, 3.0801503658294678, -0.914306640625, 0.16748046875, -0.251708984375, 
135, 3825623193, 0.8861961364746094, -0.036654338240623474, -0.44650304317474365, -0.11821043491363525, 7.763336658477783, 0.23406092822551727, 5.818495750427246, 4.449949264526367, -12.82909870147705, 2.6462202072143555, -0.916259765625, 0.1669921875, -0.252197265625, 
136, 3825631526, 0.8858276605606079, -0.03648567199707031, -0.4473569095134735, -0.11779370903968811, 7.869943618774414, 0.21071776747703552, 5.777827262878418, 5.5283589363098145, -13.095405578613281, 3.132941246032715, -0.912841796875, 0.168701171875, -0.251220703125, 
137, 3825639859, 0.8854794502258301, -0.03633315861225128, -0.4481864273548126, -0.11730524897575378, 7.914692401885986, 0.26966947317123413, 5.886728763580322, 5.751357078552246, -12.736551284790039, 4.160046577453613, -0.917236328125, 0.16748046875, -0.249267578125, 
138, 3825648192, 0.8851931691169739, -0.03626099228858948, -0.44889697432518005, -0.11677023768424988, 7.926450252532959, 0.43752342462539673, 5.876506328582764, 4.98773193359375, -11.060880661010742, 5.452554225921631, -0.917236328125, 0.169189453125, -0.246826171875, 
139, 3825656525, 0.8849510550498962, -0.03619895875453949, -0.44952112436294556, -0.11622300744056702, 7.949175834655762, 0.6279757022857666, 5.82150411605835, 4.715426921844482, -9.757883071899414, 5.688588619232178, -0.919189453125, 0.16748046875, -0.24560546875, 
140, 3825664858, 0.8847020268440247, -0.03617453575134277, -0.4501434862613678, -0.11571693420410156, 7.954375267028809, 0.6929387450218201, 5.811371803283691, 4.105770111083984, -9.820088386535645, 5.498340129852295, -0.915771484375, 0.169189453125, -0.245849609375, 
141, 3825673191, 0.8844566941261292, -0.0360589325428009, -0.4507681727409363, -0.11519494652748108, 7.95786714553833, 0.6786829829216003, 5.774259090423584, 5.215353012084961, -9.686280250549316, 5.050525188446045, -0.9189453125, 0.170166015625, -0.244140625, 
142, 3825681524, 0.8842390775680542, -0.03582319617271423, -0.45134544372558594, -0.11467784643173218, 8.010497093200684, 0.6085410714149475, 5.7707414627075195, 6.688838958740234, -8.746392250061035, 4.39633846282959, -0.9169921875, 0.17138671875, -0.240234375, 
143, 3825689857, 0.8840656280517578, -0.03546863794326782, -0.4518345296382904, -0.11419862508773804, 8.043469429016113, 0.5578769445419312, 5.7032623291015625, 7.7807722091674805, -7.194066047668457, 3.3111140727996826, -0.916015625, 0.1708984375, -0.239501953125, 
144, 3825698190, 0.8839143514633179, -0.035046085715293884, -0.45228150486946106, -0.113730788230896, 8.038455963134766, 0.4509677290916443, 5.683192729949951, 8.419206619262695, -6.428865909576416, 2.756206750869751, -0.918701171875, 0.170166015625, -0.240234375, 
145, 3825706523, 0.8837389945983887, -0.03462648391723633, -0.4527623653411865, -0.11330580711364746, 7.945642471313477, 0.36273953318595886, 5.723893165588379, 8.149694442749023, -6.973143100738525, 2.1929757595062256, -0.9208984375, 0.17138671875, -0.2373046875, 
146, 3825714856, 0.8835318684577942, -0.03420458734035492, -0.4533122777938843, -0.1128508448600769, 7.838446617126465, 0.3708026707172394, 5.7256269454956055, 8.527146339416504, -8.025710105895996, 2.5165605545043945, -0.919189453125, 0.169189453125, -0.23974609375, 
147, 3825723189, 0.8832806944847107, -0.03383453190326691, -0.4539509415626526, -0.1123603880405426, 7.792115688323975, 0.38985031843185425, 5.732613563537598, 8.17541217803955, -9.471863746643066, 3.1163179874420166, -0.922119140625, 0.169189453125, -0.240234375, 
148, 3825731522, 0.8829922676086426, -0.03358297049999237, -0.4546513855457306, -0.11187112331390381, 7.874960899353027, 0.4577656686306, 5.681940078735352, 6.86698579788208, -10.640283584594727, 3.800525665283203, -0.919921875, 0.17138671875, -0.23779296875, 
149, 3825739855, 0.8826754093170166, -0.03348065912723541, -0.45538175106048584, -0.11142879724502563, 7.99592924118042, 0.557975709438324, 5.617796421051025, 4.692106246948242, -11.390191078186035, 4.027185916900635, -0.921142578125, 0.169677734375, -0.236328125, 
150, 3825748188, 0.882316529750824, -0.03352317214012146, -0.4561491906642914, -0.11111912131309509, 8.106674194335938, 0.71401047706604, 5.605807781219482, 2.2431540489196777, -12.26335334777832, 3.3226661682128906, -0.919921875, 0.17041015625, -0.2333984375, 
151, 3825756521, 0.8819421529769897, -0.03365394473075867, -0.45689916610717773, -0.11097028851509094, 8.27074909210205, 0.8087059855461121, 5.574642658233643, 0.08915034681558609, -12.203391075134277, 1.8745648860931396, -0.9208984375, 0.1708984375, -0.2333984375, 
152, 3825764854, 0.8815918564796448, -0.03383772075176239, -0.45754188299179077, -0.11105042695999146, 8.391695976257324, 0.7787057757377625, 5.596852779388428, -2.103236198425293, -10.73308277130127, -0.45034947991371155, -0.92236328125, 0.169921875, -0.22998046875, 
153, 3825773187, 0.881310224533081, -0.034103840589523315, -0.4579879343509674, -0.11136293411254883, 8.43134880065918, 0.7110743522644043, 5.622018337249756, -4.896161079406738, -7.928783416748047, -2.599332571029663, -0.92236328125, 0.17138671875, -0.22900390625, 
154, 3825781520, 0.8811606168746948, -0.03436163067817688, -0.45814913511276245, -0.11180475354194641, 8.447725296020508, 0.6451833844184875, 5.611433506011963, -5.920551776885986, -3.578232526779175, -3.8345797061920166, -0.921875, 0.17041015625, -0.22900390625, 
155, 3825789853, 0.8811663389205933, -0.03447994589805603, -0.45800724625587463, -0.11230391263961792, 8.428197860717773, 0.5406800508499146, 5.548442840576172, -5.031404495239258, 1.322219729423523, -5.064446926116943, -0.9208984375, 0.1708984375, -0.22802734375, 
156, 3825798186, 0.8812804818153381, -0.0344119518995285, -0.4576647877693176, -0.1128244698047638, 8.313400268554688, 0.3898727297782898, 5.54226016998291, -3.1195449829101562, 4.727132797241211, -6.19760799407959, -0.92138671875, 0.17041015625, -0.23046875, 
157, 3825806519, 0.8813759684562683, -0.03424300253391266, -0.45735663175582886, -0.11337754130363464, 8.162525177001953, 0.2803625166416168, 5.682828426361084, -2.1414268016815186, 4.369390964508057, -7.339272499084473, -0.923583984375, 0.1669921875, -0.2275390625, 
158, 3825814852, 0.881446123123169, -0.03408113121986389, -0.4570736885070801, -0.1140199601650238, 8.110913276672363, 0.1881927251815796, 5.7209792137146, -2.6775076389312744, 3.932182550430298, -8.36125659942627, -0.923095703125, 0.167724609375, -0.2314453125, 
159, 3825823185, 0.8816133141517639, -0.03377656638622284, -0.4566190242767334, -0.11463826894760132, 8.201211929321289, 0.10136447101831436, 5.542626857757568, -1.086812138557434, 6.8405256271362305, -8.784120559692383, -0.922119140625, 0.167236328125, -0.23193359375, 
160, 3825831518, 0.8818827867507935, -0.03336291015148163, -0.4559750556945801, -0.11524829268455505, 8.144898414611816, 0.08841555565595627, 5.471467018127441, 0.1039297804236412, 9.940386772155762, -9.068824768066406, -0.923095703125, 0.164306640625, -0.23291015625, 
161, 3825839851, 0.8820641040802002, -0.03308367729187012, -0.45549002289772034, -0.11585760116577148, 8.07144832611084, 0.13231264054775238, 5.511068344116211, -1.3624467849731445, 7.2546563148498535, -8.472344398498535, -0.923583984375, 0.162841796875, -0.23486328125, 
162, 3825848184, 0.8821393251419067, -0.03297512233257294, -0.4552018642425537, -0.11644718050956726, 8.165515899658203, 0.10186703503131866, 5.500227928161621, -2.990769624710083, 3.9146623611450195, -7.380281448364258, -0.922607421875, 0.164306640625, -0.2333984375, 
163, 3825856517, 0.8822404742240906, -0.03291310369968414, -0.45487460494041443, -0.11697575449943542, 8.248910903930664, 0.05355934053659439, 5.589370250701904, -3.3429136276245117, 4.450741767883301, -6.379788875579834, -0.9228515625, 0.16064453125, -0.236572265625, 
164, 3825864850, 0.8824641704559326, -0.03286951780319214, -0.4543301463127136, -0.11741667985916138, 8.23302936553955, -0.02928236685693264, 5.651557922363281, -3.194478988647461, 7.779900550842285, -4.81565523147583, -0.921630859375, 0.16162109375, -0.236083984375, 
165, 3825873183, 0.8828103542327881, -0.03288385272026062, -0.45357275009155273, -0.11773774027824402, 8.171996116638184, -0.1329464167356491, 5.757537364959717, -3.4914255142211914, 10.990083694458008, -2.7507126331329346, -0.921630859375, 0.162109375, -0.237060546875, 
166, 3825881516, 0.8832360506057739, -0.032950520515441895, -0.4526878595352173, -0.11793091893196106, 8.059588432312012, -0.10564139485359192, 5.744138240814209, -3.4446537494659424, 12.883410453796387, -0.6415086388587952, -0.919921875, 0.1611328125, -0.236572265625, 
167, 3825889849, 0.8836732506752014, -0.03300420939922333, -0.45181596279144287, -0.11798438429832458, 7.921615123748779, -0.011623816564679146, 5.709020614624023, -2.438296318054199, 12.763101577758789, 0.9498911499977112, -0.919921875, 0.1611328125, -0.241455078125, 
168, 3825898182, 0.8840802907943726, -0.03301936388015747, -0.4510415494441986, -0.11789369583129883, 7.839520454406738, 0.1298205852508545, 5.6887922286987305, -0.8823208212852478, 11.38066291809082, 2.408071279525757, -0.92236328125, 0.16064453125, -0.243408203125, 
169, 3825906515, 0.8844164609909058, -0.032992810010910034, -0.4504377245903015, -0.11768800020217896, 7.834456920623779, 0.25137612223625183, 5.7145867347717285, 0.5498992800712585, 8.890202522277832, 3.3255863189697266, -0.916015625, 0.16162109375, -0.244384765625, 
170, 3825914848, 0.8846957087516785, -0.03299228847026825, -0.4499644935131073, -0.11739900708198547, 7.929638385772705, 0.3167547583580017, 5.762085437774658, 0.967897891998291, 6.861451625823975, 4.377075672149658, -0.916015625, 0.16064453125, -0.243408203125, 
171, 3825923181, 0.8849843740463257, -0.033008038997650146, -0.4494897723197937, -0.1170378029346466, 7.9999165534973145, 0.3470764458179474, 5.790256977081299, 1.1818792819976807, 6.8872456550598145, 5.338224411010742, -0.918212890625, 0.1630859375, -0.246826171875, 
172, 3825931514, 0.8853241801261902, -0.03300486505031586, -0.4489402770996094, -0.11657631397247314, 8.111419677734375, 0.4018884003162384, 5.862683296203613, 1.9703623056411743, 8.08903980255127, 6.592554092407227, -0.917724609375, 0.16552734375, -0.247314453125, 
173, 3825939847, 0.8857353925704956, -0.03298996388912201, -0.44827988743782043, -0.1159965991973877, 8.091705322265625, 0.49091222882270813, 5.883347511291504, 2.5965535640716553, 9.851812362670898, 8.038809776306152, -0.919677734375, 0.166015625, -0.250244140625, 
174, 3825948180, 0.8862193822860718, -0.03296126425266266, -0.4475012719631195, -0.11531335115432739, 8.049080848693848, 0.6021538376808167, 5.881502151489258, 3.3474864959716797, 11.708895683288574, 9.47057056427002, -0.917236328125, 0.16650390625, -0.249755859375, 
175, 3825956513, 0.8867586851119995, -0.03290101885795593, -0.44662702083587646, -0.11457151174545288, 8.018674850463867, 0.6443368196487427, 5.899990081787109, 3.967479705810547, 13.239580154418945, 10.119585037231445, -0.915771484375, 0.1689453125, -0.251708984375, 
176, 3825964846, 0.8873288631439209, -0.03275805711746216, -0.4457108974456787, -0.11376428604125977, 7.999938488006592, 0.6129179000854492, 5.837869644165039, 5.280644416809082, 14.047679901123047, 10.434127807617188, -0.915283203125, 0.16650390625, -0.254150390625, 
177, 3825973179, 0.8879091739654541, -0.03248797357082367, -0.4448041021823883, -0.11285829544067383, 7.979705333709717, 0.5843607187271118, 5.83495569229126, 7.486440658569336, 14.152804374694824, 10.897924423217773, -0.913818359375, 0.1689453125, -0.257080078125, 
178, 3825981512, 0.8884859681129456, -0.032129302620887756, -0.44392457604408264, -0.11187964677810669, 7.948267459869385, 0.5261716842651367, 5.849648475646973, 9.067941665649414, 13.89343547821045, 11.243385314941406, -0.91259765625, 0.1708984375, -0.258544921875, 
179, 3825989845, 0.8890213966369629, -0.031694844365119934, -0.4431440234184265, -0.11084038019180298, 7.9568705558776855, 0.49770674109458923, 5.844356536865234, 10.438815116882324, 12.52824592590332, 11.362874984741211, -0.912109375, 0.17236328125, -0.259521484375, 
180, 3825998178, 0.8895139694213867, -0.03117750585079193, -0.44246527552604675, -0.10974118113517761, 7.92720365524292, 0.44153425097465515, 5.922379970550537, 12.01270866394043, 11.115545272827148, 11.530957221984863, -0.91259765625, 0.17236328125, -0.263427734375, 
181, 3826006511, 0.8900185823440552, -0.030579805374145508, -0.4417695105075836, -0.10861513018608093, 7.812253952026367, 0.4842813014984131, 5.998986721038818, 13.080925941467285, 11.515767097473145, 11.340540885925293, -0.91064453125, 0.17431640625, -0.262451171875, 
182, 3826014844, 0.8905613422393799, -0.02990025281906128, -0.4409867227077484, -0.10753133893013, 7.777214050292969, 0.6511902213096619, 5.962277412414551, 13.768616676330566, 12.942941665649414, 10.475776672363281, -0.90771484375, 0.173828125, -0.266357421875, 
183, 3826023177, 0.8910407423973083, -0.029178783297538757, -0.44031018018722534, -0.10652661323547363, 7.807098865509033, 0.7635275721549988, 5.953344821929932, 13.874557495117188, 11.360828399658203, 9.058465957641602, -0.91015625, 0.17529296875, -0.268798828125, 
184, 3826031510, 0.8914622068405151, -0.02859354019165039, -0.4397038221359253, -0.10565990209579468, 7.844030857086182, 0.6707029342651367, 5.956024169921875, 11.507467269897461, 9.996713638305664, 8.136685371398926, -0.9111328125, 0.17626953125, -0.270751953125, 
185, 3826039843, 0.8918718099594116, -0.02803078293800354, -0.4391200542449951, -0.10477709770202637, 7.855172634124756, 0.5018875002861023, 6.055234432220459, 11.305547714233398, 9.618953704833984, 8.394234657287598, -0.9091796875, 0.17626953125, -0.271728515625, 
186, 3826048176, 0.8923723101615906, -0.02742607891559601, -0.4383738338947296, -0.10379552841186523, 7.885254859924316, 0.3291005790233612, 6.138810634613037, 12.269862174987793, 12.173398971557617, 9.594223976135254, -0.90625, 0.17822265625, -0.272705078125, 
187, 3826056509, 0.8929959535598755, -0.026776880025863647, -0.43740302324295044, -0.1026921272277832, 7.769721031188965, 0.2234758883714676, 6.158417701721191, 13.243616104125977, 15.698742866516113, 11.048935890197754, -0.9072265625, 0.17822265625, -0.277099609375, 
188, 3826064842, 0.8937163352966309, -0.026063352823257446, -0.4362688362598419, -0.10142514109611511, 7.642545700073242, 0.21551275253295898, 6.088858604431152, 14.855384826660156, 18.306163787841797, 12.90019702911377, -0.90625, 0.1787109375, -0.277587890625, 
189, 3826073175, 0.8944475054740906, -0.025242149829864502, -0.43512892723083496, -0.10007497668266296, 7.460638999938965, 0.19069263339042664, 6.005328178405762, 16.673967361450195, 18.564733505249023, 13.294960975646973, -0.903076171875, 0.1806640625, -0.282470703125, 
190, 3826081508, 0.8950846195220947, -0.02440512180328369, -0.43418097496032715, -0.09869471192359924, 7.333251476287842, 0.11970382928848267, 5.993991851806641, 17.236845016479492, 15.65928840637207, 13.329645156860352, -0.902099609375, 0.18212890625, -0.282958984375, 
191, 3826089841, 0.8955864906311035, -0.02364964783191681, -0.43351811170578003, -0.09722787141799927, 7.354427337646484, 0.12155666947364807, 6.020467758178711, 17.040786743164062, 11.201737403869629, 14.562479019165039, -0.901611328125, 0.18359375, -0.285888671875, 
192, 3826098174, 0.8959133625030518, -0.023114711046218872, -0.43319910764694214, -0.09575629234313965, 7.3951096534729, 0.23787997663021088, 6.132218360900879, 14.849359512329102, 5.619495868682861, 15.675135612487793, -0.899658203125, 0.182861328125, -0.289794921875, 
193, 3826106507, 0.8961310982704163, -0.0228339284658432, -0.433081716299057, -0.09430524706840515, 7.381086349487305, 0.4022689461708069, 6.251066207885742, 11.742222785949707, 2.1641602516174316, 16.648578643798828, -0.897216796875, 0.185546875, -0.286865234375, 
194, 3826114840, 0.896298885345459, -0.022597819566726685, -0.43305790424346924, -0.09286633133888245, 7.486158847808838, 0.5169785022735596, 6.279216289520264, 11.31080150604248, 0.6543542146682739, 16.749448776245117, -0.898681640625, 0.185546875, -0.288818359375, 
195, 3826123173, 0.8965063691139221, -0.022372514009475708, -0.4329468011856079, -0.09142538905143738, 7.625240802764893, 0.6422557234764099, 6.337525367736816, 11.031118392944336, 1.958682656288147, 16.86104965209961, -0.899658203125, 0.18798828125, -0.288330078125, 
196, 3826131506, 0.896786630153656, -0.02197130024433136, -0.43268510699272156, -0.09000229835510254, 7.638058662414551, 0.6567236185073853, 6.293529033660889, 12.985283851623535, 4.4667277336120605, 15.78838062286377, -0.8984375, 0.1904296875, -0.291259765625, 
197, 3826139839, 0.8971806168556213, -0.02136613428592682, -0.43219953775405884, -0.08854299783706665, 7.650637626647949, 0.5070982575416565, 6.337645053863525, 15.474040985107422, 8.146828651428223, 15.228169441223145, -0.89794921875, 0.18994140625, -0.292236328125, 
198, 3826148172, 0.8977081775665283, -0.020799115300178528, -0.43141910433769226, -0.08712536096572876, 7.594868183135986, 0.30245015025138855, 6.362015724182129, 14.354084968566895, 12.54979133605957, 15.1200532913208, -0.896484375, 0.19140625, -0.292236328125, 
199, 3826156505, 0.8982856273651123, -0.02026696503162384, -0.43053197860717773, -0.08567604422569275, 7.470142841339111, 0.1853714883327484, 6.251224040985107, 14.057344436645508, 14.115667343139648, 15.857821464538574, -0.8974609375, 0.1923828125, -0.294677734375, 
200, 3826164838, 0.8987963795661926, -0.019822537899017334, -0.4297632575035095, -0.08426997065544128, 7.39193868637085, 0.26429611444473267, 6.211585521697998, 12.860542297363281, 12.156867980957031, 15.752492904663086, -0.89306640625, 0.194091796875, -0.297119140625, 
201, 3826173171, 0.8991391062736511, -0.019527584314346313, -0.42932379245758057, -0.08291208744049072, 7.269078254699707, 0.25022631883621216, 6.185288906097412, 11.03803539276123, 6.942471504211426, 15.724059104919434, -0.89453125, 0.197265625, -0.301025390625, 
202, 3826181504, 0.8993289470672607, -0.01929086446762085, -0.42920470237731934, -0.08151388168334961, 7.261568546295166, 0.32103124260902405, 6.3010406494140625, 10.906172752380371, 1.9946194887161255, 16.339080810546875, -0.894775390625, 0.200439453125, -0.299072265625, 
203, 3826189837, 0.8994240164756775, -0.01910795271396637, -0.4292713701725006, -0.0801449716091156, 7.28607177734375, 0.45333850383758545, 6.410715103149414, 10.174962997436523, -0.9087677001953125, 16.067520141601562, -0.893310546875, 0.199951171875, -0.301513671875, 
204, 3826198170, 0.8995079398155212, -0.018923133611679077, -0.42935609817504883, -0.0787813663482666, 7.371067047119141, 0.5606123208999634, 6.446823596954346, 10.259695053100586, -1.20243501663208, 16.042724609375, -0.893310546875, 0.200439453125, -0.298583984375, 
205, 3826206503, 0.8996849060058594, -0.018514662981033325, -0.4292672574520111, -0.07732748985290527, 7.398232460021973, 0.617550790309906, 6.344888687133789, 13.411349296569824, 1.7229548692703247, 15.99290657043457, -0.891357421875, 0.204345703125, -0.301513671875, 
206, 3826214836, 0.8999208807945251, -0.018006637692451477, -0.42904290556907654, -0.07593539357185364, 7.35935640335083, 0.6846553087234497, 6.454127788543701, 14.132927894592285, 3.8603098392486572, 14.732327461242676, -0.891845703125, 0.203369140625, -0.303955078125, 
207, 3826223169, 0.9000730514526367, -0.017638757824897766, -0.42894983291625977, -0.07473284006118774, 7.4042863845825195, 0.6703015565872192, 6.518607139587402, 11.349811553955078, 1.6462401151657104, 13.044065475463867, -0.892333984375, 0.205810546875, -0.304443359375, 
208, 3826231502, 0.9002701044082642, -0.017355188727378845, -0.42874014377593994, -0.07362106442451477, 7.5888752937316895, 0.5844206213951111, 6.318395614624023, 9.70973014831543, 3.2854485511779785, 12.541102409362793, -0.89013671875, 0.20703125, -0.302978515625, 
209, 3826239835, 0.9006524085998535, -0.017102092504501343, -0.42812225222587585, -0.07259374856948853, 7.750328063964844, 0.5717845559120178, 6.027566432952881, 8.425331115722656, 9.426898956298828, 11.920395851135254, -0.89013671875, 0.208251953125, -0.306396484375, 
210, 3826248168, 0.9010475277900696, -0.017035558819770813, -0.4274502992630005, -0.07165798544883728, 7.682949542999268, 0.6339543461799622, 5.900900363922119, 5.564373970031738, 10.000810623168945, 11.950926780700684, -0.88916015625, 0.208740234375, -0.307373046875, 
211, 3826256501, 0.9012366533279419, -0.01714828610420227, -0.42717909812927246, -0.07086625695228577, 7.534231662750244, 0.6237351298332214, 5.899235725402832, 2.843935966491699, 3.681342601776123, 10.920284271240234, -0.8857421875, 0.20947265625, -0.305908203125, 
212, 3826264834, 0.9012912511825562, -0.017332985997200012, -0.4271910488605499, -0.07005098462104797, 7.648730278015137, 0.47435417771339417, 5.884304523468018, 2.2830610275268555, -0.6876909732818604, 11.390816688537598, -0.88671875, 0.21435546875, -0.306640625, 
213, 3826273167, 0.9012054800987244, -0.017283529043197632, -0.42752858996391296, -0.06910121440887451, 7.628183841705322, 0.33618149161338806, 6.1845011711120605, 6.156087875366211, -5.356962203979492, 11.390920639038086, -0.89111328125, 0.2119140625, -0.3076171875, 
214, 3826281500, 0.9010348320007324, -0.01705107092857361, -0.42805352807044983, -0.06812813878059387, 7.46910285949707, 0.229758620262146, 6.5054850578308105, 8.868776321411133, -8.013324737548828, 10.605319023132324, -0.88916015625, 0.21337890625, -0.30615234375, 
215, 3826289833, 0.9009681940078735, -0.016866743564605713, -0.4283660054206848, -0.0670829713344574, 7.553473949432373, 0.24584153294563293, 6.69354772567749, 8.472050666809082, -4.826030254364014, 11.882843017578125, -0.88916015625, 0.2138671875, -0.30615234375, 
216, 3826298166, 0.9010543823242188, -0.016505107283592224, -0.4283602833747864, -0.06604427099227905, 7.584715843200684, 0.2013731747865677, 6.513716697692871, 10.422857284545898, 0.1787489801645279, 11.018797874450684, -0.887939453125, 0.217529296875, -0.3046875, 
217, 3826306499, 0.901218831539154, -0.015862926840782166, -0.42821332812309265, -0.0649009644985199, 7.6572160720825195, 0.1215643435716629, 6.454012393951416, 14.309717178344727, 2.622142791748047, 10.685249328613281, -0.886962890625, 0.217529296875, -0.30615234375, 
218, 3826314832, 0.9014227986335754, -0.015272438526153564, -0.42797473073005676, -0.06377378106117249, 7.692291259765625, 0.09447018802165985, 6.409546852111816, 13.595385551452637, 3.9447336196899414, 10.924947738647461, -0.883056640625, 0.218017578125, -0.309326171875, 
219, 3826323165, 0.9016423225402832, -0.014926910400390625, -0.4276958703994751, -0.06261202692985535, 7.655605792999268, 0.06682387739419937, 6.369753837585449, 10.61734676361084, 4.317139148712158, 12.72081470489502, -0.885498046875, 0.218017578125, -0.30859375, 
220, 3826331498, 0.9019083976745605, -0.014877483248710632, -0.4273020327091217, -0.06147122383117676, 7.640689373016357, 0.14490962028503418, 6.372990608215332, 6.846340656280518, 5.763191223144531, 14.36207103729248, -0.884521484375, 0.219970703125, -0.30712890625, 
221, 3826339831, 0.9021552801132202, -0.014949768781661987, -0.4269384741783142, -0.06034374237060547, 7.6468825340271, 0.2504759728908539, 6.307234287261963, 5.263496398925781, 5.1794304847717285, 14.86983585357666, -0.885009765625, 0.222412109375, -0.3076171875, 
222, 3826348164, 0.902378499507904, -0.014880388975143433, -0.42663073539733887, -0.059190988540649414, 7.569281578063965, 0.23796068131923676, 6.219477653503418, 7.229017734527588, 4.4548420906066895, 14.34096622467041, -0.886474609375, 0.223876953125, -0.30859375, 
223, 3826356497, 0.9025305509567261, -0.014621943235397339, -0.4264843165874481, -0.05798029899597168, 7.483405113220215, 0.21691222488880157, 6.263649940490723, 10.072710990905762, 2.1846516132354736, 13.886825561523438, -0.883056640625, 0.222900390625, -0.30859375, 
224, 3826364830, 0.9026550650596619, -0.014316409826278687, -0.42638665437698364, -0.056823670864105225, 7.462756633758545, 0.227223202586174, 6.281300067901611, 10.332054138183594, 1.4618176221847534, 12.882080078125, -0.88427734375, 0.226806640625, -0.3134765625, 
225, 3826373163, 0.9027795791625977, -0.013975292444229126, -0.42627719044685364, -0.05574074387550354, 7.438917636871338, 0.23015852272510529, 6.2547101974487305, 10.270787239074707, 1.6521315574645996, 11.704672813415527, -0.88232421875, 0.227294921875, -0.31396484375, 
226, 3826381496, 0.9029008746147156, -0.013552039861679077, -0.4261697828769684, -0.05469542741775513, 7.412014961242676, 0.20211222767829895, 6.25011682510376, 11.131603240966797, 1.673647165298462, 10.809784889221191, -0.880859375, 0.22607421875, -0.31201171875, 
227, 3826389829, 0.902998685836792, -0.013154223561286926, -0.4261026978492737, -0.05369085073471069, 7.4765191078186035, 0.25825944542884827, 6.198485851287842, 10.53561019897461, 1.0286805629730225, 10.36522388458252, -0.884765625, 0.2314453125, -0.314697265625, 
228, 3826398162, 0.9030463099479675, -0.012779131531715393, -0.42612743377685547, -0.05277565121650696, 7.519600868225098, 0.35145145654678345, 6.128207206726074, 9.857037544250488, -0.4102376401424408, 9.398490905761719, -0.8798828125, 0.22802734375, -0.3154296875, 
229, 3826406495, 0.9030709862709045, -0.012395516037940979, -0.4261913001537323, -0.05192252993583679, 7.52564001083374, 0.3633192777633667, 6.130762100219727, 9.567008972167969, -1.0097132921218872, 8.497255325317383, -0.87939453125, 0.22900390625, -0.31591796875, 
230, 3826414828, 0.9030982851982117, -0.012075096368789673, -0.42623430490493774, -0.05116674304008484, 7.542392253875732, 0.3136700391769409, 6.187195301055908, 8.252945899963379, -0.7667109370231628, 7.719529628753662, -0.880859375, 0.2294921875, -0.31591796875, 
231, 3826423161, 0.9031323194503784, -0.0117882639169693, -0.42625486850738525, -0.05045384168624878, 7.579457759857178, 0.32408732175827026, 6.242247104644775, 7.5231194496154785, -0.462798148393631, 7.34584379196167, -0.88037109375, 0.22998046875, -0.314453125, 
232, 3826431494, 0.9031539559364319, -0.011541709303855896, -0.42629045248031616, -0.04981762170791626, 7.601182460784912, 0.3917604386806488, 6.263274669647217, 6.629823684692383, -0.7405844926834106, 6.664683818817139, -0.88037109375, 0.2314453125, -0.3154296875, 
233, 3826439827, 0.9031642079353333, -0.011321693658828735, -0.42633989453315735, -0.04925832152366638, 7.5706915855407715, 0.39488792419433594, 6.249908924102783, 5.823178291320801, -0.9807946681976318, 5.823921203613281, -0.87939453125, 0.2314453125, -0.31494140625, 
234, 3826448160, 0.9031651020050049, -0.011136293411254883, -0.42639976739883423, -0.04876136779785156, 7.50434684753418, 0.38799577951431274, 6.272963047027588, 5.067098617553711, -1.1837362051010132, 5.275956153869629, -0.882568359375, 0.2333984375, -0.31640625, 
235, 3826456493, 0.9031445980072021, -0.011045604944229126, -0.4264915883541107, -0.048355311155319214, 7.473628520965576, 0.41768959164619446, 6.301386833190918, 3.3650832176208496, -1.750553846359253, 4.672101020812988, -0.880859375, 0.23193359375, -0.31591796875, 
236, 3826464826, 0.9030736684799194, -0.011019229888916016, -0.42667874693870544, -0.04803591966629028, 7.506901264190674, 0.480089396238327, 6.23469352722168, 2.1228182315826416, -3.2644832134246826, 3.934922933578491, -0.878173828125, 0.234619140625, -0.314453125, 
237, 3826473159, 0.9029761552810669, -0.010971620678901672, -0.42691633105278015, -0.04776877164840698, 7.627262592315674, 0.49037474393844604, 6.13201379776001, 2.064724922180176, -4.020743370056152, 3.0937259197235107, -0.881591796875, 0.2353515625, -0.314208984375, 
238, 3826481492, 0.9028211832046509, -0.010989964008331299, -0.4272618889808655, -0.04760444164276123, 7.676214218139648, 0.4538392424583435, 6.2883992195129395, 0.7492035031318665, -5.731825351715088, 2.19374418258667, -0.880859375, 0.2314453125, -0.31298828125, 
239, 3826489825, 0.9026407599449158, -0.011218756437301636, -0.4276335537433624, -0.04763421416282654, 7.668764591217041, 0.429537296295166, 6.4620137214660645, -2.9487361907958984, -6.3060197830200195, 1.0301403999328613, -0.8798828125, 0.232666015625, -0.3115234375, 
240, 3826498158, 0.9025394320487976, -0.011429578065872192, -0.42783209681510925, -0.047724246978759766, 7.81390380859375, 0.4271496534347534, 6.350697040557861, -3.222578525543213, -3.6771795749664307, 0.22413738071918488, -0.88134765625, 0.2333984375, -0.3134765625, 
241, 3826506491, 0.9025938510894775, -0.01148483157157898, -0.42769649624824524, -0.047893375158309937, 7.810204982757568, 0.4604793190956116, 6.242781162261963, -2.0148026943206787, 1.5029407739639282, -1.5716766119003296, -0.87841796875, 0.232421875, -0.314453125, 
242, 3826514824, 0.9026603102684021, -0.011581897735595703, -0.42751869559288025, -0.04820340871810913, 7.619644641876221, 0.403662770986557, 6.315680980682373, -3.324471950531006, 2.089442729949951, -3.005164623260498, -0.880859375, 0.23291015625, -0.314453125, 
243, 3826523157, 0.9026645421981812, -0.011879116296768188, -0.4274500608444214, -0.04865872859954834, 7.4956183433532715, 0.2713981866836548, 6.316098213195801, -6.602402210235596, 0.2583580017089844, -3.6917288303375244, -0.87841796875, 0.233154296875, -0.31201171875, 
244, 3826531490, 0.9026595950126648, -0.012211665511131287, -0.427394837141037, -0.04915112257003784, 7.525889873504639, 0.22089888155460358, 6.252171039581299, -7.307689666748047, 0.02547335810959339, -4.0006103515625, -0.880126953125, 0.234130859375, -0.31298828125, 
245, 3826539823, 0.9025987386703491, -0.012533113360404968, -0.42745786905288696, -0.04963812232017517, 7.495086669921875, 0.29343193769454956, 6.207338333129883, -7.0500617027282715, -1.765486717224121, -4.0426435470581055, -0.883056640625, 0.234375, -0.312255859375, 
246, 3826548156, 0.9024625420570374, -0.012912139296531677, -0.42767009139060974, -0.05018475651741028, 7.4212117195129395, 0.4263947606086731, 6.221256256103516, -7.986211776733398, -4.091438293457031, -4.48712682723999, -0.881103515625, 0.234130859375, -0.3115234375, 
247, 3826556489, 0.9022626876831055, -0.013303607702255249, -0.4280039668083191, -0.050826042890548706, 7.4212727546691895, 0.4749857783317566, 6.269754886627197, -8.706061363220215, -5.966183662414551, -5.718877792358398, -0.88330078125, 0.23291015625, -0.312255859375, 
248, 3826564822, 0.9020689725875854, -0.013660252094268799, -0.42831334471702576, -0.051560163497924805, 7.502634048461914, 0.46298301219940186, 6.275295257568359, -8.755343437194824, -5.587810039520264, -7.002126693725586, -0.881591796875, 0.233642578125, -0.31103515625, 
249, 3826573155, 0.9019041657447815, -0.013891369104385376, -0.428560733795166, -0.05231761932373047, 7.567817211151123, 0.40106189250946045, 6.352432727813721, -7.4967498779296875, -4.552905082702637, -8.10068130493164, -0.88671875, 0.232421875, -0.310302734375, 
250, 3826581488, 0.9017598628997803, -0.014102324843406677, -0.4287615418434143, -0.05309978127479553, 7.509032726287842, 0.31527772545814514, 6.381866931915283, -7.300262451171875, -3.8371922969818115, -8.40085506439209, -0.88330078125, 0.2314453125, -0.30908203125, 
251, 3826589821, 0.9016255736351013, -0.01440991461277008, -0.42893534898757935, -0.05388849973678589, 7.474603176116943, 0.24455545842647552, 6.385444641113281, -8.596521377563477, -3.5080997943878174, -7.935520648956299, -0.88525390625, 0.2294921875, -0.30810546875, 
252, 3826598154, 0.9014641046524048, -0.014827191829681396, -0.429159551858902, -0.05468598008155823, 7.442755699157715, 0.23328745365142822, 6.34036922454834, -9.933996200561523, -4.376832962036133, -7.39114236831665, -0.88134765625, 0.228515625, -0.3076171875, 
253, 3826606487, 0.9012571573257446, -0.015298590064048767, -0.4294750988483429, -0.05548021197319031, 7.416852951049805, 0.28447097539901733, 6.318452835083008, -10.588236808776855, -5.816892147064209, -7.135820388793945, -0.8828125, 0.228515625, -0.30517578125, 
254, 3826614820, 0.9009973406791687, -0.015763357281684875, -0.4299006164073944, -0.0562710165977478, 7.431236743927002, 0.31201979517936707, 6.362988471984863, -10.35166072845459, -7.490576267242432, -7.1439642906188965, -0.88525390625, 0.2275390625, -0.30615234375, 
255, 3826623153, 0.9007111191749573, -0.016232237219810486, -0.430378794670105, -0.0570598840713501, 7.440919876098633, 0.2966609597206116, 6.360256671905518, -10.41134262084961, -8.297425270080566, -7.173216819763184, -0.88525390625, 0.22900390625, -0.30517578125, 
256, 3826631486, 0.9004136323928833, -0.016720905900001526, -0.4308727979660034, -0.05787822604179382, 7.446253299713135, 0.32848066091537476, 6.346211910247803, -10.766357421875, -8.575109481811523, -7.388121128082275, -0.88623046875, 0.228271484375, -0.30078125, 
257, 3826639819, 0.9001132845878601, -0.0172356516122818, -0.43136563897132874, -0.05872243642807007, 7.517873287200928, 0.3740607798099518, 6.297868728637695, -11.2631196975708, -8.587481498718262, -7.572670936584473, -0.88818359375, 0.22607421875, -0.299072265625, 
258, 3826648152, 0.899810254573822, -0.01772303879261017, -0.43185827136039734, -0.05959516763687134, 7.5657196044921875, 0.36327680945396423, 6.248284339904785, -11.074239730834961, -8.57559585571289, -8.074196815490723, -0.8857421875, 0.22607421875, -0.2998046875, 
259, 3826656485, 0.8995102643966675, -0.018226414918899536, -0.43234139680862427, -0.060463666915893555, 7.628870487213135, 0.29030367732048035, 6.242391109466553, -11.31603717803955, -8.45323657989502, -7.970331192016602, -0.885498046875, 0.224609375, -0.298828125, 
260, 3826664818, 0.8992182016372681, -0.018813133239746094, -0.4327988028526306, -0.06134805083274841, 7.635459899902344, 0.20297756791114807, 6.237516403198242, -12.39906120300293, -8.154191970825195, -7.6086602210998535, -0.88623046875, 0.227294921875, -0.296875, 
261, 3826673151, 0.8989282250404358, -0.019478633999824524, -0.4332493841648102, -0.0622042715549469, 7.62472677230835, 0.21877868473529816, 6.207807540893555, -13.341330528259277, -8.13149642944336, -6.892971038818359, -0.889404296875, 0.2236328125, -0.29638671875, 
262, 3826681484, 0.8986276984214783, -0.02017521858215332, -0.43371909856796265, -0.06304526329040527, 7.587155342102051, 0.3340596854686737, 6.194336414337158, -13.491662979125977, -8.461331367492676, -6.429430961608887, -0.886474609375, 0.224365234375, -0.29443359375, 
263, 3826689817, 0.898320198059082, -0.020847022533416748, -0.434206485748291, -0.06384876370429993, 7.593938827514648, 0.4113043248653412, 6.166386127471924, -13.052989959716797, -8.709174156188965, -6.207380294799805, -0.888671875, 0.225830078125, -0.294189453125, 
264, 3826698150, 0.8980074524879456, -0.021488934755325317, -0.434702068567276, -0.0646575391292572, 7.603174209594727, 0.45836809277534485, 6.169157028198242, -12.603437423706055, -8.814886093139648, -6.376179218292236, -0.891357421875, 0.223388671875, -0.290771484375, 
265, 3826706483, 0.8976993560791016, -0.022111639380455017, -0.4351813495159149, -0.06549715995788574, 7.642487049102783, 0.42886510491371155, 6.147529125213623, -12.564170837402344, -8.559026718139648, -6.862773418426514, -0.892578125, 0.224609375, -0.292236328125, 
266, 3826714816, 0.8973943591117859, -0.02275902032852173, -0.43564271926879883, -0.0663815438747406, 7.75638484954834, 0.39689627289772034, 6.140572547912598, -13.199248313903809, -8.327240943908691, -7.29257869720459, -0.894287109375, 0.223388671875, -0.289306640625, 
267, 3826723149, 0.8970990777015686, -0.02344292402267456, -0.4360733926296234, -0.06730061769485474, 7.786506652832031, 0.31680533289909363, 6.088302135467529, -13.909326553344727, -7.912879467010498, -7.506022930145264, -0.894775390625, 0.22021484375, -0.287841796875, 
268, 3826731482, 0.8968110680580139, -0.024142146110534668, -0.43648287653923035, -0.068230539560318, 7.838857173919678, 0.24970324337482452, 6.014175891876221, -14.10578727722168, -7.6194682121276855, -7.477385520935059, -0.893798828125, 0.222900390625, -0.284912109375, 
269, 3826739815, 0.8965309858322144, -0.024915650486946106, -0.43686628341674805, -0.06917458772659302, 7.87869930267334, 0.1856197565793991, 5.98520565032959, -15.182376861572266, -7.315042018890381, -7.226980686187744, -0.893798828125, 0.221923828125, -0.282470703125, 
270, 3826748148, 0.8962633609771729, -0.025754064321517944, -0.43721306324005127, -0.07013732194900513, 7.85330867767334, 0.16282711923122406, 5.936490535736084, -16.072193145751953, -6.8434343338012695, -7.007211685180664, -0.895751953125, 0.221923828125, -0.283447265625, 
271, 3826756481, 0.896023690700531, -0.02658095955848694, -0.437508225440979, -0.07104465365409851, 7.806820869445801, 0.11491420865058899, 5.964554309844971, -15.703836441040039, -6.047727584838867, -6.392828464508057, -0.891845703125, 0.223388671875, -0.281494140625, 
272, 3826764814, 0.8957790732383728, -0.02737419307231903, -0.437822163105011, -0.07188981771469116, 7.718048095703125, 0.1557328701019287, 5.972559452056885, -14.83110523223877, -6.30010461807251, -5.796503067016602, -0.894775390625, 0.220947265625, -0.281005859375, 
273, 3826773147, 0.8954834342002869, -0.02814313769340515, -0.43824371695518494, -0.07270219922065735, 7.6629462242126465, 0.2457096129655838, 5.958323001861572, -14.315670013427734, -7.918489456176758, -5.678062915802002, -0.896240234375, 0.221923828125, -0.278564453125, 
274, 3826781480, 0.8951104879379272, -0.02893635630607605, -0.4388115406036377, -0.07355469465255737, 7.700838088989258, 0.28794974088668823, 5.938615798950195, -14.672195434570312, -10.195646286010742, -6.111763000488281, -0.896240234375, 0.222412109375, -0.280029296875, 
275, 3826789813, 0.8946658968925476, -0.02971489727497101, -0.43951883912086487, -0.07442411780357361, 7.761056900024414, 0.3102787435054779, 5.981773853302002, -14.564388275146484, -12.323397636413574, -6.595949649810791, -0.896240234375, 0.219482421875, -0.276611328125, 
276, 3826798146, 0.8941851854324341, -0.030544593930244446, -0.44027432799339294, -0.07539290189743042, 7.83231782913208, 0.3355581760406494, 6.062089920043945, -15.676305770874023, -13.14612865447998, -7.505179405212402, -0.899658203125, 0.220458984375, -0.275146484375, 
277, 3826806479, 0.8937186002731323, -0.031346797943115234, -0.44098836183547974, -0.07641595602035522, 7.944515705108643, 0.29816243052482605, 6.057164192199707, -15.774839401245117, -12.49882984161377, -8.3575439453125, -0.899658203125, 0.219482421875, -0.270751953125, 
278, 3826814812, 0.8933037519454956, -0.0321478396654129, -0.44158217310905457, -0.07749763131141663, 8.039748191833496, 0.19746331870555878, 6.0881171226501465, -16.1496524810791, -10.682830810546875, -8.92961311340332, -0.901123046875, 0.218505859375, -0.269287109375, 
279, 3826823145, 0.8929900527000427, -0.032882869243621826, -0.4419758915901184, -0.07855316996574402, 8.11848258972168, 0.15985040366649628, 6.003933906555176, -15.348769187927246, -7.550181865692139, -8.81186294555664, -0.899658203125, 0.2177734375, -0.267822265625, 
280, 3826831478, 0.892827033996582, -0.03342822194099426, -0.4420822858810425, -0.07957178354263306, 8.154654502868652, 0.15660715103149414, 5.781939506530762, -13.034830093383789, -2.918332815170288, -9.213212013244629, -0.898681640625, 0.216796875, -0.266357421875, 
281, 3826839811, 0.8927174806594849, -0.03383900225162506, -0.4420880079269409, -0.08058595657348633, 7.99008846282959, 0.08732738345861435, 5.818402290344238, -11.488319396972656, -1.2100166082382202, -9.906204223632812, -0.900634765625, 0.21826171875, -0.267333984375, 
282, 3826848144, 0.892491340637207, -0.034367889165878296, -0.4423103928565979, -0.08164137601852417, 7.7742390632629395, 0.006451929919421673, 5.9717631340026855, -12.9596529006958, -4.693784236907959, -9.896368026733398, -0.901123046875, 0.216552734375, -0.266357421875, 
283, 3826856477, 0.8922154903411865, -0.0350540429353714, -0.44262245297431946, -0.08266568183898926, 7.8370466232299805, 0.007340467069298029, 5.915698528289795, -14.677960395812988, -6.284915447235107, -8.693449020385742, -0.902587890625, 0.215576171875, -0.265380859375, 
284, 3826864810, 0.8919713497161865, -0.035743772983551025, -0.44287440180778503, -0.08365118503570557, 7.907646656036377, 0.10168805718421936, 5.79884147644043, -14.482088088989258, -5.380246639251709, -8.094433784484863, -0.902099609375, 0.216552734375, -0.265380859375, 
285, 3826873143, 0.8917471170425415, -0.03641456365585327, -0.4430922865867615, -0.08459287881851196, 7.873350620269775, 0.18853162229061127, 5.739971160888672, -14.169950485229492, -4.838503837585449, -7.746463298797607, -0.903564453125, 0.215087890625, -0.262451171875, 
286, 3826881476, 0.8914982080459595, -0.03712095320224762, -0.4433467388153076, -0.08557048439979553, 7.816154479980469, 0.19413910806179047, 5.776500701904297, -14.640254974365234, -5.4630045890808105, -7.902734756469727, -0.90380859375, 0.211669921875, -0.260986328125, 
287, 3826889809, 0.8911512494087219, -0.03784497082233429, -0.44378769397735596, -0.08657598495483398, 7.818362236022949, 0.03878723457455635, 5.911210536956787, -14.854084014892578, -8.353086471557617, -8.345913887023926, -0.902099609375, 0.2158203125, -0.262451171875, 
288, 3826898142, 0.8908261656761169, -0.038445860147476196, -0.4442064166069031, -0.08750411868095398, 7.928248882293701, -0.04266531765460968, 5.8929667472839355, -12.868697166442871, -7.837625026702881, -8.089029312133789, -0.9052734375, 0.214111328125, -0.260498046875, 
289, 3826906475, 0.890606701374054, -0.03886041045188904, -0.4444461464881897, -0.08833378553390503, 8.032649993896484, -0.06349595636129379, 5.781850337982178, -10.26593017578125, -4.827259540557861, -7.893616199493408, -0.90673828125, 0.213134765625, -0.2587890625, 
290, 3826914808, 0.8903538584709167, -0.03924812376499176, -0.4447508454322815, -0.08917441964149475, 7.941733360290527, -0.060537125915288925, 5.823208808898926, -9.841812133789062, -5.792378902435303, -8.196993827819824, -0.90576171875, 0.212158203125, -0.258056640625, 
291, 3826923141, 0.8900398015975952, -0.03966885805130005, -0.4451640248298645, -0.09005722403526306, 7.910771369934082, -0.09761345386505127, 5.8371734619140625, -10.489824295043945, -7.508968353271484, -8.704819679260254, -0.9072265625, 0.210693359375, -0.255615234375, 
292, 3826931474, 0.8897246718406677, -0.040060147643089294, -0.4455846846103668, -0.09091436862945557, 7.970571994781494, -0.09214337170124054, 5.839947700500488, -9.878771781921387, -7.587987422943115, -8.51565933227539, -0.90576171875, 0.211181640625, -0.255615234375, 
293, 3826939807, 0.8894327878952026, -0.04028917849063873, -0.4459923803806305, -0.0916655957698822, 7.9742865562438965, -0.07885458320379257, 5.899139404296875, -7.356614112854004, -7.139430999755859, -8.25854206085205, -0.90625, 0.206787109375, -0.252197265625, 
294, 3826948140, 0.8891828060150146, -0.040484026074409485, -0.44632411003112793, -0.09238702058792114, 7.987818241119385, -0.007180557586252689, 5.938480854034424, -6.7186784744262695, -5.930119037628174, -7.927670001983643, -0.9072265625, 0.209716796875, -0.253662109375, 
295, 3826956473, 0.8889829516410828, -0.0406985878944397, -0.44654974341392517, -0.09312474727630615, 7.995719909667969, 0.0675000473856926, 5.9138875007629395, -7.250084400177002, -4.337540149688721, -7.94325590133667, -0.904541015625, 0.206298828125, -0.252685546875, 
296, 3826964806, 0.8887844085693359, -0.04084537923336029, -0.4467726945877075, -0.09388160705566406, 8.006237983703613, 0.13856646418571472, 5.847244739532471, -6.459321022033691, -4.2031683921813965, -8.531436920166016, -0.906982421875, 0.205810546875, -0.251220703125, 
297, 3826973139, 0.8885703086853027, -0.040888890624046326, -0.4470368027687073, -0.09462809562683105, 7.99832820892334, 0.12143447995185852, 5.872783660888672, -5.158527851104736, -4.6698079109191895, -9.130118370056152, -0.906005859375, 0.204345703125, -0.252685546875, 
298, 3826981472, 0.8883665800094604, -0.04084478318691254, -0.4472872316837311, -0.09537479281425476, 8.024510383605957, 0.0948115736246109, 5.846971035003662, -4.030335903167725, -4.327358722686768, -9.602046966552734, -0.90966796875, 0.205322265625, -0.249755859375, 
299, 3826989805, 0.8882194757461548, -0.04074946045875549, -0.4474338889122009, -0.0960957407951355, 8.045539855957031, 0.06482207030057907, 5.827785015106201, -3.4334988594055176, -2.657028913497925, -9.5272798538208, -0.911376953125, 0.202392578125, -0.250244140625, 
300, 3826998138, 0.8881202936172485, -0.04065607488155365, -0.4474814534187317, -0.09682771563529968, 8.017524719238281, 0.0690867006778717, 5.812359809875488, -3.5458812713623047, -1.1517441272735596, -9.474270820617676, -0.912353515625, 0.202392578125, -0.249755859375, 
301, 3827006471, 0.8880376219749451, -0.04057241976261139, -0.44749924540519714, -0.0975351333618164, 7.990242004394531, 0.04580087214708328, 5.7570624351501465, -3.5958547592163086, -0.7070297002792358, -9.109933853149414, -0.911865234375, 0.201171875, -0.249267578125, 
302, 3827014804, 0.8879124522209167, -0.04049581289291382, -0.447605162858963, -0.09821924567222595, 7.939387798309326, 0.035876188427209854, 5.759160995483398, -3.393373727798462, -2.0741384029388428, -8.853713989257812, -0.912841796875, 0.19970703125, -0.248779296875, 
303, 3827023137, 0.8877500295639038, -0.0403943806886673, -0.44779783487319946, -0.09884724020957947, 7.873283386230469, 0.017237620428204536, 5.769787788391113, -2.701303243637085, -3.355311393737793, -8.456258773803711, -0.909423828125, 0.199462890625, -0.248779296875, 
304, 3827031470, 0.8875571489334106, -0.04029443860054016, -0.4480566084384918, -0.09944695234298706, 7.895623683929443, 0.07691166549921036, 5.76288366317749, -2.4188296794891357, -4.37130069732666, -8.144304275512695, -0.910888671875, 0.19873046875, -0.249267578125, 
305, 3827039803, 0.8873326778411865, -0.040190815925598145, -0.4483832120895386, -0.10001885890960693, 7.905669689178467, 0.1615118682384491, 5.772767543792725, -2.2380435466766357, -5.402221202850342, -7.987389087677002, -0.91064453125, 0.19580078125, -0.247314453125, 
306, 3827048136, 0.8870816826820374, -0.040094003081321716, -0.44875919818878174, -0.10059651732444763, 7.941839218139648, 0.2254345566034317, 5.808351993560791, -2.193808078765869, -6.17559289932251, -8.00073528289795, -0.912109375, 0.1943359375, -0.247802734375, 
307, 3827056469, 0.8868323564529419, -0.039947137236595154, -0.44914060831069946, -0.10114771127700806, 7.982401371002197, 0.19862186908721924, 5.875664234161377, -1.4695401191711426, -6.173825263977051, -8.025505065917969, -0.912109375, 0.193359375, -0.245361328125, 
308, 3827064802, 0.8866240978240967, -0.03979998826980591, -0.4494418501853943, -0.1016918420791626, 8.034732818603516, 0.1885736584663391, 5.940409183502197, -1.4519944190979004, -4.949337005615234, -7.8009185791015625, -0.91064453125, 0.1943359375, -0.244384765625, 
309, 3827073135, 0.8864648342132568, -0.039621710777282715, -0.4496488571166992, -0.10223400592803955, 8.050577163696289, 0.18181216716766357, 5.946762561798096, -1.25973379611969, -3.4535419940948486, -7.913928508758545, -0.91259765625, 0.19140625, -0.244384765625, 
310, 3827081468, 0.8863691687583923, -0.03939731419086456, -0.449735552072525, -0.10276690125465393, 8.086653709411621, 0.22413285076618195, 5.859841823577881, -0.6808264851570129, -1.5359835624694824, -7.865645885467529, -0.9140625, 0.189697265625, -0.244873046875, 
311, 3827089801, 0.8863392472267151, -0.039128512144088745, -0.4497002959251404, -0.10328096151351929, 8.130707740783691, 0.2906414568424225, 5.80306339263916, -0.19607701897621155, 0.4143487513065338, -7.775074005126953, -0.912109375, 0.189453125, -0.2451171875, 
312, 3827098134, 0.8863563537597656, -0.03881014883518219, -0.44958263635635376, -0.1037660539150238, 8.069050788879395, 0.26516810059547424, 5.653164386749268, 0.5315850973129272, 1.7578412294387817, -7.594699382781982, -0.911865234375, 0.18798828125, -0.24365234375, 
313, 3827106467, 0.8863538503646851, -0.03845380246639252, -0.44951897859573364, -0.10419553518295288, 7.9802327156066895, 0.23233243823051453, 5.728372573852539, 1.3664296865463257, 1.0106992721557617, -7.235150337219238, -0.9140625, 0.187744140625, -0.24853515625, 
314, 3827114800, 0.8862313032150269, -0.03829196095466614, -0.449660986661911, -0.104683518409729, 7.926901817321777, 0.23698557913303375, 5.903047561645508, -1.097544550895691, -2.49288010597229, -6.9999098777771, -0.915283203125, 0.186279296875, -0.24609375, 
315, 3827123133, 0.8861104249954224, -0.03818376362323761, -0.4498032331466675, -0.10513472557067871, 8.025339126586914, 0.2642837166786194, 5.790701389312744, -1.5746607780456543, -2.577176094055176, -6.25504732131958, -0.912353515625, 0.185791015625, -0.2451171875, 
316, 3827131466, 0.8861027359962463, -0.03787267208099365, -0.4497523903846741, -0.10552793741226196, 7.9937744140625, 0.258070170879364, 5.714652061462402, 1.0907694101333618, 0.735346257686615, -6.501302242279053, -0.913330078125, 0.186767578125, -0.2451171875, 
317, 3827139799, 0.8860960006713867, -0.037470534443855286, -0.4497080445289612, -0.10591650009155273, 7.893762588500977, 0.2853984236717224, 5.827817916870117, 2.0870096683502197, 0.7919538021087646, -7.115609169006348, -0.912353515625, 0.183837890625, -0.24365234375, 
318, 3827148132, 0.8859897255897522, -0.037113457918167114, -0.4498478174209595, -0.10633686184883118, 7.915416717529297, 0.2891528010368347, 5.796081066131592, 1.7101730108261108, -2.1171960830688477, -7.358048439025879, -0.912353515625, 0.185791015625, -0.2470703125, 
319, 3827156465, 0.885870099067688, -0.03672432899475098, -0.45001518726348877, -0.106760174036026, 7.973111152648926, 0.25939294695854187, 5.769344806671143, 2.1150057315826416, -2.487679958343506, -7.626484394073486, -0.913818359375, 0.183349609375, -0.24560546875, 
320, 3827164798, 0.885773777961731, -0.036310404539108276, -0.45014747977256775, -0.10714191198348999, 7.987659454345703, 0.246363565325737, 5.817275524139404, 2.4741945266723633, -1.9012937545776367, -7.33694314956665, -0.916748046875, 0.181640625, -0.24560546875, 
321, 3827173131, 0.8856984972953796, -0.03595404326915741, -0.450229287147522, -0.10753965377807617, 7.972554683685303, 0.23893123865127563, 5.844984531402588, 1.692832112312317, -1.2274086475372314, -7.057157516479492, -0.915283203125, 0.1796875, -0.244140625, 
322, 3827181464, 0.8856385946273804, -0.03567880392074585, -0.45027559995651245, -0.10793080925941467, 7.957744121551514, 0.28613755106925964, 5.83462381362915, 0.7798893451690674, -0.8285692930221558, -6.3794050216674805, -0.916259765625, 0.18017578125, -0.24609375, 
323, 3827189797, 0.8855844736099243, -0.03543320298194885, -0.4503133296966553, -0.10829722881317139, 7.953743934631348, 0.279385507106781, 5.87253999710083, 0.4532054662704468, -0.7430433034896851, -5.960508823394775, -0.915283203125, 0.1796875, -0.24462890625, 
324, 3827198130, 0.8855050802230835, -0.03518742322921753, -0.4504011273384094, -0.10866233706474304, 7.980010986328125, 0.34919196367263794, 5.855381965637207, 0.6319928765296936, -1.509677529335022, -5.931207180023193, -0.91552734375, 0.1767578125, -0.24462890625, 
325, 3827206463, 0.8854074478149414, -0.03488539159297943, -0.4505282938480377, -0.1090250015258789, 8.0094633102417, 0.4014739394187927, 5.8420729637146, 1.333054542541504, -2.017300605773926, -6.3297648429870605, -0.91455078125, 0.17822265625, -0.24658203125, 
326, 3827214796, 0.8853205442428589, -0.03456798195838928, -0.45062512159347534, -0.10943222045898438, 8.025988578796387, 0.4495045840740204, 5.823408126831055, 1.2545212507247925, -1.5391082763671875, -6.902524471282959, -0.91455078125, 0.175048828125, -0.2470703125, 
327, 3827223129, 0.8852701783180237, -0.03425097465515137, -0.4506370723247528, -0.10988852381706238, 8.01903247833252, 0.4620895981788635, 5.775840759277344, 0.7426207065582275, -0.255143404006958, -7.466652870178223, -0.9140625, 0.171630859375, -0.245849609375, 
328, 3827231462, 0.8852663040161133, -0.03393466770648956, -0.4505550265312195, -0.11035466194152832, 8.049696922302246, 0.45575016736984253, 5.780341625213623, 0.6452866196632385, 1.1779857873916626, -7.402975082397461, -0.91650390625, 0.1748046875, -0.24365234375, 
329, 3827239795, 0.8852770328521729, -0.033602744340896606, -0.45044243335723877, -0.11082795262336731, 8.053001403808594, 0.4046649932861328, 5.7329230308532715, 0.6931853294372559, 1.6727763414382935, -7.588551044464111, -0.913818359375, 0.169189453125, -0.244873046875, 
330, 3827248128, 0.8853011131286621, -0.033254921436309814, -0.45030614733695984, -0.11129456758499146, 8.04004192352295, 0.32914888858795166, 5.760280132293701, 0.9552062153816223, 2.059051990509033, -7.53602933883667, -0.91748046875, 0.171142578125, -0.2451171875, 
331, 3827256461, 0.8853438496589661, -0.0329691618680954, -0.4501279592514038, -0.11175766587257385, 8.005903244018555, 0.2924111485481262, 5.820397853851318, 0.12082234025001526, 2.5934672355651855, -7.092671871185303, -0.917724609375, 0.1689453125, -0.247802734375, 
332, 3827264794, 0.8853800892829895, -0.03269399702548981, -0.44996824860572815, -0.11219340562820435, 7.925376892089844, 0.27579671144485474, 5.797645092010498, 0.23325605690479279, 2.2953813076019287, -6.679244518280029, -0.919189453125, 0.16796875, -0.248046875, 
333, 3827273127, 0.8853756189346313, -0.0323757529258728, -0.44990625977516174, -0.1125684380531311, 7.860528469085693, 0.36974263191223145, 5.800019264221191, 1.265791416168213, 0.8931553959846497, -6.31564998626709, -0.915771484375, 0.16796875, -0.247802734375, 
334, 3827281460, 0.8853108882904053, -0.03206971287727356, -0.44996288418769836, -0.11293891072273254, 7.796576976776123, 0.4825437068939209, 5.833889961242676, 1.25582754611969, -0.9394277334213257, -6.361499786376953, -0.916259765625, 0.1650390625, -0.246826171875, 
335, 3827289793, 0.885165274143219, -0.031769365072250366, -0.450175404548645, -0.11331737041473389, 7.765143394470215, 0.5305305123329163, 5.861467361450195, 1.3758559226989746, -3.3415565490722656, -6.593873023986816, -0.914794921875, 0.1650390625, -0.247802734375, 
336, 3827298126, 0.8850017786026001, -0.0315234512090683, -0.4504051208496094, -0.11374947428703308, 7.795034408569336, 0.5528393983840942, 5.925022125244141, 0.41301676630973816, -3.7315847873687744, -6.937667369842529, -0.915771484375, 0.1650390625, -0.244873046875, 
337, 3827306459, 0.8848230242729187, -0.031248360872268677, -0.4506606161594391, -0.11420318484306335, 7.839303493499756, 0.5625337362289429, 5.918719291687012, 0.6226947903633118, -4.078579425811768, -7.44669771194458, -0.917724609375, 0.16552734375, -0.244873046875, 
338, 3827314792, 0.884619414806366, -0.030995860695838928, -0.450959712266922, -0.11466830968856812, 7.925863742828369, 0.5416940450668335, 5.965729236602783, 0.3807428479194641, -4.797521114349365, -7.474259853363037, -0.915771484375, 0.1630859375, -0.244873046875, 
339, 3827323125, 0.8843950033187866, -0.030746042728424072, -0.451291561126709, -0.11515974998474121, 7.933365821838379, 0.5153380632400513, 5.91703987121582, 0.1579245924949646, -5.31636381149292, -7.8741254806518555, -0.917236328125, 0.162109375, -0.244873046875, 
340, 3827331458, 0.8841602802276611, -0.03050185739994049, -0.45163580775260925, -0.11567726731300354, 7.907718181610107, 0.4453883767127991, 5.867292881011963, 0.012922381982207298, -5.532367706298828, -8.127243995666504, -0.9130859375, 0.15966796875, -0.24609375, 
341, 3827339791, 0.8840158581733704, -0.03020419180393219, -0.45181983709335327, -0.11613890528678894, 7.878447532653809, 0.41542741656303406, 5.857214450836182, 0.7921074032783508, -2.961005449295044, -7.56885290145874, -0.9208984375, 0.156982421875, -0.240966796875, 
342, 3827348124, 0.8838923573493958, -0.02996458113193512, -0.45197147130966187, -0.1165500283241272, 7.9063920974731445, 0.47460219264030457, 5.8193769454956055, 0.23602236807346344, -2.5518181324005127, -6.636878490447998, -0.91845703125, 0.158447265625, -0.245361328125, 
343, 3827356457, 0.8837673664093018, -0.029740318655967712, -0.4521351158618927, -0.11691996455192566, 7.957459449768066, 0.5488749742507935, 5.758746147155762, 0.35543593764305115, -2.7481765747070312, -6.020983695983887, -0.91748046875, 0.1572265625, -0.242919921875, 
344, 3827364790, 0.8836385011672974, -0.02949167788028717, -0.4523090720176697, -0.11728411912918091, 8.015748023986816, 0.601161003112793, 5.712610721588135, 0.7925940752029419, -2.8599061965942383, -6.052489757537842, -0.91748046875, 0.156982421875, -0.245849609375, 
345, 3827373123, 0.8835417032241821, -0.029244333505630493, -0.4524170160293579, -0.11765795946121216, 8.065947532653809, 0.6087949872016907, 5.706645965576172, 0.5738356709480286, -1.8538298606872559, -6.117703437805176, -0.91796875, 0.15625, -0.242431640625, 
346, 3827381456, 0.8834983706474304, -0.029011741280555725, -0.4524161219596863, -0.11804455518722534, 8.130194664001465, 0.5742937922477722, 5.682138442993164, 0.21098443865776062, -0.22085873782634735, -6.014285564422607, -0.91845703125, 0.155517578125, -0.242431640625, 
347, 3827389789, 0.8835229873657227, -0.02875104546546936, -0.4522925019264221, -0.11839574575424194, 8.14217758178711, 0.5536896586418152, 5.629948139190674, 0.5263597369194031, 1.7264121770858765, -5.652344226837158, -0.91748046875, 0.154296875, -0.24072265625, 
348, 3827398122, 0.8835833072662354, -0.028509870171546936, -0.4521050751209259, -0.1187199056148529, 8.123405456542969, 0.5086537003517151, 5.647091388702393, 0.44123077392578125, 2.679325819015503, -5.067533493041992, -0.918212890625, 0.152587890625, -0.244140625, 
349, 3827406455, 0.8836404085159302, -0.028262346982955933, -0.4519325792789459, -0.1190100610256195, 8.067386627197266, 0.46687883138656616, 5.698295593261719, 0.6991149187088013, 2.477843999862671, -4.73928689956665, -0.91943359375, 0.154541015625, -0.244873046875, 
350, 3827414788, 0.8837110996246338, -0.028039872646331787, -0.4517345130443573, -0.11928987503051758, 7.996059894561768, 0.4849083721637726, 5.754390716552734, 0.4764631688594818, 2.825518846511841, -4.392226219177246, -0.916259765625, 0.150634765625, -0.24365234375, 
351, 3827423121, 0.8838251829147339, -0.02786095440387726, -0.45145076513290405, -0.11956095695495605, 7.951381683349609, 0.533777117729187, 5.786889553070068, -0.1661851406097412, 4.065632343292236, -3.9389312267303467, -0.920166015625, 0.150390625, -0.24755859375, 
352, 3827431454, 0.8839699029922485, -0.027691945433616638, -0.45110929012298584, -0.11981916427612305, 7.935307502746582, 0.5534459352493286, 5.755479335784912, -0.24679318070411682, 4.931419372558594, -3.621058940887451, -0.918212890625, 0.151611328125, -0.24560546875, 
353, 3827439787, 0.8841271996498108, -0.027471140027046204, -0.45076051354408264, -0.12002134323120117, 7.980639457702637, 0.4920186698436737, 5.684887886047363, 0.6344902515411377, 5.163676738739014, -3.3004839420318604, -0.919677734375, 0.150390625, -0.2470703125, 
354, 3827448120, 0.8842945098876953, -0.027058854699134827, -0.45042431354522705, -0.12014475464820862, 7.989716529846191, 0.4460877478122711, 5.4965500831604, 3.5656678676605225, 5.358202934265137, -3.4532086849212646, -0.915771484375, 0.1484375, -0.24853515625, 
355, 3827456453, 0.8844261765480042, -0.026734262704849243, -0.4501386284828186, -0.12031900882720947, 7.885541915893555, 0.4612542688846588, 5.614013195037842, 2.2527852058410645, 4.396875858306885, -3.607816457748413, -0.919677734375, 0.150390625, -0.2470703125, 
356, 3827464786, 0.8844478130340576, -0.026671305298805237, -0.4500325918197632, -0.12056994438171387, 7.853363513946533, 0.5166643857955933, 5.827006816864014, -1.2153698205947876, 1.1290115118026733, -3.21732759475708, -0.916748046875, 0.14892578125, -0.2490234375, 
357, 3827473119, 0.8845181465148926, -0.026640713214874268, -0.44982632994651794, -0.12083011865615845, 8.008223533630371, 0.5726543664932251, 5.6717119216918945, -1.83118736743927, 2.5974247455596924, -3.0252718925476074, -0.918212890625, 0.14794921875, -0.248046875, 
358, 3827481452, 0.8847231268882751, -0.026531413197517395, -0.44937869906425476, -0.12101835012435913, 8.110946655273438, 0.5882138609886169, 5.553730487823486, -0.6947861313819885, 6.470322132110596, -2.2624025344848633, -0.918212890625, 0.146484375, -0.25146484375, 
359, 3827489785, 0.8849086761474609, -0.0265171080827713, -0.4489724040031433, -0.12117251753807068, 8.003129959106445, 0.6540197134017944, 5.596017360687256, -1.6198699474334717, 5.681506156921387, -1.337216854095459, -0.914794921875, 0.1484375, -0.25146484375, 
360, 3827498118, 0.885021984577179, -0.026637762784957886, -0.44869840145111084, -0.12133368849754333, 7.9046759605407715, 0.6174472570419312, 5.729186534881592, -3.070544958114624, 3.3975236415863037, -0.7291988730430603, -0.916748046875, 0.1484375, -0.2529296875, 
361, 3827506451, 0.8851811289787292, -0.02666957676410675, -0.44836825132369995, -0.12138631939888, 7.927776336669922, 0.5546669363975525, 5.751064300537109, -1.5198975801467896, 4.471618175506592, 0.05234269052743912, -0.919677734375, 0.146484375, -0.25, 
362, 3827514784, 0.8854295015335083, -0.026507779955863953, -0.4479030668735504, -0.12132811546325684, 7.94109582901001, 0.5597891211509705, 5.691858768463135, 1.4519559144973755, 6.949385643005371, 0.49495670199394226, -0.917724609375, 0.1474609375, -0.25146484375, 
363, 3827523117, 0.8856458067893982, -0.02628253400325775, -0.4475167989730835, -0.12122350931167603, 7.833378314971924, 0.5940977334976196, 5.6860551834106445, 2.587883234024048, 5.884844779968262, 0.5577243566513062, -0.915771484375, 0.148193359375, -0.25537109375, 
364, 3827531450, 0.8857386112213135, -0.026077747344970703, -0.4473680853843689, -0.1211383044719696, 7.686175346374512, 0.591632604598999, 5.704038143157959, 2.6135101318359375, 2.199737787246704, 0.18635639548301697, -0.915771484375, 0.14794921875, -0.2529296875, 
365, 3827539783, 0.8857835531234741, -0.025898799300193787, -0.44731587171554565, -0.12104073166847229, 7.717965126037598, 0.6190327405929565, 5.700137138366699, 2.4469664096832275, 0.6860644221305847, 0.32802870869636536, -0.916748046875, 0.14697265625, -0.25244140625, 
366, 3827548116, 0.8858107924461365, -0.02571214735507965, -0.44729799032211304, -0.12094688415527344, 7.746689796447754, 0.6729243993759155, 5.75169563293457, 2.6390860080718994, 0.1680806279182434, 0.2451794594526291, -0.915771484375, 0.14892578125, -0.25341796875, 
367, 3827556449, 0.8858415484428406, -0.02556326985359192, -0.4472693204879761, -0.12085989117622375, 7.774553298950195, 0.7050959467887878, 5.793139457702637, 2.037830114364624, 0.26491522789001465, 0.3431410491466522, -0.916748046875, 0.146240234375, -0.25390625, 
368, 3827564782, 0.885907769203186, -0.025530189275741577, -0.4471524655818939, -0.12081396579742432, 7.874307155609131, 0.7023876905441284, 5.761772155761719, 0.32390478253364563, 1.3751899003982544, 0.7066071033477783, -0.916748046875, 0.148681640625, -0.25537109375, 
369, 3827573115, 0.8859910368919373, -0.025577083230018616, -0.44699493050575256, -0.12077635526657104, 7.893181800842285, 0.7045571208000183, 5.771036148071289, -0.8452953100204468, 1.8508461713790894, 1.0797041654586792, -0.915283203125, 0.147216796875, -0.2548828125, 
370, 3827581448, 0.886046290397644, -0.025645211338996887, -0.44689100980758667, -0.12074106931686401, 7.883418560028076, 0.6931785941123962, 5.864657402038574, -0.9579083323478699, 0.9874287247657776, 1.175129771232605, -0.917724609375, 0.146728515625, -0.25537109375, 
371, 3827589781, 0.8861019611358643, -0.02567160129547119, -0.44679829478263855, -0.12066981196403503, 7.880143165588379, 0.6505869030952454, 5.964898586273193, -0.23705972731113434, 0.915926456451416, 1.3358464241027832, -0.914306640625, 0.14990234375, -0.2548828125, 
372, 3827598114, 0.8861923217773438, -0.025642618536949158, -0.44664859771728516, -0.12056758999824524, 7.88113260269165, 0.6113860607147217, 6.010629653930664, 0.5745401382446289, 1.8979763984680176, 1.4694503545761108, -0.914306640625, 0.148193359375, -0.2568359375, 
373, 3827606447, 0.886309027671814, -0.025613203644752502, -0.4464423656463623, -0.12047865986824036, 7.839302062988281, 0.6110830903053284, 6.021175861358643, 0.35031309723854065, 2.759357452392578, 1.3220914602279663, -0.916259765625, 0.147705078125, -0.25830078125, 
374, 3827614780, 0.8864235281944275, -0.025608614087104797, -0.4462375044822693, -0.1203959584236145, 7.754004955291748, 0.6039844155311584, 6.0533599853515625, 0.07453742623329163, 2.684474468231201, 1.4402116537094116, -0.916259765625, 0.147705078125, -0.25537109375, 
375, 3827623113, 0.8865427374839783, -0.025598332285881042, -0.44602563977241516, -0.12030613422393799, 7.699526309967041, 0.5895125865936279, 5.994943618774414, 0.14153145253658295, 2.8106884956359863, 1.4784408807754517, -0.916748046875, 0.148681640625, -0.25830078125, 
376, 3827631446, 0.8866554498672485, -0.025591254234313965, -0.4458231031894684, -0.12022784352302551, 7.691369533538818, 0.5692718625068665, 5.9682512283325195, 0.07959623634815216, 2.652034044265747, 1.3683253526687622, -0.918212890625, 0.150146484375, -0.2587890625, 
377, 3827639779, 0.8867312669754028, -0.02562844753265381, -0.4456881284713745, -0.12016120553016663, 7.735963344573975, 0.5738231539726257, 5.928256034851074, -0.5546634197235107, 1.5316029787063599, 1.3249218463897705, -0.913818359375, 0.147216796875, -0.258056640625, 
378, 3827648112, 0.8867721557617188, -0.02572600543498993, -0.44561338424682617, -0.12011614441871643, 7.794195175170898, 0.6328726410865784, 5.920232772827148, -1.213243842124939, 0.4903717339038849, 1.4402755498886108, -0.913818359375, 0.15185546875, -0.2578125, 
379, 3827656445, 0.8867781162261963, -0.02585776150226593, -0.4456033408641815, -0.1200815737247467, 7.808633804321289, 0.6374698877334595, 5.94946813583374, -1.7117482423782349, -0.5643072724342346, 1.359847068786621, -0.914306640625, 0.147216796875, -0.25830078125, 
380, 3827664778, 0.8867843151092529, -0.02599567174911499, -0.44558826088905334, -0.12006193399429321, 7.835611820220947, 0.6198276877403259, 5.998814582824707, -1.7749896049499512, -0.5064959526062012, 1.297783613204956, -0.913330078125, 0.148681640625, -0.2587890625, 
381, 3827673111, 0.8868390321731567, -0.026094943284988403, -0.4454805552959442, -0.12003454566001892, 7.893781661987305, 0.5860096216201782, 6.01630163192749, -1.4313489198684692, 0.9863401651382446, 1.2414578199386597, -0.913818359375, 0.14892578125, -0.2578125, 
382, 3827681444, 0.886949360370636, -0.0261785089969635, -0.44526028633117676, -0.12001913785934448, 7.905783653259277, 0.5909094214439392, 6.0000810623168945, -1.4399042129516602, 2.7252652645111084, 1.1600817441940308, -0.913330078125, 0.1494140625, -0.25732421875, 
383, 3827689777, 0.887066125869751, -0.02628035843372345, -0.44501829147338867, -0.12003189325332642, 7.856574535369873, 0.5892566442489624, 6.004084587097168, -1.917097568511963, 3.0140655040740967, 0.9071921110153198, -0.913330078125, 0.15087890625, -0.2578125, 
384, 3827698110, 0.887169599533081, -0.02643376588821411, -0.44479209184646606, -0.12007221579551697, 7.746687889099121, 0.5944476127624512, 6.0216522216796875, -2.644618272781372, 2.6593077182769775, 0.8995845913887024, -0.911376953125, 0.15185546875, -0.25927734375, 
385, 3827706443, 0.8872683644294739, -0.02655656635761261, -0.44458550214767456, -0.12007933855056763, 7.748886585235596, 0.587650716304779, 5.955557823181152, -2.1538243293762207, 2.430368423461914, 1.0131326913833618, -0.912353515625, 0.15087890625, -0.2607421875, 
386, 3827714776, 0.8873693943023682, -0.026621028780937195, -0.44438856840133667, -0.12004753947257996, 7.78428316116333, 0.6010245680809021, 5.849498748779297, -1.0721094608306885, 2.4088778495788574, 1.2193273305892944, -0.912353515625, 0.15234375, -0.25927734375, 
387, 3827723109, 0.887420654296875, -0.02665838599205017, -0.44430074095726013, -0.11998564004898071, 7.6891069412231445, 0.5973480939865112, 5.960692882537842, -0.3962778151035309, 0.8071174025535583, 1.298372745513916, -0.913330078125, 0.149658203125, -0.25927734375, 
388, 3827731442, 0.8874117732048035, -0.026813119649887085, -0.44430509209632874, -0.12000057101249695, 7.6250224113464355, 0.6570735573768616, 6.1516032218933105, -2.2791543006896973, -0.8495473265647888, 0.8593447208404541, -0.91259765625, 0.15380859375, -0.2607421875, 
389, 3827739775, 0.8874680995941162, -0.026884332299232483, -0.44419145584106445, -0.11998885869979858, 7.736058235168457, 0.5896896719932556, 5.939578056335449, -1.2854247093200684, 1.1123621463775635, 0.8134695887565613, -0.914794921875, 0.150634765625, -0.26025390625, 
390, 3827748108, 0.8876129984855652, -0.026840299367904663, -0.4439142048358917, -0.11995261907577515, 7.751262664794922, 0.5837306976318359, 5.826815128326416, 0.1634572148323059, 3.833848714828491, 0.7149572968482971, -0.912841796875, 0.150390625, -0.259765625, 
391, 3827756441, 0.8876328468322754, -0.02692204713821411, -0.44386857748031616, -0.11995643377304077, 7.663599014282227, 0.6103449463844299, 5.917232036590576, -1.3362690210342407, 0.054314982146024704, 0.6609112620353699, -0.916748046875, 0.151611328125, -0.259765625, 
392, 3827764774, 0.8875248432159424, -0.02713938057422638, -0.444055438041687, -0.12001445889472961, 7.691413402557373, 0.6304656267166138, 5.939993381500244, -2.930447816848755, -3.770005702972412, 0.5705955624580383, -0.913330078125, 0.1513671875, -0.26025390625, 
393, 3827773107, 0.8874401450157166, -0.027276381850242615, -0.44420886039733887, -0.12004196643829346, 7.793360710144043, 0.5630230903625488, 5.978616714477539, -1.8827743530273438, -3.096863269805908, 0.4495426118373871, -0.912841796875, 0.15234375, -0.25927734375, 
394, 3827781440, 0.8873671889305115, -0.02735006809234619, -0.44435226917266846, -0.12003394961357117, 7.788295745849609, 0.5478422045707703, 6.102789878845215, -0.8323089480400085, -2.813749074935913, 0.5710565447807312, -0.911865234375, 0.1513671875, -0.26171875, 
395, 3827789773, 0.8873055577278137, -0.02744559943675995, -0.4444749355316162, -0.12001344561576843, 7.751429557800293, 0.578644335269928, 6.053102016448975, -1.1323540210723877, -2.529789686203003, 0.8280184864997864, -0.91259765625, 0.15380859375, -0.2607421875, 
396, 3827798106, 0.8872647285461426, -0.027502596378326416, -0.44455966353416443, -0.11998870968818665, 7.759459972381592, 0.5732338428497314, 5.989316463470459, -0.6108738780021667, -1.8819289207458496, 0.7501767873764038, -0.909912109375, 0.1513671875, -0.258544921875, 
397, 3827806439, 0.8872174620628357, -0.027529194951057434, -0.44466450810432434, -0.11994388699531555, 7.783275127410889, 0.5522993206977844, 6.0265889167785645, -0.16037072241306305, -2.1197571754455566, 0.7398799061775208, -0.915771484375, 0.150634765625, -0.2587890625, 
398, 3827814772, 0.8871625065803528, -0.02757798135280609, -0.44477933645248413, -0.11991342902183533, 7.851142883300781, 0.5308603644371033, 6.014163494110107, -0.4319072663784027, -2.3218021392822266, 0.7337069511413574, -0.912841796875, 0.15185546875, -0.25732421875, 
399, 3827823105, 0.8871374130249023, -0.027613326907157898, -0.4448336064815521, -0.11988866329193115, 7.897345542907715, 0.5404545068740845, 5.989174842834473, -0.4547550678253174, -1.373716950416565, 0.608914315700531, -0.912841796875, 0.15380859375, -0.25830078125, 
400, 3827831438, 0.8871346712112427, -0.027716785669326782, -0.4448317885398865, -0.11989226937294006, 7.906965732574463, 0.5096243023872375, 5.985393524169922, -1.4807076454162598, -0.6591054797172546, 0.7835521697998047, -0.9130859375, 0.154296875, -0.25830078125, 
401, 3827839771, 0.8871265649795532, -0.0278540700674057, -0.4448438882827759, -0.11987578868865967, 7.871931552886963, 0.5092563629150391, 5.979903221130371, -1.8401392698287964, -0.9229192733764648, 1.1523075103759766, -0.91650390625, 0.15478515625, -0.255859375, 
402, 3827848104, 0.8871054649353027, -0.027961865067481995, -0.44489285349845886, -0.11982497572898865, 7.846857070922852, 0.5069786310195923, 6.024538993835449, -1.1222107410430908, -1.4167488813400269, 1.4244972467422485, -0.914306640625, 0.1533203125, -0.26025390625, 
403, 3827856437, 0.8870735168457031, -0.028034985065460205, -0.44497624039649963, -0.11973479390144348, 7.823172569274902, 0.51582932472229, 6.049375057220459, -0.528472900390625, -1.8632818460464478, 1.5720864534378052, -0.910400390625, 0.1533203125, -0.2587890625, 
404, 3827864770, 0.8870452046394348, -0.028109177947044373, -0.4450530409812927, -0.11964187026023865, 7.799300670623779, 0.5301612019538879, 5.973910808563232, -0.4128246009349823, -1.7621312141418457, 1.709250569343567, -0.916748046875, 0.152099609375, -0.259765625, 
405, 3827873103, 0.8870322704315186, -0.02816741168498993, -0.445103257894516, -0.11953747272491455, 7.81193208694458, 0.5273522734642029, 5.930496692657471, -0.2500333786010742, -1.3195557594299316, 1.7410507202148438, -0.9140625, 0.1552734375, -0.25830078125, 
406, 3827881436, 0.8870131969451904, -0.028253763914108276, -0.4451650083065033, -0.11942881345748901, 7.851181983947754, 0.5014815330505371, 5.921516418457031, -0.48446762561798096, -1.54715096950531, 1.9974875450134277, -0.914306640625, 0.1533203125, -0.25927734375, 
407, 3827889769, 0.8869956731796265, -0.028392285108566284, -0.44522756338119507, -0.1192934513092041, 7.87803316116333, 0.49978193640708923, 5.929994106292725, -1.032433032989502, -1.6423335075378418, 2.5909438133239746, -0.9140625, 0.15380859375, -0.2587890625, 
408, 3827898102, 0.8870184421539307, -0.0285608172416687, -0.4452090263366699, -0.1191520094871521, 7.881684303283691, 0.46571654081344604, 5.943559169769287, -1.401431679725647, -0.4594425559043884, 3.0016939640045166, -0.91259765625, 0.15576171875, -0.2587890625, 
409, 3827906435, 0.8871105313301086, -0.028719022870063782, -0.445057213306427, -0.11899593472480774, 7.865114688873291, 0.4686884582042694, 5.903623580932617, -1.3792240619659424, 1.6006207466125488, 3.280350923538208, -0.911376953125, 0.1533203125, -0.25830078125, 
410, 3827914768, 0.8872333765029907, -0.02885662019252777, -0.44485536217689514, -0.11880072951316833, 7.841919422149658, 0.4147928059101105, 5.809296607971191, -1.030819296836853, 2.4198408126831055, 3.647275447845459, -0.91455078125, 0.1552734375, -0.25830078125, 
411, 3827923101, 0.8873253464698792, -0.02895006537437439, -0.44472190737724304, -0.11859163641929626, 7.898503303527832, 0.31073296070098877, 5.768373489379883, -0.2970994710922241, 1.4641735553741455, 3.47806715965271, -0.9130859375, 0.15576171875, -0.26025390625, 
412, 3827931434, 0.8873634338378906, -0.029024988412857056, -0.4447011947631836, -0.1183660626411438, 7.953299522399902, 0.23329928517341614, 5.759284496307373, 0.25446462631225586, -0.21925786137580872, 3.4805521965026855, -0.9130859375, 0.156494140625, -0.25634765625, 
413, 3827939767, 0.8873717784881592, -0.029101073741912842, -0.44474419951438904, -0.11812269687652588, 7.9868950843811035, 0.15034130215644836, 5.838433742523193, 0.3474826514720917, -1.1872068643569946, 3.559199810028076, -0.9140625, 0.1552734375, -0.25927734375, 
414, 3827948100, 0.8873794078826904, -0.029194176197052002, -0.44479572772979736, -0.11784806847572327, 7.967965126037598, 0.06446536630392075, 5.940977573394775, 0.43988603353500366, -1.3364228010177612, 4.110098838806152, -0.9111328125, 0.156982421875, -0.25927734375, 
415, 3827956433, 0.8874198794364929, -0.02923351526260376, -0.44481316208839417, -0.1174660325050354, 7.934795379638672, 0.07907161116600037, 5.987147331237793, 1.6441138982772827, -0.6735520362854004, 5.112870693206787, -0.91455078125, 0.158447265625, -0.25732421875, 
416, 3827964766, 0.8875031471252441, -0.029167935252189636, -0.4447748064994812, -0.11699771881103516, 7.910788059234619, 0.27295204997062683, 5.96330451965332, 3.4453580379486084, 0.4015159606933594, 5.661757946014404, -0.91064453125, 0.158935546875, -0.25927734375, 
417, 3827973099, 0.8875900506973267, -0.029008090496063232, -0.4447386562824249, -0.11651432514190674, 7.846683502197266, 0.41701528429985046, 5.898540496826172, 4.604734420776367, 0.5440335273742676, 5.208308696746826, -0.9111328125, 0.159423828125, -0.2587890625, 
418, 3827981432, 0.8876856565475464, -0.028824448585510254, -0.44468218088150024, -0.11604651808738708, 7.819961071014404, 0.5519309639930725, 5.860788345336914, 4.859302043914795, 0.8884298205375671, 4.960811138153076, -0.91162109375, 0.159912109375, -0.25927734375, 
419, 3827989765, 0.8877736330032349, -0.028685733675956726, -0.4446256160736084, -0.11562305688858032, 7.831929683685303, 0.6040140986442566, 5.819468021392822, 3.9234988689422607, 0.7890082001686096, 4.594310760498047, -0.91162109375, 0.160400390625, -0.2607421875, 
420, 3827998098, 0.8878471851348877, -0.028610527515411377, -0.44457653164863586, -0.1152653694152832, 7.891033172607422, 0.6527320742607117, 5.844346523284912, 2.8637099266052246, 0.5326607823371887, 4.242062568664551, -0.91162109375, 0.159423828125, -0.26025390625, 
421, 3828006431, 0.8879435062408447, -0.028558507561683655, -0.4444746971130371, -0.11492881178855896, 7.954636573791504, 0.6989124417304993, 5.851860523223877, 2.301989793777466, 1.290585994720459, 4.124032497406006, -0.91357421875, 0.158935546875, -0.2587890625, 
422, 3828014764, 0.8880781531333923, -0.028484463691711426, -0.44428545236587524, -0.11463791131973267, 7.952259540557861, 0.6519551873207092, 5.85047721862793, 2.243947982788086, 2.6432995796203613, 3.584571599960327, -0.91015625, 0.161376953125, -0.2607421875, 
423, 3828023097, 0.8882478475570679, -0.028412625193595886, -0.44401422142982483, -0.11439207196235657, 7.931149482727051, 0.6056978106498718, 5.8743085861206055, 1.8275370597839355, 3.8732693195343018, 3.134272813796997, -0.91162109375, 0.161376953125, -0.2587890625, 
424, 3828031430, 0.8884357213973999, -0.028340905904769897, -0.4437057375907898, -0.1141485869884491, 7.873804569244385, 0.6063851714134216, 5.825958728790283, 1.633202314376831, 4.43919038772583, 3.0522053241729736, -0.9130859375, 0.161865234375, -0.26025390625, 
425, 3828039763, 0.8885940909385681, -0.02832116186618805, -0.44344696402549744, -0.11392447352409363, 7.8458404541015625, 0.6292490363121033, 5.840016841888428, 1.0005561113357544, 3.5798842906951904, 3.1099398136138916, -0.912841796875, 0.162353515625, -0.26416015625, 
426, 3828048096, 0.88869309425354, -0.028407379984855652, -0.44329237937927246, -0.11373257637023926, 7.831822395324707, 0.6792217493057251, 5.8259382247924805, -0.27811935544013977, 1.7898330688476562, 3.285243034362793, -0.9111328125, 0.160888671875, -0.2626953125, 
427, 3828056429, 0.8887622952461243, -0.028570160269737244, -0.4431905150413513, -0.11354857683181763, 7.838714599609375, 0.6673400402069092, 5.851673603057861, -1.2320446968078613, 0.8522239923477173, 3.5578300952911377, -0.90771484375, 0.161376953125, -0.26171875, 
428, 3828064762, 0.8888228535652161, -0.028791993856430054, -0.4430954158306122, -0.11338847875595093, 7.867797374725342, 0.6395470499992371, 5.9031219482421875, -2.0510342121124268, 0.6281251311302185, 3.6392323970794678, -0.9111328125, 0.161865234375, -0.2646484375, 
429, 3828073095, 0.8889279961585999, -0.029020100831985474, -0.4429163634777069, -0.11320626735687256, 7.92857027053833, 0.5833688378334045, 5.928634166717529, -2.205949306488037, 1.9109116792678833, 3.973113775253296, -0.911376953125, 0.166748046875, -0.263916015625, 
430, 3828081428, 0.8891047835350037, -0.02917996048927307, -0.44259893894195557, -0.11301812529563904, 7.963437080383301, 0.55516517162323, 5.930140972137451, -1.4229732751846313, 4.138812065124512, 3.8738584518432617, -0.909423828125, 0.163818359375, -0.26318359375, 
431, 3828089761, 0.8893188238143921, -0.02929021418094635, -0.4422069191932678, -0.11283957958221436, 7.97227668762207, 0.5227334499359131, 5.955376625061035, -0.9752364158630371, 5.359099864959717, 3.542999744415283, -0.909912109375, 0.165771484375, -0.26513671875, 
432, 3828098094, 0.8895465731620789, -0.029438599944114685, -0.4417766034603119, -0.1126922070980072, 7.931790351867676, 0.44590404629707336, 6.061048984527588, -1.757136583328247, 5.867748260498047, 3.3760459423065186, -0.908935546875, 0.164306640625, -0.2666015625, 
433, 3828106427, 0.8897954225540161, -0.029654324054718018, -0.4412963092327118, -0.11255225539207458, 7.912729740142822, 0.394491583108902, 6.086188793182373, -2.7251498699188232, 6.5049028396606445, 3.7233755588531494, -0.911376953125, 0.164794921875, -0.265625, 
434, 3828114760, 0.8900703191757202, -0.029763922095298767, -0.4407821297645569, -0.11236542463302612, 7.8596906661987305, 0.35113802552223206, 5.9801411628723145, -1.083174705505371, 7.2196149826049805, 3.7838497161865234, -0.911865234375, 0.165283203125, -0.264892578125, 
435, 3828123093, 0.8903698921203613, -0.029652461409568787, -0.4402596950531006, -0.11206787824630737, 7.805034637451172, 0.28440892696380615, 5.853363990783691, 2.2894134521484375, 7.7756242752075195, 3.8396642208099365, -0.907958984375, 0.167724609375, -0.2666015625, 
436, 3828131426, 0.8906571865081787, -0.02946247160434723, -0.439779669046402, -0.11171877384185791, 7.739071846008301, 0.28443384170532227, 5.915493965148926, 3.626425266265869, 7.273253440856934, 3.9608449935913086, -0.907470703125, 0.168701171875, -0.27099609375, 
437, 3828139759, 0.8908219337463379, -0.02948780357837677, -0.4395134449005127, -0.11144629120826721, 7.666466236114502, 0.29124245047569275, 6.091033935546875, 0.6947989463806152, 3.6169989109039307, 3.9647886753082275, -0.906494140625, 0.167724609375, -0.27099609375, 
438, 3828148092, 0.8910213708877563, -0.029552415013313293, -0.4391722083091736, -0.11117970943450928, 7.791280269622803, 0.31772786378860474, 5.883902072906494, 0.1856519728899002, 4.684920787811279, 4.2989654541015625, -0.906494140625, 0.170654296875, -0.27099609375, 
439, 3828156425, 0.8913794755935669, -0.029480546712875366, -0.4385429322719574, -0.11081135272979736, 7.930069923400879, 0.33791524171829224, 5.719151973724365, 1.941354513168335, 9.339924812316895, 4.958558082580566, -0.908447265625, 0.170166015625, -0.269775390625, 
440, 3828164758, 0.8916764259338379, -0.02958597242832184, -0.43802136182785034, -0.1104571521282196, 7.832157611846924, 0.46255719661712646, 5.906935214996338, -0.021720875054597855, 7.386340141296387, 5.840264320373535, -0.906494140625, 0.169677734375, -0.2724609375, 
441, 3828173091, 0.8918076753616333, -0.029871881008148193, -0.4378223419189453, -0.11010962724685669, 7.742058277130127, 0.48193326592445374, 5.992473602294922, -1.9332987070083618, 2.1662728786468506, 6.397027492523193, -0.905029296875, 0.169677734375, -0.2724609375, 
442, 3828181424, 0.8919736742973328, -0.030016735196113586, -0.43758606910705566, -0.10966336727142334, 7.828893661499023, 0.3964192569255829, 5.934411525726318, 0.42857739329338074, 2.9995296001434326, 6.891715049743652, -0.9052734375, 0.172607421875, -0.275390625, 
443, 3828189757, 0.8923513889312744, -0.02994893491268158, -0.4369599223136902, -0.10910412669181824, 7.854806900024414, 0.3658733069896698, 5.826521873474121, 3.1125779151916504, 9.334429740905762, 7.394816875457764, -0.90673828125, 0.173095703125, -0.275146484375, 
444, 3828198090, 0.8928626775741577, -0.029776915907859802, -0.4360577166080475, -0.10857737064361572, 7.613508224487305, 0.3285059332847595, 5.711585998535156, 3.9426331520080566, 13.690950393676758, 6.766961097717285, -0.90625, 0.172119140625, -0.275390625, 
