sep=,
PacketCounter,SampleTimeFine,Quat_W,Quat_X,Quat_Y,Quat_Z,Acc_X,Acc_Y,Acc_Z,Gyr_X,Gyr_Y,Gyr_Z,Mag_X,Mag_Y,Mag_Z,
0, 3733085228, 0.8806681036949158, -0.03478321433067322, -0.45003199577331543, -0.14391544461250305, 0, 0, 0, 0, 0, 0, -0.897705078125, 0.136474609375, -0.219482421875, 
1, 3733093561, 0.880713701248169, -0.03482764959335327, -0.44988757371902466, -0.14407575130462646, 7.9004669189453125, 0.5799900889396667, 5.731228351593018, -2.164710521697998, 1.5589207410812378, -1.3738963603973389, -0.895263671875, 0.135009765625, -0.219482421875, 
2, 3733101894, 0.8807051181793213, -0.034890204668045044, -0.44983983039855957, -0.14426296949386597, 7.847586631774902, 0.5565760135650635, 5.767421722412109, -2.198559522628784, -0.007389706093817949, -1.664092779159546, -0.896240234375, 0.135009765625, -0.218505859375, 
3, 3733110227, 0.8806498646736145, -0.03492528200149536, -0.4498817026615143, -0.14446097612380981, 7.789424896240234, 0.5059632062911987, 5.816827774047852, -1.9442870616912842, -1.281954050064087, -2.1656711101531982, -0.896484375, 0.134033203125, -0.218505859375, 
4, 3733118560, 0.8805830478668213, -0.03490804135799408, -0.4499550461769104, -0.1446441411972046, 7.854533672332764, 0.4863013029098511, 5.835078239440918, -0.9937683343887329, -1.6790002584457397, -2.281677722930908, -0.896728515625, 0.134521484375, -0.219970703125, 
5, 3733126893, 0.8805254697799683, -0.03480854630470276, -0.4500298500061035, -0.14478498697280884, 7.936957359313965, 0.4647041857242584, 5.818655014038086, 0.08680663257837296, -1.4569504261016846, -2.338361978530884, -0.89794921875, 0.133544921875, -0.217529296875, 
6, 3733135226, 0.8804982900619507, -0.034654244780540466, -0.4500505030155182, -0.14492303133010864, 8.008166313171387, 0.4453509449958801, 5.787559986114502, 0.8590502142906189, -0.5435724258422852, -2.479470729827881, -0.897705078125, 0.135009765625, -0.218994140625, 
7, 3733143559, 0.8805239200592041, -0.03446240723133087, -0.44998040795326233, -0.1450311243534088, 8.100564002990723, 0.4391952157020569, 5.693876266479492, 1.158941626548767, 0.9804872274398804, -2.27911639213562, -0.892333984375, 0.159912109375, -0.21484375, 
8, 3733151892, 0.8806434273719788, -0.034167081117630005, -0.4497451186180115, -0.14510509371757507, 8.140965461730957, 0.561401903629303, 5.537194728851318, 2.522899627685547, 3.711989402770996, -2.162597179412842, -0.8974609375, 0.133544921875, -0.220947265625, 
9, 3733160225, 0.8807469606399536, -0.033897995948791504, -0.4495290517807007, -0.14520886540412903, 7.965085029602051, 0.6320491433143616, 5.711601257324219, 1.8855279684066772, 3.38577938079834, -2.468008518218994, -0.89501953125, 0.132080078125, -0.22265625, 
10, 3733168558, 0.8807883262634277, -0.0337500274181366, -0.44940710067749023, -0.1453705132007599, 7.951140403747559, 0.6199775338172913, 5.718368053436279, 0.38464897871017456, 1.6046806573867798, -2.52278470993042, -0.8984375, 0.133056640625, -0.218505859375, 
11, 3733176891, 0.880916953086853, -0.033521443605422974, -0.44914156198501587, -0.14546385407447815, 8.02949047088623, 0.6656384468078613, 5.571440696716309, 1.3709509372711182, 4.053452968597412, -2.021949529647827, -0.8974609375, 0.131591796875, -0.218505859375, 
12, 3733185224, 0.8810804486274719, -0.033328041434288025, -0.4487995505332947, -0.14557331800460815, 7.939872741699219, 0.7710812091827393, 5.66693639755249, 0.8747261762619019, 5.090624809265137, -1.825103998184204, -0.896484375, 0.12890625, -0.2197265625, 
13, 3733193557, 0.8811531066894531, -0.033256515860557556, -0.44861599802970886, -0.14571720361709595, 7.883267402648926, 0.7635700702667236, 5.637925624847412, -0.6770482659339905, 2.428178310394287, -1.7912931442260742, -0.8974609375, 0.132080078125, -0.219482421875, 
14, 3733201890, 0.8811846375465393, -0.03319448232650757, -0.4485121965408325, -0.14586028456687927, 7.951583385467529, 0.7370210886001587, 5.608588695526123, -0.507251501083374, 1.1416521072387695, -1.7958012819290161, -0.89697265625, 0.1298828125, -0.22119140625, 
15, 3733210223, 0.8812182545661926, -0.03314104676246643, -0.4484066963195801, -0.14599275588989258, 7.976022720336914, 0.7316842675209045, 5.69437313079834, -0.7171344757080078, 1.198643684387207, -1.6779500246047974, -0.89794921875, 0.130859375, -0.220947265625, 
16, 3733218556, 0.8812792897224426, -0.03311443328857422, -0.44824934005737305, -0.14611393213272095, 8.035043716430664, 0.74174964427948, 5.731354236602783, -0.8962804675102234, 1.8922004699707031, -1.2274726629257202, -0.89501953125, 0.1298828125, -0.2216796875, 
17, 3733226889, 0.8814330101013184, -0.03303602337837219, -0.4479171931743622, -0.1462232768535614, 8.047465324401855, 0.7399631142616272, 5.739575386047363, -0.5038448572158813, 4.680335521697998, -1.1373361349105835, -0.8974609375, 0.13037109375, -0.22216796875, 
18, 3733235222, 0.8816284537315369, -0.03295029699802399, -0.4474982023239136, -0.14634650945663452, 8.016237258911133, 0.687262773513794, 5.726358890533447, -0.811984121799469, 6.057229042053223, -1.2887675762176514, -0.8974609375, 0.12939453125, -0.22412109375, 
19, 3733243555, 0.8817908763885498, -0.03288440406322479, -0.4471440315246582, -0.14646458625793457, 7.940463542938232, 0.6993763446807861, 5.756354331970215, -0.8975866436958313, 5.026126861572266, -1.1942765712738037, -0.89501953125, 0.130859375, -0.224609375, 
20, 3733251888, 0.8819291591644287, -0.03284488618373871, -0.446830153465271, -0.14659935235977173, 7.88906717300415, 0.7844941020011902, 5.736574649810791, -1.1023982763290405, 4.297325611114502, -1.2460685968399048, -0.896484375, 0.13037109375, -0.22607421875, 
21, 3733260221, 0.8820544481277466, -0.03277112543582916, -0.4465431869029999, -0.14673632383346558, 7.846768379211426, 0.7938451766967773, 5.788932800292969, -0.8242533206939697, 4.005579948425293, -1.5964200496673584, -0.89306640625, 0.12890625, -0.22607421875, 
22, 3733268554, 0.882174551486969, -0.032749056816101074, -0.4462423622608185, -0.1469344198703766, 7.816816329956055, 0.7924264669418335, 5.864711284637451, -1.6846355199813843, 4.020820617675781, -1.9488976001739502, -0.89501953125, 0.12939453125, -0.22705078125, 
23, 3733276887, 0.8823211789131165, -0.03270815312862396, -0.44589221477508545, -0.14712563157081604, 7.763409614562988, 0.7996431589126587, 5.854556083679199, -1.6638622283935547, 4.861632823944092, -1.9723601341247559, -0.8984375, 0.13037109375, -0.226806640625, 
24, 3733285220, 0.882501482963562, -0.032610684633255005, -0.4454845190048218, -0.14730122685432434, 7.737380504608154, 0.7839239835739136, 5.802423000335693, -0.8216022849082947, 5.828967571258545, -1.97047758102417, -0.8916015625, 0.130859375, -0.2275390625, 
25, 3733293553, 0.8826557993888855, -0.03248944878578186, -0.44512948393821716, -0.14747604727745056, 7.7165327072143555, 0.7219694256782532, 5.760167121887207, -0.6287141442298889, 5.120208740234375, -2.2723541259765625, -0.89453125, 0.129638671875, -0.2333984375, 
26, 3733301886, 0.8827422261238098, -0.03243808448314667, -0.4448951184749603, -0.14767685532569885, 7.746510028839111, 0.6677514314651489, 5.7933478355407715, -1.2266528606414795, 3.0691487789154053, -2.2625691890716553, -0.89501953125, 0.1298828125, -0.22998046875, 
27, 3733310219, 0.8827966451644897, -0.032391905784606934, -0.4447318911552429, -0.14785388112068176, 7.711071968078613, 0.679737389087677, 5.780553340911865, -1.1990406513214111, 2.0312087535858154, -2.1208713054656982, -0.89404296875, 0.1279296875, -0.22998046875, 
28, 3733318552, 0.8828341960906982, -0.032311007380485535, -0.44460809230804443, -0.14801937341690063, 7.763281345367432, 0.6633009910583496, 5.791995048522949, -0.44823628664016724, 1.4705644845962524, -2.1635191440582275, -0.89404296875, 0.1279296875, -0.2275390625, 
29, 3733326885, 0.8828602433204651, -0.03222641348838806, -0.444519966840744, -0.14814752340316772, 7.797111988067627, 0.6749906539916992, 5.814446926116943, -0.27977147698402405, 1.0037963390350342, -1.846619963645935, -0.89208984375, 0.12841796875, -0.23046875, 
30, 3733335218, 0.8828583359718323, -0.03215920925140381, -0.4444805979728699, -0.14829117059707642, 7.829896450042725, 0.7440310716629028, 5.854781627655029, -0.32687607407569885, 0.16777324676513672, -1.9296612739562988, -0.89697265625, 0.126708984375, -0.2294921875, 
31, 3733343551, 0.8828434944152832, -0.03207094967365265, -0.4444698691368103, -0.1484311819076538, 7.814704895019531, 0.7677971720695496, 5.862816333770752, -0.15328839421272278, -0.17336994409561157, -2.1182844638824463, -0.89453125, 0.128173828125, -0.23095703125, 
32, 3733351884, 0.882837176322937, -0.031946152448654175, -0.44444483518600464, -0.14857041835784912, 7.837891578674316, 0.7588340044021606, 5.895999431610107, 0.4270789325237274, 0.0825674757361412, -2.244293451309204, -0.89453125, 0.12939453125, -0.23095703125, 
33, 3733360217, 0.8828336000442505, -0.03180234134197235, -0.44441723823547363, -0.14870530366897583, 7.880478858947754, 0.7478997707366943, 5.915346145629883, 0.5016164183616638, 0.21051061153411865, -2.3800747394561768, -0.89453125, 0.126220703125, -0.2314453125, 
34, 3733368550, 0.882832944393158, -0.03166000545024872, -0.4443832039833069, -0.14884066581726074, 7.910086631774902, 0.7617103457450867, 5.948881149291992, 0.6473485231399536, 0.2604711353778839, -2.290309429168701, -0.896484375, 0.128662109375, -0.23193359375, 
35, 3733376883, 0.8828549385070801, -0.031523287296295166, -0.44430652260780334, -0.1489681601524353, 7.902019500732422, 0.7370133996009827, 5.947592258453369, 0.3698183298110962, 0.9440382122993469, -2.1759166717529297, -0.891357421875, 0.1259765625, -0.229736328125, 
36, 3733385216, 0.8829531669616699, -0.031318023800849915, -0.4440801441669464, -0.149104505777359, 7.835787296295166, 0.724953293800354, 5.920862674713135, 1.0540002584457397, 3.329620361328125, -2.399810791015625, -0.89501953125, 0.128662109375, -0.232421875, 
37, 3733393549, 0.8830637335777283, -0.031094610691070557, -0.4438416361808777, -0.1492062509059906, 7.885146141052246, 0.6962993741035461, 5.892130374908447, 1.2802764177322388, 3.615065574645996, -2.14932918548584, -0.896728515625, 0.125244140625, -0.2314453125, 
38, 3733401882, 0.8831425905227661, -0.030952543020248413, -0.4436526298522949, -0.14933156967163086, 7.899759769439697, 0.7228131294250488, 5.858998775482178, 0.422583669424057, 2.621565818786621, -1.9351426362991333, -0.895751953125, 0.123779296875, -0.23193359375, 
39, 3733410215, 0.8832076191902161, -0.030841991305351257, -0.4434852600097656, -0.14946752786636353, 7.900761127471924, 0.7311373949050903, 5.865148544311523, 0.014049407094717026, 2.2142868041992188, -1.908644676208496, -0.8955078125, 0.127197265625, -0.2314453125, 
40, 3733418548, 0.8832876086235046, -0.030741795897483826, -0.443287193775177, -0.14960157871246338, 7.888611793518066, 0.7399014234542847, 5.9058661460876465, -0.320203572511673, 2.701725721359253, -1.852703332901001, -0.89501953125, 0.125732421875, -0.2333984375, 
41, 3733426881, 0.8833837509155273, -0.030636295676231384, -0.443058043718338, -0.14973503351211548, 7.869844436645508, 0.7317107915878296, 5.897679805755615, -0.325454443693161, 3.18790864944458, -1.8421242237091064, -0.893798828125, 0.125244140625, -0.23486328125, 
42, 3733435214, 0.8834878206253052, -0.030543699860572815, -0.442810595035553, -0.14987164735794067, 7.862253189086914, 0.7368006706237793, 5.901184558868408, -0.35740819573402405, 3.3879175186157227, -1.6934977769851685, -0.895751953125, 0.124755859375, -0.23486328125, 
43, 3733443547, 0.8835866451263428, -0.030458703637123108, -0.44257137179374695, -0.15001335740089417, 7.814722061157227, 0.7531725764274597, 5.867804050445557, -0.640163779258728, 3.286869764328003, -1.8059186935424805, -0.892822265625, 0.12255859375, -0.236083984375, 
44, 3733451880, 0.8836939930915833, -0.030399352312088013, -0.44230860471725464, -0.1501678228378296, 7.783456325531006, 0.7543116807937622, 5.886803150177002, -0.8983424305915833, 3.5336501598358154, -1.6957135200500488, -0.897216796875, 0.12353515625, -0.23388671875, 
45, 3733460213, 0.8837931752204895, -0.030383005738258362, -0.4420573115348816, -0.15032696723937988, 7.759311199188232, 0.7619140148162842, 5.911144256591797, -1.5966119766235352, 3.303032398223877, -1.5871604681015015, -0.89111328125, 0.126220703125, -0.237060546875, 
46, 3733468546, 0.8838942050933838, -0.030364781618118286, -0.44180068373680115, -0.15049055218696594, 7.743376731872559, 0.744470477104187, 5.884191036224365, -1.4443995952606201, 3.3392767906188965, -1.5736232995986938, -0.894287109375, 0.12451171875, -0.236328125, 
47, 3733476879, 0.8839916586875916, -0.03031638264656067, -0.44156143069267273, -0.15063080191612244, 7.695172309875488, 0.7268658876419067, 5.890249729156494, -1.0810742378234863, 3.203840732574463, -1.5715868473052979, -0.895263671875, 0.12353515625, -0.23681640625, 
48, 3733485212, 0.8840643763542175, -0.030294299125671387, -0.4413670301437378, -0.15077829360961914, 7.726332664489746, 0.697932243347168, 5.870443820953369, -1.1838003396987915, 2.412092685699463, -1.485587239265442, -0.893798828125, 0.1220703125, -0.237548828125, 
49, 3733493545, 0.8841085433959961, -0.030301660299301147, -0.4412326216697693, -0.15091007947921753, 7.7634172439575195, 0.7016953825950623, 5.887396812438965, -1.4968574047088623, 1.4877771139144897, -1.2733988761901855, -0.892822265625, 0.12548828125, -0.23876953125, 
50, 3733501878, 0.8841229677200317, -0.030322954058647156, -0.44116222858428955, -0.15102803707122803, 7.769100666046143, 0.6868305206298828, 5.952071666717529, -1.2987825870513916, 0.44858208298683167, -1.0354169607162476, -0.891357421875, 0.12451171875, -0.238525390625, 
51, 3733510211, 0.8841213583946228, -0.030312418937683105, -0.4411410987377167, -0.15110084414482117, 7.750147819519043, 0.6234631538391113, 6.054773807525635, -0.7204132080078125, -0.15800140798091888, -0.8206672668457031, -0.892333984375, 0.12255859375, -0.236572265625, 
52, 3733518544, 0.8841526508331299, -0.030218541622161865, -0.44107455015182495, -0.15113088488578796, 7.765133380889893, 0.6078342795372009, 6.010219097137451, 0.6491928100585938, 0.7077212333679199, -0.6331198215484619, -0.893798828125, 0.12158203125, -0.238037109375, 
53, 3733526877, 0.8841861486434937, -0.030017808079719543, -0.44104111194610596, -0.15107303857803345, 7.77131462097168, 0.6010564565658569, 5.902414321899414, 2.395084857940674, 0.547734797000885, -0.28981226682662964, -0.894775390625, 0.12158203125, -0.238037109375, 
54, 3733535210, 0.8842180371284485, -0.029773056507110596, -0.4410252869129181, -0.15098118782043457, 7.718483924865723, 0.6018171310424805, 5.852875232696533, 3.3295435905456543, 0.3554231524467468, -0.08561558276414871, -0.892333984375, 0.123046875, -0.237548828125, 
55, 3733543543, 0.8841660022735596, -0.029619485139846802, -0.4411557912826538, -0.150934636592865, 7.729008674621582, 0.5241984128952026, 5.988071918487549, 2.0506246089935303, -2.057194471359253, -0.393396258354187, -0.892822265625, 0.12109375, -0.240478515625, 
56, 3733551876, 0.8840778470039368, -0.02955615520477295, -0.4413418173789978, -0.15091919898986816, 7.82003927230835, 0.5064465403556824, 5.944945812225342, 1.0315237045288086, -3.1703763008117676, -0.24474403262138367, -0.894287109375, 0.12109375, -0.237060546875, 
57, 3733560209, 0.8840752243995667, -0.029479995369911194, -0.4413749575614929, -0.1508527398109436, 8.007293701171875, 0.634070634841919, 5.8376994132995605, 1.0558059215545654, -0.7437604665756226, 0.46324622631073, -0.892333984375, 0.12158203125, -0.235107421875, 
58, 3733568542, 0.8840955495834351, -0.029443353414535522, -0.44135576486587524, -0.15079689025878906, 7.9655985832214355, 0.7517707347869873, 5.866039752960205, 0.569007396697998, -0.08985473215579987, 0.7163661122322083, -0.894775390625, 0.1240234375, -0.2373046875, 
59, 3733576875, 0.8840779066085815, -0.029485046863555908, -0.44140371680259705, -0.15075120329856873, 7.832713603973389, 0.7607764005661011, 5.922275066375732, -0.47660404443740845, -1.2485657930374146, 0.8894926905632019, -0.893798828125, 0.1220703125, -0.236083984375, 
60, 3733585208, 0.8840452432632446, -0.02957141399383545, -0.4414828419685364, -0.15069398283958435, 7.8666605949401855, 0.7805964350700378, 5.9253764152526855, -0.735346257686615, -1.8611174821853638, 1.3300960063934326, -0.893310546875, 0.12255859375, -0.237548828125, 
61, 3733593541, 0.8840198516845703, -0.02964159846305847, -0.441577672958374, -0.15055128931999207, 7.8380632400512695, 0.8443751335144043, 5.923123836517334, -0.1568744033575058, -1.9675449132919312, 2.1921944618225098, -0.892333984375, 0.123046875, -0.237548828125, 
62, 3733601874, 0.8840047121047974, -0.02967490255832672, -0.4416695833206177, -0.15036442875862122, 7.753558158874512, 0.8697030544281006, 5.877819061279297, 0.7299032807350159, -1.8527289628982544, 2.6145219802856445, -0.893310546875, 0.124267578125, -0.2353515625, 
63, 3733610207, 0.884009063243866, -0.029659077525138855, -0.4417300820350647, -0.1501641869544983, 7.75091552734375, 0.917691707611084, 5.6967339515686035, 1.1701351404190063, -1.2140250205993652, 2.4395253658294678, -0.89306640625, 0.126708984375, -0.2373046875, 
64, 3733618540, 0.8841378688812256, -0.02960170805454254, -0.4415387511253357, -0.149980366230011, 7.855611801147461, 0.9293065071105957, 5.38198709487915, 1.2880374193191528, 2.6518161296844482, 2.441420555114746, -0.890380859375, 0.123779296875, -0.237060546875, 
65, 3733626873, 0.8840590119361877, -0.02970486879348755, -0.4417291581630707, -0.14986354112625122, 7.571009159088135, 0.8064678907394409, 5.8176984786987305, -0.5468894243240356, -3.507920026779175, 1.9252296686172485, -0.893798828125, 0.123046875, -0.237060546875, 
66, 3733635206, 0.8838220834732056, -0.030037522315979004, -0.44219204783439636, -0.1498296558856964, 7.622775554656982, 0.8555715680122375, 5.910006999969482, -3.1656763553619385, -8.265649795532227, 1.9642277956008911, -0.895263671875, 0.125, -0.23876953125, 
67, 3733643539, 0.8836519718170166, -0.030204564332962036, -0.4425518214702606, -0.14973729848861694, 7.843367576599121, 0.9245928525924683, 5.884232521057129, -1.1461728811264038, -6.2423810958862305, 1.7692264318466187, -0.895263671875, 0.12109375, -0.2353515625, 
68, 3733651872, 0.8835315704345703, -0.030347362160682678, -0.4428127408027649, -0.14964726567268372, 7.846918106079102, 0.8724369406700134, 5.987785816192627, -0.8835757970809937, -4.733471870422363, 1.8156648874282837, -0.89111328125, 0.126708984375, -0.236083984375, 
69, 3733660205, 0.883442223072052, -0.030540362000465393, -0.44300416111946106, -0.1495695412158966, 7.863104343414307, 0.8492628335952759, 5.922100067138672, -1.8691860437393188, -3.7518579959869385, 1.984027624130249, -0.892333984375, 0.122802734375, -0.235107421875, 
70, 3733668538, 0.8833811283111572, -0.03070199489593506, -0.44313082098960876, -0.1495220959186554, 7.946498394012451, 0.8632906675338745, 5.9119553565979, -1.623212456703186, -2.764249801635742, 1.592769980430603, -0.892333984375, 0.123779296875, -0.234619140625, 
71, 3733676871, 0.8833392858505249, -0.030835017561912537, -0.4432259798049927, -0.1494593322277069, 7.910373210906982, 0.8496788144111633, 5.980928897857666, -1.3899437189102173, -2.162187337875366, 1.5887484550476074, -0.893310546875, 0.125244140625, -0.232421875, 
72, 3733685204, 0.8833291530609131, -0.030917957425117493, -0.44326522946357727, -0.14938539266586304, 7.872767925262451, 0.8343848586082458, 5.964619159698486, -0.6642410755157471, -1.2391525506973267, 1.5773757696151733, -0.896728515625, 0.125, -0.23583984375, 
73, 3733693537, 0.883366048336029, -0.030967891216278076, -0.443212628364563, -0.14931294322013855, 7.835188388824463, 0.8331917524337769, 5.956308364868164, -0.6041757464408875, 0.2790670692920685, 1.4156475067138672, -0.8935546875, 0.126708984375, -0.23291015625, 
74, 3733701870, 0.8834208250045776, -0.031005308032035828, -0.4431159198284149, -0.14926782250404358, 7.83959436416626, 0.7866124510765076, 5.862277030944824, -0.538424015045166, 0.9123278260231018, 1.139782190322876, -0.89404296875, 0.127685546875, -0.23486328125, 
75, 3733710203, 0.8834649324417114, -0.031023651361465454, -0.4430418312549591, -0.1492227017879486, 7.798680305480957, 0.7695385813713074, 5.81562614440918, -0.44751909375190735, 0.6579784154891968, 0.9002378582954407, -0.89453125, 0.127197265625, -0.232421875, 
76, 3733718536, 0.8834754228591919, -0.03100501000881195, -0.44302898645401, -0.1492028832435608, 7.767529487609863, 0.7262426018714905, 5.797600746154785, 0.14233830571174622, -0.2491624504327774, 0.3665909171104431, -0.894775390625, 0.124267578125, -0.234375, 
77, 3733726869, 0.8834615349769592, -0.030977249145507812, -0.44306671619415283, -0.14917853474617004, 7.799738883972168, 0.6796702742576599, 5.8364410400390625, 0.22602000832557678, -0.9469454288482666, 0.22578945755958557, -0.894775390625, 0.123779296875, -0.23388671875, 
78, 3733735202, 0.88343346118927, -0.030982568860054016, -0.4431202709674835, -0.149184912443161, 7.805239677429199, 0.6595207452774048, 5.871182441711426, -0.18881534039974213, -1.3290073871612549, 0.08514171093702316, -0.896728515625, 0.122802734375, -0.2314453125, 
79, 3733743535, 0.883403480052948, -0.030993938446044922, -0.4431803524494171, -0.14918190240859985, 7.818729877471924, 0.6949272751808167, 5.868692874908447, -0.3537709712982178, -1.3887909650802612, 0.15143133699893951, -0.896484375, 0.125732421875, -0.234375, 
80, 3733751868, 0.8833653330802917, -0.03102312982082367, -0.4432605504989624, -0.14916333556175232, 7.8382158279418945, 0.6760667562484741, 5.869565486907959, -0.277005136013031, -1.773619294166565, 0.5028586387634277, -0.894775390625, 0.125244140625, -0.2333984375, 
81, 3733760201, 0.8833001255989075, -0.031061843037605286, -0.44339677691459656, -0.1491365134716034, 7.868460178375244, 0.7138417959213257, 5.882228851318359, -0.37113747000694275, -2.592634677886963, 0.5242465138435364, -0.89501953125, 0.126708984375, -0.23388671875, 
82, 3733768534, 0.8832231760025024, -0.031131744384765625, -0.4435437321662903, -0.14914074540138245, 7.885627746582031, 0.7199153304100037, 5.905472278594971, -0.7909035086631775, -2.8945751190185547, 0.36379897594451904, -0.89453125, 0.127197265625, -0.23291015625, 
83, 3733776867, 0.8831651210784912, -0.031181499361991882, -0.44365447759628296, -0.14914453029632568, 7.9163970947265625, 0.7028672695159912, 5.9474005699157715, -0.8092689514160156, -2.255525588989258, 0.1942327320575714, -0.893310546875, 0.124267578125, -0.23193359375, 
84, 3733785200, 0.8831466436386108, -0.031224533915519714, -0.4436802864074707, -0.14916831254959106, 7.916029930114746, 0.720126748085022, 5.96776008605957, -0.8054140210151672, -1.0038731098175049, 0.135512113571167, -0.8916015625, 0.127685546875, -0.23193359375, 
85, 3733793533, 0.8831599950790405, -0.031184911727905273, -0.443659245967865, -0.1491599977016449, 7.909127235412598, 0.6918370127677917, 5.938475608825684, 0.1535957306623459, -0.0343230739235878, 0.03090357407927513, -0.894287109375, 0.124267578125, -0.23095703125, 
86, 3733801866, 0.8831906914710999, -0.031113073229789734, -0.4436148703098297, -0.14912551641464233, 7.909735679626465, 0.7147910594940186, 5.851869106292725, 0.8215765357017517, 0.3591627776622772, 0.27327826619148254, -0.8935546875, 0.126220703125, -0.23193359375, 
87, 3733810199, 0.8832049369812012, -0.0310249924659729, -0.4436079263687134, -0.14908021688461304, 7.833886623382568, 0.7096549868583679, 5.941616058349609, 0.9950105547904968, -0.1180431991815567, 0.1789410263299942, -0.892578125, 0.126708984375, -0.232421875, 
88, 3733818532, 0.8831989765167236, -0.03095400333404541, -0.44363412261009216, -0.1490519940853119, 7.8094096183776855, 0.661945104598999, 5.99760103225708, 0.9023382067680359, -0.7208229303359985, 0.0952337235212326, -0.89306640625, 0.126708984375, -0.2333984375, 
89, 3733826865, 0.8832255601882935, -0.03084598481655121, -0.44361352920532227, -0.14897799491882324, 7.899191856384277, 0.661115825176239, 5.860381603240967, 1.3587199449539185, 0.14913888275623322, 0.41437429189682007, -0.893798828125, 0.123779296875, -0.232421875, 
90, 3733835198, 0.8832831382751465, -0.030748963356018066, -0.44351959228515625, -0.14893653988838196, 7.856997489929199, 0.7225654721260071, 5.79768705368042, 1.0791020393371582, 1.1734905242919922, 0.27891337871551514, -0.892822265625, 0.125732421875, -0.23388671875, 
91, 3733843531, 0.8832882642745972, -0.030680671334266663, -0.4435214102268219, -0.1489151418209076, 7.804560661315918, 0.7282522320747375, 5.810046672821045, 0.6164834499359131, -0.3109952509403229, -0.01922348514199257, -0.8935546875, 0.126708984375, -0.234375, 
92, 3733851864, 0.8832265734672546, -0.03066772222518921, -0.4436381161212921, -0.14893606305122375, 7.8310065269470215, 0.6747542023658752, 5.843660354614258, 0.0600653775036335, -2.257676839828491, -0.29872599244117737, -0.89453125, 0.126220703125, -0.23583984375, 
93, 3733860197, 0.8832013010978699, -0.03058813512325287, -0.4436991214752197, -0.1489209234714508, 7.8669114112854, 0.6989400386810303, 5.840804100036621, 0.9883251786231995, -1.2383841276168823, -0.16870816051959991, -0.892333984375, 0.125732421875, -0.23193359375, 
94, 3733868530, 0.8832233548164368, -0.030428677797317505, -0.44368892908096313, -0.1488524079322815, 7.83507776260376, 0.7129199504852295, 5.855870246887207, 1.9892016649246216, 0.10378888249397278, 0.03288867697119713, -0.894775390625, 0.12255859375, -0.2333984375, 
95, 3733876863, 0.8832146525382996, -0.030342385172843933, -0.4437260627746582, -0.14881077408790588, 7.81844425201416, 0.7308343648910522, 5.856289863586426, 1.0497736930847168, -0.7933624386787415, 0.08867648243904114, -0.89404296875, 0.126220703125, -0.232421875, 
96, 3733885196, 0.8831779956817627, -0.030303344130516052, -0.44380685687065125, -0.1487961709499359, 7.823975563049316, 0.758452296257019, 5.853355407714844, 0.5304964184761047, -1.6312551498413086, 0.0416487418115139, -0.892333984375, 0.123779296875, -0.232666015625, 
97, 3733893529, 0.8831346035003662, -0.030206993222236633, -0.44390761852264404, -0.1487724781036377, 7.844797134399414, 0.7535423040390015, 5.905392169952393, 1.1689696311950684, -1.7512707710266113, -0.2928219139575958, -0.892822265625, 0.123779296875, -0.232177734375, 
98, 3733901862, 0.8831009864807129, -0.03009060025215149, -0.44398677349090576, -0.14875978231430054, 7.858863830566406, 0.7487894892692566, 5.86945915222168, 1.454363465309143, -1.4321688413619995, -0.44773682951927185, -0.893798828125, 0.125244140625, -0.2353515625, 
99, 3733910195, 0.8830769658088684, -0.029983684420585632, -0.44404441118240356, -0.1487511396408081, 7.8871893882751465, 0.72983318567276, 5.898770809173584, 1.1016042232513428, -1.0835845470428467, -0.502115786075592, -0.893798828125, 0.123779296875, -0.23193359375, 
100, 3733918528, 0.8830693960189819, -0.029908329248428345, -0.44405990839004517, -0.1487652063369751, 7.896245002746582, 0.7319647073745728, 5.877862930297852, 0.674384355545044, -0.573272168636322, -0.44217851758003235, -0.892822265625, 0.122314453125, -0.234130859375, 
101, 3733926861, 0.8830831050872803, -0.029826804995536804, -0.44403544068336487, -0.14877325296401978, 7.906766891479492, 0.769824743270874, 5.8898725509643555, 0.5629112124443054, 0.10057429224252701, -0.41927939653396606, -0.890869140625, 0.123779296875, -0.233642578125, 
102, 3733935194, 0.8831068277359009, -0.02970917522907257, -0.4439970850944519, -0.14877015352249146, 7.884399890899658, 0.8201808333396912, 5.890723705291748, 1.1945838928222656, 0.3525671064853668, -0.40629297494888306, -0.891845703125, 0.12158203125, -0.235107421875, 
103, 3733943527, 0.8831374049186707, -0.029578983783721924, -0.4439476430416107, -0.1487623155117035, 7.864486217498779, 0.8448580503463745, 5.90186071395874, 1.1881163120269775, 0.5980411767959595, -0.49349671602249146, -0.893798828125, 0.123779296875, -0.2333984375, 
104, 3733951860, 0.8831602931022644, -0.029469400644302368, -0.4439045488834381, -0.14877668023109436, 7.851747035980225, 0.8224768042564392, 5.912539958953857, 0.9811020493507385, 0.3936651945114136, -0.5680084824562073, -0.89501953125, 0.128173828125, -0.23388671875, 
105, 3733960193, 0.8831868767738342, -0.0293540358543396, -0.4438598155975342, -0.14877557754516602, 7.860130310058594, 0.8055603504180908, 5.914606094360352, 0.8916698694229126, 0.4814579486846924, -0.5586464405059814, -0.894775390625, 0.124755859375, -0.232421875, 
106, 3733968526, 0.8832160234451294, -0.029237762093544006, -0.44381001591682434, -0.14877435564994812, 7.841118335723877, 0.7586877346038818, 5.915944576263428, 1.1466084718704224, 0.520750105381012, -0.4041413962841034, -0.894775390625, 0.124267578125, -0.23291015625, 
107, 3733976859, 0.8832435607910156, -0.029129311442375183, -0.443767786026001, -0.14875811338424683, 7.854436874389648, 0.7449114322662354, 5.928432941436768, 1.1572895050048828, 0.3965980112552643, -0.18298807740211487, -0.891357421875, 0.123779296875, -0.234130859375, 
108, 3733985192, 0.8832467794418335, -0.029025182127952576, -0.4437796473503113, -0.14872324466705322, 7.864500522613525, 0.6922879219055176, 5.892719268798828, 1.14408540725708, -0.3773360848426819, -0.09212159365415573, -0.893310546875, 0.1220703125, -0.234130859375, 
109, 3733993525, 0.8832322955131531, -0.028926029801368713, -0.4438375234603882, -0.14865589141845703, 7.929065227508545, 0.6395485997200012, 5.931128025054932, 1.379787564277649, -1.0659233331680298, 0.284650981426239, -0.894775390625, 0.123779296875, -0.23486328125, 
110, 3734001858, 0.8831883072853088, -0.028836891055107117, -0.44396302103996277, -0.14856037497520447, 7.90371561050415, 0.638465940952301, 5.967819690704346, 1.7211484909057617, -2.1488935947418213, 0.6872811317443848, -0.893310546875, 0.123291015625, -0.235595703125, 
111, 3734010191, 0.8831309080123901, -0.028732717037200928, -0.44412803649902344, -0.14842814207077026, 7.873795509338379, 0.698431670665741, 5.976672649383545, 2.0356404781341553, -2.6455538272857666, 0.9094847440719604, -0.888427734375, 0.123291015625, -0.232666015625, 
112, 3734018524, 0.8830713629722595, -0.028645560145378113, -0.44428882002830505, -0.14831745624542236, 7.866779804229736, 0.7981048822402954, 5.937601566314697, 1.8554695844650269, -2.6809778213500977, 0.837790310382843, -0.893310546875, 0.123291015625, -0.235595703125, 
113, 3734026857, 0.8830076456069946, -0.02857115864753723, -0.444448858499527, -0.14823180437088013, 7.882378101348877, 0.856268048286438, 5.944653511047363, 1.3766882419586182, -2.667325496673584, 0.5130018591880798, -0.897705078125, 0.123779296875, -0.23193359375, 
114, 3734035190, 0.8829560279846191, -0.028521984815597534, -0.44457346200942993, -0.14817550778388977, 7.868185520172119, 0.8892172574996948, 5.975851535797119, 0.9911940693855286, -2.249173164367676, 0.4400781989097595, -0.894287109375, 0.125244140625, -0.23291015625, 
115, 3734043523, 0.8829346895217896, -0.028482690453529358, -0.44464489817619324, -0.14809560775756836, 7.8775739669799805, 0.8671652674674988, 5.9700093269348145, 0.7406099438667297, -1.4010602235794067, 0.7700151205062866, -0.894287109375, 0.123779296875, -0.23095703125, 
116, 3734051856, 0.8829582929611206, -0.028434380888938904, -0.4446340501308441, -0.1479966640472412, 7.834815979003906, 0.8298229575157166, 5.983688831329346, 0.9967011213302612, -0.16322670876979828, 1.1694434881210327, -0.891845703125, 0.122314453125, -0.232177734375, 
117, 3734060189, 0.8830277919769287, -0.02835427224636078, -0.44454583525657654, -0.14786198735237122, 7.788039684295654, 0.7840805649757385, 5.923246383666992, 1.3039181232452393, 1.1543309688568115, 1.4530185461044312, -0.892578125, 0.12890625, -0.2314453125, 
118, 3734068522, 0.8830986618995667, -0.028289079666137695, -0.4444488286972046, -0.14774295687675476, 7.75563907623291, 0.7850524187088013, 5.84332799911499, 1.1651147603988647, 1.1986180543899536, 1.4369585514068604, -0.895751953125, 0.125244140625, -0.23291015625, 
119, 3734076855, 0.8831140995025635, -0.02825033664703369, -0.4444643259048462, -0.1476115584373474, 7.761806011199951, 0.8391321897506714, 5.7821574211120605, 0.9698830246925354, -0.5169593095779419, 1.5127511024475098, -0.892333984375, 0.122314453125, -0.233154296875, 
120, 3734085188, 0.8830507397651672, -0.028272777795791626, -0.4446171522140503, -0.14752575755119324, 7.734053134918213, 0.8858726620674133, 5.806211948394775, 0.353681355714798, -2.8215746879577637, 1.2009745836257935, -0.890869140625, 0.123291015625, -0.232177734375, 
121, 3734093521, 0.8829388618469238, -0.028318285942077637, -0.444866418838501, -0.14743545651435852, 7.7446184158325195, 0.9171120524406433, 5.8485822677612305, 0.12192375957965851, -4.289219379425049, 1.1809955835342407, -0.89404296875, 0.126220703125, -0.23388671875, 
122, 3734101854, 0.8828241229057312, -0.02836570143699646, -0.4451153874397278, -0.14736247062683105, 7.730117321014404, 0.9201734066009521, 5.9022064208984375, 0.1466158777475357, -4.3484392166137695, 1.0578935146331787, -0.891845703125, 0.124755859375, -0.234130859375, 
123, 3734110187, 0.8827256560325623, -0.028420642018318176, -0.4453265368938446, -0.14730337262153625, 7.771284580230713, 0.8852421045303345, 5.925017356872559, -0.288326621055603, -3.752779722213745, 0.877492368221283, -0.894287109375, 0.124755859375, -0.2314453125, 
124, 3734118520, 0.8826572299003601, -0.028497979044914246, -0.4454725980758667, -0.1472572386264801, 7.827476978302002, 0.8321006298065186, 5.914414405822754, -0.5700063705444336, -2.8672447204589844, 1.0483394861221313, -0.891845703125, 0.126220703125, -0.23291015625, 
125, 3734126853, 0.8825784921646118, -0.02859768271446228, -0.44563764333724976, -0.14720982313156128, 7.829170227050781, 0.7711014747619629, 6.001162052154541, -0.9669246077537537, -3.158888578414917, 1.0850189924240112, -0.894775390625, 0.124267578125, -0.22998046875, 
126, 3734135186, 0.8824994564056396, -0.028714925050735474, -0.44580429792404175, -0.14715638756752014, 7.862548828125, 0.7613818049430847, 5.975458145141602, -0.9740709066390991, -3.2634966373443604, 1.3510996103286743, -0.893798828125, 0.123291015625, -0.2314453125, 
127, 3734143519, 0.8824735879898071, -0.028664126992225647, -0.4459069073200226, -0.14701038599014282, 7.861715793609619, 0.7755647897720337, 5.8262810707092285, 1.3689528703689575, -1.8102734088897705, 1.4994573593139648, -0.891357421875, 0.124755859375, -0.230224609375, 
128, 3734151852, 0.8824909925460815, -0.028478220105171204, -0.44594356417655945, -0.14683178067207336, 7.790936470031738, 0.7840319871902466, 5.761416435241699, 3.24878191947937, -0.5326609015464783, 1.2583248615264893, -0.894775390625, 0.124755859375, -0.2294921875, 
129, 3734160185, 0.8824105262756348, -0.028405457735061646, -0.4461323916912079, -0.14675596356391907, 7.751818656921387, 0.6803956627845764, 5.785398006439209, 1.513814091682434, -3.167635917663574, 0.44721177220344543, -0.8935546875, 0.12646484375, -0.228515625, 
130, 3734168518, 0.8822178840637207, -0.028490349650382996, -0.44651755690574646, -0.14672526717185974, 7.822878360748291, 0.6276124715805054, 5.834264278411865, -0.47724437713623047, -6.489058494567871, 0.48599159717559814, -0.892822265625, 0.125244140625, -0.2294921875, 
131, 3734176851, 0.882081151008606, -0.028576046228408813, -0.4468013644218445, -0.14666667580604553, 7.950084686279297, 0.7704687714576721, 5.77677583694458, -0.5181632041931152, -4.932290077209473, 0.9682181477546692, -0.895263671875, 0.125244140625, -0.22998046875, 
132, 3734185184, 0.8820580244064331, -0.028641551733016968, -0.44686615467071533, -0.14659583568572998, 7.914971828460693, 0.9371833205223083, 5.8288893699646, -0.42039361596107483, -1.5872243642807007, 1.3998692035675049, -0.895263671875, 0.122802734375, -0.22802734375, 
133, 3734193517, 0.882085382938385, -0.028675660490989685, -0.446826696395874, -0.14654472470283508, 7.791863441467285, 0.8613453507423401, 5.831669807434082, -0.5168439745903015, 0.10551784187555313, 1.025606632232666, -0.895751953125, 0.124267578125, -0.228515625, 
134, 3734201850, 0.8820812106132507, -0.028776541352272034, -0.44682443141937256, -0.14655718207359314, 7.800618648529053, 0.7525428533554077, 5.835981369018555, -1.4894421100616455, -0.6958106160163879, 0.6709264516830444, -0.894775390625, 0.124755859375, -0.22802734375, 
135, 3734210183, 0.8819828033447266, -0.028941839933395386, -0.44700685143470764, -0.1465604305267334, 7.883318901062012, 0.6999984383583069, 5.814285755157471, -2.0330660343170166, -3.59932541847229, 0.8381233811378479, -0.896484375, 0.126708984375, -0.22802734375, 
136, 3734218516, 0.8818726539611816, -0.0290030837059021, -0.4472382664680481, -0.14650562405586243, 7.863036632537842, 0.7557995915412903, 5.779163837432861, -0.16645412147045135, -4.128695011138916, 0.937455415725708, -0.895751953125, 0.125244140625, -0.22705078125, 
137, 3734226849, 0.8817631602287292, -0.02894541621208191, -0.4474967420101166, -0.14638671278953552, 7.882430553436279, 0.758215069770813, 5.826010227203369, 1.5589848756790161, -4.1914496421813965, 0.8887372016906738, -0.893798828125, 0.125732421875, -0.2275390625, 
138, 3734235182, 0.8816196322441101, -0.02889162302017212, -0.44780585169792175, -0.14631697535514832, 7.9295830726623535, 0.7329711318016052, 5.834921360015869, 1.4630850553512573, -5.050576210021973, 0.3113410174846649, -0.894287109375, 0.12548828125, -0.22705078125, 
139, 3734243515, 0.8814770579338074, -0.028791189193725586, -0.44812020659446716, -0.14623266458511353, 7.9706830978393555, 0.7347390055656433, 5.805619239807129, 1.9731158018112183, -4.971479415893555, 0.12305077910423279, -0.89697265625, 0.126220703125, -0.22705078125, 
140, 3734251848, 0.8813871145248413, -0.028615593910217285, -0.4483371078968048, -0.14614510536193848, 7.9870829582214355, 0.7941294312477112, 5.8428635597229, 2.884546995162964, -3.3642635345458984, -0.07718850672245026, -0.8935546875, 0.1279296875, -0.228515625, 
141, 3734260181, 0.8813559412956238, -0.0284222811460495, -0.44843947887420654, -0.14605596661567688, 8.001276969909668, 0.8571915626525879, 5.828112602233887, 2.7183873653411865, -1.5330759286880493, -0.10682415962219238, -0.8994140625, 0.125244140625, -0.22607421875, 
142, 3734268514, 0.8813658952713013, -0.028259143233299255, -0.4484442472457886, -0.14601269364356995, 7.971272945404053, 0.8550401329994202, 5.823113918304443, 2.0744073390960693, -0.18524214625358582, -0.25278687477111816, -0.895751953125, 0.124755859375, -0.2265625, 
143, 3734276847, 0.881384015083313, -0.028142571449279785, -0.44842010736465454, -0.14600005745887756, 7.921973705291748, 0.8707942366600037, 5.836627960205078, 1.1258352994918823, 0.18489636480808258, -0.3772208094596863, -0.895751953125, 0.124267578125, -0.2265625, 
144, 3734285180, 0.8813958168029785, -0.028032690286636353, -0.44840505719184875, -0.1459963023662567, 7.889965057373047, 0.8537418842315674, 5.820132255554199, 1.1445209980010986, -0.025140374898910522, -0.39319130778312683, -0.8935546875, 0.12744140625, -0.22509765625, 
145, 3734293513, 0.8814095258712769, -0.027883142232894897, -0.4483957290649414, -0.14597073197364807, 7.887475490570068, 0.8446221351623535, 5.8248610496521, 1.5905672311782837, 0.03491220250725746, -0.470418244600296, -0.894287109375, 0.124267578125, -0.22705078125, 
146, 3734301846, 0.8814288377761841, -0.02771630883216858, -0.4483722746372223, -0.14595821499824524, 7.886417865753174, 0.8055158257484436, 5.816224098205566, 1.8754613399505615, 0.2329486459493637, -0.6195570826530457, -0.895263671875, 0.12548828125, -0.22607421875, 
147, 3734310179, 0.8814604878425598, -0.027543410658836365, -0.44832301139831543, -0.14595001935958862, 7.892329216003418, 0.7575953602790833, 5.809210300445557, 1.714860200881958, 0.6850910782814026, -0.7586167454719543, -0.895263671875, 0.123779296875, -0.22607421875, 
148, 3734318512, 0.8814965486526489, -0.02735288441181183, -0.4482695460319519, -0.14593279361724854, 7.883145809173584, 0.7544405460357666, 5.748560905456543, 2.137892246246338, 0.746808648109436, -0.66216641664505, -0.892822265625, 0.1240234375, -0.226318359375, 
149, 3734326845, 0.8815192580223083, -0.027140796184539795, -0.44824859499931335, -0.14590010046958923, 7.868288993835449, 0.7808674573898315, 5.739050388336182, 2.3933942317962646, 0.35544875264167786, -0.7328616976737976, -0.894775390625, 0.125, -0.22412109375, 
150, 3734335178, 0.8815169334411621, -0.026985913515090942, -0.4482645094394684, -0.14589402079582214, 7.8672661781311035, 0.7970009446144104, 5.719909191131592, 1.7620543241500854, -0.39780184626579285, -0.6818893551826477, -0.89306640625, 0.1279296875, -0.22705078125, 
151, 3734343511, 0.8814809322357178, -0.02687184512615204, -0.44833704829216003, -0.1459093987941742, 7.839056015014648, 0.8382246494293213, 5.738183975219727, 1.076412558555603, -1.318428635597229, -0.8626233339309692, -0.894287109375, 0.124267578125, -0.2255859375, 
152, 3734351844, 0.881434977054596, -0.026799067854881287, -0.4484180212020874, -0.14595168828964233, 7.846885681152344, 0.8425648212432861, 5.7455925941467285, 0.5818274021148682, -1.601312279701233, -0.8737143278121948, -0.895263671875, 0.124755859375, -0.22607421875, 
153, 3734360177, 0.8813984394073486, -0.026698961853981018, -0.44848549365997314, -0.1459839940071106, 7.872154235839844, 0.846879780292511, 5.777547836303711, 0.9526574015617371, -1.3311461210250854, -0.8974458575248718, -0.897216796875, 0.123291015625, -0.224609375, 
154, 3734368510, 0.8813772201538086, -0.026584669947624207, -0.4485340118408203, -0.14598309993743896, 7.875380039215088, 0.8140078186988831, 5.7915496826171875, 1.150450587272644, -0.9399912357330322, -0.6177385449409485, -0.89453125, 0.1279296875, -0.22607421875, 
155, 3734376843, 0.881361722946167, -0.02648162841796875, -0.4485699534416199, -0.1459852159023285, 7.896137714385986, 0.8273550868034363, 5.784353733062744, 0.9277347922325134, -0.7773407697677612, -0.6008843779563904, -0.896728515625, 0.123779296875, -0.22705078125, 
156, 3734385176, 0.8813357353210449, -0.02640645205974579, -0.4486139118671417, -0.14602085947990417, 7.896667003631592, 0.7866696715354919, 5.818565845489502, 0.5859000086784363, -1.0278607606887817, -0.7547105550765991, -0.894287109375, 0.123779296875, -0.2255859375, 
157, 3734393509, 0.8812984228134155, -0.026345059275627136, -0.44868236780166626, -0.14604637026786804, 7.9021687507629395, 0.8011183738708496, 5.818309307098389, 0.3516193628311157, -1.3796337842941284, -0.6727578043937683, -0.892333984375, 0.123779296875, -0.228271484375, 
158, 3734401842, 0.8812523484230042, -0.026293158531188965, -0.4487614631652832, -0.14609074592590332, 7.9267354011535645, 0.7851288914680481, 5.831204414367676, 0.3128138482570648, -1.6228153705596924, -0.7690929174423218, -0.890380859375, 0.1240234375, -0.227783203125, 
159, 3734410175, 0.8812096118927002, -0.026241213083267212, -0.44883444905281067, -0.146133691072464, 7.958029270172119, 0.7769875526428223, 5.810417175292969, 0.14228707551956177, -1.4789273738861084, -0.8351649045944214, -0.895263671875, 0.123779296875, -0.22705078125, 
160, 3734418508, 0.8811771869659424, -0.026178598403930664, -0.4488934874534607, -0.14615899324417114, 7.972773551940918, 0.7985720038414001, 5.787444114685059, 0.5255016684532166, -1.279751181602478, -0.5684951543807983, -0.893798828125, 0.12451171875, -0.2255859375, 
161, 3734426841, 0.8811421394348145, -0.026091858744621277, -0.4489651918411255, -0.14616543054580688, 7.9549241065979, 0.858864426612854, 5.8342413902282715, 0.958945631980896, -1.4071305990219116, -0.5002588033676147, -0.897216796875, 0.124267578125, -0.2255859375, 
162, 3734435174, 0.8811118006706238, -0.026031002402305603, -0.4490185081958771, -0.1461954414844513, 7.934877395629883, 0.8597216606140137, 5.943976879119873, 0.29338547587394714, -1.154087781906128, -0.7022783160209656, -0.895751953125, 0.122314453125, -0.2236328125, 
163, 3734443507, 0.8810965418815613, -0.025954395532608032, -0.44904088973999023, -0.1462324559688568, 7.94572114944458, 0.7946593761444092, 5.902332782745361, 0.4169996976852417, -0.6468234658241272, -0.8196426630020142, -0.895263671875, 0.122802734375, -0.2255859375, 
164, 3734451840, 0.8811553716659546, -0.025867760181427002, -0.4489104151725769, -0.14629420638084412, 7.931128025054932, 0.8360028862953186, 5.822402000427246, 0.24464155733585358, 1.6416162252426147, -0.9066286683082581, -0.898193359375, 0.121826171875, -0.2275390625, 
165, 3734460173, 0.8812119364738464, -0.025781869888305664, -0.4487818479537964, -0.14636242389678955, 7.887819766998291, 0.901495099067688, 5.7932257652282715, 0.04449192434549332, 1.6547821760177612, -1.067025065422058, -0.894287109375, 0.120361328125, -0.227294921875, 
166, 3734468506, 0.8811842799186707, -0.02575823664665222, -0.44880348443984985, -0.14646705985069275, 7.856868743896484, 0.8236570358276367, 5.8445305824279785, -0.5103763937950134, -0.8485355377197266, -1.2669951915740967, -0.896728515625, 0.123291015625, -0.22900390625, 
167, 3734476839, 0.8811959028244019, -0.025675028562545776, -0.44876110553741455, -0.14654210209846497, 7.895086288452148, 0.7570282816886902, 5.7769293785095215, 0.07474233955144882, 0.323559045791626, -1.2939414978027344, -0.895263671875, 0.122314453125, -0.22509765625, 
168, 3734485172, 0.8812437653541565, -0.025524526834487915, -0.44865840673446655, -0.14659497141838074, 7.916994571685791, 0.7333769798278809, 5.74628210067749, 1.124042272567749, 1.3617167472839355, -1.2266913652420044, -0.896240234375, 0.121337890625, -0.2255859375, 
169, 3734493505, 0.8812531232833862, -0.025456637144088745, -0.44862544536590576, -0.14665037393569946, 7.888355255126953, 0.7656117081642151, 5.757695198059082, 0.07995482534170151, 0.16256073117256165, -0.9319482445716858, -0.896728515625, 0.121826171875, -0.22607421875, 
170, 3734501838, 0.8812125325202942, -0.025459274649620056, -0.4486809968948364, -0.14672422409057617, 7.8849639892578125, 0.8131663203239441, 5.723304271697998, -0.5739125609397888, -1.4015085697174072, -0.770271360874176, -0.892822265625, 0.120849609375, -0.224853515625, 
171, 3734510171, 0.8811579942703247, -0.025430381298065186, -0.4487690329551697, -0.14678716659545898, 7.881505966186523, 0.7981494665145874, 5.793781280517578, -0.22513629496097565, -1.77505362033844, -0.9581644535064697, -0.898681640625, 0.119873046875, -0.2265625, 
172, 3734518504, 0.8811206817626953, -0.025392264127731323, -0.4488246440887451, -0.1468481421470642, 7.92359733581543, 0.7964905500411987, 5.81412410736084, 0.0014343969523906708, -1.3048274517059326, -0.859370231628418, -0.894775390625, 0.119873046875, -0.227294921875, 
173, 3734526837, 0.881101131439209, -0.025362282991409302, -0.4488450884819031, -0.14690807461738586, 7.948761463165283, 0.8222550749778748, 5.817442893981934, -0.31534966826438904, -0.7380357980728149, -0.8353185653686523, -0.897216796875, 0.119873046875, -0.2255859375, 
174, 3734535170, 0.8810896873474121, -0.025366485118865967, -0.4488413631916046, -0.1469879150390625, 7.940585136413574, 0.8408384323120117, 5.797508239746094, -0.7391627430915833, -0.5056377649307251, -0.7529944181442261, -0.896240234375, 0.121337890625, -0.2265625, 
175, 3734543503, 0.8811004757881165, -0.02537718415260315, -0.44879502058029175, -0.14706265926361084, 7.946478843688965, 0.8446008563041687, 5.829002380371094, -1.0310752391815186, 0.18110543489456177, -0.6818509101867676, -0.895751953125, 0.118408203125, -0.227294921875, 
176, 3734551836, 0.8811318278312683, -0.02537776529788971, -0.44871270656585693, -0.14712604880332947, 7.929055213928223, 0.8472117185592651, 5.804239273071289, -0.7387786507606506, 0.7130235433578491, -0.46406593918800354, -0.891845703125, 0.125, -0.226806640625, 
177, 3734560169, 0.8811755776405334, -0.02535882592201233, -0.44861167669296265, -0.14717459678649902, 7.9615583419799805, 0.8023770451545715, 5.823093414306641, -0.6528427600860596, 1.0926519632339478, -0.4963398873806, -0.896728515625, 0.123291015625, -0.22802734375, 
178, 3734568502, 0.8812159895896912, -0.025343939661979675, -0.44851154088974, -0.1472407579421997, 7.9344482421875, 0.7986077666282654, 5.79540491104126, -0.6003977060317993, 1.0154379606246948, -0.5670479536056519, -0.896240234375, 0.120361328125, -0.22705078125, 
179, 3734576835, 0.8812559843063354, -0.025316283106803894, -0.44842278957366943, -0.14727655053138733, 7.908025741577148, 0.7970770597457886, 5.817385673522949, -0.37675976753234863, 0.9429495930671692, -0.3572417199611664, -0.894775390625, 0.118896484375, -0.225830078125, 
180, 3734585168, 0.8812972903251648, -0.02523772418498993, -0.44834914803504944, -0.14726737141609192, 7.887260913848877, 0.8060181140899658, 5.789554119110107, 0.6891637444496155, 0.8025323748588562, -0.05450708419084549, -0.897216796875, 0.120361328125, -0.22509765625, 
181, 3734593501, 0.881324291229248, -0.025102883577346802, -0.4483304023742676, -0.1471855640411377, 7.879324436187744, 0.7976740002632141, 5.758971214294434, 1.7990797758102417, 0.19142797589302063, 0.3677307665348053, -0.898193359375, 0.1201171875, -0.22900390625, 
182, 3734601834, 0.881334662437439, -0.024980589747428894, -0.44834980368614197, -0.14708548784255981, 7.916114330291748, 0.8399769067764282, 5.756937503814697, 1.9572348594665527, -0.4574317932128906, 0.6823887825012207, -0.893798828125, 0.119384765625, -0.230224609375, 
183, 3734610167, 0.881329357624054, -0.024910643696784973, -0.4483952522277832, -0.1469898819923401, 7.860509395599365, 0.8615885376930237, 5.806828022003174, 1.125515103340149, -0.9327294826507568, 0.7801327705383301, -0.896728515625, 0.120361328125, -0.2265625, 
184, 3734618500, 0.8813319206237793, -0.024870648980140686, -0.44841665029525757, -0.1469159722328186, 7.860938549041748, 0.87772536277771, 5.825411319732666, 0.8009955286979675, -0.686435878276825, 0.8562966585159302, -0.894775390625, 0.121826171875, -0.2275390625, 
185, 3734626833, 0.8813650608062744, -0.024798497557640076, -0.4483852684497833, -0.14682525396347046, 7.833965301513672, 0.8811514973640442, 5.828486919403076, 1.0110195875167847, 0.24615278840065002, 0.8340506553649902, -0.895751953125, 0.121826171875, -0.228515625, 
186, 3734635166, 0.8814395666122437, -0.024704918265342712, -0.44827234745025635, -0.146738201379776, 7.83882474899292, 0.8505537509918213, 5.803872585296631, 1.2846819162368774, 1.489032506942749, 0.8760581016540527, -0.893310546875, 0.121826171875, -0.226806640625, 
187, 3734643499, 0.8815158605575562, -0.024602636694908142, -0.44815564155578613, -0.14665371179580688, 7.835603713989258, 0.8082701563835144, 5.766435623168945, 1.2042019367218018, 1.6102644205093384, 0.7056465744972229, -0.892333984375, 0.124755859375, -0.230712890625, 
188, 3734651832, 0.8815537691116333, -0.02452637255191803, -0.44810378551483154, -0.14659762382507324, 7.811648368835449, 0.8073914647102356, 5.765785217285156, 0.9946263432502747, 0.4981968402862549, 0.5144619345664978, -0.893310546875, 0.120849609375, -0.229248046875, 
189, 3734660165, 0.8815510272979736, -0.02445937693119049, -0.44812875986099243, -0.14654827117919922, 7.832184314727783, 0.8078992962837219, 5.799396514892578, 0.8213716745376587, -0.653303861618042, 0.2888004779815674, -0.894287109375, 0.118408203125, -0.227783203125, 
190, 3734668498, 0.8815274238586426, -0.02441367506980896, -0.4481894373893738, -0.14651241898536682, 7.841684341430664, 0.8314110040664673, 5.829775333404541, 0.705889880657196, -1.2998710870742798, 0.2955242395401001, -0.897216796875, 0.121826171875, -0.22802734375, 
191, 3734676831, 0.8815014362335205, -0.0243721604347229, -0.44825491309165955, -0.1464758813381195, 7.862168788909912, 0.8058822154998779, 5.854043960571289, 0.5177277326583862, -1.3326318264007568, 0.23999257385730743, -0.892822265625, 0.120361328125, -0.227783203125, 
192, 3734685164, 0.8814814686775208, -0.024342194199562073, -0.4483051002025604, -0.1464468538761139, 7.896387100219727, 0.7905532121658325, 5.873613357543945, 0.45236024260520935, -1.1805857419967651, 0.3194991648197174, -0.893798828125, 0.118896484375, -0.227783203125, 
193, 3734693497, 0.8814802169799805, -0.024310573935508728, -0.4483264684677124, -0.146394282579422, 7.929591655731201, 0.7843238711357117, 5.876654148101807, 0.4251578450202942, -0.6697610020637512, 0.5673937201499939, -0.894287109375, 0.119873046875, -0.227294921875, 
194, 3734701830, 0.8814979791641235, -0.024269208312034607, -0.44830602407455444, -0.14635643362998962, 7.938876152038574, 0.7883076667785645, 5.866096496582031, 0.5156913995742798, -0.07070810347795486, 0.45644569396972656, -0.896240234375, 0.122314453125, -0.22900390625, 
195, 3734710163, 0.8815346360206604, -0.024218037724494934, -0.4482489824295044, -0.14631935954093933, 7.940549850463867, 0.7954176068305969, 5.868456840515137, 0.4051916003227234, 0.5560851097106934, 0.3477388918399811, -0.895263671875, 0.121337890625, -0.2265625, 
196, 3734718496, 0.8815786242485046, -0.02421414852142334, -0.4481619596481323, -0.14632195234298706, 7.939698696136475, 0.7937009334564209, 5.872756004333496, -0.31349262595176697, 0.8354722857475281, 0.27139562368392944, -0.894775390625, 0.122314453125, -0.22998046875, 
197, 3734726829, 0.8816279172897339, -0.024253055453300476, -0.44805335998535156, -0.14635109901428223, 7.947674751281738, 0.7941012978553772, 5.897733211517334, -1.0376967191696167, 1.052181601524353, 0.23129653930664062, -0.895751953125, 0.121337890625, -0.23095703125, 
198, 3734735162, 0.8816671371459961, -0.024359658360481262, -0.44795793294906616, -0.14638930559158325, 7.919308185577393, 0.759075939655304, 5.986649036407471, -2.0631625652313232, 0.7442471981048584, 0.41359302401542664, -0.895751953125, 0.123779296875, -0.2275390625, 
199, 3734743495, 0.8817304968833923, -0.024460196495056152, -0.4478277862071991, -0.14638856053352356, 7.942768573760986, 0.7807587385177612, 5.989692687988281, -1.7957113981246948, 1.3143048286437988, 0.916976809501648, -0.894287109375, 0.118408203125, -0.228759765625, 
200, 3734751828, 0.8818696737289429, -0.024358734488487244, -0.4475928544998169, -0.14628538489341736, 7.9089436531066895, 0.813244640827179, 5.811352252960205, 1.2552639245986938, 3.375251531600952, 1.1948144435882568, -0.896728515625, 0.120361328125, -0.22705078125, 
201, 3734760161, 0.8820133209228516, -0.02416512370109558, -0.4473510980606079, -0.14619046449661255, 7.769062519073486, 0.8014407157897949, 5.783537864685059, 2.1677968502044678, 3.7253475189208984, 0.45866134762763977, -0.894287109375, 0.11962890625, -0.231201171875, 
202, 3734768494, 0.8820136189460754, -0.024167358875274658, -0.44734373688697815, -0.14621111750602722, 7.7307353019714355, 0.7152699828147888, 5.856297016143799, -0.3533611595630646, -0.4070485830307007, -0.02311684750020504, -0.894287109375, 0.121826171875, -0.229736328125, 
203, 3734776827, 0.881924569606781, -0.02431681752204895, -0.4474988579750061, -0.14624962210655212, 7.893617153167725, 0.697980523109436, 5.786871910095215, -2.1101391315460205, -3.1682631969451904, 0.3384408950805664, -0.893310546875, 0.120361328125, -0.230712890625, 
204, 3734785160, 0.8819273710250854, -0.024513140320777893, -0.44746580719947815, -0.14630132913589478, 7.977559566497803, 0.8523679971694946, 5.7921319007873535, -2.948467254638672, -0.45820021629333496, 0.8075911998748779, -0.895751953125, 0.125244140625, -0.23046875, 
205, 3734793493, 0.8820021748542786, -0.024720221757888794, -0.44730061292648315, -0.14632004499435425, 7.873981475830078, 0.9410548806190491, 5.860857963562012, -3.3232035636901855, 1.595638632774353, 1.333605170249939, -0.895751953125, 0.120361328125, -0.22900390625, 
206, 3734801826, 0.8821126818656921, -0.02492941915988922, -0.44704997539520264, -0.14638444781303406, 7.7879743576049805, 0.8716777563095093, 5.85097074508667, -3.583022117614746, 2.8218820095062256, 1.022866129875183, -0.894287109375, 0.121826171875, -0.231689453125, 
207, 3734810159, 0.8821914792060852, -0.02516038715839386, -0.4468620717525482, -0.146444171667099, 7.815509796142578, 0.7893227934837341, 5.886100769042969, -3.886320114135742, 1.8655743598937988, 1.018306851387024, -0.891845703125, 0.122802734375, -0.231201171875, 
208, 3734818492, 0.8822292685508728, -0.025360196828842163, -0.44676634669303894, -0.14647439122200012, 7.842135906219482, 0.773483157157898, 5.798603057861328, -2.973876476287842, 0.501706063747406, 1.1808418035507202, -0.894287109375, 0.121826171875, -0.230224609375, 
209, 3734826825, 0.8822504281997681, -0.025422275066375732, -0.44673776626586914, -0.1464228630065918, 7.8165693283081055, 0.8103384375572205, 5.792708396911621, -0.8166458010673523, -0.11625019460916519, 1.1836081743240356, -0.89404296875, 0.12841796875, -0.22900390625, 
210, 3734835158, 0.8822163343429565, -0.02546072006225586, -0.44681021571159363, -0.1464005410671234, 7.788934707641602, 0.8221434354782104, 5.86209774017334, -0.37959015369415283, -1.6727503538131714, 0.6210682988166809, -0.894287109375, 0.123291015625, -0.23095703125, 
211, 3734843491, 0.8821268081665039, -0.025488466024398804, -0.4469905495643616, -0.1463845670223236, 7.830898284912109, 0.7580413222312927, 5.809657573699951, -0.2713700234889984, -3.2531230449676514, 0.220615416765213, -0.893798828125, 0.124267578125, -0.23046875, 
212, 3734851824, 0.882043719291687, -0.025478750467300415, -0.44715607166290283, -0.1463814675807953, 7.908329486846924, 0.7641355991363525, 5.825235843658447, 0.2571413218975067, -2.9988763332366943, -0.03692292422056198, -0.893310546875, 0.126220703125, -0.22998046875, 
213, 3734860157, 0.8819966912269592, -0.025422751903533936, -0.4472593069076538, -0.1463591754436493, 7.916550159454346, 0.8062313795089722, 5.839963436126709, 0.64967942237854, -1.8900871276855469, -0.10185500234365463, -0.895263671875, 0.122314453125, -0.23046875, 
214, 3734868490, 0.881995677947998, -0.025383993983268738, -0.44726234674453735, -0.14636242389678955, 7.9263434410095215, 0.8446003198623657, 5.845817565917969, 0.2726891338825226, -0.46273401379585266, -0.06947861611843109, -0.894775390625, 0.121826171875, -0.23046875, 
215, 3734876823, 0.8820226192474365, -0.025355607271194458, -0.44720888137817383, -0.14636895060539246, 7.91467809677124, 0.8317468762397766, 5.839731216430664, -0.126521497964859, 0.422148197889328, -0.05895115062594414, -0.895263671875, 0.122802734375, -0.2314453125, 
216, 3734885156, 0.8820306062698364, -0.025356903672218323, -0.44718116521835327, -0.14640498161315918, 7.898841381072998, 0.8355306386947632, 5.856448173522949, -0.4738121032714844, -0.1038144901394844, -0.1940022110939026, -0.893798828125, 0.11962890625, -0.230712890625, 
217, 3734893489, 0.8820125460624695, -0.025381013751029968, -0.44721049070358276, -0.1464204490184784, 7.886131763458252, 0.8371827006340027, 5.845818996429443, -0.6770610213279724, -0.9622755646705627, 0.028854437172412872, -0.892822265625, 0.122802734375, -0.231201171875, 
218, 3734901822, 0.8819929361343384, -0.025421902537345886, -0.44723379611968994, -0.14645996689796448, 7.912653923034668, 0.8220047354698181, 5.85019588470459, -0.8826024532318115, -0.9699981808662415, -0.0633055791258812, -0.892822265625, 0.122314453125, -0.228759765625, 
219, 3734910155, 0.8820037841796875, -0.02544984221458435, -0.447197288274765, -0.14650073647499084, 7.905243396759033, 0.816446840763092, 5.877655029296875, -1.0006585121154785, 0.014881869778037071, -0.17477872967720032, -0.895263671875, 0.119873046875, -0.229736328125, 
220, 3734918488, 0.8820399641990662, -0.025469914078712463, -0.44710856676101685, -0.1465502381324768, 7.917803764343262, 0.8020559549331665, 5.847750186920166, -0.8988931179046631, 0.7771614193916321, -0.16396953165531158, -0.893798828125, 0.122802734375, -0.231689453125, 
221, 3734926821, 0.8821077346801758, -0.02545522153377533, -0.4469655156135559, -0.14658141136169434, 7.888059139251709, 0.7846431136131287, 5.807272911071777, -0.6007178425788879, 1.7426902055740356, -0.15218698978424072, -0.894775390625, 0.121826171875, -0.2294921875, 
222, 3734935154, 0.8821945190429688, -0.02542269229888916, -0.4467826783657074, -0.14662215113639832, 7.882534980773926, 0.7850209474563599, 5.777091979980469, -0.3777715563774109, 2.3325090408325195, -0.2457045316696167, -0.892822265625, 0.121337890625, -0.232666015625, 
223, 3734943487, 0.8822636604309082, -0.025417983531951904, -0.44663357734680176, -0.14666149020195007, 7.863369464874268, 0.7877850532531738, 5.740592002868652, -0.7979986667633057, 1.8054192066192627, -0.19765223562717438, -0.8896484375, 0.12841796875, -0.228271484375, 
224, 3734951820, 0.8823021650314331, -0.025473877787590027, -0.44653043150901794, -0.14673441648483276, 7.841835975646973, 0.7852511405944824, 5.724802017211914, -1.505143642425537, 0.9013264775276184, -0.21946275234222412, -0.894775390625, 0.121337890625, -0.229736328125, 
225, 3734960153, 0.882313072681427, -0.02552632987499237, -0.446487694978714, -0.1467895209789276, 7.828221321105957, 0.7786298990249634, 5.749319076538086, -1.3586175441741943, 0.05240672826766968, -0.16507093608379364, -0.893798828125, 0.120849609375, -0.232177734375, 
226, 3734968486, 0.8823073506355286, -0.025575056672096252, -0.4464799761772156, -0.14683905243873596, 7.820603847503662, 0.7942874431610107, 5.804059982299805, -1.0969936847686768, -0.5209551453590393, -0.10008762776851654, -0.890869140625, 0.121826171875, -0.233642578125, 
227, 3734976819, 0.8822946548461914, -0.02562311291694641, -0.446493536233902, -0.14686554670333862, 7.844301223754883, 0.814494252204895, 5.830239295959473, -1.0643354654312134, -0.7815287113189697, 0.05704290047287941, -0.892333984375, 0.122802734375, -0.229736328125, 
228, 3734985152, 0.88226717710495, -0.025671616196632385, -0.44652605056762695, -0.14692336320877075, 7.846354007720947, 0.8323405981063843, 5.850803852081299, -1.0721222162246704, -1.1404609680175781, -0.26166221499443054, -0.894287109375, 0.1201171875, -0.231201171875, 
229, 3734993485, 0.8822276592254639, -0.02573457360267639, -0.44657525420188904, -0.1469995081424713, 7.851286888122559, 0.8302208781242371, 5.88297176361084, -1.4848315715789795, -1.3907248973846436, -0.5214802026748657, -0.892333984375, 0.123779296875, -0.231689453125, 
230, 3735001818, 0.8821917772293091, -0.025804191827774048, -0.44661447405815125, -0.14708369970321655, 7.9059953689575195, 0.8421399593353271, 5.914231777191162, -1.4788633584976196, -1.3047122955322266, -0.47053349018096924, -0.89501953125, 0.126708984375, -0.228515625, 
231, 3735010151, 0.8821856379508972, -0.025856509804725647, -0.4465981125831604, -0.14716070890426636, 7.92587423324585, 0.8114578723907471, 5.887824058532715, -1.5541307926177979, -0.37710556387901306, -0.557634711265564, -0.893798828125, 0.119873046875, -0.228759765625, 
232, 3735018484, 0.8822275400161743, -0.025873154401779175, -0.4464895725250244, -0.14723622798919678, 7.9128899574279785, 0.8023057579994202, 5.839688301086426, -1.0535775423049927, 1.0689588785171509, -0.479331910610199, -0.896240234375, 0.1220703125, -0.232421875, 
233, 3735026817, 0.8822896480560303, -0.025831490755081177, -0.446359246969223, -0.14726638793945312, 7.902439594268799, 0.823857307434082, 5.847184658050537, -0.26103463768959045, 1.6065375804901123, -0.33764684200286865, -0.894775390625, 0.12060546875, -0.232666015625, 
234, 3735035150, 0.8823251724243164, -0.02584756910800934, -0.4462634027004242, -0.14734143018722534, 7.8470048904418945, 0.8065474033355713, 5.938898086547852, -1.0207784175872803, 0.8770185708999634, -0.4946877062320709, -0.893310546875, 0.123291015625, -0.230224609375, 
235, 3735043483, 0.8823683857917786, -0.025846123695373535, -0.44616109132766724, -0.14739269018173218, 7.867340564727783, 0.7427870035171509, 5.894679546356201, -0.8237537741661072, 1.0757594108581543, -0.3895668685436249, -0.894775390625, 0.119873046875, -0.230224609375, 
236, 3735051816, 0.8824630975723267, -0.025797680020332336, -0.4459635615348816, -0.14743229746818542, 7.859194278717041, 0.75968998670578, 5.818349361419678, -0.20639951527118683, 2.5915842056274414, -0.3064999282360077, -0.894287109375, 0.125244140625, -0.228515625, 
237, 3735060149, 0.8825340867042542, -0.025783494114875793, -0.4458012282848358, -0.14750081300735474, 7.777591228485107, 0.8277633786201477, 5.793493747711182, -0.737062394618988, 1.9585411548614502, -0.508327305316925, -0.892822265625, 0.122314453125, -0.232177734375, 
238, 3735068482, 0.8824712634086609, -0.025833457708358765, -0.44589459896087646, -0.14758533239364624, 7.756504058837891, 0.7891430854797363, 5.878408908843994, -1.2641010284423828, -2.036754608154297, -0.7424670457839966, -0.891845703125, 0.121826171875, -0.233154296875, 
239, 3735076815, 0.8823935389518738, -0.025893568992614746, -0.44601911306381226, -0.1476638913154602, 7.843914985656738, 0.7459786534309387, 5.857667446136475, -1.3289432525634766, -2.5339651107788086, -0.6765231490135193, -0.895263671875, 0.121337890625, -0.23095703125, 
240, 3735085148, 0.8823942542076111, -0.025867938995361328, -0.4460069239139557, -0.14770081639289856, 7.899906635284424, 0.740319550037384, 5.840654373168945, -0.12466447800397873, -0.28060394525527954, -0.3917953073978424, -0.894775390625, 0.120361328125, -0.229736328125, 
241, 3735093481, 0.8823995590209961, -0.025897502899169922, -0.4459846615791321, -0.14773085713386536, 7.851775646209717, 0.7687088847160339, 5.895480632781982, -0.8891213536262512, -0.1953854113817215, -0.0231808852404356, -0.891845703125, 0.123779296875, -0.230224609375, 
242, 3735101814, 0.8823776245117188, -0.02600209414958954, -0.44600507616996765, -0.14778190851211548, 7.855175495147705, 0.776158332824707, 5.869350910186768, -1.7319962978363037, -1.0746839046478271, 0.18055476248264313, -0.893310546875, 0.121337890625, -0.233154296875, 
243, 3735110147, 0.8823611736297607, -0.026037871837615967, -0.4460284113883972, -0.14780285954475403, 7.885279655456543, 0.7379659414291382, 5.881539344787598, -0.894205629825592, -0.9029401540756226, 0.010040780529379845, -0.891357421875, 0.120361328125, -0.230712890625, 
244, 3735118480, 0.882382333278656, -0.02603982388973236, -0.44598281383514404, -0.14781403541564941, 7.901717185974121, 0.7136462926864624, 5.924134731292725, -0.36099424958229065, 0.18306496739387512, 0.14559131860733032, -0.892822265625, 0.11962890625, -0.231689453125, 
245, 3735126813, 0.8824283480644226, -0.026045143604278564, -0.44590234756469727, -0.14778098464012146, 7.915894031524658, 0.7039399147033691, 5.901925086975098, -0.3338431119918823, 0.7862801551818848, 0.6771634817123413, -0.892333984375, 0.11865234375, -0.231689453125, 
246, 3735135146, 0.8824959993362427, -0.026096820831298828, -0.44577258825302124, -0.1477593183517456, 7.906571388244629, 0.7539931535720825, 5.872906684875488, -0.9179502129554749, 1.3775335550308228, 0.9729824662208557, -0.892822265625, 0.11962890625, -0.231689453125, 
247, 3735143479, 0.8825539946556091, -0.026145383715629578, -0.44566965103149414, -0.14771604537963867, 7.8495306968688965, 0.7797117233276367, 5.835568904876709, -0.8292223215103149, 1.0411416292190552, 1.1037685871124268, -0.890869140625, 0.119873046875, -0.231689453125, 
248, 3735151812, 0.8826026320457458, -0.02617378532886505, -0.44559377431869507, -0.14764860272407532, 7.8046159744262695, 0.7519068717956543, 5.870345592498779, -0.25173670053482056, 0.638063371181488, 1.329980731010437, -0.89208984375, 0.13037109375, -0.23193359375, 
249, 3735160145, 0.8826554417610168, -0.026179447770118713, -0.4455234408378601, -0.14754381775856018, 7.827642440795898, 0.725858747959137, 5.849786281585693, 0.10427554696798325, 0.6761389374732971, 1.5433343648910522, -0.892333984375, 0.119873046875, -0.230712890625, 
250, 3735168478, 0.882718563079834, -0.02621239423751831, -0.4454367756843567, -0.14742207527160645, 7.82499885559082, 0.7459031939506531, 5.821805000305176, 0.009707795456051826, 0.8280825614929199, 2.050086498260498, -0.893310546875, 0.122314453125, -0.233154296875, 
251, 3735176811, 0.8827707767486572, -0.026266440749168396, -0.445377379655838, -0.147279292345047, 7.799989700317383, 0.7972393035888672, 5.827702522277832, -0.06740386039018631, 0.38075563311576843, 2.3998491764068604, -0.889892578125, 0.122314453125, -0.232666015625, 
252, 3735185144, 0.8828125, -0.026338845491409302, -0.44535204768180847, -0.14709237217903137, 7.831502914428711, 0.8289490342140198, 5.79965877532959, -0.08100501447916031, -0.09862760454416275, 2.9376964569091797, -0.891845703125, 0.122802734375, -0.232666015625, 
253, 3735193477, 0.8828467726707458, -0.026424571871757507, -0.4453486502170563, -0.14688178896903992, 7.867578029632568, 0.8453009724617004, 5.764430522918701, -0.0729365348815918, -0.4475959241390228, 3.268145799636841, -0.891845703125, 0.125244140625, -0.236083984375, 
254, 3735201810, 0.8828749656677246, -0.02653421461582184, -0.4453522861003876, -0.1466812789440155, 7.913611888885498, 0.8573079109191895, 5.778099060058594, -0.27090898156166077, -0.6649839878082275, 3.3707311153411865, -0.895263671875, 0.121826171875, -0.23193359375, 
255, 3735210143, 0.8829010128974915, -0.026650696992874146, -0.44536346197128296, -0.14646977186203003, 7.950608253479004, 0.8197976350784302, 5.836930274963379, -0.4282572269439697, -0.7391884922981262, 3.4360475540161133, -0.889892578125, 0.123779296875, -0.233642578125, 
256, 3735218476, 0.8829440474510193, -0.02674032747745514, -0.44533830881118774, -0.14626985788345337, 7.947673320770264, 0.7870445251464844, 5.876412391662598, -0.08334872871637344, -0.18508848547935486, 3.282349109649658, -0.89306640625, 0.1279296875, -0.23046875, 
257, 3735226809, 0.8830415606498718, -0.02673955261707306, -0.4452187120914459, -0.14604493975639343, 7.951748371124268, 0.7256532311439514, 5.873653411865234, 0.84090256690979, 1.5188089609146118, 3.0730042457580566, -0.892333984375, 0.123291015625, -0.232177734375, 
258, 3735235142, 0.8831796050071716, -0.02664990723133087, -0.44502899050712585, -0.14580479264259338, 7.946290016174316, 0.7075966596603394, 5.8921918869018555, 2.043593406677246, 2.74206805229187, 2.9237499237060547, -0.893310546875, 0.125732421875, -0.234375, 
259, 3735243475, 0.8833349943161011, -0.02653634548187256, -0.4448014497756958, -0.1455787718296051, 7.884526252746582, 0.7269505262374878, 5.861578464508057, 2.0300307273864746, 3.410996675491333, 2.557274341583252, -0.89111328125, 0.1318359375, -0.23388671875, 
260, 3735251808, 0.8834730982780457, -0.02643340826034546, -0.4445965886116028, -0.14538532495498657, 7.854673862457275, 0.7501248121261597, 5.848265647888184, 1.8893314599990845, 2.968177318572998, 2.280409812927246, -0.892333984375, 0.124755859375, -0.234619140625, 
261, 3735260141, 0.8835551738739014, -0.026358649134635925, -0.4444935619831085, -0.14521470665931702, 7.82331657409668, 0.7839870452880859, 5.888887405395508, 1.4612153768539429, 1.3946951627731323, 1.942173957824707, -0.890625, 0.127197265625, -0.235107421875, 
262, 3735268474, 0.8835785388946533, -0.026328757405281067, -0.444491446018219, -0.14508506655693054, 7.793951034545898, 0.7995568513870239, 5.937993049621582, 0.9749545454978943, -0.31891000270843506, 1.6498639583587646, -0.892822265625, 0.125244140625, -0.232421875, 
263, 3735276807, 0.8835878968238831, -0.026321381330490112, -0.44450730085372925, -0.14497950673103333, 7.85973596572876, 0.7723278999328613, 5.966951847076416, 0.45496001839637756, -0.6063529253005981, 1.3743829727172852, -0.8916015625, 0.126708984375, -0.234375, 
264, 3735285140, 0.8836349844932556, -0.0263003408908844, -0.4444384276866913, -0.14490798115730286, 7.907761096954346, 0.7413850426673889, 5.9104228019714355, 0.38872161507606506, 0.6412523984909058, 1.0693943500518799, -0.890380859375, 0.125732421875, -0.235595703125, 
265, 3735293473, 0.8837409019470215, -0.02623613178730011, -0.4442550837993622, -0.14483612775802612, 7.939597129821777, 0.71672523021698, 5.898190975189209, 0.7069528102874756, 2.4791247844696045, 0.9677057862281799, -0.892333984375, 0.124267578125, -0.234619140625, 
266, 3735301806, 0.883868932723999, -0.026139408349990845, -0.4440315365791321, -0.14475786685943604, 7.881221294403076, 0.7272305488586426, 5.899864196777344, 0.9500320553779602, 3.2154579162597656, 0.8281851410865784, -0.888671875, 0.13330078125, -0.2353515625, 
267, 3735310139, 0.8840041160583496, -0.026036471128463745, -0.44379809498786926, -0.1446666717529297, 7.821441650390625, 0.751171350479126, 5.878407001495361, 1.0069211721420288, 3.380618095397949, 0.9021334052085876, -0.8896484375, 0.128662109375, -0.234619140625, 
268, 3735318472, 0.884127676486969, -0.025928109884262085, -0.4435843825340271, -0.1445865035057068, 7.793654918670654, 0.6833045482635498, 5.887324333190918, 1.2410097122192383, 3.0396158695220947, 0.8462687730789185, -0.89013671875, 0.130126953125, -0.2373046875, 
269, 3735326805, 0.8842178583145142, -0.025805771350860596, -0.44344404339790344, -0.14448755979537964, 7.769805431365967, 0.652074933052063, 5.917296409606934, 1.4928488731384277, 2.0133044719696045, 0.7796717286109924, -0.891357421875, 0.124755859375, -0.236572265625, 
270, 3735335138, 0.8842645287513733, -0.025707930326461792, -0.4433860778808594, -0.14439702033996582, 7.730876445770264, 0.6409346461296082, 5.950819969177246, 1.4586411714553833, 0.6524586081504822, 0.8265842199325562, -0.89013671875, 0.127685546875, -0.237060546875, 
271, 3735343471, 0.8842774629592896, -0.025627687573432922, -0.44339272379875183, -0.14431092143058777, 7.722038269042969, 0.6918871402740479, 5.964727401733398, 1.18378746509552, -0.32203495502471924, 0.6882801651954651, -0.888916015625, 0.124755859375, -0.237548828125, 
272, 3735351804, 0.8842896819114685, -0.025568723678588867, -0.44339612126350403, -0.14423656463623047, 7.753538608551025, 0.7393965125083923, 5.972223281860352, 0.9970213174819946, -0.3771439790725708, 0.7771487236022949, -0.88916015625, 0.1328125, -0.23779296875, 
273, 3735360137, 0.8842684626579285, -0.02558945119380951, -0.4434499740600586, -0.1441975235939026, 7.734833240509033, 0.7504475116729736, 6.118133544921875, -0.09915269911289215, -1.3375753164291382, 0.7516881823539734, -0.89013671875, 0.126708984375, -0.236083984375, 
274, 3735368470, 0.8842615485191345, -0.025654077529907227, -0.44348347187042236, -0.1441258192062378, 7.754153728485107, 0.800841748714447, 6.080286979675293, -0.6741026639938354, -1.058264970779419, 1.3030474185943604, -0.89208984375, 0.128173828125, -0.23779296875, 
275, 3735376803, 0.8843316435813904, -0.025504961609840393, -0.443418025970459, -0.14392349123954773, 7.768741607666016, 0.8658754825592041, 5.881230354309082, 2.6282763481140137, 0.9990318417549133, 1.8336719274520874, -0.889892578125, 0.126220703125, -0.238037109375, 
276, 3735385136, 0.8844177722930908, -0.025230616331100464, -0.4433213472366333, -0.14374107122421265, 7.69091796875, 0.8464502692222595, 5.812981605529785, 4.101787090301514, 1.679243803024292, 0.9584078788757324, -0.89208984375, 0.1259765625, -0.24072265625, 
277, 3735393469, 0.8843440413475037, -0.025178074836730957, -0.4434890151023865, -0.1436856985092163, 7.733922004699707, 0.729715883731842, 5.892680644989014, 0.9281318187713623, -2.857229471206665, 0.23949308693408966, -0.887939453125, 0.13525390625, -0.240234375, 
278, 3735401802, 0.8841872215270996, -0.025291025638580322, -0.4437851011753082, -0.14371663331985474, 7.873188495635986, 0.6910306215286255, 5.807486057281494, -1.2153314352035522, -5.268451690673828, 0.11175491660833359, -0.89111328125, 0.128173828125, -0.23974609375, 
279, 3735410135, 0.8841572403907776, -0.025379955768585205, -0.4438402056694031, -0.1437148153781891, 7.962342262268066, 0.7921074628829956, 5.824039936065674, -1.323346734046936, -1.4820268154144287, 0.5783438086509705, -0.8896484375, 0.128662109375, -0.237548828125, 
280, 3735418468, 0.8842225670814514, -0.025491654872894287, -0.4437069892883301, -0.14370492100715637, 7.87267541885376, 0.9290534257888794, 5.924890518188477, -1.7219042778015137, 1.2948251962661743, 1.188295602798462, -0.89111328125, 0.128173828125, -0.23583984375, 
281, 3735426801, 0.8843457698822021, -0.025560468435287476, -0.4434577524662018, -0.14370378851890564, 7.786215305328369, 0.9145829677581787, 5.8872904777526855, -1.6433452367782593, 3.1914310455322266, 0.8486251831054688, -0.891845703125, 0.125732421875, -0.238037109375, 
282, 3735435134, 0.8844270706176758, -0.025615394115447998, -0.4432871639728546, -0.14371979236602783, 7.73471212387085, 0.7947628498077393, 5.92921257019043, -1.2574284076690674, 1.9689536094665527, 0.5702625513076782, -0.890625, 0.131591796875, -0.2373046875, 
283, 3735443467, 0.8844395279884338, -0.025672391057014465, -0.44326603412628174, -0.14369842410087585, 7.7307281494140625, 0.7764911651611328, 5.876983165740967, -0.95584636926651, -0.24102993309497833, 0.7294549942016602, -0.887939453125, 0.125732421875, -0.237548828125, 
284, 3735451800, 0.8844001293182373, -0.02562357485294342, -0.44336622953414917, -0.1436404585838318, 7.71806001663208, 0.7815296649932861, 5.871301174163818, 0.9462026357650757, -1.8810068368911743, 0.5039985179901123, -0.8896484375, 0.134765625, -0.23828125, 
285, 3735460133, 0.8842841982841492, -0.025531217455863953, -0.4436188340187073, -0.14359065890312195, 7.745864391326904, 0.7785370349884033, 5.979116916656494, 1.5523381233215332, -4.065901756286621, -0.16946378350257874, -0.890625, 0.130859375, -0.23583984375, 
286, 3735468466, 0.8841229677200317, -0.02548392117023468, -0.44394221901893616, -0.14359202980995178, 7.852279186248779, 0.7237503528594971, 5.9225592613220215, 0.9636076092720032, -5.319346904754639, -0.5266926884651184, -0.890380859375, 0.125732421875, -0.238037109375, 
287, 3735476799, 0.8840001225471497, -0.025391191244125366, -0.4441930651664734, -0.14358994364738464, 7.958511829376221, 0.7284519076347351, 5.907368183135986, 1.3079909086227417, -4.064300537109375, -0.7279694080352783, -0.88818359375, 0.128173828125, -0.237060546875, 
288, 3735485132, 0.883959174156189, -0.02528354525566101, -0.44428861141204834, -0.14356574416160583, 7.972833156585693, 0.7487679123878479, 5.944836616516113, 1.4469099044799805, -1.7061387300491333, -0.2678992748260498, -0.89208984375, 0.127685546875, -0.23486328125, 
289, 3735493465, 0.8839913606643677, -0.02518792450428009, -0.4442485272884369, -0.14350780844688416, 7.94764518737793, 0.7836654782295227, 5.9245781898498535, 1.1179717779159546, 0.4014647305011749, 0.3066408336162567, -0.8916015625, 0.129638671875, -0.2373046875, 
290, 3735501798, 0.8840798139572144, -0.02510799467563629, -0.4440942406654358, -0.14345499873161316, 7.886354446411133, 0.7996759414672852, 5.94393253326416, 0.83577960729599, 2.05540132522583, 0.5916503667831421, -0.889404296875, 0.124267578125, -0.235107421875, 
291, 3735510131, 0.8841643333435059, -0.02502468228340149, -0.44395580887794495, -0.1433764100074768, 7.805257797241211, 0.7899536490440369, 5.949357509613037, 0.9592273831367493, 1.890791416168213, 0.7987799048423767, -0.89208984375, 0.133056640625, -0.23876953125, 
292, 3735518464, 0.8842159509658813, -0.02494901418685913, -0.4438786804676056, -0.1433105170726776, 7.757987976074219, 0.781691312789917, 5.9373459815979, 1.004564642906189, 0.8790549039840698, 0.6775477528572083, -0.88916015625, 0.128662109375, -0.237548828125, 
293, 3735526797, 0.8842439651489258, -0.02484816312789917, -0.44385048747062683, -0.14324256777763367, 7.74363899230957, 0.7618778944015503, 5.915873050689697, 1.2564679384231567, 0.23717501759529114, 0.3773361146450043, -0.8896484375, 0.128173828125, -0.236572265625, 
294, 3735535130, 0.8842678666114807, -0.024755403399467468, -0.4438231289386749, -0.14319562911987305, 7.74380350112915, 0.7496179342269897, 5.944549083709717, 1.1838899850845337, 0.14707693457603455, 0.2704094648361206, -0.88818359375, 0.127197265625, -0.238037109375, 
295, 3735543463, 0.8842906951904297, -0.024672329425811768, -0.4437999129295349, -0.1431410312652588, 7.760276794433594, 0.7565705180168152, 5.921395301818848, 0.9567685127258301, 0.11206227540969849, 0.3027602434158325, -0.888671875, 0.1328125, -0.23828125, 
296, 3735551796, 0.884308934211731, -0.024612605571746826, -0.4437808692455292, -0.14309731125831604, 7.762300491333008, 0.7596964240074158, 5.891239166259766, 0.7776352763175964, -0.05320076271891594, 0.41970202326774597, -0.89111328125, 0.128173828125, -0.23779296875, 
297, 3735560129, 0.8842989206314087, -0.024616852402687073, -0.4438118040561676, -0.14306235313415527, 7.7763776779174805, 0.7614129781723022, 5.848300457000732, 0.033913251012563705, -0.9570631980895996, 0.6301102042198181, -0.89013671875, 0.127685546875, -0.235595703125, 
298, 3735568462, 0.8842487931251526, -0.024688079953193665, -0.44391271471977234, -0.14304691553115845, 7.797427177429199, 0.7538620233535767, 5.797769069671631, -0.9259418845176697, -2.129939079284668, 0.5928927063941956, -0.887939453125, 0.126708984375, -0.237060546875, 
299, 3735576795, 0.8841630816459656, -0.024821370840072632, -0.444070428609848, -0.14306393265724182, 7.852780342102051, 0.7987074255943298, 5.813409328460693, -1.7689062356948853, -3.1498208045959473, 0.49327898025512695, -0.8896484375, 0.128173828125, -0.238037109375, 
300, 3735585128, 0.8840663433074951, -0.02498088777065277, -0.4442440867424011, -0.14309537410736084, 7.895125865936279, 0.7536042928695679, 5.851014614105225, -2.0074899196624756, -3.5040783882141113, 0.5522813200950623, -0.88818359375, 0.129150390625, -0.236572265625, 
301, 3735593461, 0.8839947581291199, -0.025093600153923035, -0.4443800449371338, -0.14309561252593994, 7.905786037445068, 0.7673739790916443, 5.8980584144592285, -1.4561693668365479, -2.7619571685791016, 0.6063017249107361, -0.89013671875, 0.126708984375, -0.237548828125, 
302, 3735601794, 0.88396155834198, -0.02515372633934021, -0.44444096088409424, -0.14310136437416077, 7.884393692016602, 0.7831072211265564, 5.959128379821777, -0.8427467346191406, -1.5595866441726685, 0.42178958654403687, -0.890380859375, 0.13525390625, -0.234375, 
303, 3735610127, 0.8839688897132874, -0.025164499878883362, -0.44442617893218994, -0.14310014247894287, 7.876782417297363, 0.7708332538604736, 5.9597272872924805, -0.5514616370201111, -0.2553355097770691, 0.1517387181520462, -0.89111328125, 0.129638671875, -0.23583984375, 
304, 3735618460, 0.8839938044548035, -0.025151625275611877, -0.44437354803085327, -0.1431119740009308, 7.856961727142334, 0.7690593600273132, 5.963832855224609, -0.19491149485111237, 0.3228418231010437, 0.053866732865571976, -0.89013671875, 0.134765625, -0.23486328125, 
305, 3735626793, 0.8839998245239258, -0.025143206119537354, -0.44435763359069824, -0.14312529563903809, 7.830516815185547, 0.7815987467765808, 5.909041404724121, -0.19388693571090698, -0.2482147365808487, 0.0147281838580966, -0.888916015625, 0.126708984375, -0.236083984375, 
306, 3735635126, 0.8839693069458008, -0.025166049599647522, -0.44441694021224976, -0.1431252360343933, 7.820689678192139, 0.7895308136940002, 5.892275810241699, -0.5140904784202576, -1.4056965112686157, 0.15496611595153809, -0.892578125, 0.129638671875, -0.236328125, 
307, 3735643459, 0.8839198350906372, -0.025184258818626404, -0.4445208013057709, -0.14310529828071594, 7.796115875244141, 0.8134016394615173, 5.880095481872559, -0.1998806893825531, -2.0556063652038574, 0.358291894197464, -0.892822265625, 0.125732421875, -0.236328125, 
308, 3735651792, 0.8838244676589966, -0.025262147188186646, -0.44470688700675964, -0.1431027054786682, 7.7865400314331055, 0.8384414315223694, 6.006191253662109, -0.7828351259231567, -3.497764825820923, 0.46605101227760315, -0.89013671875, 0.13037109375, -0.23583984375, 
309, 3735660125, 0.8837411403656006, -0.025398805737495422, -0.4448559582233429, -0.14313021302223206, 7.874772548675537, 0.8414636254310608, 5.946976661682129, -1.9073258638381958, -3.0340960025787354, 0.3812166750431061, -0.8896484375, 0.127685546875, -0.236083984375, 
310, 3735668458, 0.8837253451347351, -0.025457873940467834, -0.44488081336021423, -0.14313974976539612, 7.913755416870117, 0.8160605430603027, 5.785927772521973, -0.9178221821784973, -1.0103920698165894, 0.41584712266921997, -0.88916015625, 0.1318359375, -0.2333984375, 
311, 3735676791, 0.8837457895278931, -0.02553364634513855, -0.44482696056365967, -0.14316684007644653, 7.903054714202881, 0.8608945608139038, 5.757322788238525, -1.5312317609786987, 0.18598495423793793, 0.2876478433609009, -0.8916015625, 0.127685546875, -0.2353515625, 
312, 3735685124, 0.883682906627655, -0.02568623423576355, -0.4449078440666199, -0.14327651262283325, 7.8853631019592285, 0.8961758613586426, 5.807705879211426, -2.572373390197754, -2.12899112701416, -0.3417835235595703, -0.89501953125, 0.126708984375, -0.2353515625, 
313, 3735693457, 0.8835361003875732, -0.0258617103099823, -0.4451379179954529, -0.14343520998954773, 7.939777851104736, 0.8299704790115356, 5.894216060638428, -3.0001187324523926, -4.4311089515686035, -1.0950086116790771, -0.8876953125, 0.1328125, -0.23486328125, 
314, 3735701790, 0.8834680318832397, -0.025928959250450134, -0.44522035121917725, -0.1435871422290802, 7.979351043701172, 0.7486116886138916, 5.8933916091918945, -1.7936625480651855, -1.9960150718688965, -1.3883428573608398, -0.892578125, 0.127685546875, -0.23486328125, 
315, 3735710123, 0.8834930062294006, -0.02586701512336731, -0.4451392590999603, -0.14369559288024902, 7.941311836242676, 0.7146742939949036, 5.943652629852295, -0.3963930606842041, 0.8485227227210999, -1.5163497924804688, -0.890625, 0.129150390625, -0.2353515625, 
316, 3735718456, 0.883530855178833, -0.02582155168056488, -0.44501620531082153, -0.1438523828983307, 7.829774856567383, 0.6964885592460632, 5.914028644561768, -0.8217815160751343, 1.3728333711624146, -1.8550084829330444, -0.8916015625, 0.1328125, -0.23583984375, 
317, 3735726789, 0.8835433721542358, -0.025776073336601257, -0.4449476897716522, -0.14399534463882446, 7.816853046417236, 0.690252959728241, 5.8724751472473145, -0.8084621429443359, 0.5948265790939331, -1.8792906999588013, -0.89208984375, 0.127197265625, -0.23388671875, 
318, 3735735122, 0.8835328817367554, -0.025722280144691467, -0.44492965936660767, -0.14412477612495422, 7.822159767150879, 0.6778721213340759, 5.856765270233154, -0.3635556399822235, -0.1931697428226471, -1.7062793970108032, -0.892578125, 0.129638671875, -0.23388671875, 
319, 3735743455, 0.8835062980651855, -0.02571442723274231, -0.4449523389339447, -0.1442190706729889, 7.851095676422119, 0.6991478800773621, 5.866969585418701, -0.6292265057563782, -0.8868800401687622, -1.0452016592025757, -0.89013671875, 0.127685546875, -0.234130859375, 
320, 3735751788, 0.8834969997406006, -0.02579142153263092, -0.4449462890625, -0.14428085088729858, 7.883881568908691, 0.7356273531913757, 5.865198135375977, -1.674594521522522, -0.5674192905426025, -0.20157121121883392, -0.89404296875, 0.13134765625, -0.23388671875, 
321, 3735760121, 0.8835179209709167, -0.025935456156730652, -0.4448886811733246, -0.14430484175682068, 7.883017063140869, 0.7204157114028931, 5.874345779418945, -2.3459436893463135, 0.09776953607797623, 0.7460146546363831, -0.89111328125, 0.128173828125, -0.23486328125, 
322, 3735768454, 0.8835783004760742, -0.02607673406600952, -0.4447665214538574, -0.14428648352622986, 7.887983798980713, 0.7199339270591736, 5.882192611694336, -2.009155035018921, 1.066896915435791, 1.4615354537963867, -0.89111328125, 0.128662109375, -0.23388671875, 
323, 3735776787, 0.8836667537689209, -0.026167020201683044, -0.44461482763290405, -0.14419561624526978, 7.8398661613464355, 0.6964964270591736, 5.908001899719238, -1.1415239572525024, 1.7214174270629883, 1.9905717372894287, -0.888916015625, 0.126708984375, -0.237060546875, 
324, 3735785120, 0.8837689161300659, -0.02624201774597168, -0.44444331526756287, -0.14408475160598755, 7.809511184692383, 0.6743057370185852, 5.917212963104248, -0.7216426134109497, 2.022064447402954, 2.2784886360168457, -0.8955078125, 0.126220703125, -0.23583984375, 
325, 3735793453, 0.8838610649108887, -0.026295602321624756, -0.4443013072013855, -0.14394807815551758, 7.773151397705078, 0.6514561772346497, 5.901792049407959, -0.3770543336868286, 1.6825989484786987, 2.3389382362365723, -0.8916015625, 0.129638671875, -0.23583984375, 
326, 3735801786, 0.8839108943939209, -0.026357501745224, -0.44424402713775635, -0.1438072919845581, 7.754693508148193, 0.6382686495780945, 5.880433559417725, -0.17185871303081512, 0.3279902935028076, 2.418931484222412, -0.89111328125, 0.128173828125, -0.2353515625, 
327, 3735810119, 0.8839076161384583, -0.02640916407108307, -0.44429630041122437, -0.14365625381469727, 7.759416580200195, 0.6294859647750854, 5.8686370849609375, 0.21177852153778076, -1.3108725547790527, 2.3353521823883057, -0.89208984375, 0.128173828125, -0.23486328125, 
328, 3735818452, 0.88387531042099, -0.02642226219177246, -0.44441065192222595, -0.14349931478500366, 7.767845630645752, 0.6834986209869385, 5.900777339935303, 0.6901499629020691, -2.1227669715881348, 1.9882023334503174, -0.89111328125, 0.128662109375, -0.2333984375, 
329, 3735826785, 0.8838282823562622, -0.026433393359184265, -0.4445483684539795, -0.14335975050926208, 7.811639308929443, 0.7637821435928345, 5.904912948608398, 0.6444797515869141, -2.484952211380005, 1.7250161170959473, -0.890625, 0.1318359375, -0.2353515625, 
330, 3735835118, 0.8837801814079285, -0.026439785957336426, -0.44467711448669434, -0.1432558298110962, 7.822515964508057, 0.8139536380767822, 5.912557125091553, 0.6103103756904602, -2.4088780879974365, 1.369823694229126, -0.888671875, 0.1298828125, -0.234130859375, 
331, 3735843451, 0.8837177753448486, -0.026462435722351074, -0.44482505321502686, -0.1431768834590912, 7.827639579772949, 0.8518766164779663, 5.905099391937256, 0.16519898176193237, -2.7021477222442627, 1.0383881330490112, -0.89306640625, 0.13330078125, -0.2353515625, 
332, 3735851784, 0.8836737871170044, -0.026523619890213013, -0.444924533367157, -0.14312833547592163, 7.899764060974121, 0.8394100069999695, 5.885989189147949, -0.4517454504966736, -2.1148269176483154, 1.051156997680664, -0.888671875, 0.13037109375, -0.235107421875, 
333, 3735860117, 0.8836571574211121, -0.026612088084220886, -0.4449720084667206, -0.14306673407554626, 7.933902263641357, 0.8256587982177734, 5.869775295257568, -0.9496350288391113, -1.3290586471557617, 1.3342199325561523, -0.89111328125, 0.1318359375, -0.23388671875, 
334, 3735868450, 0.8836765885353088, -0.02673564851284027, -0.4449436366558075, -0.14301177859306335, 7.927565574645996, 0.8170536756515503, 5.8574957847595215, -1.39835786819458, -0.298252135515213, 1.6804858446121216, -0.89111328125, 0.13427734375, -0.2353515625, 
335, 3735876783, 0.8837162256240845, -0.026846691966056824, -0.4448860287666321, -0.14292588829994202, 7.904443264007568, 0.7850264310836792, 5.846283912658691, -1.2914057970046997, 0.23741836845874786, 1.8963754177093506, -0.890625, 0.12890625, -0.2333984375, 
336, 3735885116, 0.8837644457817078, -0.02691270411014557, -0.44481995701789856, -0.14282092452049255, 7.877349853515625, 0.7692278027534485, 5.881405830383301, -0.45507535338401794, 0.4296788275241852, 2.0086939334869385, -0.89111328125, 0.128662109375, -0.234375, 
337, 3735893449, 0.8838021755218506, -0.026924431324005127, -0.44478046894073486, -0.14270782470703125, 7.816213607788086, 0.7123856544494629, 5.901595115661621, 0.21559500694274902, 0.20094366371631622, 1.6826759576797485, -0.89306640625, 0.13232421875, -0.23486328125, 
338, 3735901782, 0.8838332295417786, -0.02691604197025299, -0.4447500705718994, -0.14261162281036377, 7.781700611114502, 0.677853524684906, 5.94612979888916, 0.45777764916419983, 0.04090593382716179, 1.399254322052002, -0.890380859375, 0.13623046875, -0.234375, 
339, 3735910115, 0.8838453888893127, -0.026877284049987793, -0.44475874304771423, -0.14251622557640076, 7.760863304138184, 0.7631797194480896, 5.922396659851074, 0.6511138081550598, -0.45136120915412903, 0.9723931550979614, -0.89111328125, 0.130859375, -0.23486328125, 
340, 3735918448, 0.8837956786155701, -0.026858657598495483, -0.44486603140830994, -0.1424936056137085, 7.740400314331055, 0.7775063514709473, 5.906396865844727, 0.372328519821167, -2.0784926414489746, 0.23403729498386383, -0.8916015625, 0.13330078125, -0.2353515625, 
341, 3735926781, 0.8837174773216248, -0.026897400617599487, -0.44501179456710815, -0.1425165832042694, 7.78952169418335, 0.7871488928794861, 5.903571605682373, -0.5400890111923218, -2.8178348541259766, -0.04038084298372269, -0.8896484375, 0.130859375, -0.23486328125, 
342, 3735935114, 0.8836566209793091, -0.027005746960639954, -0.4451056718826294, -0.14257970452308655, 7.880964279174805, 0.798614501953125, 5.8614726066589355, -1.8747315406799316, -2.1553096771240234, -0.15967915952205658, -0.88916015625, 0.1318359375, -0.234375, 
343, 3735943447, 0.8836461901664734, -0.027184128761291504, -0.4450948238372803, -0.14264461398124695, 7.933277606964111, 0.8150797486305237, 5.823649883270264, -2.9247610569000244, -0.708207905292511, 0.3857375383377075, -0.8896484375, 0.1318359375, -0.23388671875, 
344, 3735951780, 0.8836815357208252, -0.027428656816482544, -0.44499000906944275, -0.1427052617073059, 7.966422080993652, 0.8054097890853882, 5.79433012008667, -3.7189176082611084, 0.5333396196365356, 1.0780774354934692, -0.8916015625, 0.1337890625, -0.23388671875, 
345, 3735960113, 0.8837392330169678, -0.027665913105010986, -0.4448513090610504, -0.14273515343666077, 7.981828212738037, 0.766927182674408, 5.830852508544922, -3.654010772705078, 1.131636619567871, 1.350203037261963, -0.8935546875, 0.130126953125, -0.234375, 
346, 3735968446, 0.8838158845901489, -0.027854427695274353, -0.4446786642074585, -0.1427626609802246, 7.960561752319336, 0.6643903851509094, 5.889395713806152, -2.95243763923645, 1.7091355323791504, 1.245261788368225, -0.8916015625, 0.13232421875, -0.2333984375, 
347, 3735976779, 0.8839399218559265, -0.02791355550289154, -0.44443026185035706, -0.142755925655365, 7.890782356262207, 0.6426975131034851, 5.894088268280029, -1.4454113245010376, 3.208451747894287, 0.8851638436317444, -0.8896484375, 0.1328125, -0.2333984375, 
348, 3735985112, 0.8840764164924622, -0.027874141931533813, -0.4441591799259186, -0.14276254177093506, 7.790410995483398, 0.6184648275375366, 5.890651226043701, -0.22646823525428772, 3.708479881286621, 0.2607016861438751, -0.89013671875, 0.1318359375, -0.23681640625, 
349, 3735993445, 0.8841779828071594, -0.027775898575782776, -0.4439643621444702, -0.14275744557380676, 7.687734603881836, 0.6861804723739624, 5.869098663330078, 0.5553934574127197, 2.728454113006592, -0.16151055693626404, -0.888916015625, 0.140380859375, -0.23681640625, 
350, 3736001778, 0.8841997385025024, -0.02767007052898407, -0.443913996219635, -0.14280009269714355, 7.6591925621032715, 0.7798243761062622, 5.869701385498047, 0.751227080821991, 0.46970102190971375, -0.8948332667350769, -0.8896484375, 0.1318359375, -0.2353515625, 
351, 3736010111, 0.8841487169265747, -0.027595072984695435, -0.44399794936180115, -0.14286914467811584, 7.66937780380249, 0.8009999990463257, 5.921145439147949, 0.3033493757247925, -1.609534502029419, -1.3303391933441162, -0.89111328125, 0.131591796875, -0.23779296875, 
352, 3736018444, 0.8840755224227905, -0.027598276734352112, -0.4440997242927551, -0.1430055797100067, 7.70892333984375, 0.8277303576469421, 5.98122501373291, -0.8828843235969543, -2.13864803314209, -1.611404538154602, -0.89013671875, 0.1318359375, -0.23583984375, 
353, 3736026777, 0.884007453918457, -0.027674302458763123, -0.4441763758659363, -0.14317354559898376, 7.785425662994385, 0.7968171834945679, 5.981241226196289, -2.155822277069092, -1.8852077722549438, -1.6404637098312378, -0.88916015625, 0.13427734375, -0.23583984375, 
354, 3736035110, 0.8839758634567261, -0.027833744883537292, -0.4441668689250946, -0.14336740970611572, 7.881855487823486, 0.7335598468780518, 5.9743523597717285, -3.3377139568328857, -0.817478358745575, -1.2314043045043945, -0.8916015625, 0.131591796875, -0.236328125, 
355, 3736043443, 0.8839690685272217, -0.02808178961277008, -0.44410887360572815, -0.14354026317596436, 7.941125392913818, 0.6742326617240906, 6.038411617279053, -4.518824577331543, -0.20979340374469757, -0.4776414930820465, -0.8916015625, 0.13134765625, -0.23486328125, 
356, 3736051776, 0.8840258717536926, -0.028307214379310608, -0.44395264983177185, -0.14362987875938416, 7.96383810043335, 0.644995391368866, 5.968820571899414, -3.7590041160583496, 1.3351930379867554, 0.6694791913032532, -0.891845703125, 0.13916015625, -0.23486328125, 
357, 3736060109, 0.8841661810874939, -0.028272926807403564, -0.4437030553817749, -0.14354431629180908, 7.874931335449219, 0.6526545286178589, 5.822635173797607, 0.11769741028547287, 3.4667842388153076, 1.2641905546188354, -0.8916015625, 0.131591796875, -0.236328125, 
358, 3736068442, 0.884329080581665, -0.02809298038482666, -0.44343674182891846, -0.1433984339237213, 7.744553089141846, 0.6914002895355225, 5.763007164001465, 2.4295613765716553, 4.032730579376221, 1.310475468635559, -0.89013671875, 0.1328125, -0.23876953125, 
359, 3736076775, 0.8842658400535583, -0.028120800852775574, -0.4435696303844452, -0.14337143301963806, 7.669492244720459, 0.695022702217102, 5.956365585327148, -0.27610865235328674, -2.52181077003479, 0.4118768870830536, -0.892578125, 0.131103515625, -0.23779296875, 
360, 3736085108, 0.8840793371200562, -0.028266459703445435, -0.4439241588115692, -0.1433962881565094, 7.759940147399902, 0.6872907280921936, 5.910629749298096, -1.4807076454162598, -6.224642753601074, 0.29042696952819824, -0.892578125, 0.130615234375, -0.236328125, 
361, 3736093441, 0.8840050101280212, -0.028297528624534607, -0.44406673312187195, -0.14340689778327942, 7.88486385345459, 0.8302596211433411, 5.931899547576904, -0.5382319092750549, -2.698972225189209, -0.05427657067775726, -0.890625, 0.13037109375, -0.2353515625, 
362, 3736101774, 0.8839876651763916, -0.02839614450931549, -0.4440711438655853, -0.14348039031028748, 7.841705322265625, 0.9936810731887817, 5.970057487487793, -1.8298040628433228, -0.8235744833946228, -0.11736442148685455, -0.8896484375, 0.1318359375, -0.23583984375, 
363, 3736110107, 0.8840039968490601, -0.02848847210407257, -0.4439930021762848, -0.1436043381690979, 7.8038740158081055, 0.9975978136062622, 5.9227614402771, -2.348376989364624, 0.46387380361557007, -0.7733065485954285, -0.89013671875, 0.13232421875, -0.2353515625, 
364, 3736118440, 0.8839887380599976, -0.028611406683921814, -0.44395649433135986, -0.14378604292869568, 7.8217878341674805, 0.8010756969451904, 6.017641067504883, -2.865272283554077, -0.32024192810058594, -1.2647666931152344, -0.8916015625, 0.13232421875, -0.23681640625, 
365, 3736126773, 0.883975625038147, -0.02875363826751709, -0.4439205825328827, -0.14394870400428772, 7.901440620422363, 0.6739293932914734, 5.91623067855835, -3.1274728775024414, -0.3149782717227936, -1.0198051929473877, -0.8916015625, 0.132080078125, -0.23828125, 
366, 3736135106, 0.8839964270591736, -0.02878493070602417, -0.44385361671447754, -0.1440214216709137, 7.931029319763184, 0.6588769555091858, 5.888535022735596, -1.1338140964508057, 0.40945637226104736, -0.4162825345993042, -0.89306640625, 0.132080078125, -0.23681640625, 
367, 3736143439, 0.883988618850708, -0.028812095522880554, -0.4438572824001312, -0.14405226707458496, 7.883255481719971, 0.6033852100372314, 5.919886112213135, -0.840825617313385, -0.5861945748329163, -0.12255129963159561, -0.888427734375, 0.140380859375, -0.234375, 
368, 3736151772, 0.8839657306671143, -0.02883775532245636, -0.4438944458961487, -0.1440727710723877, 7.930078029632568, 0.599594235420227, 5.827957630157471, -0.5569431185722351, -1.133160948753357, 0.057299043983221054, -0.8916015625, 0.13232421875, -0.23486328125, 
369, 3736160105, 0.883962869644165, -0.028816774487495422, -0.4439098536968231, -0.1440470814704895, 7.874622821807861, 0.6127555966377258, 5.8618483543396, 0.1297617107629776, -0.6249744892120361, 0.28531697392463684, -0.890625, 0.13330078125, -0.23583984375, 
370, 3736168438, 0.8839790225028992, -0.02877931296825409, -0.4438978433609009, -0.14399221539497375, 7.807464122772217, 0.6645207405090332, 5.901767730712891, 0.5888841152191162, -0.20148159563541412, 0.6843996644020081, -0.89208984375, 0.1337890625, -0.23583984375, 
371, 3736176771, 0.8840115070343018, -0.028744593262672424, -0.4438636302947998, -0.14390528202056885, 7.773966312408447, 0.7256631255149841, 5.90959358215332, 0.5620659589767456, 0.19565433263778687, 1.0186140537261963, -0.89208984375, 0.131591796875, -0.236328125, 
372, 3736185104, 0.8840246200561523, -0.028771162033081055, -0.44385671615600586, -0.1438404619693756, 7.776935577392578, 0.7599108815193176, 5.921695709228516, -0.11975935101509094, -0.41360583901405334, 1.1886540651321411, -0.890380859375, 0.13818359375, -0.236328125, 
373, 3736193437, 0.8839969635009766, -0.028824329376220703, -0.4439241588115692, -0.14379197359085083, 7.7649641036987305, 0.8161399960517883, 5.957303047180176, -0.41185128688812256, -1.6113146543502808, 1.043664813041687, -0.88916015625, 0.13232421875, -0.23193359375, 
374, 3736201770, 0.8839128017425537, -0.02889154851436615, -0.4440983533859253, -0.143758624792099, 7.740367889404297, 0.8523567914962769, 5.990074157714844, -0.6727451682090759, -3.2320427894592285, 0.6488597989082336, -0.890380859375, 0.139892578125, -0.23291015625, 
375, 3736210103, 0.8838396072387695, -0.028945446014404297, -0.4442461431026459, -0.14374113082885742, 7.798401355743408, 0.7970211505889893, 6.03203821182251, -0.6487957835197449, -2.8143258094787598, 0.41067302227020264, -0.89208984375, 0.13134765625, -0.2353515625, 
376, 3736218436, 0.8838430643081665, -0.02895699441432953, -0.44423916935920715, -0.1437390148639679, 7.8917460441589355, 0.7730292081832886, 6.000784397125244, -0.3239560127258301, -0.41652584075927734, 0.3156185746192932, -0.892333984375, 0.13623046875, -0.234375, 
377, 3736226769, 0.8839216828346252, -0.02892667055130005, -0.4440925121307373, -0.1437147557735443, 7.894314289093018, 0.7738410830497742, 5.936154842376709, -0.08347679674625397, 1.8580697774887085, 0.414937824010849, -0.890625, 0.13232421875, -0.234375, 
378, 3736235102, 0.8840066194534302, -0.02892705798149109, -0.4439266622066498, -0.14370432496070862, 7.878407955169678, 0.7704591155052185, 5.85354471206665, -0.41979166865348816, 2.030094623565674, 0.5724141597747803, -0.890869140625, 0.137939453125, -0.23388671875, 
379, 3736243435, 0.8840708136558533, -0.02893945574760437, -0.44380542635917664, -0.14368197321891785, 7.879692554473877, 0.771956205368042, 5.803858757019043, -0.5651524662971497, 1.378647804260254, 0.6165730357170105, -0.8916015625, 0.13232421875, -0.23681640625, 
380, 3736251768, 0.8841068744659424, -0.028991475701332092, -0.44372594356536865, -0.14369484782218933, 7.876875400543213, 0.7644171714782715, 5.8059983253479, -1.0385546684265137, 0.5897549390792847, 0.47287717461586, -0.890869140625, 0.13525390625, -0.2373046875, 
381, 3736260101, 0.8841226100921631, -0.02905842661857605, -0.443683922290802, -0.1437145173549652, 7.824058532714844, 0.7352406978607178, 5.851376056671143, -1.195339560508728, -0.01808365061879158, 0.42743760347366333, -0.88916015625, 0.13427734375, -0.23681640625, 
382, 3736268434, 0.8841322660446167, -0.02911578118801117, -0.4436575770378113, -0.143724262714386, 7.83450174331665, 0.7297258973121643, 5.890745162963867, -1.1549969911575317, -0.18449930846691132, 0.3455232083797455, -0.890625, 0.1328125, -0.236328125, 
383, 3736276767, 0.8841308951377869, -0.029178306460380554, -0.4436519742012024, -0.14373740553855896, 7.811849117279053, 0.7233671545982361, 5.910200595855713, -1.161682367324829, -0.5104148387908936, 0.334739625453949, -0.8896484375, 0.134765625, -0.234375, 
384, 3736285100, 0.8841191530227661, -0.029238134622573853, -0.44366392493247986, -0.14376014471054077, 7.824559211730957, 0.7094904780387878, 5.899936676025391, -1.0309218168258667, -0.8228573799133301, 0.2706016004085541, -0.89306640625, 0.1328125, -0.23486328125, 
385, 3736293433, 0.8841089606285095, -0.029315903782844543, -0.44367220997810364, -0.14378172159194946, 7.8571906089782715, 0.679233968257904, 5.9492411613464355, -1.3857684135437012, -0.7625229954719543, 0.2954089641571045, -0.890869140625, 0.140380859375, -0.23486328125, 
386, 3736301766, 0.8841164112091064, -0.02942773699760437, -0.44363534450531006, -0.1438264548778534, 7.904669761657715, 0.6732944250106812, 5.945309638977051, -1.886411428451538, -0.20780828595161438, 0.37866804003715515, -0.89208984375, 0.1328125, -0.236328125, 
387, 3736310099, 0.8841570615768433, -0.02954871952533722, -0.4435429573059082, -0.1438368558883667, 7.929327011108398, 0.7133944034576416, 5.935553073883057, -2.011178731918335, 0.685065507888794, 0.8433359265327454, -0.88818359375, 0.134765625, -0.23486328125, 
388, 3736318432, 0.8842258453369141, -0.029651984572410583, -0.4434013068675995, -0.14382991194725037, 7.922491550445557, 0.69215989112854, 5.863012790679932, -1.651106595993042, 1.4359596967697144, 1.1174466609954834, -0.8916015625, 0.13330078125, -0.23486328125, 
389, 3736326765, 0.884307861328125, -0.029725834727287292, -0.44325053691864014, -0.14377561211585999, 7.913259983062744, 0.7222720980644226, 5.850111484527588, -1.1529096364974976, 1.7122604846954346, 1.4384443759918213, -0.88916015625, 0.1337890625, -0.234375, 
390, 3736335098, 0.8843516707420349, -0.029879003763198853, -0.44315436482429504, -0.14377114176750183, 7.793301105499268, 0.7544496655464172, 6.013812065124512, -2.1922457218170166, 0.6328125596046448, 1.3232954740524292, -0.889892578125, 0.1357421875, -0.2353515625, 
391, 3736343431, 0.8844210505485535, -0.030018165707588196, -0.4430144727230072, -0.14374515414237976, 7.817572593688965, 0.6932282447814941, 5.9602861404418945, -2.1519927978515625, 1.3809401988983154, 1.4268410205841064, -0.890869140625, 0.13623046875, -0.23583984375, 
392, 3736351764, 0.8845548033714294, -0.03002120554447174, -0.442768931388855, -0.14367836713790894, 7.823172569274902, 0.6752209067344666, 5.8587493896484375, -0.24443668127059937, 3.2680823802948, 1.4065673351287842, -0.890869140625, 0.141357421875, -0.235107421875, 
393, 3736360097, 0.8846607208251953, -0.030025333166122437, -0.44257694482803345, -0.14361712336540222, 7.727508544921875, 0.7117523550987244, 5.862233638763428, -0.350492388010025, 2.4943654537200928, 1.151180624961853, -0.8916015625, 0.1337890625, -0.2373046875, 
394, 3736368430, 0.8846234679222107, -0.03012600541114807, -0.4426465630531311, -0.14361107349395752, 7.729141712188721, 0.7327761054039001, 5.875850677490234, -1.2495520114898682, -1.7744134664535522, 0.7929911017417908, -0.888916015625, 0.13671875, -0.2373046875, 
395, 3736376763, 0.8845131397247314, -0.030261680483818054, -0.4428519010543823, -0.14362946152687073, 7.7889790534973145, 0.7217906713485718, 5.939098834991455, -1.5872118473052979, -3.929070234298706, 0.5087115168571472, -0.889404296875, 0.13525390625, -0.23779296875, 
396, 3736385096, 0.8844702243804932, -0.030341312289237976, -0.4429374933242798, -0.14361336827278137, 7.8914899826049805, 0.6708654761314392, 5.911875247955322, -1.0604549646377563, -1.9191721677780151, 0.6512035131454468, -0.888427734375, 0.13525390625, -0.23828125, 
397, 3736393429, 0.8845030069351196, -0.03036549687385559, -0.4428877830505371, -0.14355891942977905, 7.899871349334717, 0.6918873190879822, 5.883785724639893, -0.33637890219688416, 0.2824481427669525, 1.0236729383468628, -0.889892578125, 0.1376953125, -0.236328125, 
398, 3736401762, 0.8845442533493042, -0.030480682849884033, -0.4428066611289978, -0.14353087544441223, 7.859168529510498, 0.6809526681900024, 5.881725311279297, -1.5585110187530518, 0.5018340945243835, 1.367672085762024, -0.890380859375, 0.1357421875, -0.2373046875, 
399, 3736410095, 0.8845842480659485, -0.030606240034103394, -0.4427334666252136, -0.14348351955413818, 7.9043965339660645, 0.6823276281356812, 5.8632683753967285, -1.695214033126831, 0.41361868381500244, 1.5483293533325195, -0.886962890625, 0.136474609375, -0.234375, 
400, 3736418428, 0.8846369981765747, -0.030709996819496155, -0.4426378011703491, -0.14343124628067017, 7.900038719177246, 0.6790762543678284, 5.900055885314941, -1.2952605485916138, 0.7582966089248657, 1.6210607290267944, -0.889404296875, 0.1357421875, -0.23828125, 
401, 3736426761, 0.8846907615661621, -0.030791133642196655, -0.44254717230796814, -0.1433616578578949, 7.888540267944336, 0.7237424254417419, 5.884854316711426, -1.0331885814666748, 0.7893026471138, 1.594947338104248, -0.889404296875, 0.1357421875, -0.23583984375, 
402, 3736435094, 0.8847240805625916, -0.030890464782714844, -0.44248339533805847, -0.14333152770996094, 7.8760881423950195, 0.7337578535079956, 5.881129741668701, -1.3208107948303223, 0.2714340388774872, 1.274846076965332, -0.890869140625, 0.13623046875, -0.23828125, 
403, 3736443427, 0.8847543597221375, -0.030992865562438965, -0.4424205720424652, -0.1433168649673462, 7.855814456939697, 0.6763483881950378, 5.891706466674805, -1.5906825065612793, 0.2888261377811432, 0.9895036220550537, -0.886962890625, 0.141845703125, -0.236328125, 
404, 3736451760, 0.8847999572753906, -0.031061768531799316, -0.4423242211341858, -0.14331775903701782, 7.843292713165283, 0.6529400944709778, 5.922368049621582, -1.1992712020874023, 0.8154035210609436, 0.7484735250473022, -0.893798828125, 0.13720703125, -0.237060546875, 
405, 3736460093, 0.8848869800567627, -0.03106309473514557, -0.4421651065349579, -0.1432703733444214, 7.852929592132568, 0.6379347443580627, 5.920277118682861, -0.3149142265319824, 1.9919166564941406, 0.9363028407096863, -0.892822265625, 0.1357421875, -0.2373046875, 
406, 3736468426, 0.8850117921829224, -0.031054317951202393, -0.4419345259666443, -0.14321312308311462, 7.846793174743652, 0.6016484498977661, 5.898988246917725, -0.1299794465303421, 3.0584166049957275, 1.19749116897583, -0.891357421875, 0.13818359375, -0.23974609375, 
407, 3736476759, 0.885131299495697, -0.03106619417667389, -0.441718727350235, -0.14313852787017822, 7.834548473358154, 0.586929440498352, 5.87615966796875, -0.4039108157157898, 2.8440637588500977, 1.397346019744873, -0.889404296875, 0.1376953125, -0.236328125, 
408, 3736485092, 0.8852124810218811, -0.031114578247070312, -0.4415821433067322, -0.14304640889167786, 7.794833183288574, 0.5864576101303101, 5.842789173126221, -0.44830039143562317, 1.521933913230896, 1.8424960374832153, -0.8896484375, 0.134765625, -0.23974609375, 
409, 3736493425, 0.8852437734603882, -0.03120100498199463, -0.44154873490333557, -0.14293742179870605, 7.786148548126221, 0.6078051924705505, 5.871330738067627, -0.6273438334465027, -0.11861952394247055, 2.137059450149536, -0.888427734375, 0.13818359375, -0.23974609375, 
410, 3736501758, 0.8852372169494629, -0.03129477798938751, -0.44160348176956177, -0.14278864860534668, 7.810619831085205, 0.6669018864631653, 5.884196758270264, -0.44097471237182617, -1.4052739143371582, 2.457775592803955, -0.887939453125, 0.13818359375, -0.23974609375, 
411, 3736510091, 0.8852133750915527, -0.03140014410018921, -0.441688597202301, -0.14264938235282898, 7.795093536376953, 0.6876512169837952, 5.915938854217529, -0.5854005217552185, -1.8962091207504272, 2.3653206825256348, -0.887939453125, 0.13671875, -0.2392578125, 
412, 3736518424, 0.8851932883262634, -0.03149190545082092, -0.4417605996131897, -0.14253118634223938, 7.795387268066406, 0.7301417589187622, 5.953424453735352, -0.4499780833721161, -1.7286406755447388, 2.135510206222534, -0.891357421875, 0.13916015625, -0.23828125, 
413, 3736526757, 0.8851795196533203, -0.03153568506240845, -0.4418301582336426, -0.14239144325256348, 7.802437782287598, 0.7290639877319336, 5.9728593826293945, 0.11509757488965988, -1.5285038948059082, 2.0047366619110107, -0.887451171875, 0.13916015625, -0.23828125, 
414, 3736535090, 0.8851950168609619, -0.03155091404914856, -0.4418361783027649, -0.14227336645126343, 7.853323459625244, 0.7247360944747925, 5.97557258605957, 0.36621952056884766, -0.5589281916618347, 1.767369270324707, -0.888427734375, 0.1396484375, -0.23876953125, 
415, 3736543423, 0.8852453827857971, -0.03153224289417267, -0.4417768120765686, -0.14214813709259033, 7.86666202545166, 0.7320998907089233, 5.960806369781494, 0.5464925169944763, 0.5583518743515015, 1.6178333759307861, -0.886962890625, 0.138427734375, -0.2373046875, 
416, 3736551756, 0.8853171467781067, -0.031548380851745605, -0.44166114926338196, -0.14205703139305115, 7.8825459480285645, 0.7208314538002014, 5.932890892028809, -0.024115800857543945, 1.2743849754333496, 1.6060380935668945, -0.89111328125, 0.143310546875, -0.236083984375, 
417, 3736560089, 0.8854029178619385, -0.03157183527946472, -0.4415130019187927, -0.14197832345962524, 7.875566005706787, 0.6766367554664612, 5.9219770431518555, -0.24434694647789001, 1.744252324104309, 1.5424635410308838, -0.889404296875, 0.13916015625, -0.240234375, 
418, 3736568422, 0.8855165839195251, -0.031572237610816956, -0.4413178563117981, -0.14187493920326233, 7.8779730796813965, 0.6161141395568848, 5.915188312530518, -0.005494254175573587, 2.571976661682129, 1.6890028715133667, -0.888916015625, 0.138671875, -0.23779296875, 
419, 3736576755, 0.8856520056724548, -0.03156013786792755, -0.44109007716178894, -0.14174088835716248, 7.858409404754639, 0.601707398891449, 5.914247035980225, 0.24532030522823334, 3.1103744506835938, 2.0177483558654785, -0.886962890625, 0.1396484375, -0.240234375, 
420, 3736585088, 0.8857983946800232, -0.031568706035614014, -0.4408353269100189, -0.14161667227745056, 7.811103343963623, 0.5807057023048401, 5.9006147384643555, 0.030404096469283104, 3.4205503463745117, 2.1694231033325195, -0.887939453125, 0.1416015625, -0.2412109375, 
421, 3736593421, 0.8859355449676514, -0.03158541023731232, -0.4406096935272217, -0.14145660400390625, 7.780533790588379, 0.5627502799034119, 5.9001784324646, 0.050485655665397644, 3.024426221847534, 2.5065321922302246, -0.88671875, 0.1484375, -0.238037109375, 
422, 3736601754, 0.88603675365448, -0.03162471950054169, -0.44046276807785034, -0.14127224683761597, 7.773179531097412, 0.6403962969779968, 5.874053955078125, 0.21007516980171204, 1.746596336364746, 2.9521303176879883, -0.888427734375, 0.140625, -0.240234375, 
423, 3736610087, 0.886075496673584, -0.031705811619758606, -0.44044238328933716, -0.1410740315914154, 7.764936923980713, 0.6975402235984802, 5.919719219207764, -0.13502542674541473, -0.20992141962051392, 3.0892300605773926, -0.888671875, 0.143310546875, -0.24072265625, 
424, 3736618420, 0.8860855102539062, -0.03183455765247345, -0.44047093391418457, -0.14089292287826538, 7.841055870056152, 0.7403971552848816, 5.967343807220459, -0.5969012975692749, -1.1151286363601685, 3.202932119369507, -0.885986328125, 0.14013671875, -0.24169921875, 
425, 3736626753, 0.8861215710639954, -0.03196820616722107, -0.4404473900794983, -0.14070948958396912, 7.92288064956665, 0.7615413665771484, 6.00589656829834, -0.8840881586074829, -0.28668734431266785, 3.2137415409088135, -0.888427734375, 0.142578125, -0.2431640625, 
426, 3736635086, 0.8861907720565796, -0.032114624977111816, -0.440343976020813, -0.14056414365768433, 8.002084732055664, 0.780955970287323, 6.015533447265625, -1.2582993507385254, 0.8335000872612, 3.045417547225952, -0.88623046875, 0.146240234375, -0.2421875, 
427, 3736643419, 0.8863115310668945, -0.032217517495155334, -0.4401360750198364, -0.14042937755584717, 8.024344444274902, 0.758826732635498, 6.0071611404418945, -1.1065477132797241, 2.5559163093566895, 2.694284439086914, -0.8876953125, 0.146728515625, -0.239990234375, 
428, 3736651752, 0.8864848613739014, -0.032247185707092285, -0.4398069977760315, -0.14035990834236145, 7.982885360717773, 0.7273567318916321, 6.000164985656738, -0.6847069263458252, 4.473115921020508, 1.7154110670089722, -0.888671875, 0.144287109375, -0.239501953125, 
429, 3736660085, 0.8866963386535645, -0.032195091247558594, -0.439399778842926, -0.14031150937080383, 7.9405646324157715, 0.6673650741577148, 5.990520000457764, -0.045401234179735184, 5.8762898445129395, 0.9978026151657104, -0.88720703125, 0.143798828125, -0.2421875, 
430, 3736668418, 0.8869382739067078, -0.03203625977039337, -0.4389357566833496, -0.1402711272239685, 7.890830039978027, 0.5819564461708069, 5.972704887390137, 1.2081209421157837, 6.910259246826172, 0.4141821563243866, -0.884765625, 0.144287109375, -0.24365234375, 
431, 3736676751, 0.8872063159942627, -0.03177174925804138, -0.43843942880630493, -0.1401883065700531, 7.859019756317139, 0.4982152283191681, 5.963364124298096, 2.5945944786071777, 7.696412563323975, 0.2723305821418762, -0.88427734375, 0.144287109375, -0.24365234375, 
432, 3736685084, 0.8874736428260803, -0.031473711133003235, -0.43795061111450195, -0.140090674161911, 7.792031288146973, 0.49910542368888855, 5.951476573944092, 3.2139973640441895, 7.609911918640137, 0.3331131339073181, -0.88525390625, 0.145263671875, -0.24462890625, 
433, 3736693417, 0.8877387046813965, -0.031148672103881836, -0.4374716877937317, -0.13998088240623474, 7.710451126098633, 0.4909915328025818, 5.956770896911621, 3.488069534301758, 7.56928825378418, 0.19115902483463287, -0.88330078125, 0.144287109375, -0.24560546875, 
434, 3736701750, 0.8879954218864441, -0.030844613909721375, -0.4370090365409851, -0.13986483216285706, 7.688310623168945, 0.49547716975212097, 5.928065299987793, 3.444423198699951, 7.228901386260986, 0.49025651812553406, -0.88330078125, 0.14453125, -0.24853515625, 
435, 3736710083, 0.888216495513916, -0.030605986714363098, -0.43661820888519287, -0.1397341787815094, 7.678036212921143, 0.5305757522583008, 5.907530784606934, 2.701482057571411, 6.053514003753662, 0.8354594707489014, -0.884033203125, 0.1435546875, -0.2490234375, 
436, 3736718416, 0.8883804082870483, -0.03047211468219757, -0.43632644414901733, -0.1396326720714569, 7.664170265197754, 0.570630669593811, 5.884695053100586, 1.568795084953308, 4.261952877044678, 1.082764983177185, -0.88671875, 0.14453125, -0.25, 
437, 3736726749, 0.8884838223457336, -0.030466601252555847, -0.436145544052124, -0.1395415961742401, 7.665750503540039, 0.5612764954566956, 5.89889669418335, -0.01848067343235016, 2.354076623916626, 1.4461029767990112, -0.8837890625, 0.14453125, -0.2509765625, 
438, 3736735082, 0.8885793089866638, -0.030591413378715515, -0.4359763562679291, -0.1394345760345459, 7.730379104614258, 0.5476072430610657, 5.927423000335693, -1.3520346879959106, 1.856315016746521, 2.5205435752868652, -0.88427734375, 0.14501953125, -0.25146484375, 
439, 3736743415, 0.8886891603469849, -0.030808106064796448, -0.4357922673225403, -0.1392621397972107, 7.7920613288879395, 0.5721274018287659, 6.018459320068359, -2.254296064376831, 1.9695298671722412, 3.781813859939575, -0.8857421875, 0.150634765625, -0.250732421875, 
440, 3736751748, 0.8887896537780762, -0.03109884262084961, -0.4356329143047333, -0.13905450701713562, 7.740413188934326, 0.6733782887458801, 6.1408491134643555, -2.755733013153076, 1.4062856435775757, 4.746689319610596, -0.88330078125, 0.147705078125, -0.25146484375, 
441, 3736760081, 0.8889069557189941, -0.03131888806819916, -0.4354671537876129, -0.1387745440006256, 7.692262172698975, 0.7101659178733826, 6.151595115661621, -1.5943450927734375, 1.7392319440841675, 5.137446403503418, -0.884765625, 0.1455078125, -0.2529296875, 
442, 3736768414, 0.8890734314918518, -0.03132063150405884, -0.4352363646030426, -0.13843145966529846, 7.652227878570557, 0.6860864162445068, 6.038204669952393, 1.4805028438568115, 3.167609691619873, 4.830947399139404, -0.884765625, 0.147705078125, -0.25048828125, 
443, 3736776747, 0.8892412185668945, -0.03124365210533142, -0.4349907636642456, -0.13814282417297363, 7.697399139404297, 0.6805971264839172, 6.000880241394043, 1.9547886848449707, 3.5800886154174805, 3.5921528339385986, -0.884765625, 0.1474609375, -0.25146484375, 
444, 3736785080, 0.8892436027526855, -0.031395405530929565, -0.4350021481513977, -0.138056218624115, 7.69575834274292, 0.5984280705451965, 6.180260181427002, -1.499585509300232, -0.9485463500022888, 2.1765825748443604, -0.88525390625, 0.1474609375, -0.2548828125, 
