sep=,
PacketCounter,SampleTimeFine,Quat_W,Quat_X,Quat_Y,Quat_Z,Acc_X,Acc_Y,Acc_Z,Gyr_X,Gyr_Y,Gyr_Z,Mag_X,Mag_Y,Mag_Z,
0, 3185498799, 0.6228780746459961, -0.03705039620399475, -0.7594298720359802, -0.1842285543680191, 0, 0, 0, 0, 0, 0, -0.88427734375, -0.1708984375, 0.45703125, 
1, 3185507132, 0.6228883266448975, -0.03706139326095581, -0.7594393491744995, -0.1841524988412857, 9.467767715454102, 2.2033045291900635, -1.5112097263336182, 0.6034328937530518, -0.5386673808097839, 1.0005303621292114, -0.89013671875, -0.172119140625, 0.459228515625, 
2, 3185515465, 0.6228521466255188, -0.03707683086395264, -0.7594983577728271, -0.184028759598732, 9.488025665283203, 2.2008445262908936, -1.416465163230896, 1.1442774534225464, -1.5027358531951904, 1.2955037355422974, -0.8916015625, -0.17138671875, 0.462158203125, 
3, 3185523798, 0.6227849721908569, -0.03702586889266968, -0.7595939636230469, -0.18387162685394287, 9.551352500915527, 2.2580692768096924, -1.3547160625457764, 2.1572182178497314, -1.9706568717956543, 0.8083724975585938, -0.89501953125, -0.170654296875, 0.458251953125, 
4, 3185532131, 0.6227202415466309, -0.03691565990447998, -0.7596887350082397, -0.18372148275375366, 9.594874382019043, 2.3023269176483154, -1.3897064924240112, 2.5813896656036377, -1.8011674880981445, 0.11663442105054855, -0.892578125, -0.17041015625, 0.461181640625, 
5, 3185540464, 0.6226810216903687, -0.03678780794143677, -0.7597548961639404, -0.18360643088817596, 9.57295036315918, 2.3337342739105225, -1.3878662586212158, 2.3170509338378906, -1.2110154628753662, -0.2691287398338318, -0.89306640625, -0.169921875, 0.459716796875, 
6, 3185548797, 0.6226692795753479, -0.03671002388000488, -0.7597774267196655, -0.18356822431087494, 9.549245834350586, 2.3080222606658936, -1.3876014947891235, 0.9791169166564941, -0.6557243466377258, -0.3323959410190582, -0.89208984375, -0.169921875, 0.459716796875, 
7, 3185557130, 0.6226885318756104, -0.03666520118713379, -0.7597547173500061, -0.18360605835914612, 9.540898323059082, 2.2819786071777344, -1.4163057804107666, -0.18603618443012238, 0.02941794879734516, -0.5184832811355591, -0.892578125, -0.1708984375, 0.460693359375, 
8, 3185565463, 0.6227184534072876, -0.03665199875831604, -0.7597097158432007, -0.1836937665939331, 9.566082954406738, 2.2253925800323486, -1.4086809158325195, -1.0337393283843994, 0.2611755132675171, -0.5957102179527283, -0.892578125, -0.171142578125, 0.458251953125, 
9, 3185573796, 0.6227310299873352, -0.03666633367538452, -0.7596741318702698, -0.1837950050830841, 9.58588981628418, 2.1821463108062744, -1.4241739511489868, -1.3918262720108032, -0.0488719567656517, -0.4542427957057953, -0.89404296875, -0.170166015625, 0.458740234375, 
10, 3185582129, 0.6226906776428223, -0.03672891855239868, -0.7596787214279175, -0.1839006394147873, 9.533647537231445, 2.182255744934082, -1.4283279180526733, -1.7863622903823853, -1.0813559293746948, -0.16019141674041748, -0.89306640625, -0.170654296875, 0.460205078125, 
11, 3185590462, 0.6226326823234558, -0.03679841756820679, -0.7597179412841797, -0.18392090499401093, 9.528817176818848, 2.1462364196777344, -1.445389986038208, -0.8639681935310364, -1.6065762042999268, 0.599488377571106, -0.882080078125, -0.173828125, 0.45849609375, 
12, 3185598795, 0.6225706338882446, -0.03681066632270813, -0.7597761154174805, -0.18388822674751282, 9.50814151763916, 2.2333247661590576, -1.3645561933517456, 0.19688382744789124, -1.7151037454605103, 0.41762733459472656, -0.89111328125, -0.1708984375, 0.461181640625, 
13, 3185607128, 0.6224312782287598, -0.0368170440196991, -0.759910523891449, -0.183803528547287, 9.466719627380371, 2.2204692363739014, -1.2385190725326538, 0.9715607762336731, -3.165125608444214, 0.5848883390426636, -0.89306640625, -0.173583984375, 0.459716796875, 
14, 3185615461, 0.6222584247589111, -0.03683668375015259, -0.7600687742233276, -0.1837301105260849, 9.581686019897461, 2.1941123008728027, -1.2463688850402832, 0.7964617013931274, -3.759554386138916, 0.5088138580322266, -0.8916015625, -0.171142578125, 0.459716796875, 
15, 3185623794, 0.6220602989196777, -0.03686845302581787, -0.7602251768112183, -0.18374721705913544, 9.658379554748535, 2.335160493850708, -1.377402663230896, -0.2822176516056061, -3.979299306869507, -0.18109263479709625, -0.89453125, -0.17041015625, 0.461181640625, 
16, 3185632127, 0.6218541860580444, -0.036920517683029175, -0.7603530883789062, -0.18390534818172455, 9.562256813049316, 2.4053022861480713, -1.4173059463500977, -2.001368284225464, -3.815009355545044, -1.202409029006958, -0.892578125, -0.172119140625, 0.459716796875, 
17, 3185640460, 0.6217313408851624, -0.03694620728492737, -0.7604032754898071, -0.18410779535770416, 9.518669128417969, 2.313323974609375, -1.429262638092041, -2.4005658626556396, -2.1743409633636475, -1.5845732688903809, -0.89453125, -0.172607421875, 0.461181640625, 
18, 3185648793, 0.6216622591018677, -0.036908119916915894, -0.7604276537895203, -0.18424774706363678, 9.567108154296875, 2.259544849395752, -1.5409560203552246, -1.2448261976242065, -1.280609369277954, -1.5887229442596436, -0.885009765625, -0.17578125, 0.46142578125, 
19, 3185657126, 0.6215424537658691, -0.03690624237060547, -0.760506272315979, -0.1843280792236328, 9.542952537536621, 2.228058338165283, -1.578743815422058, -0.8124322891235352, -2.37766695022583, -0.8364072442054749, -0.89111328125, -0.173095703125, 0.460693359375, 
20, 3185665459, 0.6213940382003784, -0.03698953986167908, -0.7606117725372314, -0.18437635898590088, 9.515978813171387, 2.2294158935546875, -1.5367426872253418, -1.1628094911575317, -3.157902479171753, 0.2240605503320694, -0.890625, -0.17138671875, 0.462158203125, 
21, 3185673792, 0.6212204098701477, -0.037085145711898804, -0.7607442736625671, -0.18439564108848572, 9.54840087890625, 2.197542428970337, -1.5050472021102905, -0.8976507782936096, -3.6797409057617188, 0.5392180681228638, -0.886962890625, -0.1748046875, 0.46240234375, 
22, 3185682125, 0.6210675239562988, -0.03721460700035095, -0.7608546018600464, -0.18442939221858978, 9.562893867492676, 2.238765001296997, -1.4493478536605835, -1.3983066082000732, -3.371729850769043, 0.8177984952926636, -0.890625, -0.1728515625, 0.461669921875, 
23, 3185690458, 0.6208860874176025, -0.037350207567214966, -0.7609894871711731, -0.18445637822151184, 9.547330856323242, 2.2819244861602783, -1.4029616117477417, -1.317135214805603, -3.8789424896240234, 0.8724848628044128, -0.89013671875, -0.1708984375, 0.462158203125, 
24, 3185698791, 0.6207463145256042, -0.037429243326187134, -0.7610982060432434, -0.18446248769760132, 9.575957298278809, 2.3144073486328125, -1.3781356811523438, -0.6895864605903625, -3.1109769344329834, 0.5604010224342346, -0.88916015625, -0.173828125, 0.464111328125, 
25, 3185707124, 0.6206567287445068, -0.03744393587112427, -0.7611621022224426, -0.18449720740318298, 9.614100456237793, 2.394282817840576, -1.3877239227294922, -0.4989652931690216, -2.000497341156006, -0.1900320053100586, -0.890625, -0.173828125, 0.463134765625, 
26, 3185715457, 0.6206234097480774, -0.037432849407196045, -0.7611637711524963, -0.1846042424440384, 9.644793510437012, 2.4029340744018555, -1.457203984260559, -1.1841460466384888, -0.8001118302345276, -0.9181678295135498, -0.890625, -0.1728515625, 0.462646484375, 
27, 3185723790, 0.620652973651886, -0.03745189309120178, -0.7610934972763062, -0.18479131162166595, 9.647491455078125, 2.3904073238372803, -1.5207350254058838, -2.4124507904052734, 0.4589429795742035, -1.0728265047073364, -0.8896484375, -0.173828125, 0.464111328125, 
28, 3185732123, 0.6207191944122314, -0.037507206201553345, -0.7609847187995911, -0.1850048452615738, 9.61091423034668, 2.3432981967926025, -1.5784262418746948, -3.0765771865844727, 1.0754265785217285, -0.8264689445495605, -0.8916015625, -0.172119140625, 0.460693359375, 
29, 3185740456, 0.6207887530326843, -0.03756067156791687, -0.7608836889266968, -0.18517640233039856, 9.618980407714844, 2.2621920108795166, -1.575334072113037, -2.6001267433166504, 1.0440233945846558, -0.4628492593765259, -0.8896484375, -0.17431640625, 0.463623046875, 
30, 3185748789, 0.6208184957504272, -0.037626296281814575, -0.760826826095581, -0.18529687821865082, 9.554146766662598, 2.25600528717041, -1.5665299892425537, -2.087995767593384, 0.1726783961057663, -0.04085470736026764, -0.888427734375, -0.17529296875, 0.46337890625, 
31, 3185757122, 0.6208033561706543, -0.037684082984924316, -0.7608221769332886, -0.18535512685775757, 9.514453887939453, 2.2328672409057617, -1.5408439636230469, -1.2503589391708374, -0.7343600988388062, 0.2844589054584503, -0.89208984375, -0.1728515625, 0.462646484375, 
32, 3185765455, 0.6207772493362427, -0.03770449757575989, -0.7608499526977539, -0.18532440066337585, 9.512422561645508, 2.225149393081665, -1.46713387966156, 0.05708131939172745, -1.0975443124771118, 0.5897293090820312, -0.889892578125, -0.176513671875, 0.46240234375, 
33, 3185773788, 0.6207398772239685, -0.037646353244781494, -0.76091068983078, -0.1852121502161026, 9.566412925720215, 2.241304397583008, -1.4316390752792358, 1.678667426109314, -1.3189282417297363, 0.436940461397171, -0.89306640625, -0.17431640625, 0.465087890625, 
34, 3185782121, 0.6206845045089722, -0.03756600618362427, -0.7609876990318298, -0.18509751558303833, 9.618461608886719, 2.308938980102539, -1.4588356018066406, 1.911551833152771, -1.6115708351135254, 0.15244312584400177, -0.8896484375, -0.17236328125, 0.462158203125, 
35, 3185790454, 0.6205990314483643, -0.03752198815345764, -0.7610661387443542, -0.18507066369056702, 9.601491928100586, 2.3821797370910645, -1.462388038635254, 0.6861412525177002, -1.9646629095077515, -0.2770947813987732, -0.894775390625, -0.176513671875, 0.464111328125, 
36, 3185798787, 0.6205319166183472, -0.03751865029335022, -0.7611048221588135, -0.18513737618923187, 9.585274696350098, 2.473978281021118, -1.4244581460952759, -0.7435556054115295, -1.5088576078414917, -0.6010123491287231, -0.890625, -0.17333984375, 0.464599609375, 
37, 3185807120, 0.6205247640609741, -0.03749507665634155, -0.7610912322998047, -0.18522220849990845, 9.559453010559082, 2.454054594039917, -1.4318203926086426, -0.8519806265830994, -0.3528617024421692, -0.7679404020309448, -0.89013671875, -0.173828125, 0.462158203125, 
38, 3185815453, 0.6205799579620361, -0.037397950887680054, -0.761039137840271, -0.18527083098888397, 9.595088005065918, 2.418626546859741, -1.4377644062042236, 0.07811060547828674, 0.7768669724464417, -1.0693432092666626, -0.89013671875, -0.1748046875, 0.463134765625, 
39, 3185823786, 0.6206275224685669, -0.037270963191986084, -0.7610002160072327, -0.18529698252677917, 9.581499099731445, 2.3291945457458496, -1.5134196281433105, 0.6091192960739136, 0.6677502989768982, -1.1976960897445679, -0.8916015625, -0.1748046875, 0.464599609375, 
40, 3185832119, 0.6206696629524231, -0.037159264087677, -0.7609653472900391, -0.1853211224079132, 9.554875373840332, 2.269883155822754, -1.5551425218582153, 0.48550501465797424, 0.5131683945655823, -1.0534878969192505, -0.890380859375, -0.175048828125, 0.462646484375, 
41, 3185840452, 0.6206998825073242, -0.03711646795272827, -0.7609297633171082, -0.18537451326847076, 9.544487953186035, 2.225463390350342, -1.5486260652542114, -0.3965851962566376, 0.2576664090156555, -0.5955821871757507, -0.890869140625, -0.17529296875, 0.464111328125, 
42, 3185848785, 0.6207051277160645, -0.03712233901023865, -0.760913610458374, -0.1854221522808075, 9.512716293334961, 2.178126573562622, -1.5056805610656738, -0.7231667041778564, -0.3181288242340088, -0.12845540046691895, -0.885498046875, -0.17626953125, 0.46484375, 
43, 3185857118, 0.6206802129745483, -0.03712448477745056, -0.7609435319900513, -0.1853821724653244, 9.510513305664062, 2.227595567703247, -1.4927268028259277, 0.33619964122772217, -1.0402452945709229, 0.4968264698982239, -0.8896484375, -0.17431640625, 0.463134765625, 
44, 3185865451, 0.6206105351448059, -0.037110358476638794, -0.761019229888916, -0.1853075623512268, 9.506430625915527, 2.2985246181488037, -1.5045889616012573, 0.9218178391456604, -1.8962472677230835, 0.46929121017456055, -0.88623046875, -0.173828125, 0.46337890625, 
45, 3185873784, 0.6204804182052612, -0.037119895219802856, -0.7611314654350281, -0.18528088927268982, 9.518962860107422, 2.3530640602111816, -1.468294620513916, 0.2903245687484741, -2.8553214073181152, 0.1507013589143753, -0.892578125, -0.174560546875, 0.460205078125, 
46, 3185882117, 0.6203299164772034, -0.037123411893844604, -0.7612450122833252, -0.18531714379787445, 9.529860496520996, 2.3894379138946533, -1.448032259941101, -0.3149526119232178, -3.0490927696228027, -0.5209166407585144, -0.89013671875, -0.17431640625, 0.463623046875, 
47, 3185890450, 0.6202061772346497, -0.03707733750343323, -0.7613356113433838, -0.18536870181560516, 9.529340744018555, 2.4305896759033203, -1.502920150756836, -0.10711872577667236, -2.423055410385132, -1.0709824562072754, -0.882568359375, -0.1787109375, 0.46484375, 
48, 3185898783, 0.6201297640800476, -0.03692933917045593, -0.761401355266571, -0.18538382649421692, 9.515205383300781, 2.4528918266296387, -1.515923023223877, 1.1011688709259033, -1.494232177734375, -1.7131057977676392, -0.889892578125, -0.17578125, 0.463623046875, 
49, 3185907116, 0.6200916767120361, -0.0367637574672699, -0.7614297270774841, -0.18542784452438354, 9.512451171875, 2.4224867820739746, -1.6322698593139648, 0.8766087293624878, -0.6946068406105042, -2.007028818130493, -0.887939453125, -0.1748046875, 0.46728515625, 
50, 3185915449, 0.6200746893882751, -0.03671172261238098, -0.7614110708236694, -0.18557099997997284, 9.502143859863281, 2.3376965522766113, -1.6680166721343994, -1.2851430177688599, -0.34205251932144165, -1.600172519683838, -0.888427734375, -0.17578125, 0.4658203125, 
51, 3185923782, 0.6200307607650757, -0.0367831289768219, -0.7613881230354309, -0.1857980638742447, 9.502084732055664, 2.253812313079834, -1.6761796474456787, -3.1937367916107178, -0.8298500776290894, -1.0760542154312134, -0.889892578125, -0.176025390625, 0.464111328125, 
52, 3185932115, 0.619961678981781, -0.036935269832611084, -0.7613874673843384, -0.18600042164325714, 9.541460037231445, 2.2272963523864746, -1.6041603088378906, -3.5899884700775146, -1.5238676071166992, -0.11318929493427277, -0.888427734375, -0.17626953125, 0.46484375, 
53, 3185940448, 0.6198646426200867, -0.037098824977874756, -0.7614258527755737, -0.18613409996032715, 9.587831497192383, 2.2127931118011475, -1.507469654083252, -2.8725595474243164, -2.1925785541534424, 0.5178557634353638, -0.891357421875, -0.17626953125, 0.466064453125, 
54, 3185948781, 0.6197538375854492, -0.03721803426742554, -0.7614935636520386, -0.18620231747627258, 9.65264892578125, 2.2485363483428955, -1.4776341915130615, -1.7385789155960083, -2.523860454559326, 0.5412800312042236, -0.888916015625, -0.17724609375, 0.46484375, 
55, 3185957114, 0.6196686029434204, -0.03731584548950195, -0.7615457773208618, -0.186253160238266, 9.663748741149902, 2.2831573486328125, -1.3977489471435547, -1.4032245874404907, -2.06099796295166, 0.5592483878135681, -0.889404296875, -0.17578125, 0.4638671875, 
56, 3185965447, 0.6195915341377258, -0.037393927574157715, -0.7615890502929688, -0.1863166093826294, 9.665689468383789, 2.342381715774536, -1.3867647647857666, -1.3959245681762695, -1.8618731498718262, 0.2527484595775604, -0.889404296875, -0.17578125, 0.46484375, 
57, 3185973780, 0.6195566654205322, -0.03741183876991272, -0.7616042494773865, -0.18636655807495117, 9.62510871887207, 2.373105764389038, -1.3393985033035278, -0.7813366055488586, -1.014656662940979, -0.12246165424585342, -0.889892578125, -0.17626953125, 0.467529296875, 
58, 3185982113, 0.619587242603302, -0.03738057613372803, -0.761573851108551, -0.18639561533927917, 9.537328720092773, 2.4136910438537598, -1.336458683013916, -0.23173196613788605, 0.15567050874233246, -0.2884930968284607, -0.887939453125, -0.1787109375, 0.4658203125, 
59, 3185990446, 0.6196576952934265, -0.03734186291694641, -0.7615067958831787, -0.18644332885742188, 9.549609184265137, 2.4269235134124756, -1.390190601348877, -0.4325987994670868, 0.9340358376502991, -0.3838548958301544, -0.888427734375, -0.177490234375, 0.46435546875, 
60, 3185998779, 0.6197733283042908, -0.03726637363433838, -0.7614144086837769, -0.1864510029554367, 9.596602439880371, 2.3990261554718018, -1.54912269115448, 0.23699572682380676, 1.6709063053131104, -0.3158235549926758, -0.888916015625, -0.17529296875, 0.46484375, 
61, 3186007112, 0.6198931932449341, -0.037163883447647095, -0.7613208293914795, -0.18645551800727844, 9.558894157409668, 2.3843045234680176, -1.5624552965164185, 0.5207245349884033, 1.8203139305114746, -0.5429449081420898, -0.885498046875, -0.177734375, 0.4638671875, 
62, 3186015445, 0.6200291514396667, -0.03704753518104553, -0.7612119913101196, -0.18647152185440063, 9.48680305480957, 2.3567545413970947, -1.58112633228302, 0.4905766248703003, 2.140517473220825, -0.7570286393165588, -0.888427734375, -0.177490234375, 0.462890625, 
63, 3186023778, 0.6201467514038086, -0.03689393401145935, -0.7611556053161621, -0.18634125590324402, 9.558805465698242, 2.2594971656799316, -1.7955056428909302, 2.462053060531616, 1.538941740989685, 0.04522193223237991, -0.888427734375, -0.177490234375, 0.462890625, 
64, 3186032111, 0.6201636791229248, -0.03688064217567444, -0.7611507773399353, -0.18630653619766235, 9.580511093139648, 2.326626777648926, -1.777309775352478, 0.34729060530662537, -0.2827555537223816, 0.39593201875686646, -0.886962890625, -0.179443359375, 0.46337890625, 
65, 3186040444, 0.6200598478317261, -0.037069618701934814, -0.7611845135688782, -0.18647673726081848, 9.414044380187988, 2.430081367492676, -1.5129741430282593, -3.485969066619873, -2.2713167667388916, 0.4572269022464752, -0.883056640625, -0.177734375, 0.46044921875, 
66, 3186048777, 0.6200107932090759, -0.03715527057647705, -0.7611986398696899, -0.18656505644321442, 9.422192573547363, 2.346416473388672, -1.3147785663604736, -1.7925097942352295, -1.331428050994873, 0.2064635306596756, -0.889404296875, -0.1767578125, 0.46435546875, 
67, 3186057110, 0.6200495958328247, -0.03706127405166626, -0.7611880898475647, -0.18649786710739136, 9.567521095275879, 2.2448554039001465, -1.3260297775268555, 1.3699901103973389, 0.2044912427663803, -0.09280037134885788, -0.891357421875, -0.178955078125, 0.46337890625, 
68, 3186065443, 0.6201014518737793, -0.03693431615829468, -0.7611796259880066, -0.18638528883457184, 9.541059494018555, 2.350429058074951, -1.509287714958191, 2.118591547012329, 0.3591499328613281, -0.03637220710515976, -0.893310546875, -0.180419921875, 0.463134765625, 
69, 3186073776, 0.620079517364502, -0.03681367635726929, -0.7612379193305969, -0.18624405562877655, 9.50318717956543, 2.430866003036499, -1.6127474308013916, 2.516995906829834, -0.9875825047492981, 0.06840281933546066, -0.888916015625, -0.177490234375, 0.46240234375, 
70, 3186082109, 0.6200324892997742, -0.03671368956565857, -0.7613070011138916, -0.18613816797733307, 9.54874038696289, 2.414217233657837, -1.553513765335083, 1.9720271825790405, -1.4007656574249268, -0.10197026282548904, -0.887451171875, -0.17578125, 0.4658203125, 
71, 3186090442, 0.6200339794158936, -0.03661176562309265, -0.7613295316696167, -0.18606121838092804, 9.530538558959961, 2.3141486644744873, -1.4866446256637573, 1.606307029724121, -0.45224490761756897, -0.20629703998565674, -0.891845703125, -0.177490234375, 0.463134765625, 
72, 3186098775, 0.6200599074363708, -0.036479294300079346, -0.7613444924354553, -0.18593914806842804, 9.539969444274902, 2.323821544647217, -1.5309720039367676, 2.3288075923919678, -0.09812813252210617, -0.09328703582286835, -0.882568359375, -0.1796875, 0.462646484375, 
73, 3186107108, 0.6200838088989258, -0.03636792302131653, -0.7613582611083984, -0.18582525849342346, 9.512038230895996, 2.367908000946045, -1.6438452005386353, 2.061164617538452, -0.13808631896972656, 0.07216809689998627, -0.890380859375, -0.1767578125, 0.466064453125, 
74, 3186115441, 0.6201118230819702, -0.03633478283882141, -0.76134192943573, -0.18580490350723267, 9.486400604248047, 2.406874418258667, -1.7075624465942383, 0.350492388010025, -0.00950288213789463, 0.09919112920761108, -0.885986328125, -0.177734375, 0.4638671875, 
75, 3186123774, 0.6201140880584717, -0.036347895860672, -0.7613306641578674, -0.18584083020687103, 9.493782043457031, 2.400815963745117, -1.6638373136520386, -0.6417903304100037, -0.39563748240470886, 0.053802698850631714, -0.888916015625, -0.177001953125, 0.4638671875, 
76, 3186132107, 0.6200969219207764, -0.03635215759277344, -0.7613387107849121, -0.18586425483226776, 9.546297073364258, 2.396796464920044, -1.5496774911880493, -0.40713822841644287, -0.7671975493431091, -0.00809409748762846, -0.887939453125, -0.17626953125, 0.46484375, 
77, 3186140440, 0.6200685501098633, -0.03626927733421326, -0.7613840103149414, -0.1857895851135254, 9.584206581115723, 2.3521103858947754, -1.461166262626648, 1.4641993045806885, -1.008048176765442, -0.11188297718763351, -0.889404296875, -0.178466796875, 0.46484375, 
78, 3186148773, 0.6200683116912842, -0.036142557859420776, -0.7614173293113708, -0.18567852675914764, 9.615342140197754, 2.338744878768921, -1.4944448471069336, 2.1898505687713623, -0.5393846035003662, -0.20248053967952728, -0.890380859375, -0.179931640625, 0.46337890625, 
79, 3186157106, 0.6200548410415649, -0.03603482246398926, -0.7614487409591675, -0.18561600148677826, 9.626331329345703, 2.382612466812134, -1.621058464050293, 1.5187575817108154, -0.6624609231948853, -0.4318815767765045, -0.890380859375, -0.176513671875, 0.464599609375, 
80, 3186165439, 0.6200354099273682, -0.03596344590187073, -0.7614778280258179, -0.18557460606098175, 9.607898712158203, 2.425729274749756, -1.6951665878295898, 0.9667195677757263, -0.8113309144973755, -0.2622129023075104, -0.889404296875, -0.178466796875, 0.4638671875, 
81, 3186173772, 0.6200228333473206, -0.03586077690124512, -0.7615135312080383, -0.18549008667469025, 9.597122192382812, 2.4187498092651367, -1.6318304538726807, 1.7186766862869263, -0.7150982022285461, -0.1915944665670395, -0.890869140625, -0.177001953125, 0.465576171875, 
82, 3186182105, 0.6200390458106995, -0.0357113778591156, -0.7615389227867126, -0.1853601634502411, 9.573249816894531, 2.4247753620147705, -1.5746430158615112, 2.575857400894165, -0.24935460090637207, -0.23413974046707153, -0.890380859375, -0.17626953125, 0.465087890625, 
83, 3186190438, 0.6200789213180542, -0.03554409742355347, -0.7615444660186768, -0.18523608148097992, 9.544529914855957, 2.3519206047058105, -1.5606476068496704, 2.6314656734466553, 0.23638097941875458, -0.38096049427986145, -0.890869140625, -0.179443359375, 0.4638671875, 
84, 3186198771, 0.6201087236404419, -0.035435497760772705, -0.7615464329719543, -0.18514923751354218, 9.543498992919922, 2.2689785957336426, -1.6064869165420532, 1.7000294923782349, 0.004648983478546143, -0.12430588155984879, -0.890380859375, -0.17626953125, 0.465576171875, 
85, 3186207104, 0.6200771927833557, -0.03541877865791321, -0.7615868449211121, -0.18509186804294586, 9.5239896774292, 2.242830991744995, -1.5818867683410645, 0.7025343775749207, -1.1594282388687134, 0.4277192950248718, -0.889404296875, -0.176025390625, 0.46337890625, 
86, 3186215437, 0.6200048923492432, -0.03541669249534607, -0.7616678476333618, -0.18500114977359772, 9.513788223266602, 2.259467840194702, -1.498378038406372, 1.0354939699172974, -1.999293565750122, 0.718876302242279, -0.88818359375, -0.17431640625, 0.46240234375, 
87, 3186223770, 0.6199489831924438, -0.035336464643478394, -0.7617539763450623, -0.18484951555728912, 9.497540473937988, 2.317423105239868, -1.4467108249664307, 2.3364665508270264, -1.6880805492401123, 0.48140671849250793, -0.885009765625, -0.17578125, 0.46435546875, 
88, 3186232103, 0.6199260354042053, -0.035188257694244385, -0.7618230581283569, -0.18467003107070923, 9.493549346923828, 2.3612256050109863, -1.4653910398483276, 3.113243818283081, -1.0749270915985107, 0.08766472339630127, -0.888427734375, -0.17822265625, 0.4658203125, 
89, 3186240436, 0.6198960542678833, -0.03501850366592407, -0.7618911266326904, -0.18452219665050507, 9.504984855651855, 2.4104526042938232, -1.4784756898880005, 3.026923656463623, -1.0340722799301147, -0.41497623920440674, -0.89013671875, -0.173828125, 0.466064453125, 
90, 3186248769, 0.6198493242263794, -0.03486248850822449, -0.761962890625, -0.18441200256347656, 9.478723526000977, 2.4287166595458984, -1.5064783096313477, 2.500269651412964, -1.2813265323638916, -0.6511651277542114, -0.887451171875, -0.1748046875, 0.46533203125, 
91, 3186257102, 0.6198198199272156, -0.03472191095352173, -0.762010931968689, -0.18433965742588043, 9.497133255004883, 2.3613295555114746, -1.487210988998413, 1.9367562532424927, -0.8949357271194458, -0.7403538823127747, -0.8876953125, -0.17333984375, 0.465087890625, 
92, 3186265435, 0.6198028326034546, -0.03463438153266907, -0.762035608291626, -0.18431051075458527, 9.506142616271973, 2.294231414794922, -1.4922046661376953, 0.9668988585472107, -0.7027777433395386, -0.5279349684715271, -0.887451171875, -0.17578125, 0.46484375, 
93, 3186273768, 0.6198070645332336, -0.03458598256111145, -0.762032687664032, -0.18431726098060608, 9.51310920715332, 2.2862629890441895, -1.5351219177246094, 0.2094091773033142, -0.30447641015052795, -0.34100228548049927, -0.888427734375, -0.17529296875, 0.462890625, 
94, 3186282101, 0.6198149919509888, -0.03456085920333862, -0.7620285749435425, -0.18431271612644196, 9.531657218933105, 2.293931007385254, -1.5696556568145752, 0.14058373868465424, -0.33600756525993347, -0.010527451522648335, -0.887451171875, -0.17626953125, 0.46630859375, 
95, 3186290434, 0.6197988986968994, -0.03454342484474182, -0.7620595693588257, -0.1842418760061264, 9.561927795410156, 2.291048526763916, -1.5918937921524048, 0.8336538076400757, -0.9221892952919006, 0.5794836282730103, -0.887939453125, -0.17431640625, 0.4658203125, 
96, 3186298767, 0.6197755336761475, -0.03451120853424072, -0.7621034383773804, -0.18414434790611267, 9.541590690612793, 2.4081106185913086, -1.58391535282135, 1.2534966468811035, -1.1065349578857422, 0.60993891954422, -0.88671875, -0.17333984375, 0.4658203125, 
97, 3186307100, 0.6197294592857361, -0.0344657301902771, -0.7621644735336304, -0.18405570089817047, 9.493963241577148, 2.4681148529052734, -1.448791742324829, 1.3222194910049438, -1.427814245223999, 0.34611234068870544, -0.888916015625, -0.1748046875, 0.465087890625, 
98, 3186315433, 0.6196936368942261, -0.034383296966552734, -0.7622259259223938, -0.1839372217655182, 9.5606689453125, 2.4067299365997314, -1.466267704963684, 1.9461311101913452, -1.2671105861663818, 0.22078189253807068, -0.886962890625, -0.17431640625, 0.46630859375, 
99, 3186323766, 0.6197168231010437, -0.03425130248069763, -0.7622283101081848, -0.18387378752231598, 9.623124122619629, 2.4217529296875, -1.6133973598480225, 1.6797430515289307, 0.026702838018536568, -0.5735539197921753, -0.886962890625, -0.17529296875, 0.4638671875, 
100, 3186332099, 0.6197018623352051, -0.034148454666137695, -0.7622379064559937, -0.18390420079231262, 9.575304985046387, 2.4381113052368164, -1.6224720478057861, 0.475182443857193, -0.4761686325073242, -1.1879369020462036, -0.885498046875, -0.17529296875, 0.46630859375, 
101, 3186340432, 0.619695782661438, -0.03406849503517151, -0.762226939201355, -0.1839846968650818, 9.587592124938965, 2.3580992221832275, -1.567280888557434, -0.31825685501098633, -0.22888876497745514, -1.321591854095459, -0.887451171875, -0.17529296875, 0.4658203125, 
102, 3186348765, 0.6197530627250671, -0.034010350704193115, -0.7621694803237915, -0.18404051661491394, 9.594873428344727, 2.308537244796753, -1.5380829572677612, -0.336135596036911, 0.7433379292488098, -0.7177364826202393, -0.886962890625, -0.17578125, 0.46630859375, 
103, 3186357098, 0.619807243347168, -0.03398633003234863, -0.7621215581893921, -0.1840607076883316, 9.569123268127441, 2.31949520111084, -1.580828309059143, -0.23029758036136627, 0.5472608804702759, -0.053456906229257584, -0.886474609375, -0.1767578125, 0.4658203125, 
104, 3186365431, 0.6197967529296875, -0.03404626250267029, -0.762122392654419, -0.18408161401748657, 9.519439697265625, 2.2822861671447754, -1.5314737558364868, -0.8488813042640686, -0.7752404808998108, 0.6160863637924194, -0.887939453125, -0.1748046875, 0.46533203125, 
105, 3186373764, 0.6197783350944519, -0.034191012382507324, -0.7621162533760071, -0.18414252996444702, 9.53472900390625, 2.286071538925171, -1.5308517217636108, -2.022883892059326, -0.9778745770454407, 1.1675351858139038, -0.887939453125, -0.17431640625, 0.4658203125, 
106, 3186382097, 0.6197447776794434, -0.03429895639419556, -0.7621320486068726, -0.18417014181613922, 9.546747207641602, 2.3337554931640625, -1.4817759990692139, -1.3619089126586914, -1.2783552408218384, 1.0036298036575317, -0.885009765625, -0.17724609375, 0.46630859375, 
107, 3186390430, 0.6196810603141785, -0.0343189537525177, -0.7621896266937256, -0.18414223194122314, 9.545387268066406, 2.429481267929077, -1.426658272743225, 0.11053822934627533, -1.7210203409194946, 0.47116100788116455, -0.885009765625, -0.17822265625, 0.466796875, 
108, 3186398763, 0.619637668132782, -0.0342373251914978, -0.7622491121292114, -0.18405725061893463, 9.516575813293457, 2.492656946182251, -1.4192020893096924, 1.541093349456787, -1.3270736932754517, -0.06879983842372894, -0.887939453125, -0.17724609375, 0.4658203125, 
109, 3186407096, 0.619624137878418, -0.03406587243080139, -0.7622866630554199, -0.18397966027259827, 9.543678283691406, 2.4527366161346436, -1.4436888694763184, 2.2342402935028076, -0.562386155128479, -0.9758768677711487, -0.886962890625, -0.17578125, 0.4658203125, 
110, 3186415429, 0.6196693181991577, -0.03392353653907776, -0.7622608542442322, -0.18396039307117462, 9.565939903259277, 2.4437973499298096, -1.5057377815246582, 1.2086973190307617, 0.5161396265029907, -1.000543236732483, -0.885009765625, -0.17822265625, 0.46484375, 
111, 3186423762, 0.6197230219841003, -0.033842772245407104, -0.7622054815292358, -0.18402378261089325, 9.567835807800293, 2.4022679328918457, -1.5539193153381348, -0.21930906176567078, 0.7693875432014465, -1.0131967067718506, -0.889892578125, -0.1767578125, 0.46484375, 
112, 3186432095, 0.6197656393051147, -0.0338282585144043, -0.7621468901634216, -0.18412525951862335, 9.587320327758789, 2.3791141510009766, -1.5441628694534302, -1.148695945739746, 0.5210575461387634, -0.691840410232544, -0.886962890625, -0.17626953125, 0.4658203125, 
113, 3186440428, 0.6198108196258545, -0.033857136964797974, -0.7620871663093567, -0.18421466648578644, 9.549810409545898, 2.3233864307403564, -1.5141066312789917, -1.4397120475769043, 0.45206567645072937, -0.1044420376420021, -0.886962890625, -0.17529296875, 0.46533203125, 
114, 3186448761, 0.619873583316803, -0.033897578716278076, -0.7620146870613098, -0.18429601192474365, 9.522623062133789, 2.2864062786102295, -1.5250433683395386, -1.4206421375274658, 0.7040969133377075, 0.11007717251777649, -0.888427734375, -0.17529296875, 0.46533203125, 
115, 3186457094, 0.6199106574058533, -0.03393968939781189, -0.7619719505310059, -0.1843401938676834, 9.501171112060547, 2.2934229373931885, -1.4904236793518066, -1.0399123430252075, 0.16778604686260223, 0.3916800618171692, -0.8876953125, -0.173828125, 0.46484375, 
116, 3186465427, 0.6199097633361816, -0.03395247459411621, -0.7619818449020386, -0.18430013954639435, 9.49708080291748, 2.295461654663086, -1.4648092985153198, 0.1814640462398529, -0.6726554036140442, 0.6674684882164001, -0.888427734375, -0.176025390625, 0.46240234375, 
117, 3186473760, 0.6199000477790833, -0.03393128514289856, -0.7620152831077576, -0.1841990351676941, 9.530619621276855, 2.2876322269439697, -1.4358961582183838, 1.1934823989868164, -0.8789525628089905, 0.8118815422058105, -0.887939453125, -0.17431640625, 0.4658203125, 
118, 3186482093, 0.6198844909667969, -0.03390556573867798, -0.7620524168014526, -0.18410247564315796, 9.541971206665039, 2.296941041946411, -1.42174232006073, 1.1720433235168457, -0.9854307770729065, 0.6947476863861084, -0.885986328125, -0.17724609375, 0.46484375, 
119, 3186490426, 0.6198620796203613, -0.033856600522994995, -0.7620857954025269, -0.18404848873615265, 9.553243637084961, 2.3416192531585693, -1.4338518381118774, 0.9310389757156372, -0.9188337922096252, 0.08630716055631638, -0.886474609375, -0.177978515625, 0.462890625, 
120, 3186498759, 0.6198660135269165, -0.03377601504325867, -0.762094259262085, -0.18401497602462769, 9.519954681396484, 2.350996494293213, -1.499171495437622, 0.9379547834396362, -0.3617754280567169, -0.35847118496894836, -0.886474609375, -0.17578125, 0.46435546875, 
121, 3186507092, 0.6198742389678955, -0.03366154432296753, -0.7621049284934998, -0.18396404385566711, 9.531435012817383, 2.339752197265625, -1.5510152578353882, 1.4130475521087646, -0.23823799192905426, -0.5373866558074951, -0.887451171875, -0.17529296875, 0.46484375, 
122, 3186515425, 0.6198938488960266, -0.03356260061264038, -0.7621078491210938, -0.1839035600423813, 9.523037910461426, 2.308659076690674, -1.6119433641433716, 1.385563611984253, -0.11398334801197052, -0.2810905873775482, -0.886474609375, -0.17724609375, 0.4638671875, 
123, 3186523758, 0.6199186444282532, -0.03348782658576965, -0.7621077299118042, -0.1838342547416687, 9.519668579101562, 2.2902045249938965, -1.667728304862976, 1.2477846145629883, -0.07996764779090881, 0.08274679630994797, -0.884521484375, -0.1748046875, 0.46728515625, 
124, 3186532091, 0.6199232339859009, -0.03347510099411011, -0.7621204257011414, -0.1837683767080307, 9.525805473327637, 2.2844178676605225, -1.6975055932998657, 0.6988459825515747, -0.5811870098114014, 0.6296875476837158, -0.886962890625, -0.17626953125, 0.466796875, 
125, 3186540424, 0.6198984384536743, -0.03351271152496338, -0.7621558904647827, -0.18369808793067932, 9.571189880371094, 2.3358829021453857, -1.690500259399414, 0.36791008710861206, -1.1886029243469238, 1.127679467201233, -0.884033203125, -0.17626953125, 0.4638671875, 
126, 3186548757, 0.6198598146438599, -0.03357040882110596, -0.7621957063674927, -0.18365266919136047, 9.611146926879883, 2.322505235671997, -1.658761978149414, -0.06532910466194153, -1.4324889183044434, 1.0714434385299683, -0.884521484375, -0.1748046875, 0.46533203125, 
127, 3186557090, 0.6198514699935913, -0.03362038731575012, -0.7622075080871582, -0.18362289667129517, 9.648836135864258, 2.319352388381958, -1.609897255897522, -0.2154669165611267, -0.8273909687995911, 0.9636715054512024, -0.8857421875, -0.1728515625, 0.46337890625, 
128, 3186565423, 0.6198697090148926, -0.03366595506668091, -0.7621886134147644, -0.18363115191459656, 9.612312316894531, 2.340825080871582, -1.5265525579452515, -0.7377668023109436, -0.3039897680282593, 0.6683138608932495, -0.886962890625, -0.1748046875, 0.4638671875, 
129, 3186573756, 0.6199034452438354, -0.033659011125564575, -0.762168288230896, -0.18360310792922974, 9.578392028808594, 2.356546640396118, -1.462942123413086, 0.19058269262313843, 0.03331131115555763, 0.4729796051979065, -0.885986328125, -0.17529296875, 0.46533203125, 
130, 3186582089, 0.6199482679367065, -0.03361019492149353, -0.76214599609375, -0.18355326354503632, 9.58309268951416, 2.348442792892456, -1.430282473564148, 0.760525107383728, 0.23594555258750916, 0.23330728709697723, -0.884033203125, -0.1748046875, 0.4658203125, 
131, 3186590422, 0.6200162768363953, -0.033553630113601685, -0.7621042728424072, -0.18350714445114136, 9.550698280334473, 2.3492729663848877, -1.411441683769226, 0.7644439935684204, 0.6907262206077576, 0.20397894084453583, -0.8857421875, -0.173095703125, 0.46728515625, 
132, 3186598755, 0.6201338768005371, -0.03351473808288574, -0.7620121240615845, -0.18349973857402802, 9.539374351501465, 2.362455368041992, -1.3984594345092773, 0.006006537936627865, 1.5673989057540894, 0.2014431208372116, -0.8857421875, -0.1728515625, 0.4658203125, 
133, 3186607088, 0.6202630400657654, -0.033512234687805176, -0.7618969678878784, -0.1835419237613678, 9.51720905303955, 2.330961227416992, -1.415162444114685, -0.7793899774551392, 1.8625776767730713, 0.2063611000776291, -0.885498046875, -0.17529296875, 0.46484375, 
134, 3186615421, 0.6203925609588623, -0.03356906771659851, -0.7617700099945068, -0.1836206018924713, 9.510972023010254, 2.3182921409606934, -1.4555891752243042, -1.7490681409835815, 1.7975175380706787, 0.5098897814750671, -0.885009765625, -0.1748046875, 0.46435546875, 
135, 3186623754, 0.6204913854598999, -0.03366410732269287, -0.7616597414016724, -0.183726966381073, 9.536762237548828, 2.307908058166504, -1.4583224058151245, -2.284546136856079, 1.2859625816345215, 0.6008074283599854, -0.888427734375, -0.17529296875, 0.4638671875, 
136, 3186632087, 0.6205917000770569, -0.033780306577682495, -0.7615423202514648, -0.18385307490825653, 9.524331092834473, 2.2931392192840576, -1.4214496612548828, -2.727813720703125, 1.2870513200759888, 0.6493593454360962, -0.8857421875, -0.1728515625, 0.46484375, 
137, 3186640420, 0.6206822395324707, -0.033872514963150024, -0.7614396214485168, -0.18395598232746124, 9.517593383789062, 2.2596006393432617, -1.4285202026367188, -2.208894968032837, 1.1400256156921387, 0.5767940878868103, -0.885009765625, -0.17529296875, 0.46484375, 
138, 3186648753, 0.6207674741744995, -0.03392365574836731, -0.7613517045974731, -0.18402281403541565, 9.549976348876953, 2.2425262928009033, -1.4291045665740967, -1.4906972646713257, 1.012056827545166, 0.42123886942863464, -0.886962890625, -0.17578125, 0.46142578125, 
139, 3186657086, 0.6208049654960632, -0.03395801782608032, -0.7613078951835632, -0.18407045304775238, 9.572635650634766, 2.2410004138946533, -1.5074257850646973, -1.012069582939148, 0.20241647958755493, 0.2810521423816681, -0.886962890625, -0.176025390625, 0.46044921875, 
140, 3186665419, 0.6207969188690186, -0.03399801254272461, -0.7613053321838379, -0.18410107493400574, 9.578021049499512, 2.255305767059326, -1.4797015190124512, -0.7784678339958191, -0.6656115055084229, 0.3290788531303406, -0.885498046875, -0.17529296875, 0.462890625, 
141, 3186673752, 0.6207913160324097, -0.03399181365966797, -0.7613084316253662, -0.18410830199718475, 9.55739974975586, 2.255591869354248, -1.3994179964065552, -0.14513026177883148, -0.5648963451385498, 0.07152775675058365, -0.888427734375, -0.1748046875, 0.4619140625, 
142, 3186682085, 0.6208117008209229, -0.03390979766845703, -0.7613048553466797, -0.18406976759433746, 9.554080963134766, 2.3088877201080322, -1.3962206840515137, 0.951965868473053, -0.09572040289640427, -0.27965620160102844, -0.885986328125, -0.17578125, 0.46435546875, 
143, 3186690418, 0.6208229064941406, -0.03380495309829712, -0.7613097429275513, -0.18403132259845734, 9.516728401184082, 2.340224504470825, -1.4852231740951538, 1.1888973712921143, -0.17468906939029694, -0.5313928723335266, -0.885986328125, -0.17529296875, 0.462890625, 
144, 3186698751, 0.6208367943763733, -0.033738166093826294, -0.7613033652305603, -0.18402314186096191, 9.422518730163574, 2.3410253524780273, -1.5319958925247192, 0.468292236328125, -0.1704627275466919, -0.3902328908443451, -0.884033203125, -0.17578125, 0.46337890625, 
145, 3186707084, 0.6208328604698181, -0.033735841512680054, -0.7612999677658081, -0.18405088782310486, 9.364538192749023, 2.300032377243042, -1.4813752174377441, -0.40767616033554077, -0.4923824071884155, -0.05778570845723152, -0.885498046875, -0.1748046875, 0.46044921875, 
146, 3186715417, 0.6208152770996094, -0.03380906581878662, -0.7612985968589783, -0.18410146236419678, 9.439657211303711, 2.240863800048828, -1.4415624141693115, -1.2883961200714111, -0.8553873300552368, 0.4849926829338074, -0.888916015625, -0.17578125, 0.462890625, 
147, 3186723750, 0.6207801103591919, -0.033881306648254395, -0.7613267302513123, -0.18409043550491333, 9.539692878723145, 2.2315409183502197, -1.5240532159805298, -0.5727598667144775, -1.2945178747177124, 0.9619297981262207, -0.88720703125, -0.1728515625, 0.4638671875, 
148, 3186732083, 0.6207259893417358, -0.033944547176361084, -0.7613654136657715, -0.18410147726535797, 9.542959213256836, 2.2576162815093994, -1.584544062614441, -0.5521916747093201, -1.536060094833374, 0.5863738059997559, -0.887451171875, -0.17578125, 0.4638671875, 
149, 3186740416, 0.6206550598144531, -0.03399050235748291, -0.761406660079956, -0.18416140973567963, 9.457700729370117, 2.269724130630493, -1.447295904159546, -1.0755928754806519, -1.6814208030700684, -0.01682855188846588, -0.887939453125, -0.1767578125, 0.46337890625, 
150, 3186748749, 0.6206262111663818, -0.03390708565711975, -0.7614518404006958, -0.1840875744819641, 9.580594062805176, 2.243398666381836, -1.583513855934143, 1.4053890705108643, -1.0479040145874023, -0.13839371502399445, -0.883544921875, -0.1787109375, 0.46337890625, 
151, 3186757082, 0.6205958127975464, -0.033744633197784424, -0.7615174055099487, -0.18394960463047028, 9.686397552490234, 2.284740447998047, -1.7544432878494263, 2.856691598892212, -1.02792489528656, -0.4162825644016266, -0.887451171875, -0.17529296875, 0.4658203125, 
152, 3186765415, 0.6204834580421448, -0.03374263644218445, -0.7615783214569092, -0.18407601118087769, 9.515799522399902, 2.4957656860351562, -1.693226933479309, -1.3085031509399414, -2.1493160724639893, -1.2226698398590088, -0.886962890625, -0.17578125, 0.462890625, 
153, 3186773748, 0.6203638911247253, -0.03385680913925171, -0.7616140842437744, -0.1843099296092987, 9.398204803466797, 2.480041742324829, -1.4657481908798218, -3.516655445098877, -2.236302137374878, -0.9062317609786987, -0.885009765625, -0.17529296875, 0.46337890625, 
154, 3186782081, 0.6203480958938599, -0.03392407298088074, -0.7615755200386047, -0.18450987339019775, 9.52977180480957, 2.2979209423065186, -1.352268934249878, -2.912236213684082, -0.4395403265953064, -0.827621579170227, -0.888916015625, -0.1767578125, 0.4638671875, 
155, 3186790414, 0.6203445792198181, -0.03397306799888611, -0.7615482807159424, -0.18462523818016052, 9.617387771606445, 2.2691757678985596, -1.4990228414535522, -1.8244251012802124, -0.3740959167480469, -0.25488728284835815, -0.886474609375, -0.1748046875, 0.46435546875, 
156, 3186798747, 0.6202822327613831, -0.034066736698150635, -0.7615818977355957, -0.18467839062213898, 9.542309761047363, 2.382627248764038, -1.6706950664520264, -1.421615719795227, -1.6740694046020508, 0.5473377704620361, -0.886474609375, -0.1767578125, 0.46484375, 
157, 3186807080, 0.620195209980011, -0.034185826778411865, -0.7616342306137085, -0.1847330629825592, 9.515063285827637, 2.401776075363159, -1.6529099941253662, -1.622969150543213, -2.1331281661987305, 0.7474105954170227, -0.885498046875, -0.17529296875, 0.46337890625, 
158, 3186815413, 0.6201545596122742, -0.034287869930267334, -0.761648416519165, -0.1847919076681137, 9.56057357788086, 2.326648235321045, -1.5567262172698975, -1.5937176942825317, -1.300229787826538, 0.6503325700759888, -0.885498046875, -0.1767578125, 0.46435546875, 
159, 3186823746, 0.6201329827308655, -0.034276872873306274, -0.761673092842102, -0.18476490676403046, 9.598920822143555, 2.298336982727051, -1.556236743927002, 0.30089038610458374, -0.9204347133636475, 0.2617006301879883, -0.885009765625, -0.17822265625, 0.46435546875, 
160, 3186832079, 0.6200910210609436, -0.0342179536819458, -0.7617304921150208, -0.1846799999475479, 9.568004608154297, 2.3512051105499268, -1.6159508228302002, 1.4876105785369873, -1.3184670209884644, 0.15410803258419037, -0.884521484375, -0.177734375, 0.46484375, 
161, 3186840412, 0.6200189590454102, -0.034156203269958496, -0.7618086338043213, -0.1846112757921219, 9.53374195098877, 2.374699592590332, -1.6467983722686768, 1.283951997756958, -1.7957884073257446, -0.06795457005500793, -0.885498046875, -0.177734375, 0.4638671875, 
162, 3186848745, 0.6199824810028076, -0.03411072492599487, -0.7618340253829956, -0.1846371740102768, 9.524788856506348, 2.3857879638671875, -1.6375501155853271, -0.01659802347421646, -1.0063577890396118, -0.6019601821899414, -0.885009765625, -0.1767578125, 0.46533203125, 
163, 3186857078, 0.6199942231178284, -0.03407195210456848, -0.7618071436882019, -0.18471558392047882, 9.57485294342041, 2.341425895690918, -1.535064458847046, -0.6813898682594299, -0.011142191477119923, -0.8188358545303345, -0.885009765625, -0.17626953125, 0.46533203125, 
164, 3186865411, 0.6200065612792969, -0.03403326869010925, -0.7617900967597961, -0.1847517341375351, 9.579452514648438, 2.3372271060943604, -1.4504106044769287, -0.26346802711486816, -0.14477165043354034, -0.4748367369174957, -0.887939453125, -0.177734375, 0.4658203125, 
165, 3186873744, 0.6200170516967773, -0.03400623798370361, -0.7617877125740051, -0.18473145365715027, 9.574953079223633, 2.3075428009033203, -1.4699735641479492, 0.31578510999679565, -0.30959928035736084, 0.13067103922367096, -0.885986328125, -0.17822265625, 0.46337890625, 
166, 3186882077, 0.6200243830680847, -0.034019529819488525, -0.7617784738540649, -0.184742271900177, 9.59661865234375, 2.304731845855713, -1.535994291305542, -0.3602898120880127, -0.39215388894081116, 0.2607657015323639, -0.884521484375, -0.17626953125, 0.4658203125, 
167, 3186890410, 0.6199859976768494, -0.03409552574157715, -0.7617918252944946, -0.18480181694030762, 9.558493614196777, 2.3678572177886963, -1.6247937679290771, -1.38237464427948, -1.1806881427764893, 0.3979811668395996, -0.885009765625, -0.17822265625, 0.46484375, 
168, 3186898743, 0.6199012994766235, -0.03420248627662659, -0.7618436813354492, -0.18485283851623535, 9.536812782287598, 2.4338138103485107, -1.6097495555877686, -1.4185419082641602, -2.0857672691345215, 0.631787896156311, -0.885009765625, -0.17626953125, 0.4638671875, 
169, 3186907076, 0.6198166608810425, -0.03421977162361145, -0.7619255781173706, -0.1847958266735077, 9.551004409790039, 2.418623447418213, -1.569515347480774, 0.4916011691093445, -2.1541059017181396, 0.6269980072975159, -0.885498046875, -0.17724609375, 0.46630859375, 
170, 3186915409, 0.6197633743286133, -0.034154415130615234, -0.7619971632957458, -0.1846918761730194, 9.590270042419434, 2.416578531265259, -1.5755590200424194, 1.6884262561798096, -1.570997953414917, 0.2242654263973236, -0.884033203125, -0.1787109375, 0.46435546875, 
171, 3186923742, 0.6197359561920166, -0.03407299518585205, -0.7620373368263245, -0.18463334441184998, 9.590618133544922, 2.4237401485443115, -1.6199114322662354, 1.2691725492477417, -0.9497758150100708, -0.23045125603675842, -0.885986328125, -0.17626953125, 0.4677734375, 
172, 3186932075, 0.6196948289871216, -0.03404402732849121, -0.7620708346366882, -0.18463774025440216, 9.559195518493652, 2.356961965560913, -1.5799342393875122, 0.19491150975227356, -1.1484397649765015, -0.27348318696022034, -0.884033203125, -0.1787109375, 0.46484375, 
173, 3186940408, 0.6196478605270386, -0.03402718901634216, -0.7621080875396729, -0.18464478850364685, 9.555118560791016, 2.3106114864349365, -1.5109736919403076, 0.01676451601088047, -1.2630122900009155, -0.16172829270362854, -0.882568359375, -0.17919921875, 0.46484375, 
174, 3186948741, 0.619605541229248, -0.033961713314056396, -0.7621536254882812, -0.18461082875728607, 9.54973316192627, 2.3287012577056885, -1.4443093538284302, 0.7841926217079163, -1.2274596691131592, -0.3194863498210907, -0.886474609375, -0.177734375, 0.4677734375, 
175, 3186957074, 0.619583249092102, -0.03388941287994385, -0.7621825337409973, -0.18457962572574615, 9.5106201171875, 2.3431918621063232, -1.4550527334213257, 0.8789140582084656, -0.8101782202720642, -0.3487890362739563, -0.884521484375, -0.17431640625, 0.4638671875, 
176, 3186965407, 0.6195762753486633, -0.03385895490646362, -0.7621891498565674, -0.18458174169063568, 9.488088607788086, 2.3658313751220703, -1.501675009727478, 0.04640018194913864, -0.5934818387031555, -0.15481242537498474, -0.883544921875, -0.177734375, 0.466796875, 
177, 3186973740, 0.6195513010025024, -0.0338645875453949, -0.7621994614601135, -0.18462172150611877, 9.474720001220703, 2.387204170227051, -1.5239059925079346, -0.5798550248146057, -0.8437328338623047, -0.13706177473068237, -0.884521484375, -0.1767578125, 0.46533203125, 
178, 3186982073, 0.6194799542427063, -0.03390064835548401, -0.7622501850128174, -0.18464496731758118, 9.43222427368164, 2.381071090698242, -1.5065988302230835, -0.5745016932487488, -1.7820847034454346, 0.1667102426290512, -0.883056640625, -0.1787109375, 0.46630859375, 
179, 3186990406, 0.6193887591362, -0.033927977085113525, -0.7623177766799927, -0.18466715514659882, 9.457291603088379, 2.4123222827911377, -1.4577152729034424, -0.4620552062988281, -2.089020252227783, 0.04903845861554146, -0.884521484375, -0.1787109375, 0.46630859375, 
180, 3186998739, 0.6193153262138367, -0.033945560455322266, -0.7623687982559204, -0.18469931185245514, 9.468927383422852, 2.3887171745300293, -1.448182463645935, -0.46679380536079407, -1.7450977563858032, -0.11303561925888062, -0.883056640625, -0.1767578125, 0.46728515625, 
181, 3187007072, 0.6192966103553772, -0.033932387828826904, -0.7623741030693054, -0.18474245071411133, 9.518267631530762, 2.3504810333251953, -1.484758973121643, -0.4629131853580475, -0.6873964071273804, -0.3421933352947235, -0.884033203125, -0.17822265625, 0.46484375, 
182, 3187015405, 0.6192926168441772, -0.033906906843185425, -0.7623763084411621, -0.18475176393985748, 9.582929611206055, 2.3125927448272705, -1.5077766180038452, 0.067916139960289, -0.49732598662376404, -0.17417678236961365, -0.885498046875, -0.17626953125, 0.46533203125, 
183, 3187023738, 0.6193047761917114, -0.03386187553405762, -0.7623769044876099, -0.18471665680408478, 9.613113403320312, 2.3336007595062256, -1.5730174779891968, 0.6315317749977112, -0.278349906206131, 0.07109230756759644, -0.885498046875, -0.17822265625, 0.4658203125, 
184, 3187032071, 0.6193335056304932, -0.03381383419036865, -0.762357234954834, -0.1847098469734192, 9.53577709197998, 2.426945209503174, -1.5415451526641846, 0.3562811613082886, 0.07442215830087662, -0.1734851896762848, -0.888916015625, -0.178955078125, 0.46630859375, 
185, 3187040404, 0.6193474531173706, -0.03379553556442261, -0.762338399887085, -0.184744194149971, 9.513402938842773, 2.4172604084014893, -1.4344733953475952, -0.37325066328048706, -0.1300690919160843, -0.22809478640556335, -0.884033203125, -0.17578125, 0.46435546875, 
186, 3187048737, 0.6193880438804626, -0.03380459547042847, -0.7622913122177124, -0.18480060994625092, 9.545269012451172, 2.3702876567840576, -1.5527892112731934, -0.9174250364303589, 0.300416499376297, -0.06329277157783508, -0.882080078125, -0.17578125, 0.46484375, 
187, 3187057070, 0.6194354295730591, -0.033833831548690796, -0.7622296810150146, -0.18489059805870056, 9.502315521240234, 2.4182188510894775, -1.6706323623657227, -1.4543249607086182, 0.49011555314064026, -0.09858918935060501, -0.884033203125, -0.17724609375, 0.466796875, 
188, 3187065403, 0.6193917989730835, -0.03390750288963318, -0.7622382640838623, -0.18498817086219788, 9.44346809387207, 2.3972954750061035, -1.576271653175354, -1.7644877433776855, -1.194007396697998, 0.018659967929124832, -0.883544921875, -0.1787109375, 0.466796875, 
189, 3187073736, 0.6193642020225525, -0.03394046425819397, -0.7622380256652832, -0.18507537245750427, 9.493224143981934, 2.3469622135162354, -1.4373494386672974, -1.3349626064300537, -0.828210711479187, -0.25465673208236694, -0.884033203125, -0.17626953125, 0.46728515625, 
190, 3187082069, 0.6194261908531189, -0.033878445625305176, -0.7621899247169495, -0.18507754802703857, 9.59992504119873, 2.3159329891204834, -1.4861819744110107, 0.18059316277503967, 0.6676222085952759, -0.2810137867927551, -0.887939453125, -0.177734375, 0.46484375, 
191, 3187090402, 0.6194825768470764, -0.03378835320472717, -0.7621599435806274, -0.18502870202064514, 9.636960983276367, 2.3200533390045166, -1.6077587604522705, 1.1022188663482666, 0.5539974570274353, -0.15673351287841797, -0.884033203125, -0.1787109375, 0.466796875, 
192, 3187098735, 0.6195094585418701, -0.03380131721496582, -0.7621405124664307, -0.18501628935337067, 9.626811981201172, 2.3696084022521973, -1.633787751197815, -0.16190756857395172, -0.11979777365922928, 0.5142441391944885, -0.883056640625, -0.1767578125, 0.4658203125, 
193, 3187107068, 0.6195083260536194, -0.033876508474349976, -0.7621270418167114, -0.18506194651126862, 9.659735679626465, 2.3830840587615967, -1.591478943824768, -1.2808141708374023, -0.5658184289932251, 0.6160351634025574, -0.881103515625, -0.1787109375, 0.469482421875, 
194, 3187115401, 0.6195041537284851, -0.033953726291656494, -0.7621067762374878, -0.18514549732208252, 9.669978141784668, 2.4475255012512207, -1.4866163730621338, -1.6773993968963623, -0.5439439415931702, 0.28563714027404785, -0.881591796875, -0.177734375, 0.46630859375, 
195, 3187123734, 0.6194960474967957, -0.034007757902145386, -0.7620871067047119, -0.18524368107318878, 9.625487327575684, 2.490234851837158, -1.4518461227416992, -1.670406699180603, -0.5079046487808228, -0.0700037032365799, -0.884033203125, -0.177734375, 0.46337890625, 
196, 3187132067, 0.6195238828659058, -0.03397718071937561, -0.7620537281036377, -0.18529361486434937, 9.567428588867188, 2.5057554244995117, -1.4635288715362549, -0.41915130615234375, 0.16525022685527802, -0.4694320857524872, -0.884521484375, -0.177734375, 0.4658203125, 
197, 3187140400, 0.619586706161499, -0.03388747572898865, -0.7620025277137756, -0.18531066179275513, 9.564474105834961, 2.503666639328003, -1.4529069662094116, 0.3576643764972687, 0.8312716484069824, -0.6880496740341187, -0.887451171875, -0.17919921875, 0.4658203125, 
198, 3187148733, 0.6196764707565308, -0.03377699851989746, -0.7619307041168213, -0.18532538414001465, 9.509547233581543, 2.447659969329834, -1.4631068706512451, 0.5040497779846191, 1.312665581703186, -0.8246247172355652, -0.885009765625, -0.17919921875, 0.46435546875, 
199, 3187157066, 0.6197952032089233, -0.033679068088531494, -0.7618306279182434, -0.1853577047586441, 9.484121322631836, 2.4295570850372314, -1.4270247220993042, 0.1680677980184555, 1.8618602752685547, -0.7403793931007385, -0.883056640625, -0.17919921875, 0.46240234375, 
200, 3187165399, 0.6199064254760742, -0.033628225326538086, -0.7617312669754028, -0.1854037344455719, 9.463459014892578, 2.3773093223571777, -1.3992969989776611, -0.34358933568000793, 1.6461882591247559, -0.40555018186569214, -0.881103515625, -0.17822265625, 0.461181640625, 
201, 3187173732, 0.6199893951416016, -0.03362610936164856, -0.7616493701934814, -0.18546301126480103, 9.446415901184082, 2.3509466648101807, -1.4190669059753418, -0.8995718955993652, 1.1010663509368896, -0.06554681807756424, -0.885986328125, -0.17919921875, 0.46484375, 
202, 3187182065, 0.6200515627861023, -0.03366544842720032, -0.7615867853164673, -0.18550464510917664, 9.463597297668457, 2.341254234313965, -1.4566264152526855, -1.0381191968917847, 0.5774089097976685, 0.44144847989082336, -0.885986328125, -0.178466796875, 0.46337890625, 
203, 3187190398, 0.6200734376907349, -0.03373146057128906, -0.761556088924408, -0.1855456382036209, 9.4535551071167, 2.3569047451019287, -1.4696016311645508, -1.1871684789657593, -0.15709209442138672, 0.625666081905365, -0.885498046875, -0.17578125, 0.46435546875, 
204, 3187198731, 0.6200839281082153, -0.03383937478065491, -0.7615311145782471, -0.1855933964252472, 9.501495361328125, 2.3362464904785156, -1.4557814598083496, -1.496383547782898, -0.4281931519508362, 0.9411565065383911, -0.885009765625, -0.180908203125, 0.4638671875, 
205, 3187207064, 0.6201149821281433, -0.0339263379573822, -0.7614992260932922, -0.18560455739498138, 9.515898704528809, 2.317378044128418, -1.4609681367874146, -1.0532829761505127, -0.1188756674528122, 1.1236069202423096, -0.884033203125, -0.17822265625, 0.46533203125, 
206, 3187215397, 0.6201721429824829, -0.03399020433425903, -0.7614554166793823, -0.1855815351009369, 9.5311918258667, 2.3481783866882324, -1.5263807773590088, -0.49461081624031067, 0.27808094024658203, 1.2219398021697998, -0.885009765625, -0.178466796875, 0.46240234375, 
207, 3187223730, 0.6202213764190674, -0.03407090902328491, -0.7614182829856873, -0.18555428087711334, 9.485085487365723, 2.3716397285461426, -1.5455002784729004, -0.6013965606689453, 0.11386807262897491, 1.433180332183838, -0.886962890625, -0.179443359375, 0.462890625, 
208, 3187232063, 0.6202595829963684, -0.03420513868331909, -0.7613857388496399, -0.18553614616394043, 9.434404373168945, 2.386723756790161, -1.5187932252883911, -1.0339186191558838, -0.17097501456737518, 1.8525878190994263, -0.883544921875, -0.1787109375, 0.46337890625, 
209, 3187240396, 0.6203012466430664, -0.034327685832977295, -0.7613595724105835, -0.18548183143138885, 9.455737113952637, 2.3808388710021973, -1.5002120733261108, -0.6525481939315796, -0.17735296487808228, 2.0792484283447266, -0.885009765625, -0.17724609375, 0.46240234375, 
210, 3187248729, 0.6203911304473877, -0.03440895676612854, -0.7613095045089722, -0.18537139892578125, 9.460429191589355, 2.362705707550049, -1.4636927843093872, 0.2267756164073944, 0.5770502686500549, 2.243076801300049, -0.883544921875, -0.178955078125, 0.4619140625, 
211, 3187257062, 0.6205127835273743, -0.03447195887565613, -0.7612422108650208, -0.18522909283638, 9.516481399536133, 2.3232388496398926, -1.4479542970657349, 0.7112944722175598, 1.1200464963912964, 2.428037405014038, -0.885009765625, -0.17626953125, 0.46337890625, 
212, 3187265395, 0.6206637024879456, -0.03451824188232422, -0.7611613273620605, -0.18504653871059418, 9.572477340698242, 2.327514886856079, -1.5310167074203491, 1.254546880722046, 1.5390441417694092, 2.659282684326172, -0.883544921875, -0.177490234375, 0.46044921875, 
213, 3187273728, 0.6208487153053284, -0.03458711504936218, -0.7610478401184082, -0.1848798543214798, 9.567148208618164, 2.3561835289001465, -1.5710663795471191, 0.8281722664833069, 2.1522231101989746, 2.8811278343200684, -0.885986328125, -0.177734375, 0.46484375, 
214, 3187282061, 0.6210344433784485, -0.03474986553192139, -0.7609121799468994, -0.18478354811668396, 9.555267333984375, 2.3824477195739746, -1.562951683998108, -0.969473123550415, 2.0670816898345947, 3.2819902896881104, -0.887939453125, -0.177490234375, 0.46044921875, 
215, 3187290394, 0.6212193369865417, -0.034990280866622925, -0.7607557773590088, -0.18476144969463348, 9.568368911743164, 2.4130074977874756, -1.6016936302185059, -2.257305860519409, 2.1506354808807373, 3.459855794906616, -0.885498046875, -0.1748046875, 0.46337890625, 
216, 3187298727, 0.621407151222229, -0.03525453805923462, -0.7605900168418884, -0.18476171791553497, 9.630241394042969, 2.3365285396575928, -1.5836352109909058, -2.6161868572235107, 2.208113431930542, 3.501786470413208, -0.885009765625, -0.17578125, 0.4609375, 
217, 3187307060, 0.6215656399726868, -0.03558117151260376, -0.7604427337646484, -0.1847720891237259, 9.65587329864502, 2.2468371391296387, -1.5575790405273438, -3.3239848613739014, 1.5921679735183716, 4.01504373550415, -0.885009765625, -0.17626953125, 0.462890625, 
218, 3187315393, 0.6217004656791687, -0.03591462969779968, -0.7603130340576172, -0.1847877949476242, 9.62032413482666, 2.237974166870117, -1.4676026105880737, -3.5390167236328125, 1.1205843687057495, 3.96783709526062, -0.887451171875, -0.175537109375, 0.4599609375, 
219, 3187323726, 0.621852695941925, -0.03622865676879883, -0.7601748704910278, -0.18478256464004517, 9.6087064743042, 2.182894468307495, -1.385800838470459, -3.031803607940674, 1.4737534523010254, 3.996781349182129, -0.885498046875, -0.176513671875, 0.4599609375, 
220, 3187332059, 0.6220158934593201, -0.03641971945762634, -0.7600502967834473, -0.1847086250782013, 9.646854400634766, 2.2016170024871826, -1.413222312927246, -1.2592469453811646, 1.7150651216506958, 3.3033010959625244, -0.89013671875, -0.173583984375, 0.459716796875, 
221, 3187340392, 0.622192919254303, -0.036516040563583374, -0.7599318027496338, -0.1845807284116745, 9.644124984741211, 2.254936456680298, -1.4450374841690063, 0.17357487976551056, 2.054914951324463, 2.822420120239258, -0.88720703125, -0.17333984375, 0.458984375, 
222, 3187348725, 0.6223669648170471, -0.036547690629959106, -0.7598295211791992, -0.18440867960453033, 9.609990119934082, 2.353940486907959, -1.5279815196990967, 1.1915102005004883, 1.993133306503296, 2.4948136806488037, -0.888427734375, -0.1748046875, 0.46142578125, 
223, 3187357058, 0.6225355863571167, -0.03655433654785156, -0.7597302198410034, -0.184247225522995, 9.557700157165527, 2.385077953338623, -1.524960994720459, 1.3366788625717163, 2.014559507369995, 2.1406843662261963, -0.88671875, -0.1728515625, 0.45947265625, 
224, 3187365391, 0.6227762699127197, -0.036572933197021484, -0.7595553398132324, -0.1841517984867096, 9.496087074279785, 2.3301355838775635, -1.514207124710083, 0.37231573462486267, 3.3867268562316895, 1.9050202369689941, -0.88720703125, -0.17431640625, 0.4599609375, 
225, 3187373724, 0.6230149865150452, -0.036618173122406006, -0.7593634128570557, -0.18412594497203827, 9.51213264465332, 2.3391082286834717, -1.4665848016738892, -0.6110787391662598, 3.5088040828704834, 1.6077156066894531, -0.8857421875, -0.17236328125, 0.4580078125, 
226, 3187382057, 0.6232326626777649, -0.03665819764137268, -0.7591863870620728, -0.1841115802526474, 9.508991241455078, 2.3040759563446045, -1.5475952625274658, -0.6254996061325073, 3.16355037689209, 1.371706247329712, -0.886474609375, -0.175537109375, 0.458984375, 
227, 3187390390, 0.6234450340270996, -0.03667503595352173, -0.7590235471725464, -0.18406051397323608, 9.455310821533203, 2.2394251823425293, -1.5209343433380127, -0.04298068583011627, 3.043983221054077, 1.4442458152770996, -0.88720703125, -0.173583984375, 0.455078125, 
228, 3187398723, 0.6236327290534973, -0.03667861223220825, -0.758883535861969, -0.18400156497955322, 9.469444274902344, 2.1561062335968018, -1.5346767902374268, 0.11847863346338272, 2.5762412548065186, 1.292609453201294, -0.890625, -0.173095703125, 0.457275390625, 
229, 3187407056, 0.6237900853157043, -0.03671017289161682, -0.7587599158287048, -0.18397150933742523, 9.513315200805664, 2.092088222503662, -1.5281862020492554, -0.3175397217273712, 2.1073217391967773, 1.2601051330566406, -0.887451171875, -0.174560546875, 0.45751953125, 
230, 3187415389, 0.6239467859268188, -0.03677511215209961, -0.7586392760276794, -0.18392477929592133, 9.616942405700684, 2.0614967346191406, -1.4902842044830322, -0.3923588693141937, 1.9624476432800293, 1.7255926132202148, -0.888916015625, -0.175537109375, 0.45751953125, 
231, 3187423722, 0.624046802520752, -0.03685474395751953, -0.7585699558258057, -0.18385545909404755, 9.709439277648926, 2.1370935440063477, -1.4534962177276611, -0.2128542810678482, 0.9030426144599915, 1.926152229309082, -0.88916015625, -0.173095703125, 0.458251953125, 
232, 3187432055, 0.6241347193717957, -0.03692138195037842, -0.7585184574127197, -0.18375565111637115, 9.73497200012207, 2.284294843673706, -1.3818702697753906, 0.1700657159090042, 0.5939813256263733, 2.004377841949463, -0.888671875, -0.170654296875, 0.456787109375, 
233, 3187440388, 0.6242737770080566, -0.036914676427841187, -0.7584428787231445, -0.18359671533107758, 9.752477645874023, 2.350752592086792, -1.4990466833114624, 1.4689891338348389, 1.5369950532913208, 1.8961578607559204, -0.8935546875, -0.172607421875, 0.453857421875, 
234, 3187448721, 0.6244552731513977, -0.03678080439567566, -0.7583390474319458, -0.18343454599380493, 9.697647094726562, 2.3332269191741943, -1.426113486289978, 2.317511796951294, 2.45979905128479, 0.7257665395736694, -0.88818359375, -0.172119140625, 0.455810546875, 
235, 3187457054, 0.6246611475944519, -0.03661498427391052, -0.7582147717475891, -0.18328091502189636, 9.578034400939941, 2.204169511795044, -1.3096439838409424, 2.690967321395874, 3.056610584259033, 0.3846617639064789, -0.89013671875, -0.170166015625, 0.454345703125, 
236, 3187465387, 0.6249018907546997, -0.03637978434562683, -0.7580956816673279, -0.18299952149391174, 9.695333480834961, 2.1148667335510254, -1.4431016445159912, 4.690081596374512, 3.4681549072265625, 0.8216663002967834, -0.88818359375, -0.172607421875, 0.456298828125, 
237, 3187473720, 0.6249910593032837, -0.03619438409805298, -0.7580886483192444, -0.18276143074035645, 9.682516098022461, 2.277878761291504, -1.510026216506958, 3.9742655754089355, 0.8390581607818604, 0.5536388158798218, -0.888671875, -0.172607421875, 0.455322265625, 
238, 3187482053, 0.6250132322311401, -0.03613615036010742, -0.7580689191818237, -0.182778000831604, 9.463190078735352, 2.5523130893707275, -1.46962308883667, 0.12314043939113617, 0.019044186919927597, -0.48500555753707886, -0.89111328125, -0.171142578125, 0.455810546875, 
239, 3187490386, 0.6249597668647766, -0.036112844944000244, -0.7580791711807251, -0.18292300403118134, 9.330924987792969, 2.4973578453063965, -1.277281641960144, -1.439622402191162, -1.0127099752426147, -1.4162111282348633, -0.88916015625, -0.169677734375, 0.454833984375, 
240, 3187498719, 0.6249343752861023, -0.036042481660842896, -0.7580758333206177, -0.18303759396076202, 9.439875602722168, 2.27876615524292, -1.18352210521698, -0.8164536356925964, -0.5476579070091248, -1.5787588357925415, -0.88916015625, -0.169189453125, 0.453369140625, 
241, 3187507052, 0.624904990196228, -0.03590753674507141, -0.7581079602241516, -0.18303164839744568, 9.505142211914062, 2.129598617553711, -1.2726467847824097, 1.1605682373046875, -0.7441959977149963, -1.2332229614257812, -0.890625, -0.170654296875, 0.451416015625, 
242, 3187515385, 0.6248352527618408, -0.03582164645195007, -0.7581815719604492, -0.18298175930976868, 9.487135887145996, 2.2021024227142334, -1.3581794500350952, 1.3628950119018555, -1.6749916076660156, -0.492279976606369, -0.88720703125, -0.170654296875, 0.452392578125, 
243, 3187523718, 0.6247891187667847, -0.03579619526863098, -0.7582309246063232, -0.18294009566307068, 9.446022987365723, 2.24037766456604, -1.3645049333572388, 0.6279841661453247, -1.359872579574585, 0.16528865694999695, -0.8876953125, -0.172119140625, 0.453369140625, 
244, 3187532051, 0.624819278717041, -0.03574302792549133, -0.7582211494445801, -0.18288733065128326, 9.504554748535156, 2.1916027069091797, -1.3867578506469727, 0.8423880934715271, -0.026869330555200577, 0.1750860959291458, -0.888671875, -0.171630859375, 0.454345703125, 
245, 3187540384, 0.6248489618301392, -0.03563350439071655, -0.7582383751869202, -0.1827361285686493, 9.553215980529785, 2.1730973720550537, -1.394197940826416, 2.448042392730713, -0.13736915588378906, 0.4366843104362488, -0.8896484375, -0.172119140625, 0.453857421875, 
246, 3187548717, 0.6248437166213989, -0.03553950786590576, -0.7582892775535583, -0.18256108462810516, 9.556169509887695, 2.188218355178833, -1.3960343599319458, 2.666531801223755, -0.8592038750648499, 0.6751528382301331, -0.89013671875, -0.173095703125, 0.457275390625, 
247, 3187557050, 0.6247884631156921, -0.03550124168395996, -0.7583692669868469, -0.18242572247982025, 9.52243423461914, 2.2178709506988525, -1.3878556489944458, 1.7873998880386353, -1.7327262163162231, 0.7989464402198792, -0.890625, -0.171142578125, 0.453369140625, 
248, 3187565383, 0.6247860193252563, -0.0355185866355896, -0.7583746314048767, -0.18240748345851898, 9.59302806854248, 2.254218339920044, -1.4497668743133545, -0.08777998387813568, -0.6537777781486511, 0.5249765515327454, -0.890625, -0.170654296875, 0.454345703125, 
249, 3187573716, 0.6248492002487183, -0.03557467460632324, -0.7583072781562805, -0.18246032297611237, 9.6361665725708, 2.2768642902374268, -1.433858871459961, -1.2991540431976318, 0.622771680355072, 0.534838080406189, -0.8896484375, -0.171630859375, 0.453369140625, 
250, 3187582049, 0.6249246001243591, -0.03566467761993408, -0.7582349181175232, -0.182485431432724, 9.618338584899902, 2.239138126373291, -1.373671293258667, -1.1759752035140991, 0.6985386610031128, 1.1277052164077759, -0.88916015625, -0.172119140625, 0.452392578125, 
251, 3187590382, 0.6250400543212891, -0.0357588529586792, -0.7581443786621094, -0.18244779109954834, 9.562253952026367, 2.2204229831695557, -1.2614949941635132, -0.7142272591590881, 1.228240966796875, 1.851204752922058, -0.8896484375, -0.169677734375, 0.453369140625, 
252, 3187598715, 0.6251517534255981, -0.03581705689430237, -0.7580641508102417, -0.18238690495491028, 9.574466705322266, 2.3211803436279297, -1.340002417564392, -0.1319645345211029, 1.1515007019042969, 1.6432172060012817, -0.892578125, -0.172607421875, 0.454833984375, 
253, 3187607048, 0.6252734065055847, -0.035841941833496094, -0.7579648494720459, -0.18237817287445068, 9.53477954864502, 2.39286470413208, -1.4768284559249878, -0.43838760256767273, 1.5576400756835938, 0.9005323648452759, -0.8896484375, -0.171630859375, 0.454833984375, 
254, 3187615381, 0.6253734827041626, -0.03586724400520325, -0.7578783631324768, -0.18238943815231323, 9.463447570800781, 2.4250712394714355, -1.5156159400939941, -0.7328232526779175, 1.1759880781173706, 0.6645485162734985, -0.88916015625, -0.169677734375, 0.455322265625, 
255, 3187623714, 0.6254279017448425, -0.03589257597923279, -0.7578321695327759, -0.18238969147205353, 9.514976501464844, 2.406259298324585, -1.5198074579238892, -0.43756794929504395, 0.40243804454803467, 0.6341188549995422, -0.890625, -0.170654296875, 0.453857421875, 
256, 3187632047, 0.6254909634590149, -0.035904496908187866, -0.7577803730964661, -0.18238568305969238, 9.595345497131348, 2.367304801940918, -1.5085490942001343, -0.23946747183799744, 0.5556879639625549, 0.5309445858001709, -0.89013671875, -0.169677734375, 0.452392578125, 
257, 3187640380, 0.6255466341972351, -0.035923123359680176, -0.7577322125434875, -0.18239155411720276, 9.614363670349121, 2.311197519302368, -1.4564692974090576, -0.4421273469924927, 0.4521040916442871, 0.5196744203567505, -0.8876953125, -0.170166015625, 0.454345703125, 
258, 3187648713, 0.625601053237915, -0.03600126504898071, -0.7576768398284912, -0.1824190616607666, 9.63782024383545, 2.2862913608551025, -1.445847511291504, -1.092600703239441, 0.3582022488117218, 0.9245073199272156, -0.89013671875, -0.170654296875, 0.454345703125, 
259, 3187657046, 0.6256873607635498, -0.03615424036979675, -0.7575812339782715, -0.18249057233333588, 9.670364379882812, 2.2750635147094727, -1.419283151626587, -2.384659767150879, 0.8747645616531372, 1.4536463022232056, -0.888671875, -0.171630859375, 0.452392578125, 
260, 3187665379, 0.625804603099823, -0.03632703423500061, -0.7574608325958252, -0.18255358934402466, 9.651986122131348, 2.289187431335449, -1.4223746061325073, -2.5262041091918945, 1.3250117301940918, 1.8081474304199219, -0.89013671875, -0.171142578125, 0.451904296875, 
261, 3187673712, 0.6259164810180664, -0.036506712436676025, -0.7573438882827759, -0.1826193481683731, 9.564821243286133, 2.313260555267334, -1.361040472984314, -2.5958235263824463, 1.2535991668701172, 1.8575572967529297, -0.89208984375, -0.170654296875, 0.454833984375, 
262, 3187682045, 0.6259994506835938, -0.036658406257629395, -0.7572593688964844, -0.1826552152633667, 9.495124816894531, 2.3291635513305664, -1.3232252597808838, -2.0164809226989746, 0.6926730275154114, 1.7199063301086426, -0.89013671875, -0.170166015625, 0.453369140625, 
263, 3187690378, 0.6260510683059692, -0.03677630424499512, -0.7572022080421448, -0.18269196152687073, 9.480674743652344, 2.341578722000122, -1.3377517461776733, -1.6412577629089355, 0.25290215015411377, 1.2825688123703003, -0.888671875, -0.168701171875, 0.452392578125, 
264, 3187698711, 0.6260696649551392, -0.0368577241897583, -0.7571689486503601, -0.18274886906147003, 9.503782272338867, 2.3159472942352295, -1.316058874130249, -1.5355989933013916, -0.23162952065467834, 0.6199541091918945, -0.88916015625, -0.172607421875, 0.452880859375, 
265, 3187707044, 0.6260981559753418, -0.036899298429489136, -0.7571251392364502, -0.1828245222568512, 9.564817428588867, 2.2789745330810547, -1.3142848014831543, -1.368517279624939, 0.10792557150125504, 0.08717804402112961, -0.89111328125, -0.171142578125, 0.451416015625, 
266, 3187715377, 0.6261770725250244, -0.03686001896858215, -0.7570445537567139, -0.18289567530155182, 9.581655502319336, 2.2433173656463623, -1.397672414779663, -0.7316705584526062, 1.1147955656051636, -0.5847473740577698, -0.89013671875, -0.170654296875, 0.449951171875, 
267, 3187723710, 0.6262471675872803, -0.03685927391052246, -0.7569633722305298, -0.1829926073551178, 9.552285194396973, 2.2292916774749756, -1.497326374053955, -1.297642707824707, 0.9797059893608093, -0.41151827573776245, -0.88916015625, -0.170654296875, 0.451904296875, 
268, 3187732043, 0.6263024806976318, -0.03692907094955444, -0.7568939328193665, -0.18307596445083618, 9.530447959899902, 2.209059238433838, -1.5520927906036377, -1.7089049816131592, 0.5211088061332703, 0.37269994616508484, -0.89111328125, -0.170654296875, 0.451904296875, 
269, 3187740376, 0.6263354420661926, -0.03707590699195862, -0.7568408250808716, -0.1831531524658203, 9.581762313842773, 2.2247045040130615, -1.5895243883132935, -2.313042402267456, -0.02922583930194378, 1.1862592697143555, -0.8896484375, -0.170654296875, 0.452392578125, 
270, 3187748709, 0.6263448596000671, -0.037299126386642456, -0.7567830085754395, -0.1833142787218094, 9.57510757446289, 2.291757106781006, -1.449477195739746, -3.9814770221710205, -0.4381314814090729, 1.196504831314087, -0.890625, -0.172607421875, 0.451416015625, 
271, 3187757042, 0.6262710094451904, -0.037560731172561646, -0.7568024396896362, -0.18343311548233032, 9.601837158203125, 2.1556034088134766, -1.3655288219451904, -3.6051266193389893, -2.0329506397247314, 1.7146810293197632, -0.89208984375, -0.169189453125, 0.450927734375, 
272, 3187765375, 0.6261962056159973, -0.03781566023826599, -0.7568357586860657, -0.1834987998008728, 9.665637016296387, 2.1031486988067627, -1.404484510421753, -2.9960968494415283, -2.2103805541992188, 2.079120397567749, -0.8916015625, -0.170654296875, 0.451416015625, 
273, 3187773708, 0.6260995864868164, -0.038044244050979614, -0.756896436214447, -0.1835312843322754, 9.656357765197754, 2.219644069671631, -1.4278955459594727, -2.329742670059204, -2.586397409439087, 2.036088228225708, -0.89208984375, -0.173828125, 0.451904296875, 
274, 3187782041, 0.6260334849357605, -0.03818210959434509, -0.7569389939308167, -0.18355220556259155, 9.599040985107422, 2.2861735820770264, -1.3328531980514526, -1.396411418914795, -1.9047002792358398, 1.2535735368728638, -0.88818359375, -0.171142578125, 0.452392578125, 
275, 3187790374, 0.6260809898376465, -0.03815305233001709, -0.7569109201431274, -0.1835119128227234, 9.622025489807129, 2.3072850704193115, -1.3687610626220703, 0.4966471791267395, 0.28929996490478516, 0.39004072546958923, -0.8896484375, -0.168212890625, 0.450439453125, 
276, 3187798707, 0.6261405348777771, -0.038016676902770996, -0.7568867206573486, -0.18343713879585266, 9.59669017791748, 2.2668838500976562, -1.459918737411499, 1.7507201433181763, 0.594647228717804, -0.41423338651657104, -0.89013671875, -0.169189453125, 0.451904296875, 
277, 3187807040, 0.626166820526123, -0.03793966770172119, -0.7568744421005249, -0.18341390788555145, 9.560089111328125, 2.250885248184204, -1.4709821939468384, 0.759372353553772, 0.06271645426750183, -0.3160540461540222, -0.88818359375, -0.170654296875, 0.453369140625, 
278, 3187815373, 0.6261754035949707, -0.03795313835144043, -0.7568598985671997, -0.1834414303302765, 9.513288497924805, 2.2787885665893555, -1.5321675539016724, -0.7757270336151123, -0.38388052582740784, 0.14916448295116425, -0.890625, -0.170166015625, 0.448486328125, 
279, 3187823706, 0.6261376142501831, -0.03809928894042969, -0.7568476796150208, -0.18359042704105377, 9.488197326660156, 2.360762596130371, -1.5209273099899292, -2.986645460128784, -1.0768992900848389, 0.3619675636291504, -0.8896484375, -0.171142578125, 0.451416015625, 
280, 3187832039, 0.6260533332824707, -0.03834936022758484, -0.756847620010376, -0.18382574617862701, 9.530495643615723, 2.382765054702759, -1.4519567489624023, -4.7826385498046875, -1.9152021408081055, 0.5576091408729553, -0.892578125, -0.171142578125, 0.451416015625, 
281, 3187840372, 0.6259467005729675, -0.038600027561187744, -0.7568707466125488, -0.18404123187065125, 9.60416316986084, 2.314399480819702, -1.4058774709701538, -4.525318145751953, -2.327181339263916, 0.6856802701950073, -0.890625, -0.1728515625, 0.449951171875, 
282, 3187848705, 0.6258258819580078, -0.03880959749221802, -0.7569150924682617, -0.18422572314739227, 9.671101570129395, 2.176629066467285, -1.3327345848083496, -3.6475698947906494, -2.5623457431793213, 0.4421401023864746, -0.890625, -0.172119140625, 0.450927734375, 
283, 3187857038, 0.625725507736206, -0.03897905349731445, -0.7569567561149597, -0.18436022102832794, 9.779596328735352, 2.127464771270752, -1.3172950744628906, -2.932624578475952, -2.2602767944335938, 0.541676938533783, -0.890625, -0.168701171875, 0.453857421875, 
284, 3187865371, 0.6256632804870605, -0.039064884185791016, -0.7569832801818848, -0.18444399535655975, 9.781980514526367, 2.2013068199157715, -1.3215359449386597, -1.7749897241592407, -1.592206597328186, 0.20203228294849396, -0.8896484375, -0.172607421875, 0.452392578125, 
285, 3187873704, 0.6256469488143921, -0.03906974196434021, -0.7569763660430908, -0.18452636897563934, 9.751206398010254, 2.3017489910125732, -1.306731939315796, -1.0538721084594727, -0.5783437490463257, -0.4839041233062744, -0.89111328125, -0.171630859375, 0.452392578125, 
286, 3187882037, 0.6256686449050903, -0.03899049758911133, -0.7569432258605957, -0.18460562825202942, 9.673819541931152, 2.325768232345581, -1.2951581478118896, -0.34948059916496277, 0.2250850647687912, -1.239754557609558, -0.8916015625, -0.171142578125, 0.452392578125, 
287, 3187890370, 0.6257210373878479, -0.03885111212730408, -0.7568793892860413, -0.1847192645072937, 9.62542724609375, 2.296968460083008, -1.3325543403625488, -0.2447696477174759, 1.011032223701477, -2.047268867492676, -0.89208984375, -0.173828125, 0.450927734375, 
288, 3187898703, 0.6257771849632263, -0.03875952959060669, -0.7567936778068542, -0.18489958345890045, 9.520659446716309, 2.252741575241089, -1.3921524286270142, -1.4740992784500122, 1.1060867309570312, -2.116504192352295, -0.89013671875, -0.171142578125, 0.450927734375, 
289, 3187907036, 0.6257845163345337, -0.03878512978553772, -0.7567280530929565, -0.1851380616426468, 9.490032196044922, 2.223414182662964, -1.4239729642868042, -2.991870880126953, 0.20436318218708038, -1.5197439193725586, -0.890625, -0.173828125, 0.451904296875, 
290, 3187915369, 0.6257455945014954, -0.038901835680007935, -0.7566884756088257, -0.1854064017534256, 9.493454933166504, 2.165764570236206, -1.4154887199401855, -4.024022102355957, -0.7415321469306946, -0.9812301993370056, -0.8896484375, -0.174072265625, 0.452392578125, 
291, 3187923702, 0.6256595253944397, -0.039087653160095215, -0.7566834688186646, -0.18567804992198944, 9.505335807800293, 2.1409730911254883, -1.3566052913665771, -4.610844135284424, -1.6792693138122559, -0.4085726737976074, -0.89013671875, -0.1748046875, 0.451904296875, 
292, 3187932035, 0.6255516409873962, -0.03925776481628418, -0.7567163109779358, -0.18587131798267365, 9.569160461425781, 2.1161606311798096, -1.335134744644165, -3.581894636154175, -2.2650413513183594, 0.009029018692672253, -0.889404296875, -0.17529296875, 0.452392578125, 
293, 3187940368, 0.6254525184631348, -0.03931713104248047, -0.7567780613899231, -0.18594102561473846, 9.64019775390625, 2.162677764892578, -1.3373277187347412, -1.2580174207687378, -2.175954818725586, -0.05663307383656502, -0.89013671875, -0.17333984375, 0.450439453125, 
294, 3187948701, 0.6253385543823242, -0.03928482532501221, -0.7568569183349609, -0.18601016700267792, 9.650428771972656, 2.279655694961548, -1.3571219444274902, -0.3857247531414032, -2.263043165206909, -1.0762076377868652, -0.89013671875, -0.17431640625, 0.451904296875, 
295, 3187957034, 0.6252282857894897, -0.039202749729156494, -0.7569157481193542, -0.18615901470184326, 9.641463279724121, 2.3599491119384766, -1.3956276178359985, -0.8781327605247498, -1.86248779296875, -2.235149383544922, -0.883056640625, -0.175537109375, 0.451171875, 
296, 3187965367, 0.625150740146637, -0.039093077182769775, -0.7569293975830078, -0.1863865852355957, 9.63025951385498, 2.333230972290039, -1.4105029106140137, -1.1448538303375244, -0.947905957698822, -3.156954526901245, -0.889404296875, -0.175537109375, 0.454345703125, 
297, 3187973700, 0.6250937581062317, -0.038968831300735474, -0.7569202780723572, -0.18664054572582245, 9.629280090332031, 2.2731235027313232, -1.3981884717941284, -1.7566494941711426, -0.5603881478309631, -3.405489206314087, -0.889404296875, -0.17529296875, 0.451416015625, 
298, 3187982033, 0.6249979138374329, -0.03891792893409729, -0.7569385766983032, -0.18689796328544617, 9.589049339294434, 2.296437978744507, -1.4026942253112793, -2.4107859134674072, -1.423792839050293, -2.8000969886779785, -0.887939453125, -0.175048828125, 0.45166015625, 
299, 3187990366, 0.6248622536659241, -0.0389256477355957, -0.7569898366928101, -0.18714189529418945, 9.564456939697266, 2.333256721496582, -1.4410353899002075, -2.6742284297943115, -2.240605115890503, -2.1806423664093018, -0.890380859375, -0.17626953125, 0.451416015625, 
300, 3187998699, 0.6247279644012451, -0.038974612951278687, -0.7570343017578125, -0.18740025162696838, 9.582011222839355, 2.331860065460205, -1.3996104001998901, -3.1660990715026855, -2.2890419960021973, -1.8893829584121704, -0.887939453125, -0.176513671875, 0.45263671875, 
301, 3188007032, 0.6246224641799927, -0.03903093934059143, -0.7570580244064331, -0.18764418363571167, 9.545353889465332, 2.3027679920196533, -1.3657324314117432, -3.144531488418579, -1.815588116645813, -1.5816277265548706, -0.893798828125, -0.177734375, 0.453369140625, 
302, 3188015365, 0.6245273351669312, -0.03906524181365967, -0.7570794224739075, -0.1878676563501358, 9.493127822875977, 2.2612268924713135, -1.4101359844207764, -2.8225350379943848, -1.6904113292694092, -1.6167961359024048, -0.885986328125, -0.177734375, 0.44970703125, 
303, 3188023698, 0.6244380474090576, -0.03908652067184448, -0.7571004629135132, -0.18807482719421387, 9.464970588684082, 2.259984016418457, -1.4541691541671753, -2.4600934982299805, -1.5533241033554077, -1.5872372388839722, -0.888427734375, -0.17822265625, 0.45361328125, 
304, 3188032031, 0.62431800365448, -0.03912648558616638, -0.7571405172348022, -0.18830357491970062, 9.515565872192383, 2.2947611808776855, -1.503220796585083, -2.80657696723938, -2.1023905277252197, -1.6861592531204224, -0.887451171875, -0.17724609375, 0.4521484375, 
305, 3188040364, 0.6241617798805237, -0.039198070764541626, -0.7571876645088196, -0.18861716985702515, 9.590149879455566, 2.346933126449585, -1.4933195114135742, -3.9690024852752686, -2.5467207431793213, -2.164069652557373, -0.889404296875, -0.17919921875, 0.45068359375, 
306, 3188048697, 0.6240052580833435, -0.0393100380897522, -0.7571964263916016, -0.18907567858695984, 9.66009521484375, 2.4043421745300293, -1.455470323562622, -5.966273307800293, -2.285635232925415, -2.98359751701355, -0.887939453125, -0.181640625, 0.4501953125, 
307, 3188057030, 0.6238887906074524, -0.039367854595184326, -0.757158637046814, -0.18959897756576538, 9.699737548828125, 2.3846442699432373, -1.4260600805282593, -6.231662273406982, -1.2545084953308105, -3.958577871322632, -0.886474609375, -0.177734375, 0.451171875, 
308, 3188065363, 0.62380051612854, -0.039362579584121704, -0.7571125030517578, -0.19007310271263123, 9.705316543579102, 2.299245834350586, -1.3616617918014526, -5.273048400878906, -0.8031343221664429, -4.124941825866699, -0.887939453125, -0.1806640625, 0.45458984375, 
309, 3188073696, 0.6237404346466064, -0.03931379318237305, -0.7570589184761047, -0.19049376249313354, 9.653312683105469, 2.186145067214966, -1.3471310138702393, -4.260159969329834, -0.30980414152145386, -4.031219482421875, -0.889404296875, -0.1806640625, 0.4521484375, 
310, 3188082029, 0.6236933469772339, -0.039248108863830566, -0.7570138573646545, -0.19084016978740692, 9.530633926391602, 2.2452940940856934, -1.3647754192352295, -3.1937363147735596, -0.2435145229101181, -3.5742363929748535, -0.886474609375, -0.18115234375, 0.4501953125, 
311, 3188090362, 0.6235880851745605, -0.039204955101013184, -0.7570279836654663, -0.19113674759864807, 9.454878807067871, 2.294224977493286, -1.3945382833480835, -2.863159418106079, -1.4427731037139893, -3.0647947788238525, -0.886962890625, -0.1826171875, 0.453125, 
312, 3188098695, 0.6234478950500488, -0.039215147495269775, -0.7570704817771912, -0.19142359495162964, 9.456713676452637, 2.329123020172119, -1.388349175453186, -3.1273701190948486, -2.2145557403564453, -2.5561981201171875, -0.884033203125, -0.1796875, 0.453125, 
313, 3188107028, 0.6232629418373108, -0.03926655650138855, -0.7571427822113037, -0.19172894954681396, 9.498685836791992, 2.398857355117798, -1.3491466045379639, -3.6575851440429688, -3.0160505771636963, -2.3960065841674805, -0.88720703125, -0.18359375, 0.45166015625, 
314, 3188115361, 0.6230449676513672, -0.03935682773590088, -0.7572320103645325, -0.19206614792346954, 9.52029800415039, 2.450741767883301, -1.3713023662567139, -4.30490779876709, -3.6203930377960205, -2.376898765563965, -0.885498046875, -0.18212890625, 0.45361328125, 
315, 3188123694, 0.6228647232055664, -0.03945565223693848, -0.7572827339172363, -0.19243007898330688, 9.544322967529297, 2.4342570304870605, -1.3354369401931763, -4.726287841796875, -2.8759918212890625, -2.3823800086975098, -0.88525390625, -0.185546875, 0.453857421875, 
316, 3188132027, 0.6227284669876099, -0.03952935338020325, -0.7573078274726868, -0.19275709986686707, 9.546914100646973, 2.3831608295440674, -1.2777998447418213, -4.1444854736328125, -2.1735470294952393, -2.2176289558410645, -0.8896484375, -0.185302734375, 0.453125, 
317, 3188140360, 0.6226276159286499, -0.03957483172416687, -0.7573137879371643, -0.19305039942264557, 9.546621322631836, 2.3294785022735596, -1.1952192783355713, -3.6091485023498535, -1.5614694356918335, -2.0952444076538086, -0.88720703125, -0.18603515625, 0.455078125, 
318, 3188148693, 0.6225665807723999, -0.03958165645599365, -0.7573046088218689, -0.1932816207408905, 9.527993202209473, 2.313047170639038, -1.2442456483840942, -2.69610333442688, -0.9899646639823914, -1.8686097860336304, -0.8837890625, -0.1865234375, 0.454833984375, 
319, 3188157026, 0.622529149055481, -0.0394628643989563, -0.7573142051696777, -0.1933889091014862, 9.560593605041504, 2.3083581924438477, -1.4221261739730835, -0.22276702523231506, -0.5965043902397156, -2.0465261936187744, -0.8876953125, -0.185791015625, 0.45263671875, 
320, 3188165359, 0.6224428415298462, -0.03932258486747742, -0.7573546767234802, -0.19353611767292023, 9.446815490722656, 2.337811231613159, -1.4290472269058228, -0.32686322927474976, -1.3041744232177734, -2.7870078086853027, -0.88818359375, -0.186767578125, 0.45458984375, 
321, 3188173692, 0.6222320199012756, -0.03922945261001587, -0.7575132846832275, -0.19361241161823273, 9.456138610839844, 2.253896474838257, -1.4415538311004639, 0.18374373018741608, -3.7634994983673096, -2.0574891567230225, -0.884765625, -0.18505859375, 0.453369140625, 
322, 3188182025, 0.6219460368156433, -0.0391421914100647, -0.7577482461929321, -0.19362960755825043, 9.61896800994873, 2.2571654319763184, -1.551167607307434, 0.9758254885673523, -5.260587215423584, -1.7588142156600952, -0.8828125, -0.18408203125, 0.455322265625, 
323, 3188190358, 0.6215860843658447, -0.039144814014434814, -0.7579988241195679, -0.1938043087720871, 9.610954284667969, 2.457871675491333, -1.522463321685791, -1.4965887069702148, -6.30530309677124, -2.347135066986084, -0.88330078125, -0.1884765625, 0.456787109375, 
324, 3188198691, 0.6212314367294312, -0.03926929831504822, -0.7581748962402344, -0.19422681629657745, 9.49611759185791, 2.664266347885132, -1.4247534275054932, -5.265979290008545, -5.822909832000732, -3.168250560760498, -0.88330078125, -0.1884765625, 0.452880859375, 
325, 3188207024, 0.6209837198257446, -0.039364129304885864, -0.7582446932792664, -0.19472679495811462, 9.485260009765625, 2.5418953895568848, -1.2446964979171753, -6.096982955932617, -3.661324977874756, -3.7677009105682373, -0.8837890625, -0.18994140625, 0.455322265625, 
326, 3188215357, 0.6208797693252563, -0.039406925439834595, -0.7581983208656311, -0.19522976875305176, 9.588589668273926, 2.357478380203247, -1.1900943517684937, -5.982307434082031, -1.0747990608215332, -3.901867628097534, -0.88330078125, -0.18994140625, 0.454345703125, 
327, 3188223690, 0.6208096146583557, -0.039383769035339355, -0.7581528425216675, -0.19563399255275726, 9.635268211364746, 2.320089101791382, -1.3479465246200562, -4.303089141845703, -0.5610285997390747, -3.6448545455932617, -0.885009765625, -0.190673828125, 0.454833984375, 
328, 3188232023, 0.6206789016723633, -0.039313554763793945, -0.7581785917282104, -0.19596229493618011, 9.49838924407959, 2.4165709018707275, -1.4206821918487549, -2.808088779449463, -1.7090328931808472, -3.723848581314087, -0.882568359375, -0.19091796875, 0.454833984375, 
329, 3188240356, 0.62053382396698, -0.03930369019508362, -0.7582257390022278, -0.1962408572435379, 9.460122108459473, 2.4830105304718018, -1.4850614070892334, -2.8990705013275146, -2.2370705604553223, -2.683910846710205, -0.880859375, -0.189453125, 0.455322265625, 
330, 3188248689, 0.6203658580780029, -0.039315611124038696, -0.758320152759552, -0.19640469551086426, 9.55141544342041, 2.4406704902648926, -1.5403345823287964, -1.6146188974380493, -2.9886176586151123, -1.6029387712478638, -0.881591796875, -0.1923828125, 0.45751953125, 
331, 3188257022, 0.6200991272926331, -0.039288222789764404, -0.7585299611091614, -0.19644245505332947, 9.570966720581055, 2.469682455062866, -1.4800848960876465, 0.1341545432806015, -4.976333141326904, -1.2279207706451416, -0.886962890625, -0.191650390625, 0.457763671875, 
332, 3188265355, 0.6197593808174133, -0.03932788968086243, -0.758790135383606, -0.19650208950042725, 9.575057029724121, 2.495187520980835, -1.470624327659607, -0.5097231864929199, -6.351663589477539, -0.9665529727935791, -0.879638671875, -0.193359375, 0.45654296875, 
333, 3188273688, 0.6194358468055725, -0.03945538401603699, -0.7589985728263855, -0.19669170677661896, 9.599641799926758, 2.52457332611084, -1.4989502429962158, -2.8038620948791504, -5.892631530761719, -1.0610697269439697, -0.881591796875, -0.1923828125, 0.45751953125, 
334, 3188282021, 0.6191701889038086, -0.039693862199783325, -0.7591084241867065, -0.19705554842948914, 9.655447006225586, 2.5472371578216553, -1.4079256057739258, -5.67836856842041, -4.653286933898926, -1.2078136205673218, -0.881103515625, -0.196044921875, 0.45947265625, 
335, 3188290354, 0.6189895868301392, -0.039895206689834595, -0.759139895439148, -0.1974605768918991, 9.654021263122559, 2.5990869998931885, -1.2813990116119385, -6.080691814422607, -2.9761438369750977, -1.641872525215149, -0.880615234375, -0.1923828125, 0.4560546875, 
336, 3188298687, 0.6189002394676208, -0.03987792134284973, -0.7591321468353271, -0.19777332246303558, 9.58288860321045, 2.564246892929077, -1.162929654121399, -3.23720383644104, -1.158839225769043, -2.896329879760742, -0.880126953125, -0.1923828125, 0.4580078125, 
337, 3188307020, 0.6189016103744507, -0.03965491056442261, -0.7590847015380859, -0.19799599051475525, 9.54277229309082, 2.4913737773895264, -1.1653558015823364, -0.6822093725204468, 0.6481297016143799, -3.9814248085021973, -0.882080078125, -0.197021484375, 0.45654296875, 
338, 3188315353, 0.6189072728157043, -0.039370328187942505, -0.7590449452400208, -0.19818735122680664, 9.539347648620605, 2.4474239349365234, -1.3523789644241333, 0.1558241993188858, 0.7370624542236328, -4.36428165435791, -0.880615234375, -0.193359375, 0.45849609375, 
339, 3188323686, 0.6188451051712036, -0.039145827293395996, -0.7590537071228027, -0.19839252531528473, 9.492949485778809, 2.4119749069213867, -1.4858416318893433, -0.36846068501472473, -0.49937504529953003, -4.05209493637085, -0.878662109375, -0.197265625, 0.458984375, 
340, 3188332019, 0.61871337890625, -0.03903725743293762, -0.7591190934181213, -0.19857460260391235, 9.426403999328613, 2.413118362426758, -1.5293444395065308, -0.9511076807975769, -2.0562078952789307, -2.8882863521575928, -0.879638671875, -0.196533203125, 0.45556640625, 
341, 3188340352, 0.6185118556022644, -0.039025574922561646, -0.7592533826828003, -0.19869132339954376, 9.406051635742188, 2.4140450954437256, -1.4914978742599487, -0.9889143705368042, -3.6512835025787354, -1.5250715017318726, -0.879150390625, -0.197509765625, 0.458984375, 
342, 3188348685, 0.6182842254638672, -0.03909897804260254, -0.759402871131897, -0.19881369173526764, 9.471519470214844, 2.41968035697937, -1.5171509981155396, -1.760440707206726, -4.318227291107178, -0.7825661301612854, -0.87890625, -0.197509765625, 0.458984375, 
343, 3188357018, 0.6180758476257324, -0.03925353288650513, -0.7595224380493164, -0.1989748179912567, 9.467516899108887, 2.416879415512085, -1.5297962427139282, -2.908496618270874, -4.026942253112793, -0.17637963593006134, -0.880615234375, -0.197021484375, 0.4599609375, 
344, 3188365351, 0.6178556680679321, -0.039425939321517944, -0.7596443891525269, -0.19915810227394104, 9.456134796142578, 2.509584426879883, -1.498720645904541, -3.37575101852417, -4.262567043304443, -0.22333049774169922, -0.8779296875, -0.198486328125, 0.458984375, 
345, 3188373684, 0.6175957918167114, -0.039522647857666016, -0.7598090171813965, -0.19931726157665253, 9.50339412689209, 2.5847866535186768, -1.4997764825820923, -2.3010034561157227, -4.789733409881592, -0.9298221468925476, -0.88037109375, -0.197998046875, 0.4580078125, 
346, 3188382017, 0.6173871755599976, -0.03947329521179199, -0.759954571723938, -0.1994185745716095, 9.557523727416992, 2.5938570499420166, -1.4587163925170898, -0.5257065892219543, -3.7682127952575684, -1.8299065828323364, -0.87939453125, -0.198486328125, 0.46044921875, 
347, 3188390350, 0.6172655820846558, -0.03932929039001465, -0.7600305676460266, -0.19953374564647675, 9.609670639038086, 2.577136993408203, -1.4213778972625732, 0.034412726759910583, -1.9583364725112915, -2.6444904804229736, -0.8798828125, -0.19775390625, 0.46142578125, 
348, 3188398683, 0.617194414138794, -0.03917717933654785, -0.7600447535514832, -0.1997298002243042, 9.639525413513184, 2.6008005142211914, -1.4859024286270142, -0.9228297472000122, -0.8802332878112793, -3.259411573410034, -0.87744140625, -0.1982421875, 0.46142578125, 
349, 3188407016, 0.61716228723526, -0.039045512676239014, -0.760021448135376, -0.19994372129440308, 9.580711364746094, 2.5549159049987793, -1.556701421737671, -1.3264330625534058, -0.16029387712478638, -3.0558807849884033, -0.87890625, -0.201416015625, 0.459228515625, 
350, 3188415349, 0.6171282529830933, -0.038988351821899414, -0.7600034475326538, -0.20012755692005157, 9.532713890075684, 2.5073797702789307, -1.5433534383773804, -1.6475075483322144, -0.48277708888053894, -2.045450448989868, -0.8779296875, -0.200439453125, 0.458251953125, 
351, 3188423682, 0.6170814037322998, -0.03899979591369629, -0.7600021362304688, -0.20027507841587067, 9.472671508789062, 2.496096134185791, -1.5023611783981323, -1.793969750404358, -0.9305139183998108, -1.0490565299987793, -0.87841796875, -0.200927734375, 0.456787109375, 
352, 3188432015, 0.6170604228973389, -0.039103806018829346, -0.7599650025367737, -0.20045997202396393, 9.456178665161133, 2.4821557998657227, -1.4818600416183472, -2.7545034885406494, -0.5422276854515076, -0.36159613728523254, -0.8759765625, -0.2021484375, 0.462158203125, 
353, 3188440348, 0.617043673992157, -0.03924161195755005, -0.7599225044250488, -0.2006460577249527, 9.444557189941406, 2.4329140186309814, -1.4271037578582764, -3.366786241531372, -0.5930463075637817, 0.05021670460700989, -0.876953125, -0.200439453125, 0.460205078125, 
354, 3188448681, 0.6170215606689453, -0.0393500030040741, -0.7599043846130371, -0.20076100528240204, 9.445359230041504, 2.4299838542938232, -1.4338130950927734, -2.238325595855713, -0.827621579170227, 0.2886340320110321, -0.8779296875, -0.200927734375, 0.458740234375, 
355, 3188457014, 0.6169840097427368, -0.03936651349067688, -0.7598971128463745, -0.20090113580226898, 9.411951065063477, 2.467754602432251, -1.3640490770339966, -1.7701228857040405, -0.7985494136810303, -0.9024407863616943, -0.8798828125, -0.201416015625, 0.45947265625, 
356, 3188465347, 0.6169044971466064, -0.03933754563331604, -0.7599465847015381, -0.20096337795257568, 9.453424453735352, 2.3694217205047607, -1.348862648010254, -0.31692492961883545, -1.634597897529602, -0.9000841379165649, -0.8779296875, -0.202880859375, 0.460205078125, 
357, 3188473680, 0.6168590784072876, -0.039281994104385376, -0.759976863861084, -0.20099936425685883, 9.543829917907715, 2.3646156787872314, -1.4144030809402466, 0.026754070073366165, -1.0593279600143433, -0.8148913383483887, -0.8779296875, -0.200439453125, 0.460205078125, 
358, 3188482013, 0.6168285608291626, -0.03922197222709656, -0.7599776983261108, -0.20110204815864563, 9.53870677947998, 2.50368595123291, -1.505183458328247, -0.8036978244781494, -0.6614875793457031, -1.3789167404174805, -0.87548828125, -0.200927734375, 0.459228515625, 
359, 3188490346, 0.6167480945587158, -0.03919041156768799, -0.7600048780441284, -0.20125189423561096, 9.450753211975098, 2.498584508895874, -1.4890323877334595, -1.393363118171692, -1.4032503366470337, -1.6259403228759766, -0.8759765625, -0.2001953125, 0.459716796875, 
360, 3188498679, 0.6167024970054626, -0.03908684849739075, -0.7600064277648926, -0.2014055997133255, 9.487998008728027, 2.4315361976623535, -1.4310617446899414, -0.9167335033416748, -0.6621536016464233, -2.3163466453552246, -0.87744140625, -0.200927734375, 0.460693359375, 
361, 3188507012, 0.6167206764221191, -0.03888523578643799, -0.7599875330924988, -0.20146016776561737, 9.512345314025879, 2.4289205074310303, -1.5175944566726685, 0.9705874919891357, 0.4404752254486084, -2.2964186668395996, -0.876953125, -0.202392578125, 0.459228515625, 
362, 3188515345, 0.6167219877243042, -0.03868362307548523, -0.7600038051605225, -0.20143379271030426, 9.45162582397461, 2.446692705154419, -1.5840022563934326, 1.8005399703979492, -0.13872671127319336, -1.684008002281189, -0.87646484375, -0.201416015625, 0.458251953125, 
363, 3188523678, 0.6166735291481018, -0.038609862327575684, -0.7600546479225159, -0.20140467584133148, 9.416946411132812, 2.4566009044647217, -1.6182305812835693, 0.9170024394989014, -1.2486683130264282, -0.4722751975059509, -0.875, -0.201416015625, 0.459716796875, 
364, 3188532011, 0.616608202457428, -0.038611412048339844, -0.7601040601730347, -0.2014176994562149, 9.456650733947754, 2.447754383087158, -1.5357953310012817, -0.2769923508167267, -1.6579326391220093, -0.0970011055469513, -0.87841796875, -0.202880859375, 0.460693359375, 
365, 3188540344, 0.61652672290802, -0.0386328399181366, -0.7601561546325684, -0.20146656036376953, 9.5083646774292, 2.53106427192688, -1.4107204675674438, -0.7183255553245544, -1.825680136680603, -0.23226986825466156, -0.873046875, -0.201416015625, 0.458740234375, 
366, 3188548677, 0.6164290308952332, -0.038571178913116455, -0.7602308988571167, -0.20149526000022888, 9.536767959594727, 2.614063024520874, -1.3874094486236572, 0.16489164531230927, -2.023037910461426, -0.995599627494812, -0.875, -0.201416015625, 0.460205078125, 
367, 3188557010, 0.6163849830627441, -0.03839588165283203, -0.7602787017822266, -0.20148305594921112, 9.594562530517578, 2.6609609127044678, -1.4372321367263794, 1.5957540273666382, -0.8848181962966919, -1.6649765968322754, -0.876953125, -0.201904296875, 0.459716796875, 
368, 3188565343, 0.6163801550865173, -0.03816336393356323, -0.7602943181991577, -0.20148321986198425, 9.671968460083008, 2.594292402267456, -1.5310004949569702, 1.7722362279891968, -0.09969060868024826, -2.248417615890503, -0.87744140625, -0.203369140625, 0.460205078125, 
369, 3188573676, 0.6163750290870667, -0.03801459074020386, -0.760277509689331, -0.20159024000167847, 9.653932571411133, 2.4972901344299316, -1.5379451513290405, -0.03396447375416756, 0.05813150852918625, -2.2565884590148926, -0.880859375, -0.201416015625, 0.46240234375, 
370, 3188582009, 0.6163954734802246, -0.03792741894721985, -0.7602227330207825, -0.20175081491470337, 9.579733848571777, 2.448500156402588, -1.4797265529632568, -1.4878029823303223, 0.3967517018318176, -1.9618968963623047, -0.87939453125, -0.202880859375, 0.461669921875, 
371, 3188590342, 0.6163797974586487, -0.037899672985076904, -0.76018887758255, -0.20193134248256683, 9.544058799743652, 2.4897563457489014, -1.4620122909545898, -1.8804689645767212, -0.20463210344314575, -1.6337015628814697, -0.876953125, -0.203857421875, 0.461181640625, 
372, 3188598675, 0.6163171529769897, -0.03787219524383545, -0.7602073550224304, -0.2020581066608429, 9.467446327209473, 2.534628391265869, -1.4587931632995605, -1.2560964822769165, -1.2160613536834717, -1.3479490280151367, -0.87646484375, -0.203369140625, 0.460693359375, 
373, 3188607008, 0.6161683797836304, -0.03784060478210449, -0.7602920532226562, -0.20219922065734863, 9.40884780883789, 2.5917725563049316, -1.4385545253753662, -1.1764620542526245, -2.610628843307495, -1.7712502479553223, -0.87548828125, -0.203857421875, 0.460205078125, 
374, 3188615341, 0.6159884929656982, -0.037759751081466675, -0.7604191303253174, -0.20228467881679535, 9.381646156311035, 2.5794661045074463, -1.391922950744629, -0.03222270682454109, -3.2073888778686523, -1.9483213424682617, -0.876953125, -0.204833984375, 0.462158203125, 
375, 3188623674, 0.6158561706542969, -0.037595510482788086, -0.7605441808700562, -0.20224802196025848, 9.463456153869629, 2.5946152210235596, -1.3493069410324097, 1.9286620616912842, -2.504098653793335, -1.6272211074829102, -0.8740234375, -0.202880859375, 0.459716796875, 
376, 3188632007, 0.6158115267753601, -0.037322789430618286, -0.7606358528137207, -0.20208890736103058, 9.487710952758789, 2.6336259841918945, -1.35640287399292, 3.998138904571533, -1.1200850009918213, -1.474611520767212, -0.87451171875, -0.204345703125, 0.459716796875, 
377, 3188640340, 0.6158403754234314, -0.03704643249511719, -0.7606678009033203, -0.20193198323249817, 9.47378158569336, 2.6228058338165283, -1.4133456945419312, 3.95892333984375, 0.21927064657211304, -1.2858344316482544, -0.874267578125, -0.205322265625, 0.461669921875, 
378, 3188648673, 0.6158912777900696, -0.03691458702087402, -0.7606422901153564, -0.20189709961414337, 9.493295669555664, 2.6329686641693115, -1.5086345672607422, 1.317147970199585, 0.5667278170585632, -0.737356960773468, -0.876953125, -0.204833984375, 0.462158203125, 
379, 3188657006, 0.6159479022026062, -0.036962151527404785, -0.7605631351470947, -0.20201376080513, 9.503710746765137, 2.596508502960205, -1.5855613946914673, -1.9416614770889282, 0.6903676986694336, -0.07983957231044769, -0.8818359375, -0.203369140625, 0.45947265625, 
380, 3188665339, 0.6160151362419128, -0.03714147210121155, -0.7604503035545349, -0.2022004872560501, 9.432104110717773, 2.544612407684326, -1.5335465669631958, -3.915135383605957, 0.7134716510772705, 0.7338605523109436, -0.87646484375, -0.204833984375, 0.460205078125, 
381, 3188673672, 0.6160516142845154, -0.037387579679489136, -0.7603493928909302, -0.2024228721857071, 9.372659683227539, 2.608438491821289, -1.479032278060913, -4.799108505249023, 0.16724815964698792, 1.055216908454895, -0.8759765625, -0.204833984375, 0.460205078125, 
382, 3188682005, 0.6159862279891968, -0.03760397434234619, -0.7603224515914917, -0.20268268883228302, 9.309815406799316, 2.6017391681671143, -1.4053936004638672, -4.825414180755615, -1.4668502807617188, 0.09004683792591095, -0.87548828125, -0.204345703125, 0.459228515625, 
383, 3188690338, 0.615902304649353, -0.03772512078285217, -0.7603258490562439, -0.2029028683900833, 9.352983474731445, 2.5667402744293213, -1.3786394596099854, -3.4895808696746826, -1.629987359046936, -0.6217343211174011, -0.87646484375, -0.204345703125, 0.461181640625, 
384, 3188698671, 0.615865170955658, -0.03768351674079895, -0.7603296041488647, -0.2030095010995865, 9.434076309204102, 2.5419960021972656, -1.343801498413086, -0.818810224533081, -0.7584630846977234, -1.260450839996338, -0.873291015625, -0.208251953125, 0.46044921875, 
385, 3188707004, 0.6158565282821655, -0.03753975033760071, -0.7603344917297363, -0.20304399728775024, 9.489219665527344, 2.6157989501953125, -1.3922077417373657, 0.7384199500083923, -0.21226517856121063, -1.6102133989334106, -0.875244140625, -0.207275390625, 0.459716796875, 
386, 3188715337, 0.615868091583252, -0.03744593262672424, -0.7603194713592529, -0.20308208465576172, 9.492960929870605, 2.702115535736084, -1.4568551778793335, 0.17703278362751007, -0.01767382211983204, -1.0636823177337646, -0.874267578125, -0.205810546875, 0.460205078125, 
387, 3188723670, 0.615969717502594, -0.03745642304420471, -0.7602200508117676, -0.2031441181898117, 9.543405532836914, 2.7069475650787354, -1.5417277812957764, -1.0908336639404297, 1.4075407981872559, 0.13190051913261414, -0.873779296875, -0.205810546875, 0.461181640625, 
388, 3188732003, 0.6161185503005981, -0.0376240611076355, -0.7600449323654175, -0.20331677794456482, 9.643186569213867, 2.6371147632598877, -1.50802481174469, -3.7843751907348633, 2.1219985485076904, 0.9902336001396179, -0.879150390625, -0.20654296875, 0.459228515625, 
389, 3188740336, 0.616219162940979, -0.03793880343437195, -0.7598730325698853, -0.20359595119953156, 9.677201271057129, 2.5466725826263428, -1.5184166431427002, -6.141627311706543, 1.2723485231399536, 1.5073848962783813, -0.87890625, -0.205810546875, 0.460205078125, 
390, 3188748669, 0.6164022088050842, -0.03826609253883362, -0.75962895154953, -0.20389078557491302, 9.671934127807617, 2.4926486015319824, -1.5931349992752075, -6.722532749176025, 2.645451068878174, 1.771877408027649, -0.87646484375, -0.204345703125, 0.461181640625, 
391, 3188757002, 0.6165974736213684, -0.038588494062423706, -0.7593908309936523, -0.20412734150886536, 9.625901222229004, 2.4218969345092773, -1.6494559049606323, -5.896729946136475, 2.779080629348755, 2.2480719089508057, -0.875244140625, -0.207275390625, 0.458251953125, 
392, 3188765335, 0.616600751876831, -0.03898036479949951, -0.7593085169792175, -0.20434877276420593, 9.574782371520996, 2.389838457107544, -1.6293377876281738, -6.086813449859619, -0.8092049360275269, 2.470147132873535, -0.878173828125, -0.20751953125, 0.458251953125, 
393, 3188773668, 0.6164746880531311, -0.039358705282211304, -0.7593343257904053, -0.20456066727638245, 9.521729469299316, 2.4460060596466064, -1.541816234588623, -5.544124603271484, -2.98359751701355, 1.9983073472976685, -0.876953125, -0.205322265625, 0.457763671875, 
394, 3188782001, 0.6163334846496582, -0.039584964513778687, -0.7594103217124939, -0.20465949177742004, 9.475111961364746, 2.4453539848327637, -1.3642336130142212, -2.972327470779419, -3.24360728263855, 1.282338261604309, -0.877685546875, -0.20703125, 0.456298828125, 
395, 3188790334, 0.6161648035049438, -0.03961643576622009, -0.7595515251159668, -0.20463769137859344, 9.46480655670166, 2.480186939239502, -1.396699070930481, 0.13925178349018097, -3.556485176086426, 0.1736260950565338, -0.878662109375, -0.20703125, 0.459228515625, 
396, 3188798667, 0.6160162687301636, -0.039549559354782104, -0.7597022652626038, -0.20453856885433197, 9.394805908203125, 2.5499889850616455, -1.5511939525604248, 1.6422693729400635, -3.2746005058288574, -0.14715377986431122, -0.874755859375, -0.206787109375, 0.458740234375, 
397, 3188807000, 0.6158908605575562, -0.03953477740287781, -0.7598110437393188, -0.2045149803161621, 9.37587833404541, 2.6329240798950195, -1.683912992477417, 0.48207274079322815, -2.702097177505493, -0.153634175658226, -0.87548828125, -0.205322265625, 0.455322265625, 
398, 3188815333, 0.6157490015029907, -0.039687782526016235, -0.7598816156387329, -0.20465007424354553, 9.423910140991211, 2.6663589477539062, -1.6528918743133545, -2.6431069374084473, -2.950631618499756, 0.20075152814388275, -0.873779296875, -0.204833984375, 0.458740234375, 
399, 3188823666, 0.6156845688819885, -0.03990453481674194, -0.7598517537117004, -0.20491260290145874, 9.485373497009277, 2.5431456565856934, -1.482598900794983, -4.824748992919922, -1.3868316411972046, 0.08897105604410172, -0.881103515625, -0.20654296875, 0.457275390625, 
400, 3188831999, 0.6156601905822754, -0.04012662172317505, -0.7597918510437012, -0.20516425371170044, 9.496400833129883, 2.416137933731079, -1.366489291191101, -4.879691123962402, -0.7836931347846985, 0.3519524037837982, -0.875732421875, -0.205810546875, 0.458740234375, 
401, 3188840332, 0.615624189376831, -0.04035314917564392, -0.7597780227661133, -0.20527973771095276, 9.377326011657715, 2.3681585788726807, -1.3231638669967651, -3.3115620613098145, -1.3334770202636719, 1.5075130462646484, -0.875244140625, -0.206787109375, 0.457275390625, 
402, 3188848665, 0.6154866814613342, -0.040594786405563354, -0.7598881125450134, -0.2052365392446518, 9.292059898376465, 2.3167855739593506, -1.337773084640503, -1.254790186882019, -3.544600248336792, 2.6065683364868164, -0.875244140625, -0.208984375, 0.458251953125, 
403, 3188856998, 0.6152741312980652, -0.04072830080986023, -0.7601135969161987, -0.2050125002861023, 9.394929885864258, 2.289283514022827, -1.5131999254226685, 1.601568579673767, -5.130685329437256, 2.776724338531494, -0.872802734375, -0.206787109375, 0.45947265625, 
404, 3188865331, 0.615068256855011, -0.04075115919113159, -0.7603414058685303, -0.20478087663650513, 9.409674644470215, 2.3041887283325195, -1.5151879787445068, 2.5709140300750732, -4.82075309753418, 1.6890668869018555, -0.873779296875, -0.205810546875, 0.461181640625, 
405, 3188873664, 0.6148586273193359, -0.040679723024368286, -0.7605763673782349, -0.20455212891101837, 9.323902130126953, 2.3197569847106934, -1.3976922035217285, 3.4126744270324707, -4.606233596801758, 0.6785082817077637, -0.876220703125, -0.206787109375, 0.460693359375, 
406, 3188881997, 0.6146457195281982, -0.040490150451660156, -0.7608333826065063, -0.2042732536792755, 9.394915580749512, 2.456758975982666, -1.4215734004974365, 4.925220012664795, -4.573062896728516, -0.16772200167179108, -0.874755859375, -0.206298828125, 0.459716796875, 
407, 3188890330, 0.6144709587097168, -0.04020196199417114, -0.7610651254653931, -0.20399242639541626, 9.499390602111816, 2.757115602493286, -1.5866446495056152, 5.801201820373535, -3.633533000946045, -1.0490310192108154, -0.874267578125, -0.208740234375, 0.46435546875, 
408, 3188898663, 0.6143857836723328, -0.039900243282318115, -0.7611945867538452, -0.20382475852966309, 9.482460975646973, 2.9523305892944336, -1.701741337776184, 4.521796703338623, -1.7564191818237305, -1.8660482168197632, -0.872802734375, -0.204833984375, 0.462158203125, 
409, 3188906996, 0.6144155859947205, -0.03969487547874451, -0.7611877918243408, -0.20380054414272308, 9.330667495727539, 2.783357620239258, -1.5770392417907715, 1.8589144945144653, 0.4326627850532532, -1.643844723701477, -0.874755859375, -0.205322265625, 0.463134765625, 
410, 3188915329, 0.6145004034042358, -0.039706408977508545, -0.7611101865768433, -0.20383264124393463, 9.288874626159668, 2.492114782333374, -1.491696834564209, -0.5924572348594666, 1.033675193786621, 0.3035670816898346, -0.873779296875, -0.207275390625, 0.46142578125, 
411, 3188923662, 0.6145293116569519, -0.039832502603530884, -0.761110782623291, -0.20371876657009125, 9.45386791229248, 2.384986162185669, -1.6334878206253052, 0.01643153466284275, -0.6182252168655396, 2.5759854316711426, -0.874267578125, -0.207275390625, 0.463623046875, 
412, 3188931995, 0.6144149899482727, -0.04007706046104431, -0.7612437009811401, -0.20351895689964294, 9.57227897644043, 2.5461156368255615, -1.7137662172317505, 0.19608977437019348, -3.649669885635376, 4.047548294067383, -0.874755859375, -0.206298828125, 0.462158203125, 
413, 3188940328, 0.6142101287841797, -0.040389686822891235, -0.7614258527755737, -0.2033938765525818, 9.521001815795898, 2.6940526962280273, -1.6539236307144165, -1.0632468461990356, -5.127585411071777, 3.8672242164611816, -0.873779296875, -0.206787109375, 0.463623046875, 
414, 3188948661, 0.6140953302383423, -0.04060158133506775, -0.7615411281585693, -0.2032661885023117, 9.454130172729492, 2.715090274810791, -1.6165900230407715, -0.3027602732181549, -3.3664281368255615, 3.101461410522461, -0.872802734375, -0.20458984375, 0.462646484375, 
415, 3188956994, 0.6140368580818176, -0.040652185678482056, -0.7616455554962158, -0.20304162800312042, 9.453756332397461, 2.6224963665008545, -1.5190356969833374, 2.0562210083007812, -2.259969711303711, 2.4169721603393555, -0.874755859375, -0.204833984375, 0.464111328125, 
416, 3188965327, 0.6139020919799805, -0.04059770703315735, -0.7618541121482849, -0.20267754793167114, 9.419685363769531, 2.576382875442505, -1.4593243598937988, 4.6494317054748535, -3.757275104522705, 2.2021195888519287, -0.8720703125, -0.2041015625, 0.465087890625, 
417, 3188973660, 0.6137812733650208, -0.04050436615943909, -0.7620507478713989, -0.20232278108596802, 9.520696640014648, 2.5777029991149902, -1.5204659700393677, 4.857778072357178, -3.362842082977295, 1.7831733226776123, -0.875, -0.20458984375, 0.464111328125, 
418, 3188981993, 0.6137906312942505, -0.04048115015029907, -0.7620921730995178, -0.2021423578262329, 9.617253303527832, 2.5549349784851074, -1.5759624242782593, 2.0954623222351074, -0.8159926533699036, 1.4719347953796387, -0.879150390625, -0.205810546875, 0.466552734375, 
419, 3188990326, 0.6139299273490906, -0.040624260902404785, -0.7619689106941223, -0.2021554708480835, 9.698579788208008, 2.531520128250122, -1.5936617851257324, -1.7382333278656006, 1.6107640266418457, 2.0587570667266846, -0.873046875, -0.203125, 0.465576171875, 
420, 3188998659, 0.6140745282173157, -0.04084298014640808, -0.7618250846862793, -0.20221447944641113, 9.737846374511719, 2.4854815006256104, -1.5418950319290161, -2.954012632369995, 1.609252691268921, 2.4712483882904053, -0.87353515625, -0.20263671875, 0.465087890625, 
421, 3189006992, 0.6141801476478577, -0.04095864295959473, -0.761752724647522, -0.2021428346633911, 9.75747299194336, 2.5125527381896973, -1.5076345205307007, -0.49527686834335327, 0.8572956919670105, 2.36374568939209, -0.87255859375, -0.20361328125, 0.467041015625, 
422, 3189015325, 0.6143594980239868, -0.04092791676521301, -0.7616578340530396, -0.20196112990379333, 9.726523399353027, 2.571861505508423, -1.515477180480957, 1.9273303747177124, 2.142899751663208, 1.948513388633728, -0.875, -0.20263671875, 0.465576171875, 
423, 3189023658, 0.6146378517150879, -0.04083460569381714, -0.7614880800247192, -0.20177385210990906, 9.61592960357666, 2.599919557571411, -1.6366649866104126, 2.306523561477661, 4.004517078399658, 1.6873506307601929, -0.87451171875, -0.20361328125, 0.462646484375, 
424, 3189031991, 0.614872932434082, -0.04085901379585266, -0.7613319158554077, -0.20164211094379425, 9.477415084838867, 2.5592188835144043, -1.6492302417755127, 0.7111408114433289, 3.0987205505371094, 2.303910493850708, -0.87451171875, -0.20068359375, 0.465087890625, 
425, 3189040324, 0.6149541735649109, -0.04102557897567749, -0.7612853646278381, -0.20153628289699554, 9.383930206298828, 2.543262004852295, -1.5897899866104126, -0.5099282264709473, 0.22334332764148712, 3.1029212474823, -0.87548828125, -0.20263671875, 0.462646484375, 
426, 3189048657, 0.6149241328239441, -0.04119870066642761, -0.7613393068313599, -0.20138856768608093, 9.278141021728516, 2.6410415172576904, -1.4961940050125122, 0.0905078873038292, -1.8646903038024902, 3.138345241546631, -0.876953125, -0.2021484375, 0.464111328125, 
427, 3189056990, 0.6149305701255798, -0.04128924012184143, -0.7613679766654968, -0.2012414187192917, 9.26679801940918, 2.61476993560791, -1.4492155313491821, 0.729915976524353, -1.0093544721603394, 2.4056248664855957, -0.87451171875, -0.201171875, 0.465576171875, 
428, 3189065323, 0.6150312423706055, -0.04135924577713013, -0.7613073587417603, -0.2011486291885376, 9.35069751739502, 2.5519866943359375, -1.5049227476119995, 0.08817700296640396, 0.7735626697540283, 2.029710292816162, -0.8740234375, -0.19970703125, 0.463623046875, 
429, 3189073656, 0.6151562929153442, -0.041504889726638794, -0.7612037062644958, -0.2011287361383438, 9.42247200012207, 2.5675461292266846, -1.5407273769378662, -1.3665705919265747, 1.2722718715667725, 2.3096485137939453, -0.8759765625, -0.20068359375, 0.462646484375, 
430, 3189081989, 0.6152913570404053, -0.041678279638290405, -0.7610898017883301, -0.20111118257045746, 9.420970916748047, 2.56947922706604, -1.4548933506011963, -1.658572793006897, 1.3529822826385498, 2.594324827194214, -0.8759765625, -0.20166015625, 0.462646484375, 
431, 3189090322, 0.6154400110244751, -0.041772663593292236, -0.7609800100326538, -0.20105238258838654, 9.520145416259766, 2.532560110092163, -1.355999231338501, -0.5291901230812073, 1.6905009746551514, 2.1721513271331787, -0.87158203125, -0.19970703125, 0.462158203125, 
432, 3189098655, 0.6155987977981567, -0.041713446378707886, -0.7608794569969177, -0.20095884799957275, 9.595165252685547, 2.460390090942383, -1.339071273803711, 1.1589800119400024, 2.088341474533081, 0.8614451289176941, -0.879638671875, -0.197021484375, 0.45947265625, 
433, 3189106988, 0.6157707571983337, -0.04158863425254822, -0.7607581615447998, -0.2009170651435852, 9.612005233764648, 2.4665658473968506, -1.3855708837509155, 1.1305997371673584, 2.6478843688964844, -0.19612820446491241, -0.87646484375, -0.19775390625, 0.462646484375, 
434, 3189115321, 0.6159452199935913, -0.04146623611450195, -0.7606223821640015, -0.200921893119812, 9.542208671569824, 2.5176310539245605, -1.5091121196746826, 0.6163425445556641, 2.7904789447784424, -0.5732210278511047, -0.87548828125, -0.19677734375, 0.463623046875, 
435, 3189123654, 0.6161401867866516, -0.04138347506523132, -0.7604812979698181, -0.20087496936321259, 9.46435546875, 2.5706136226654053, -1.631091833114624, 0.7868309020996094, 2.937530040740967, 0.36160898208618164, -0.876953125, -0.19921875, 0.464111328125, 
436, 3189131987, 0.616314172744751, -0.041355669498443604, -0.7603512406349182, -0.2008388191461563, 9.364587783813477, 2.5939676761627197, -1.6143437623977661, 0.182411789894104, 2.432955265045166, 0.7669030427932739, -0.876953125, -0.19775390625, 0.4609375, 
437, 3189140320, 0.6164171695709229, -0.041464805603027344, -0.760249137878418, -0.20088700950145721, 9.319205284118652, 2.5873589515686035, -1.61897873878479, -1.7791903018951416, 1.1688159704208374, 1.2881271839141846, -0.880126953125, -0.197509765625, 0.4599609375, 
438, 3189148653, 0.6165418028831482, -0.041700661182403564, -0.7601218819618225, -0.20093749463558197, 9.406235694885254, 2.4695651531219482, -1.7122869491577148, -2.724893569946289, 1.2804173231124878, 2.6219372749328613, -0.8759765625, -0.197265625, 0.460205078125, 
439, 3189156986, 0.6167047023773193, -0.04206213355064392, -0.7599499821662903, -0.20101292431354523, 9.459138870239258, 2.433605909347534, -1.6250983476638794, -4.360849380493164, 1.705075740814209, 3.9004461765289307, -0.878173828125, -0.197265625, 0.46142578125, 
440, 3189165319, 0.6168466806411743, -0.042509108781814575, -0.7597858905792236, -0.20110267400741577, 9.47352123260498, 2.4337759017944336, -1.4348944425582886, -5.429065704345703, 1.1065733432769775, 4.612983226776123, -0.87744140625, -0.19873046875, 0.4609375, 
441, 3189173652, 0.61698317527771, -0.04294353723526001, -0.7596042156219482, -0.2012784481048584, 9.579662322998047, 2.4106898307800293, -1.3471561670303345, -6.070740699768066, 1.3696956634521484, 3.7440335750579834, -0.877197265625, -0.19677734375, 0.45947265625, 
442, 3189181985, 0.6171793341636658, -0.043214231729507446, -0.7593756318092346, -0.20148144662380219, 9.680782318115234, 2.3668787479400635, -1.3597115278244019, -4.944213390350342, 2.8550522327423096, 1.9607055187225342, -0.880126953125, -0.197509765625, 0.45849609375, 
443, 3189190318, 0.6174867153167725, -0.04316893219947815, -0.7591105699539185, -0.2015475332736969, 9.70785903930664, 2.344141721725464, -1.4322857856750488, -0.9847392439842224, 5.124781131744385, 0.18758584558963776, -0.876953125, -0.198486328125, 0.457275390625, 
