sep=,
PacketCounter,SampleTimeFine,Quat_W,Quat_X,Quat_Y,Quat_Z,Acc_X,Acc_Y,Acc_Z,Gyr_X,Gyr_Y,Gyr_Z,Mag_X,Mag_Y,Mag_Z,
0, 2844195785, 0.8830803632736206, 0.0007424652576446533, -0.4637570083141327, -0.07159912586212158, 0, 0, 0, 0, 0, 0, -0.908447265625, 0.132080078125, -0.2265625, 
1, 2844204118, 0.88309645652771, 0.0008006095886230469, -0.4637224078178406, -0.07162448763847351, 8.118634223937988, 0.6277477741241455, 5.479092121124268, 0.3598543703556061, 0.060270290821790695, -0.46737006306648254, -0.905029296875, 0.132568359375, -0.226318359375, 
2, 2844212451, 0.883102297782898, 0.0008441954851150513, -0.46370580792427063, -0.07165822386741638, 8.102991104125977, 0.635501503944397, 5.5020527839660645, 0.12456201761960983, -0.2303103804588318, -0.5062780976295471, -0.906005859375, 0.132568359375, -0.22705078125, 
3, 2844220784, 0.8831179141998291, 0.0008634030818939209, -0.463670015335083, -0.07169774174690247, 8.069070816040039, 0.6343997716903687, 5.53524923324585, -0.20484982430934906, 0.03365710377693176, -0.39134708046913147, -0.90576171875, 0.131103515625, -0.229736328125, 
4, 2844229117, 0.883123517036438, 0.0008388608694076538, -0.4636516571044922, -0.07174748182296753, 8.05415153503418, 0.6470747590065002, 5.569031715393066, -0.5796629190444946, -0.26084256172180176, -0.11299718171358109, -0.907470703125, 0.131591796875, -0.22607421875, 
5, 2844237450, 0.8831357955932617, 0.000800013542175293, -0.4636232256889343, -0.0717807412147522, 8.04698371887207, 0.6709938645362854, 5.613393783569336, -0.8618037104606628, -0.13366788625717163, 0.051356539130210876, -0.908447265625, 0.133056640625, -0.2275390625, 
6, 2844245783, 0.8831493258476257, 0.0007575303316116333, -0.4635927677154541, -0.07181105017662048, 8.029889106750488, 0.6942048668861389, 5.615324974060059, -0.8608559966087341, -0.09401705116033554, 0.12842977046966553, -0.910400390625, 0.134521484375, -0.2275390625, 
7, 2844254116, 0.8831688165664673, 0.0007436573505401611, -0.4635535776615143, -0.07182368636131287, 7.995441436767578, 0.7495248317718506, 5.580498218536377, -0.4397324025630951, 0.06910720467567444, 0.14869065582752228, -0.905517578125, 0.132568359375, -0.227783203125, 
8, 2844262449, 0.883185088634491, 0.000746995210647583, -0.4635191559791565, -0.07184764742851257, 7.990655422210693, 0.7326084971427917, 5.573724269866943, -0.2570516765117645, 0.017263995483517647, -0.07862289249897003, -0.90673828125, 0.130126953125, -0.228271484375, 
9, 2844270782, 0.883171558380127, 0.000762641429901123, -0.4635399281978607, -0.07187962532043457, 7.98553991317749, 0.6825746297836304, 5.553459644317627, -0.14375990629196167, -0.8418759703636169, -0.30628225207328796, -0.906982421875, 0.133056640625, -0.22607421875, 
10, 2844279115, 0.8831453323364258, 0.0007767379283905029, -0.463581383228302, -0.07193323969841003, 8.043930053710938, 0.6351936459541321, 5.562258243560791, -0.3431154489517212, -1.174246072769165, -0.6182379126548767, -0.908447265625, 0.131591796875, -0.22705078125, 
11, 2844287448, 0.8831048607826233, 0.0007564425468444824, -0.4636487662792206, -0.07199692726135254, 8.063956260681152, 0.6193344593048096, 5.601137161254883, -0.7368319034576416, -1.6143243312835693, -0.4876565635204315, -0.906982421875, 0.131591796875, -0.2275390625, 
12, 2844295781, 0.8830827474594116, 0.0007261484861373901, -0.46368181705474854, -0.0720546543598175, 8.077533721923828, 0.6249081492424011, 5.625024318695068, -0.8322705626487732, -1.0833156108856201, -0.3239816725254059, -0.9052734375, 0.131591796875, -0.226806640625, 
13, 2844304114, 0.8830906748771667, 0.0006987154483795166, -0.4636618196964264, -0.07208570837974548, 8.058829307556152, 0.6131274700164795, 5.669285297393799, -0.7019452452659607, -0.25256913900375366, 0.0008708839304745197, -0.90869140625, 0.130615234375, -0.228515625, 
14, 2844312447, 0.8831047415733337, 0.0006649792194366455, -0.46363145112991333, -0.07211083173751831, 8.052026748657227, 0.6198796629905701, 5.683162689208984, -0.67192542552948, -0.07864850759506226, 0.1700529009103775, -0.908203125, 0.129638671875, -0.22802734375, 
15, 2844320780, 0.8831257820129395, 0.000634998083114624, -0.46358996629714966, -0.07211974263191223, 8.032814025878906, 0.6087284088134766, 5.675380229949951, -0.61355060338974, 0.08898384869098663, 0.2971763610839844, -0.906982421875, 0.131591796875, -0.22705078125, 
16, 2844329113, 0.8831401467323303, 0.0005937814712524414, -0.46356356143951416, -0.0721142590045929, 8.019474029541016, 0.6286562085151672, 5.690694332122803, -0.6310451626777649, -0.13922619819641113, 0.5443794131278992, -0.90771484375, 0.130126953125, -0.23095703125, 
17, 2844337446, 0.8831640481948853, 0.000591769814491272, -0.46352213621139526, -0.07208666205406189, 8.000232696533203, 0.6561660766601562, 5.652026176452637, -0.04171278327703476, 0.1362421214580536, 0.5667150020599365, -0.908935546875, 0.132080078125, -0.22998046875, 
18, 2844345779, 0.883202075958252, 0.000642627477645874, -0.4634582996368408, -0.07203167676925659, 8.045467376708984, 0.6508872509002686, 5.577229022979736, 0.5759104490280151, 0.5435853004455566, 0.4513227939605713, -0.908447265625, 0.133056640625, -0.22900390625, 
19, 2844354112, 0.8832532167434692, 0.0007364898920059204, -0.46337300539016724, -0.07195177674293518, 8.027629852294922, 0.6744971871376038, 5.465184688568115, 1.4129067659378052, 0.936661422252655, 0.6168420910835266, -0.906494140625, 0.132568359375, -0.228515625, 
20, 2844362445, 0.8832172155380249, 0.0007480829954147339, -0.4634430408477783, -0.07194358110427856, 7.979833126068115, 0.6677679419517517, 5.588265895843506, 0.11137070506811142, -1.581076979637146, 0.18091334402561188, -0.908203125, 0.130126953125, -0.228515625, 
21, 2844370778, 0.8830822706222534, 0.0006392449140548706, -0.4636927843093872, -0.07199400663375854, 7.999889850616455, 0.6121172308921814, 5.711400032043457, -1.5461649894714355, -4.519900798797607, 0.1444130688905716, -0.906982421875, 0.133056640625, -0.2275390625, 
22, 2844379111, 0.8830047845840454, 0.0006288141012191772, -0.4638434946537018, -0.07197168469429016, 8.069220542907715, 0.6723403930664062, 5.640254974365234, -0.029955849051475525, -2.849135637283325, 0.4231215715408325, -0.909423828125, 0.132568359375, -0.2275390625, 
23, 2844387444, 0.8830416798591614, 0.0006876289844512939, -0.4637836217880249, -0.07190406322479248, 8.126237869262695, 0.7401549816131592, 5.586377143859863, 0.9351500272750854, 0.502704918384552, 0.6762925982475281, -0.90869140625, 0.131103515625, -0.2275390625, 
24, 2844395777, 0.8830842971801758, 0.0006832480430603027, -0.4637047052383423, -0.07188987731933594, 8.014395713806152, 0.666902482509613, 5.5649261474609375, -0.2063867151737213, 0.7134333848953247, 0.42263489961624146, -0.9072265625, 0.131103515625, -0.2265625, 
25, 2844404110, 0.8830924034118652, 0.000593230128288269, -0.463681697845459, -0.07193958759307861, 8.020732879638672, 0.6255518794059753, 5.640953540802002, -1.58538019657135, -0.2769795060157776, 0.1735108196735382, -0.90625, 0.131591796875, -0.228759765625, 
26, 2844412443, 0.883076548576355, 0.00042484700679779053, -0.4637010097503662, -0.0720110535621643, 8.052356719970703, 0.6313660144805908, 5.668909072875977, -2.6060049533843994, -1.0128508806228638, 0.39812204241752625, -0.907958984375, 0.133056640625, -0.2255859375, 
27, 2844420776, 0.8830858469009399, 0.00036250054836273193, -0.46367865800857544, -0.07204002141952515, 8.005719184875488, 0.6339565515518188, 5.620367050170898, -1.1159480810165405, -0.24857334792613983, 0.2510451078414917, -0.907958984375, 0.131591796875, -0.22509765625, 
28, 2844429109, 0.883105993270874, 0.0004091709852218628, -0.4636473059654236, -0.0719958245754242, 8.007758140563965, 0.6009389758110046, 5.542580604553223, 0.5689433813095093, 0.035859931260347366, 0.38444405794143677, -0.909423828125, 0.132080078125, -0.22705078125, 
29, 2844437442, 0.883037805557251, 0.0003894418478012085, -0.46377789974212646, -0.07199117541313171, 8.015366554260254, 0.5868670344352722, 5.529266834259033, -0.2315911203622818, -2.558183431625366, 0.311238557100296, -0.90869140625, 0.130126953125, -0.22509765625, 
30, 2844445775, 0.8829079866409302, 0.0003374069929122925, -0.46401700377464294, -0.07204276323318481, 8.027782440185547, 0.5695570111274719, 5.575811386108398, -0.5126304626464844, -4.265679836273193, 0.0097846370190382, -0.90771484375, 0.131103515625, -0.22705078125, 
31, 2844454108, 0.882818341255188, 0.000369340181350708, -0.46419233083724976, -0.0720115602016449, 8.059027671813965, 0.578146755695343, 5.639758110046387, 0.6110275387763977, -3.187678575515747, 0.28342151641845703, -0.909912109375, 0.131591796875, -0.2236328125, 
32, 2844462441, 0.8828012347221375, 0.00047864019870758057, -0.46423929929733276, -0.0719170868396759, 8.083616256713867, 0.6677554845809937, 5.588908672332764, 1.8310078382492065, -1.0808054208755493, 0.6267035007476807, -0.909423828125, 0.134521484375, -0.22802734375, 
33, 2844470774, 0.882809042930603, 0.0005512386560440063, -0.4642346501350403, -0.07185134291648865, 8.081968307495117, 0.6873595714569092, 5.5012946128845215, 1.1447257995605469, -0.3408358097076416, 0.5381806492805481, -0.908447265625, 0.132568359375, -0.22509765625, 
34, 2844479107, 0.8827869296073914, 0.0005310326814651489, -0.4642769992351532, -0.0718507468700409, 8.035889625549316, 0.6830464601516724, 5.475307941436768, -0.374518483877182, -1.1884875297546387, 0.2884162664413452, -0.907958984375, 0.131591796875, -0.22412109375, 
35, 2844487440, 0.8827089071273804, 0.0004426240921020508, -0.4644199013710022, -0.0718863308429718, 8.039911270141602, 0.6910936236381531, 5.537858009338379, -1.309771180152893, -2.839043617248535, 0.25048157572746277, -0.908935546875, 0.131591796875, -0.2275390625, 
36, 2844495773, 0.8826192617416382, 0.00040002167224884033, -0.46458515524864197, -0.07192015647888184, 8.058382987976074, 0.7179235219955444, 5.611128330230713, -0.6939536929130554, -3.1295087337493896, -0.015458190813660622, -0.9111328125, 0.130126953125, -0.2265625, 
37, 2844504106, 0.882561206817627, 0.0004084259271621704, -0.46469539403915405, -0.07191944122314453, 8.077094078063965, 0.6979923844337463, 5.613040924072266, 0.06475277245044708, -2.219332456588745, 0.09295404702425003, -0.909423828125, 0.134033203125, -0.22509765625, 
38, 2844512439, 0.88252854347229, 0.0004389435052871704, -0.4647594392299652, -0.0719074010848999, 8.085866928100586, 0.6754214763641357, 5.585540771484375, 0.253632128238678, -1.475034236907959, 0.039112940430641174, -0.908935546875, 0.131591796875, -0.224609375, 
39, 2844520772, 0.8824912309646606, 0.000454142689704895, -0.464827299118042, -0.07192713022232056, 8.087011337280273, 0.6620385050773621, 5.5751190185546875, -0.025473354384303093, -1.5665537118911743, -0.1787233203649521, -0.907958984375, 0.133544921875, -0.2255859375, 
40, 2844529105, 0.8824585676193237, 0.0004920065402984619, -0.4648883044719696, -0.07193326950073242, 8.09997272491455, 0.6293572187423706, 5.587779521942139, 0.2858036160469055, -1.4264695644378662, -0.18663811683654785, -0.9091796875, 0.131103515625, -0.22216796875, 
41, 2844537438, 0.8824397325515747, 0.0005379766225814819, -0.4649249315261841, -0.07192724943161011, 8.100809097290039, 0.6510732173919678, 5.583430767059326, 0.4808303713798523, -1.0385675430297852, -0.043864376842975616, -0.90771484375, 0.131103515625, -0.22509765625, 
42, 2844545771, 0.8824396729469299, 0.0005637705326080322, -0.46492743492126465, -0.07191106677055359, 8.11114501953125, 0.664534866809845, 5.556356906890869, 0.23016950488090515, -0.5193414092063904, 0.19605134427547455, -0.90869140625, 0.131103515625, -0.2236328125, 
43, 2844554104, 0.8824447989463806, 0.0005515068769454956, -0.4649154245853424, -0.0719260573387146, 8.100852012634277, 0.6507582664489746, 5.546665191650391, -0.4074840545654297, -0.35200363397598267, 0.09682179987430573, -0.908935546875, 0.132080078125, -0.22607421875, 
44, 2844562437, 0.8824441432952881, 0.0005123913288116455, -0.46491244435310364, -0.0719527006149292, 8.060274124145508, 0.6397505402565002, 5.543359756469727, -0.809217631816864, -0.5187522768974304, 0.1098850667476654, -0.909423828125, 0.132080078125, -0.22314453125, 
45, 2844570770, 0.8824319839477539, 0.0005022138357162476, -0.4649331569671631, -0.07196828722953796, 8.021120071411133, 0.6605294942855835, 5.557079315185547, -0.35366854071617126, -0.85714191198349, 0.05893835052847862, -0.907958984375, 0.133056640625, -0.224609375, 
46, 2844579103, 0.8824101686477661, 0.0005169063806533813, -0.46497172117233276, -0.0719856321811676, 8.010004043579102, 0.637067973613739, 5.58221435546875, -0.03431026637554169, -1.1039608716964722, -0.1305941790342331, -0.907958984375, 0.132080078125, -0.2255859375, 
47, 2844587436, 0.8823719024658203, 0.0005448013544082642, -0.465043306350708, -0.07199317216873169, 8.047220230102539, 0.6274402141571045, 5.580776691436768, 0.2102416604757309, -1.6041556596755981, -0.11143473535776138, -0.907470703125, 0.132080078125, -0.224609375, 
48, 2844595769, 0.8823210000991821, 0.0005476623773574829, -0.465138703584671, -0.0719996988773346, 8.070026397705078, 0.622802734375, 5.572635173797607, -0.06991405040025711, -1.991621971130371, 0.04054732993245125, -0.91064453125, 0.130126953125, -0.224609375, 
49, 2844604102, 0.8822689652442932, 0.0005199909210205078, -0.46523669362068176, -0.07200494408607483, 8.091304779052734, 0.6496057510375977, 5.5664963722229, -0.4229550361633301, -2.0674142837524414, 0.2562960088253021, -0.908447265625, 0.132568359375, -0.2265625, 
50, 2844612435, 0.8822293281555176, 0.00047628581523895264, -0.4653117060661316, -0.07200661301612854, 8.11373519897461, 0.7088940143585205, 5.562499523162842, -0.5935970544815063, -1.7162177562713623, 0.426733136177063, -0.91015625, 0.130126953125, -0.22509765625, 
51, 2844620768, 0.8822148442268372, 0.0004595816135406494, -0.46533775329589844, -0.07201510667800903, 8.141459465026855, 0.6926454305648804, 5.549026012420654, -0.38240769505500793, -0.943359375, 0.1858568787574768, -0.90869140625, 0.130615234375, -0.22314453125, 
52, 2844629101, 0.8822340965270996, 0.00048735737800598145, -0.4653051495552063, -0.07198989391326904, 8.18460464477539, 0.6566023826599121, 5.4865593910217285, 0.223535418510437, 0.027330387383699417, 0.2778119742870331, -0.91015625, 0.130615234375, -0.224609375, 
53, 2844637434, 0.8822189569473267, 0.0005265027284622192, -0.4653368592262268, -0.07197079062461853, 8.181544303894043, 0.6774818301200867, 5.546200752258301, 0.4782177209854126, -0.9609820246696472, 0.16185633838176727, -0.90869140625, 0.131103515625, -0.22216796875, 
54, 2844645767, 0.8821568489074707, 0.0005032271146774292, -0.4654473066329956, -0.07201823592185974, 8.10324478149414, 0.6410753726959229, 5.661378860473633, -0.5207501649856567, -2.2628767490386963, -0.22621209919452667, -0.90869140625, 0.130126953125, -0.22412109375, 
55, 2844654100, 0.8821214437484741, 0.0005444586277008057, -0.46551382541656494, -0.07202205061912537, 8.120685577392578, 0.5940792560577393, 5.642254829406738, 0.391154944896698, -1.511354923248291, -0.15052202343940735, -0.910888671875, 0.1337890625, -0.22119140625, 
56, 2844662433, 0.8821824789047241, 0.0006290227174758911, -0.465395450592041, -0.07203829288482666, 8.069866180419922, 0.6173118352890015, 5.549805164337158, 0.7520595192909241, 1.4069130420684814, -0.4243638217449188, -0.90966796875, 0.131103515625, -0.22412109375, 
57, 2844670766, 0.8822532296180725, 0.0007162988185882568, -0.46525609493255615, -0.0720721185207367, 8.053709983825684, 0.6084330081939697, 5.477614402770996, 0.5530624985694885, 1.7109283208847046, -0.7043530344963074, -0.90966796875, 0.130615234375, -0.2236328125, 
58, 2844679099, 0.882229745388031, 0.0007445961236953735, -0.46529245376586914, -0.0721220076084137, 8.085860252380371, 0.5884000062942505, 5.4488139152526855, -0.004777054768055677, -1.0673835277557373, -0.5620147585868835, -0.90625, 0.130615234375, -0.223388671875, 
59, 2844687432, 0.8821408748626709, 0.0007583945989608765, -0.46545499563217163, -0.07216089963912964, 8.11174488067627, 0.6102921962738037, 5.439974784851074, -0.06970914453268051, -3.046826124191284, -0.4514637291431427, -0.91064453125, 0.130126953125, -0.22314453125, 
60, 2844695765, 0.8820803165435791, 0.0008260160684585571, -0.4655713438987732, -0.07214942574501038, 8.113330841064453, 0.6551709771156311, 5.494215965270996, 0.9108933806419373, -2.2374672889709473, -0.12436991184949875, -0.912353515625, 0.132080078125, -0.22412109375, 
61, 2844704098, 0.8820539712905884, 0.0008669793605804443, -0.4656258523464203, -0.07212096452713013, 8.138076782226562, 0.6717881560325623, 5.551672458648682, 0.5825701355934143, -1.3067998886108398, 0.2517879009246826, -0.9091796875, 0.130615234375, -0.2216796875, 
62, 2844712431, 0.8820239305496216, 0.000847741961479187, -0.46568048000335693, -0.07213351130485535, 8.11964225769043, 0.6858646273612976, 5.552566051483154, -0.31816720962524414, -1.377699851989746, 0.19277271628379822, -0.9091796875, 0.130126953125, -0.2236328125, 
63, 2844720764, 0.8819819092750549, 0.0008491575717926025, -0.4657556116580963, -0.0721622109413147, 8.101781845092773, 0.6760687828063965, 5.568931579589844, -0.24362978339195251, -1.697801113128662, -0.20272386074066162, -0.90771484375, 0.130615234375, -0.22265625, 
64, 2844729097, 0.8819278478622437, 0.0008679628372192383, -0.46585237979888916, -0.07219836115837097, 8.062676429748535, 0.6610046029090881, 5.586635112762451, 0.02161841094493866, -2.0070929527282715, -0.36757704615592957, -0.90966796875, 0.131103515625, -0.22314453125, 
65, 2844737430, 0.8818727731704712, 0.0008972585201263428, -0.4659496545791626, -0.07224312424659729, 8.06873607635498, 0.6473783850669861, 5.588710308074951, 0.015112397260963917, -2.022307872772217, -0.5888071656227112, -0.91064453125, 0.130126953125, -0.22314453125, 
66, 2844745763, 0.8818216919898987, 0.000913769006729126, -0.46603721380233765, -0.07230153679847717, 8.062688827514648, 0.6262812614440918, 5.553845405578613, -0.15459473431110382, -1.8778437376022339, -0.6170085668563843, -0.911376953125, 0.131103515625, -0.22314453125, 
67, 2844754096, 0.8817831873893738, 0.0009034276008605957, -0.4661000967025757, -0.07236635684967041, 8.054791450500488, 0.6694815754890442, 5.535058498382568, -0.6293033957481384, -1.5380964279174805, -0.5630137920379639, -0.912109375, 0.129638671875, -0.22314453125, 
68, 2844762429, 0.8817375898361206, 0.0008944869041442871, -0.4661756753921509, -0.07243475317955017, 8.091368675231934, 0.6963499188423157, 5.498703956604004, -0.574360728263855, -1.7252339124679565, -0.5950058102607727, -0.91015625, 0.128662109375, -0.22119140625, 
69, 2844770762, 0.8816896080970764, 0.0009112805128097534, -0.46626192331314087, -0.0724644660949707, 8.118669509887695, 0.7178463339805603, 5.470890522003174, -0.05136934667825699, -1.8567886352539062, -0.3184489607810974, -0.911376953125, 0.131103515625, -0.22412109375, 
70, 2844779095, 0.8816616535186768, 0.0009016543626785278, -0.4663104712963104, -0.07249140739440918, 8.129886627197266, 0.7415208220481873, 5.499249458312988, -0.3459842801094055, -1.2835675477981567, -0.07334636151790619, -0.90966796875, 0.130126953125, -0.22216796875, 
71, 2844787428, 0.8816490173339844, 0.0008587539196014404, -0.46632859110832214, -0.07252991199493408, 8.120307922363281, 0.7133172750473022, 5.502131462097168, -0.8998408317565918, -0.8638014793395996, -0.00966937281191349, -0.9111328125, 0.130615234375, -0.22119140625, 
72, 2844795761, 0.8816330432891846, 0.0007490366697311401, -0.46634888648986816, -0.07259395718574524, 8.133199691772461, 0.7097349762916565, 5.530345916748047, -1.8303292989730835, -0.9673088192939758, 0.12947995960712433, -0.91064453125, 0.131103515625, -0.22119140625, 
73, 2844804094, 0.8816218376159668, 0.0006341040134429932, -0.466361403465271, -0.07265087962150574, 8.136052131652832, 0.6733823418617249, 5.543651580810547, -1.8962345123291016, -0.8566296100616455, 0.23183441162109375, -0.9091796875, 0.130859375, -0.220703125, 
74, 2844812427, 0.8816156387329102, 0.000522226095199585, -0.4663657546043396, -0.0727001428604126, 8.116642951965332, 0.6650040149688721, 5.579071998596191, -1.6735702753067017, -0.7053264379501343, 0.39899298548698425, -0.90966796875, 0.131103515625, -0.220703125, 
75, 2844820760, 0.8816070556640625, 0.00042691826820373535, -0.4663757085800171, -0.07274022698402405, 8.102680206298828, 0.6761713624000549, 5.588325500488281, -1.5529016256332397, -0.788162887096405, 0.3123656213283539, -0.9111328125, 0.129150390625, -0.220703125, 
76, 2844829093, 0.8815941214561462, 0.0003407895565032959, -0.46639716625213623, -0.0727580189704895, 8.081501007080078, 0.6788942813873291, 5.564493179321289, -1.3648415803909302, -0.9466636776924133, 0.4634639322757721, -0.908203125, 0.129638671875, -0.22021484375, 
77, 2844837426, 0.8815786838531494, 0.00030744075775146484, -0.46642667055130005, -0.07275757193565369, 8.10363483428955, 0.6537913084030151, 5.566013336181641, -0.5226457118988037, -1.0087014436721802, 0.3980708718299866, -0.910400390625, 0.131591796875, -0.22119140625, 
78, 2844845759, 0.8815569281578064, 0.00028921663761138916, -0.46647024154663086, -0.07274115085601807, 8.095966339111328, 0.6698351502418518, 5.576835632324219, -0.19101816415786743, -1.1947888135910034, 0.5059323310852051, -0.90966796875, 0.131103515625, -0.22119140625, 
79, 2844854092, 0.8815245032310486, 0.00024583935737609863, -0.466530978679657, -0.0727449357509613, 8.117053031921387, 0.6727040410041809, 5.561326026916504, -0.6412907838821411, -1.5051820278167725, 0.39425432682037354, -0.9111328125, 0.129150390625, -0.2197265625, 
80, 2844862425, 0.8815137147903442, 0.00018776953220367432, -0.46654579043388367, -0.07278114557266235, 8.104950904846191, 0.6750209331512451, 5.544361591339111, -0.9052966833114624, -0.8052730560302734, 0.22389402985572815, -0.908203125, 0.129150390625, -0.219970703125, 
81, 2844870758, 0.8815300464630127, 0.0001335442066192627, -0.46650999784469604, -0.07281193137168884, 8.137882232666016, 0.6739193201065063, 5.5683088302612305, -1.041615605354309, -0.03402850776910782, 0.18629230558872223, -0.90771484375, 0.130126953125, -0.221435546875, 
82, 2844879091, 0.8815774917602539, 0.00011400878429412842, -0.4664180874824524, -0.07282707095146179, 8.12368392944336, 0.6303013563156128, 5.545598983764648, -0.6511266827583313, 0.8808735013008118, 0.13117049634456635, -0.91015625, 0.128662109375, -0.21923828125, 
83, 2844887424, 0.8816378116607666, 0.00010189414024353027, -0.4663016200065613, -0.07284224033355713, 8.06835651397705, 0.6273400783538818, 5.5359787940979, -0.5119644999504089, 1.269057273864746, 0.14799904823303223, -0.9111328125, 0.129638671875, -0.2216796875, 
84, 2844895757, 0.8817082643508911, 0.00009687244892120361, -0.46616706252098083, -0.07285133004188538, 8.080860137939453, 0.6123405694961548, 5.514591693878174, -0.3498007655143738, 1.5720223188400269, 0.22217786312103271, -0.91064453125, 0.130126953125, -0.22314453125, 
85, 2844904090, 0.8817821741104126, 0.00012627243995666504, -0.4660293161869049, -0.07283881306648254, 8.02410888671875, 0.6177839040756226, 5.509069442749023, 0.14822955429553986, 1.6553966999053955, 0.23242352902889252, -0.909912109375, 0.131591796875, -0.220703125, 
86, 2844912423, 0.8818365931510925, 0.00016571581363677979, -0.46592938899993896, -0.07281887531280518, 8.047277450561523, 0.6131202578544617, 5.504563331604004, 0.4023483991622925, 1.0916529893875122, 0.26313501596450806, -0.9091796875, 0.129638671875, -0.220703125, 
87, 2844920756, 0.8818559646606445, 0.00019781291484832764, -0.4658953547477722, -0.07280054688453674, 8.024173736572266, 0.614236056804657, 5.503247261047363, 0.3222782611846924, 0.0515870675444603, 0.23275652527809143, -0.9111328125, 0.130615234375, -0.22265625, 
88, 2844929089, 0.8818619251251221, 0.0002211928367614746, -0.46588730812072754, -0.07277998328208923, 8.035139083862305, 0.6067903637886047, 5.518539905548096, 0.268309086561203, -0.35105589032173157, 0.3057827055454254, -0.909423828125, 0.131591796875, -0.22412109375, 
89, 2844937422, 0.8818850517272949, 0.00023527443408966064, -0.46584779024124146, -0.07275375723838806, 8.049636840820312, 0.6251370310783386, 5.536229133605957, 0.14725621044635773, 0.12333253026008606, 0.445380300283432, -0.909423828125, 0.131591796875, -0.224609375, 
90, 2844945755, 0.8819063901901245, 0.00027017295360565186, -0.4658128619194031, -0.07271897792816162, 8.071160316467285, 0.6389705538749695, 5.510871410369873, 0.5400505065917969, 0.0911354348063469, 0.4605438709259033, -0.9091796875, 0.130126953125, -0.2236328125, 
91, 2844954088, 0.8819214701652527, 0.00029121339321136475, -0.4657890200614929, -0.07268810272216797, 8.05887222290039, 0.6445426940917969, 5.517674446105957, 0.2758140563964844, -0.11094806343317032, 0.44996529817581177, -0.910400390625, 0.131591796875, -0.22412109375, 
92, 2844962421, 0.8819341659545898, 0.0003215670585632324, -0.46577316522598267, -0.07263597846031189, 8.067883491516113, 0.6300864815711975, 5.512796878814697, 0.5042930245399475, -0.20997267961502075, 0.6191728711128235, -0.91162109375, 0.129638671875, -0.22314453125, 
93, 2844970754, 0.8819582462310791, 0.00034949183464050293, -0.4657367169857025, -0.07257640361785889, 8.073721885681152, 0.6375185251235962, 5.550899505615234, 0.5320076942443848, 0.10706751048564911, 0.7614856362342834, -0.91064453125, 0.130126953125, -0.2236328125, 
94, 2844979087, 0.8819819688796997, 0.0003757178783416748, -0.46570292115211487, -0.07250401377677917, 8.098814010620117, 0.6454582214355469, 5.536787033081055, 0.5551116466522217, 0.07351285219192505, 0.8949869871139526, -0.90966796875, 0.130615234375, -0.22412109375, 
95, 2844987420, 0.8820030093193054, 0.00040487945079803467, -0.46567416191101074, -0.07243230938911438, 8.125335693359375, 0.6198223829269409, 5.527538776397705, 0.6333887577056885, -0.004981968551874161, 0.9004939794540405, -0.9091796875, 0.130615234375, -0.22216796875, 
96, 2844995753, 0.8820164203643799, 0.00042814016342163086, -0.46566274762153625, -0.07234400510787964, 8.126538276672363, 0.6339564919471741, 5.585648059844971, 0.7019324898719788, -0.2602534294128418, 1.1367086172103882, -0.910888671875, 0.132080078125, -0.22265625, 
97, 2845004086, 0.8820266723632812, 0.00047144293785095215, -0.4656594395637512, -0.07223957777023315, 8.151101112365723, 0.6530187726020813, 5.5926432609558105, 1.0402196645736694, -0.3697030544281006, 1.1942379474639893, -0.911376953125, 0.131103515625, -0.22314453125, 
98, 2845012419, 0.8820430040359497, 0.0005018711090087891, -0.4656444191932678, -0.07213771343231201, 8.129828453063965, 0.6838833093643188, 5.584811210632324, 0.9159137606620789, -0.18799567222595215, 1.2879093885421753, -0.9091796875, 0.128173828125, -0.22216796875, 
99, 2845020752, 0.8820695877075195, 0.0005364567041397095, -0.4656100273132324, -0.07203423976898193, 8.139341354370117, 0.6753356456756592, 5.574060440063477, 0.8969849348068237, 0.10363519191741943, 1.253535270690918, -0.91015625, 0.131103515625, -0.22216796875, 
100, 2845029085, 0.8821204900741577, 0.000568389892578125, -0.4655293822288513, -0.07193207740783691, 8.112308502197266, 0.6744940280914307, 5.612522125244141, 0.8925536870956421, 0.8323090672492981, 1.330557107925415, -0.907470703125, 0.132080078125, -0.2236328125, 
101, 2845037418, 0.8821831941604614, 0.0006016194820404053, -0.46542444825172424, -0.07184252142906189, 8.10161304473877, 0.6625645160675049, 5.562581539154053, 0.7230898141860962, 1.1890127658843994, 1.130228042602539, -0.9091796875, 0.130126953125, -0.22314453125, 
102, 2845045751, 0.8822357058525085, 0.0006122589111328125, -0.4653339087963104, -0.07178357243537903, 8.089472770690918, 0.626882016658783, 5.523332118988037, 0.4492480754852295, 0.9484694004058838, 1.0100716352462769, -0.90869140625, 0.131103515625, -0.2255859375, 
103, 2845054084, 0.8822669982910156, 0.0006043612957000732, -0.46528321504592896, -0.07172796130180359, 8.086796760559082, 0.6260454058647156, 5.5078535079956055, 0.05824676528573036, 0.2898762822151184, 0.9519017934799194, -0.90771484375, 0.13134765625, -0.2216796875, 
104, 2845062417, 0.882283091545105, 0.0006005764007568359, -0.46526038646698, -0.07167771458625793, 8.044479370117188, 0.6437700390815735, 5.541014194488525, 0.19000639021396637, -0.12718747556209564, 0.8977276086807251, -0.911376953125, 0.132568359375, -0.2216796875, 
105, 2845070750, 0.8822909593582153, 0.0006435513496398926, -0.4652566909790039, -0.07160395383834839, 8.011835098266602, 0.6396787166595459, 5.578437805175781, 0.8385331034660339, -0.37928274273872375, 0.8225755095481873, -0.909423828125, 0.132080078125, -0.22412109375, 
106, 2845079083, 0.8822838664054871, 0.0006821602582931519, -0.46527889370918274, -0.07154819369316101, 8.019330978393555, 0.6313242316246033, 5.5857625007629395, 0.7272393703460693, -0.7838852405548096, 0.6326459646224976, -0.910400390625, 0.131591796875, -0.2255859375, 
107, 2845087416, 0.8822660446166992, 0.000729098916053772, -0.4653220772743225, -0.07148534059524536, 8.026505470275879, 0.6379691958427429, 5.595733642578125, 0.8632765412330627, -1.1091604232788086, 0.6405096054077148, -0.907470703125, 0.132080078125, -0.224609375, 
108, 2845095749, 0.8822304010391235, 0.000760689377784729, -0.4653993248939514, -0.07142224907875061, 8.043730735778809, 0.6264588236808777, 5.646915912628174, 0.715994656085968, -1.64460027217865, 0.7234996557235718, -0.908935546875, 0.134521484375, -0.22509765625, 
109, 2845104082, 0.8821872472763062, 0.0007690489292144775, -0.46549248695373535, -0.07134789228439331, 8.069718360900879, 0.6315611004829407, 5.625497341156006, 0.5186370015144348, -1.915163516998291, 1.0018751621246338, -0.909423828125, 0.13330078125, -0.2216796875, 
110, 2845112415, 0.8821637034416199, 0.0007907301187515259, -0.4655492901802063, -0.07126966118812561, 8.149759292602539, 0.6508058309555054, 5.573601245880127, 0.8954224586486816, -1.3130240440368652, 1.1284607648849487, -0.910888671875, 0.132080078125, -0.22314453125, 
111, 2845120748, 0.8821893930435181, 0.0008881092071533203, -0.4655206501483917, -0.0711376965045929, 8.15886402130127, 0.655014157295227, 5.4760847091674805, 1.8474266529083252, 0.09149404615163803, 1.1988486051559448, -0.906982421875, 0.132080078125, -0.2236328125, 
112, 2845129081, 0.8822022676467896, 0.0010108351707458496, -0.46551185846328735, -0.0710325539112091, 8.121109008789062, 0.6362724304199219, 5.513891220092773, 2.071807384490967, -0.19416870176792145, 0.7386120557785034, -0.909423828125, 0.133056640625, -0.22412109375, 
113, 2845137414, 0.8821291923522949, 0.0009985268115997314, -0.46565335988998413, -0.07101249694824219, 8.115421295166016, 0.6110402941703796, 5.632445335388184, -0.030980417504906654, -2.71524977684021, 0.4472757577896118, -0.909912109375, 0.133056640625, -0.22265625, 
114, 2845145747, 0.8820818066596985, 0.0010288059711456299, -0.4657515287399292, -0.07095658779144287, 8.166173934936523, 0.6233280897140503, 5.591454982757568, 0.6661750674247742, -1.9741789102554321, 0.6271390318870544, -0.910400390625, 0.133544921875, -0.2255859375, 
115, 2845154080, 0.8821734189987183, 0.0011541694402694702, -0.465596079826355, -0.07083702087402344, 8.17592716217041, 0.726303219795227, 5.505789756774902, 1.9833617210388184, 2.077570676803589, 0.9312568306922913, -0.90966796875, 0.130615234375, -0.2216796875, 
116, 2845162413, 0.8822582960128784, 0.001179024577140808, -0.4654448330402374, -0.0707719624042511, 8.08209228515625, 0.7258291244506836, 5.48688268661499, 0.469483345746994, 1.8970671892166138, 0.9341512322425842, -0.90771484375, 0.130859375, -0.22021484375, 
117, 2845170746, 0.8822940587997437, 0.0011082440614700317, -0.46537506580352783, -0.07078611850738525, 8.02542495727539, 0.6489917635917664, 5.510993480682373, -1.1688928604125977, 0.4864911735057831, 0.5102355480194092, -0.908935546875, 0.132080078125, -0.2236328125, 
118, 2845179079, 0.8822618126869202, 0.0009259283542633057, -0.4654279947280884, -0.07084301114082336, 8.019011497497559, 0.5892415642738342, 5.653869152069092, -2.620912551879883, -1.5323331356048584, 0.6697866320610046, -0.908935546875, 0.131591796875, -0.22265625, 
119, 2845187412, 0.8822424411773682, 0.0007813423871994019, -0.46546220779418945, -0.07086125016212463, 8.00533390045166, 0.6173456311225891, 5.66757869720459, -1.9881641864776611, -1.1990151405334473, 0.8828715682029724, -0.909423828125, 0.134521484375, -0.224609375, 
120, 2845195745, 0.8822843432426453, 0.0007792860269546509, -0.46539199352264404, -0.07079988718032837, 7.979560375213623, 0.6420036554336548, 5.577150344848633, 0.1354224532842636, 0.6070061326026917, 0.979718804359436, -0.906982421875, 0.13330078125, -0.22265625, 
121, 2845204078, 0.8822667002677917, 0.0007899850606918335, -0.46543630957603455, -0.07072767615318298, 7.988316535949707, 0.6332268714904785, 5.569246292114258, 0.48572278022766113, -1.1584933996200562, 0.9863529801368713, -0.908447265625, 0.1337890625, -0.224609375, 
122, 2845212411, 0.8821558952331543, 0.000764891505241394, -0.46565186977386475, -0.0706920325756073, 8.060768127441406, 0.6346052885055542, 5.534339427947998, -0.040175922214984894, -3.8610000610351562, 0.6626402735710144, -0.910400390625, 0.134033203125, -0.224609375, 
123, 2845220744, 0.8820542693138123, 0.0008000731468200684, -0.46585315465927124, -0.07063406705856323, 8.131244659423828, 0.6669957041740417, 5.5587849617004395, 0.8432462215423584, -3.575350046157837, 0.5759360790252686, -0.909423828125, 0.13330078125, -0.22119140625, 
124, 2845229077, 0.8820371627807617, 0.0009246021509170532, -0.46590137481689453, -0.07052773237228394, 8.166584968566895, 0.6973620653152466, 5.569931983947754, 1.967147707939148, -1.093458890914917, 0.5859255790710449, -0.907958984375, 0.13232421875, -0.22265625, 
125, 2845237410, 0.8820920586585999, 0.001040637493133545, -0.46581289172172546, -0.07042396068572998, 8.151019096374512, 0.6959697008132935, 5.510777473449707, 1.8358234167099, 1.0200868844985962, 0.7630224227905273, -0.910400390625, 0.131591796875, -0.22119140625, 
126, 2845245743, 0.8821479082107544, 0.0010696947574615479, -0.46571266651153564, -0.07038530707359314, 8.083763122558594, 0.6828750967979431, 5.473147392272949, 0.2875710129737854, 1.08537757396698, 0.4838017225265503, -0.910888671875, 0.132568359375, -0.2216796875, 
127, 2845254076, 0.8821532726287842, 0.0010214745998382568, -0.4657001793384552, -0.07040193676948547, 8.073549270629883, 0.6732398867607117, 5.489156246185303, -0.8531460762023926, -0.37836065888404846, 0.3066023886203766, -0.906494140625, 0.13427734375, -0.22119140625, 
128, 2845262409, 0.8821160793304443, 0.0009649842977523804, -0.4657655358314514, -0.07043659687042236, 8.083097457885742, 0.6753157377243042, 5.545910835266113, -0.7260226607322693, -1.5759540796279907, 0.2732526659965515, -0.908447265625, 0.132568359375, -0.224609375, 
129, 2845270742, 0.8820892572402954, 0.000988587737083435, -0.46582144498825073, -0.0704021155834198, 8.092131614685059, 0.7020297646522522, 5.618321418762207, 0.41131335496902466, -1.3453491926193237, 0.4376448094844818, -0.911376953125, 0.1337890625, -0.220703125, 
130, 2845279075, 0.8821024894714355, 0.001059889793395996, -0.46580153703689575, -0.07036659121513367, 8.123963356018066, 0.6905140280723572, 5.614330768585205, 1.0387084484100342, -0.10431397706270218, 0.2538883090019226, -0.910400390625, 0.132568359375, -0.224609375, 
131, 2845287408, 0.882125735282898, 0.001136884093284607, -0.46576160192489624, -0.07033833861351013, 8.112360954284668, 0.6475754976272583, 5.582435607910156, 0.9258777499198914, 0.18975025415420532, 0.0669812262058258, -0.909423828125, 0.13427734375, -0.22265625, 
132, 2845295741, 0.8821486234664917, 0.0012100934982299805, -0.46572235226631165, -0.07031002640724182, 8.111124038696289, 0.6292427778244019, 5.563101291656494, 0.9052838683128357, 0.18537022173404694, 0.10299482941627502, -0.912353515625, 0.134033203125, -0.2236328125, 
133, 2845304074, 0.8821781873703003, 0.00130482017993927, -0.46567368507385254, -0.07026135921478271, 8.087969779968262, 0.6671313643455505, 5.559325218200684, 1.262576937675476, 0.3522725999355316, 0.20639951527118683, -0.908935546875, 0.132568359375, -0.224609375, 
134, 2845312407, 0.8822198510169983, 0.0014050006866455078, -0.46560153365135193, -0.07021382451057434, 8.068521499633789, 0.6260454058647156, 5.524026393890381, 1.3731023073196411, 0.7341296076774597, 0.21441678702831268, -0.910400390625, 0.133056640625, -0.22412109375, 
135, 2845320740, 0.8822747468948364, 0.0014910399913787842, -0.46550488471984863, -0.07016223669052124, 8.096209526062012, 0.6198582053184509, 5.472675800323486, 1.12810218334198, 1.0900392532348633, 0.32150986790657043, -0.909912109375, 0.132568359375, -0.22509765625, 
136, 2845329073, 0.8823233842849731, 0.0015287548303604126, -0.4654213786125183, -0.07010293006896973, 8.107518196105957, 0.6254088282585144, 5.430009365081787, 0.6604629755020142, 0.8563351035118103, 0.7474489808082581, -0.910888671875, 0.133544921875, -0.22412109375, 
137, 2845337406, 0.8823620080947876, 0.0015203505754470825, -0.4653579592704773, -0.0700400173664093, 8.102289199829102, 0.6640413999557495, 5.409130096435547, 0.08729330450296402, 0.4921518862247467, 1.0489284992218018, -0.910888671875, 0.132568359375, -0.2236328125, 
138, 2845345739, 0.8824185132980347, 0.0015140324831008911, -0.4652611017227173, -0.06997150182723999, 8.128067970275879, 0.6659729480743408, 5.408493995666504, 0.13795827329158783, 1.0222386121749878, 1.1309196949005127, -0.91064453125, 0.130615234375, -0.22216796875, 
139, 2845354072, 0.882502555847168, 0.0014909356832504272, -0.46511203050613403, -0.06990361213684082, 8.169158935546875, 0.5982893109321594, 5.425746917724609, -0.1409679502248764, 1.807775855064392, 1.2423160076141357, -0.912353515625, 0.135986328125, -0.22509765625, 
140, 2845362405, 0.8826349973678589, 0.0014591366052627563, -0.4648701548576355, -0.06983935832977295, 8.178409576416016, 0.5687226057052612, 5.422482490539551, -0.24555088579654694, 3.2515480518341064, 1.3733841180801392, -0.910400390625, 0.134765625, -0.22314453125, 
141, 2845370738, 0.8828248977661133, 0.0014421939849853516, -0.4645226299762726, -0.06975206732749939, 8.188196182250977, 0.5669007897377014, 5.365787506103516, -0.13633176684379578, 4.898850917816162, 1.5376224517822266, -0.908447265625, 0.132568359375, -0.2255859375, 
142, 2845379071, 0.8830405473709106, 0.0014156699180603027, -0.4641279876232147, -0.06964901089668274, 8.21361255645752, 0.5876264572143555, 5.342424392700195, -0.20487546920776367, 5.63536262512207, 1.8048045635223389, -0.910888671875, 0.13671875, -0.22607421875, 
143, 2845387404, 0.8832775950431824, 0.0013678818941116333, -0.463694304227829, -0.06953313946723938, 8.209882736206055, 0.5943817496299744, 5.318286895751953, -0.4118640422821045, 6.2167277336120605, 2.1249568462371826, -0.907958984375, 0.134033203125, -0.22802734375, 
144, 2845395737, 0.8835183382034302, 0.0013145804405212402, -0.4632592797279358, -0.06937482953071594, 8.197738647460938, 0.6038501858711243, 5.3247785568237305, -0.23092514276504517, 6.259684085845947, 2.659910202026367, -0.906982421875, 0.133544921875, -0.2265625, 
145, 2845404070, 0.8837983012199402, 0.0012787431478500366, -0.4627554714679718, -0.06916993856430054, 8.159929275512695, 0.6450539231300354, 5.445499420166016, 0.23293589055538177, 7.356819152832031, 3.1713502407073975, -0.907470703125, 0.132568359375, -0.22802734375, 
146, 2845412403, 0.8840329647064209, 0.0011285394430160522, -0.4623327851295471, -0.06900176405906677, 8.014172554016113, 0.6732397675514221, 5.678679466247559, -1.3558510541915894, 5.977696418762207, 3.3764684200286865, -0.909423828125, 0.135986328125, -0.2314453125, 
147, 2845420736, 0.8842859268188477, 0.0009850263595581055, -0.4618806838989258, -0.06878998875617981, 8.018068313598633, 0.667481005191803, 5.73013162612915, -0.9816271066665649, 6.452712059020996, 3.9140093326568604, -0.907958984375, 0.136474609375, -0.22998046875, 
148, 2845429069, 0.8846089839935303, 0.0009213536977767944, -0.4612959623336792, -0.06855788826942444, 7.959576606750488, 0.6964296698570251, 5.6937785148620605, 0.056863605976104736, 8.600440979003906, 3.758197546005249, -0.906005859375, 0.137451171875, -0.2333984375, 
149, 2845437402, 0.8849325776100159, 0.0008849054574966431, -0.46071046590805054, -0.06832054257392883, 7.886083126068115, 0.6756418347358704, 5.6762237548828125, 0.3553207218647003, 8.624774932861328, 3.61163330078125, -0.908935546875, 0.136474609375, -0.23193359375, 
150, 2845445735, 0.8851238489151001, 0.0009101331233978271, -0.460379421710968, -0.06807541847229004, 7.802573204040527, 0.5895107984542847, 5.568277359008789, 1.3888294696807861, 4.757203578948975, 3.1859242916107178, -0.905029296875, 0.136474609375, -0.232421875, 
151, 2845454068, 0.8851240277290344, 0.0007870793342590332, -0.4604122042655945, -0.06785070896148682, 7.910166263580322, 0.6458330750465393, 5.744578838348389, -0.19503958523273468, -1.0283217430114746, 3.7077114582061768, -0.905517578125, 0.137451171875, -0.2353515625, 
152, 2845462401, 0.8850611448287964, 0.0007621496915817261, -0.46056562662124634, -0.06763094663619995, 7.9645562171936035, 0.6531112194061279, 5.670772552490234, 1.0796656608581543, -2.796447277069092, 2.9646430015563965, -0.905029296875, 0.138916015625, -0.23388671875, 
153, 2845470734, 0.8850389719009399, 0.0007337480783462524, -0.46063941717147827, -0.0674191415309906, 8.026965141296387, 0.684329628944397, 5.861635684967041, 0.9136598110198975, -1.5805137157440186, 2.9346230030059814, -0.90673828125, 0.1396484375, -0.2314453125, 
154, 2845479067, 0.8850350379943848, 0.0007237344980239868, -0.46067124605178833, -0.06725382804870605, 8.0143461227417, 0.6490384340286255, 5.842604160308838, 0.9521067142486572, -0.9178476333618164, 2.3633742332458496, -0.905029296875, 0.137939453125, -0.2333984375, 
155, 2845487400, 0.8850696086883545, 0.0007495731115341187, -0.46062734723091125, -0.06709921360015869, 8.054609298706055, 0.6877847909927368, 5.832722187042236, 1.1014376878738403, 0.2600357234477997, 1.9440178871154785, -0.9052734375, 0.140625, -0.2333984375, 
156, 2845495733, 0.8851381540298462, 0.0007936805486679077, -0.46052080392837524, -0.06692516803741455, 8.037589073181152, 0.6937247514724731, 5.799413681030273, 1.2442626953125, 1.2524336576461792, 1.9934791326522827, -0.905517578125, 0.138427734375, -0.23486328125, 
157, 2845504066, 0.8852041959762573, 0.0008607655763626099, -0.460417777299881, -0.06676125526428223, 8.046164512634277, 0.6819589734077454, 5.7446441650390625, 1.608778715133667, 1.2170859575271606, 1.8232468366622925, -0.90625, 0.140625, -0.2333984375, 
158, 2845512399, 0.8852619528770447, 0.0008390247821807861, -0.4603268802165985, -0.066621333360672, 8.025017738342285, 0.6698487997055054, 5.809869289398193, 0.23967237770557404, 0.9328448176383972, 1.9851031303405762, -0.905517578125, 0.138427734375, -0.234375, 
159, 2845520732, 0.8853200674057007, 0.0007375776767730713, -0.46022829413414, -0.06653127074241638, 7.993283748626709, 0.6818987727165222, 5.728443622589111, -0.9068080186843872, 0.9575626254081726, 1.9852057695388794, -0.90771484375, 0.1416015625, -0.23095703125, 
160, 2845529065, 0.8853517174720764, 0.0006707459688186646, -0.4601806402206421, -0.06644034385681152, 7.950248718261719, 0.652559220790863, 5.765369892120361, -0.43496811389923096, 0.20852547883987427, 1.7455843687057495, -0.9072265625, 0.139892578125, -0.2333984375, 
161, 2845537398, 0.8853312134742737, 0.0006211549043655396, -0.46023330092430115, -0.06634953618049622, 7.9666829109191895, 0.6047605276107788, 5.732016563415527, -0.13149067759513855, -1.3329776525497437, 1.5969195365905762, -0.90673828125, 0.140869140625, -0.236328125, 
162, 2845545731, 0.8852930665016174, 0.0005988031625747681, -0.4603193998336792, -0.06626075506210327, 7.985752105712891, 0.5982558727264404, 5.751391410827637, 0.22399649024009705, -1.8191101551055908, 1.3843212127685547, -0.9052734375, 0.140625, -0.23095703125, 
163, 2845554064, 0.8852717876434326, 0.0005784034729003906, -0.46037060022354126, -0.06619036197662354, 8.021875381469727, 0.6143216490745544, 5.73856782913208, 0.09280037879943848, -1.2938648462295532, 1.1621692180633545, -0.904541015625, 0.14013671875, -0.23291015625, 
164, 2845562397, 0.8852669596672058, 0.0005365759134292603, -0.46038389205932617, -0.06616148352622986, 7.989067554473877, 0.644864559173584, 5.690150737762451, -0.15190522372722626, -0.7180310487747192, 1.0155019760131836, -0.90576171875, 0.139892578125, -0.23486328125, 
165, 2845570730, 0.8852543234825134, 0.0005428194999694824, -0.4604130983352661, -0.06612750887870789, 7.970843315124512, 0.632862389087677, 5.667033672332764, 0.16915640234947205, -0.9475089311599731, 0.5582877993583679, -0.90625, 0.1416015625, -0.232421875, 
166, 2845579063, 0.8852092027664185, 0.0005326122045516968, -0.4605013132095337, -0.06611913442611694, 7.999854564666748, 0.567460834980011, 5.605509281158447, -0.22685246169567108, -1.885271668434143, 0.2609834372997284, -0.9072265625, 0.1416015625, -0.23291015625, 
167, 2845587396, 0.8851560950279236, 0.0005193501710891724, -0.46060436964035034, -0.06611180305480957, 8.015379905700684, 0.5692264437675476, 5.570935249328613, -0.17170502245426178, -2.1219727993011475, 0.320203572511673, -0.9072265625, 0.140380859375, -0.23583984375, 
168, 2845595729, 0.885118842124939, 0.0004968047142028809, -0.46067774295806885, -0.06610170006752014, 8.044291496276855, 0.576124906539917, 5.603703498840332, -0.24060732126235962, -1.6559474468231201, 0.46049270033836365, -0.906005859375, 0.1396484375, -0.23291015625, 
169, 2845604062, 0.8850720524787903, 0.00047619640827178955, -0.4607700705528259, -0.06608375906944275, 8.022768020629883, 0.5940296053886414, 5.671971321105957, -0.2035435140132904, -1.9563512802124023, 0.501039981842041, -0.90673828125, 0.1435546875, -0.23388671875, 
170, 2845612395, 0.8850444555282593, 0.000497281551361084, -0.46082931756973267, -0.06603923439979553, 8.014524459838867, 0.5767766237258911, 5.655116558074951, 0.4281931519508362, -1.3878432512283325, 0.5617201328277588, -0.906982421875, 0.138916015625, -0.23388671875, 
171, 2845620728, 0.8850297331809998, 0.0005362331867218018, -0.460865318775177, -0.06598612666130066, 8.071310997009277, 0.558816134929657, 5.656189441680908, 0.6917892098426819, -1.0138754844665527, 0.5815711617469788, -0.904296875, 0.140625, -0.23193359375, 
172, 2845629061, 0.8850066661834717, 0.0005272030830383301, -0.46091610193252563, -0.06594076752662659, 8.078484535217285, 0.5416774749755859, 5.630173683166504, 0.008119712583720684, -1.287999153137207, 0.7344369888305664, -0.908203125, 0.14208984375, -0.232421875, 
173, 2845637394, 0.8849831223487854, 0.0004974454641342163, -0.460965633392334, -0.06591102480888367, 8.067012786865234, 0.5785720944404602, 5.668864727020264, -0.2790030241012573, -1.2971175909042358, 0.7237557172775269, -0.90478515625, 0.1416015625, -0.23291015625, 
174, 2845645727, 0.8849732875823975, 0.0004998892545700073, -0.4609895944595337, -0.06587591767311096, 8.031891822814941, 0.6160743832588196, 5.675530433654785, 0.15196925401687622, -0.8600107431411743, 0.612231433391571, -0.9072265625, 0.14208984375, -0.234375, 
175, 2845654060, 0.8849710822105408, 0.0005289614200592041, -0.4610006809234619, -0.06582710146903992, 8.017657279968262, 0.6228266358375549, 5.662676811218262, 0.5233756303787231, -0.6410602331161499, 0.6045727729797363, -0.90673828125, 0.1416015625, -0.23095703125, 
176, 2845662393, 0.8849819302558899, 0.0005629360675811768, -0.4609835743904114, -0.06579935550689697, 8.032814025878906, 0.6161888241767883, 5.658993244171143, 0.6262936592102051, -0.1878419816493988, 0.4571884870529175, -0.90673828125, 0.140869140625, -0.23583984375, 
177, 2845670726, 0.8849978446960449, 0.000622674822807312, -0.4609578251838684, -0.06576529145240784, 8.032220840454102, 0.5861109495162964, 5.630552768707275, 0.7690930366516113, -0.049576353281736374, 0.2463320791721344, -0.90380859375, 0.140625, -0.234375, 
178, 2845679059, 0.8850075006484985, 0.0006602704524993896, -0.46094298362731934, -0.06573927402496338, 8.025647163391113, 0.5761539340019226, 5.632455825805664, 0.47181421518325806, -0.23456235229969025, 0.2852913439273834, -0.90625, 0.14111328125, -0.23486328125, 
179, 2845687392, 0.8850059509277344, 0.0006978511810302734, -0.46095016598701477, -0.06570994853973389, 8.022134780883789, 0.5749812722206116, 5.648564338684082, 0.49878600239753723, -0.5816095471382141, 0.31356945633888245, -0.90478515625, 0.140625, -0.23486328125, 
180, 2845695725, 0.8850064277648926, 0.0007356554269790649, -0.46095341444015503, -0.06568014621734619, 8.002279281616211, 0.5983567833900452, 5.635167121887207, 0.5349277257919312, -0.5093006491661072, 0.3364429473876953, -0.90673828125, 0.14306640625, -0.23193359375, 
181, 2845704058, 0.8849986791610718, 0.0007730722427368164, -0.46097326278686523, -0.06564480066299438, 8.024674415588379, 0.587127149105072, 5.6192522048950195, 0.5461979508399963, -0.7748435139656067, 0.3817545771598816, -0.90625, 0.140625, -0.23388671875, 
182, 2845712391, 0.8849627375602722, 0.0007950514554977417, -0.4610452651977539, -0.06562253832817078, 8.050281524658203, 0.5741944909095764, 5.616047382354736, 0.3324471414089203, -1.5943195819854736, 0.29548579454421997, -0.90625, 0.14111328125, -0.23095703125, 
183, 2845720724, 0.8849128484725952, 0.0008243024349212646, -0.4611455798149109, -0.06559088826179504, 8.055258750915527, 0.626178503036499, 5.632594108581543, 0.4975821077823639, -2.027763605117798, 0.3517346680164337, -0.90869140625, 0.1416015625, -0.2314453125, 
184, 2845729057, 0.8848731517791748, 0.0008613467216491699, -0.46122509241104126, -0.06556552648544312, 8.074487686157227, 0.6499919295310974, 5.669956684112549, 0.640022873878479, -1.68858003616333, 0.29861074686050415, -0.90771484375, 0.14306640625, -0.2333984375, 
185, 2845737390, 0.8848495483398438, 0.0008950680494308472, -0.4612728953361511, -0.06554865837097168, 8.051819801330566, 0.6383411884307861, 5.6693291664123535, 0.4088543951511383, -1.2202749252319336, 0.16621074080467224, -0.90771484375, 0.1416015625, -0.234375, 
186, 2845745723, 0.8848427534103394, 0.0009038001298904419, -0.46128708124160767, -0.06553971767425537, 8.047813415527344, 0.6466885209083557, 5.676517486572266, 0.06395874172449112, -0.7154439687728882, 0.2611883282661438, -0.91064453125, 0.14306640625, -0.232177734375, 
187, 2845754056, 0.884869396686554, 0.0008965581655502319, -0.46123433113098145, -0.06555137038230896, 8.053879737854004, 0.6872665882110596, 5.659508228302002, -0.3610198199748993, 0.2867257297039032, 0.1224360391497612, -0.90673828125, 0.140625, -0.232421875, 
188, 2845762389, 0.884911298751831, 0.0009146034717559814, -0.461151123046875, -0.06557014584541321, 8.02227783203125, 0.6687908172607422, 5.604531288146973, 0.060628894716501236, 0.7965002655982971, 0.009195511229336262, -0.90625, 0.14208984375, -0.23388671875, 
189, 2845770722, 0.8849349021911621, 0.0009617805480957031, -0.46110376715660095, -0.06558462977409363, 8.003695487976074, 0.659678041934967, 5.597893714904785, 0.28885170817375183, 0.25078895688056946, -0.2599204480648041, -0.908203125, 0.14404296875, -0.233154296875, 
190, 2845779055, 0.8849177956581116, 0.0010282397270202637, -0.4611310362815857, -0.06561967730522156, 8.02207088470459, 0.6083779335021973, 5.582579135894775, 0.4599035978317261, -0.8917979598045349, -0.6705421805381775, -0.90771484375, 0.14208984375, -0.232421875, 
191, 2845787388, 0.8848767280578613, 0.0011151283979415894, -0.4612065255641937, -0.06564119458198547, 8.010103225708008, 0.6153541803359985, 5.581207275390625, 0.8395833373069763, -1.6194216012954712, -0.6522536873817444, -0.906494140625, 0.137939453125, -0.232421875, 
192, 2845795721, 0.8848111629486084, 0.0011933296918869019, -0.46132999658584595, -0.06565818190574646, 8.018756866455078, 0.5997005105018616, 5.618946075439453, 0.5587745308876038, -2.376040458679199, -0.7391627430915833, -0.906494140625, 0.138916015625, -0.232421875, 
193, 2845804054, 0.8847424983978271, 0.0012502968311309814, -0.4614573121070862, -0.0656878650188446, 8.046881675720215, 0.6035925149917603, 5.611365795135498, 0.4687405228614807, -2.452345371246338, -0.585912823677063, -0.9072265625, 0.14208984375, -0.23291015625, 
194, 2845812387, 0.8846879005432129, 0.0012993216514587402, -0.4615570306777954, -0.06571942567825317, 8.062799453735352, 0.602660596370697, 5.647254467010498, 0.3681533932685852, -2.0238189697265625, -0.5304067134857178, -0.90673828125, 0.1416015625, -0.23486328125, 
195, 2845820720, 0.8846362829208374, 0.0013052374124526978, -0.4616488218307495, -0.06577032804489136, 8.119172096252441, 0.5939979553222656, 5.654332637786865, -0.31785982847213745, -1.9595016241073608, -0.5065855383872986, -0.908203125, 0.140869140625, -0.23388671875, 
196, 2845829053, 0.88458251953125, 0.0012889355421066284, -0.4617455303668976, -0.06581449508666992, 8.121198654174805, 0.6495503783226013, 5.679174900054932, -0.5412929058074951, -2.042748212814331, -0.2912723124027252, -0.90771484375, 0.14111328125, -0.2333984375, 
197, 2845837386, 0.8845517635345459, 0.0012775212526321411, -0.4617946743965149, -0.06588342785835266, 8.093985557556152, 0.6598855257034302, 5.70261812210083, -0.6817100644111633, -1.3227062225341797, -0.5977465510368347, -0.906982421875, 0.138671875, -0.23046875, 
198, 2845845719, 0.8845341801643372, 0.0012650787830352783, -0.46181678771972656, -0.0659647285938263, 8.045567512512207, 0.6244646310806274, 5.748682498931885, -0.8569369912147522, -0.9081141948699951, -0.7757654786109924, -0.906494140625, 0.13916015625, -0.232421875, 
199, 2845854052, 0.8845462799072266, 0.0012636035680770874, -0.4617837071418762, -0.06603503227233887, 8.07387924194336, 0.6116253137588501, 5.681267261505127, -0.6442108154296875, -0.042814191430807114, -0.6392160058021545, -0.90869140625, 0.1416015625, -0.23095703125, 
200, 2845862385, 0.8845678567886353, 0.0013068318367004395, -0.46173095703125, -0.06611257791519165, 8.038436889648438, 0.6211457252502441, 5.657748699188232, 0.019082605838775635, 0.31882038712501526, -0.8828330039978027, -0.90673828125, 0.139892578125, -0.2333984375, 
201, 2845870718, 0.8845950365066528, 0.0014205873012542725, -0.461673378944397, -0.06614983081817627, 8.00378131866455, 0.60221928358078, 5.564332962036133, 0.9435259699821472, 0.4578288793563843, -0.9577547311782837, -0.90869140625, 0.141357421875, -0.234375, 
202, 2845879051, 0.8845751285552979, 0.001552879810333252, -0.46170130372047424, -0.0662161111831665, 7.9920878410339355, 0.5751990079879761, 5.597914695739746, 1.0874266624450684, -0.8579359650611877, -1.4563357830047607, -0.90869140625, 0.139404296875, -0.232421875, 
203, 2845887384, 0.8844588994979858, 0.0015638917684555054, -0.46190667152404785, -0.06633710861206055, 7.9709930419921875, 0.496679425239563, 5.671301364898682, -0.5964913368225098, -3.7457098960876465, -1.4477804899215698, -0.909912109375, 0.137939453125, -0.2333984375, 
204, 2845895717, 0.8843526840209961, 0.0015938878059387207, -0.4620997905731201, -0.0664074718952179, 8.049219131469727, 0.5715891718864441, 5.600781440734863, -0.03182569146156311, -3.5076262950897217, -0.9333957433700562, -0.90869140625, 0.140380859375, -0.232421875, 
205, 2845904050, 0.8843272924423218, 0.0016356557607650757, -0.4621436595916748, -0.06643831729888916, 8.107111930847168, 0.6140499711036682, 5.548940181732178, 0.20158401131629944, -1.1740412712097168, -0.4670115113258362, -0.908935546875, 0.137451171875, -0.2314453125, 
206, 2845912383, 0.8843181133270264, 0.0015645325183868408, -0.46215540170669556, -0.06648176908493042, 8.102296829223633, 0.6599785089492798, 5.50150203704834, -1.099836826324463, -0.7648282051086426, 0.22753123939037323, -0.90966796875, 0.140869140625, -0.232177734375, 
207, 2845920716, 0.8843351006507874, 0.0014855116605758667, -0.46211493015289307, -0.06653779745101929, 8.039481163024902, 0.6498644948005676, 5.563288688659668, -1.5052589178085327, 0.00858076848089695, 0.030685853213071823, -0.907470703125, 0.137451171875, -0.2333984375, 
208, 2845929049, 0.8843516707420349, 0.0013353526592254639, -0.46206992864608765, -0.06663408875465393, 8.024516105651855, 0.6006070375442505, 5.680519104003906, -2.6248574256896973, 0.0038421351928263903, -0.008849718607962132, -0.90869140625, 0.140625, -0.232421875, 
209, 2845937382, 0.8843929767608643, 0.0012274980545043945, -0.46198004484176636, -0.06671205163002014, 7.9979963302612305, 0.5855635404586792, 5.624147415161133, -2.0402376651763916, 0.7380741834640503, -0.03159515932202339, -0.9072265625, 0.14013671875, -0.2314453125, 
210, 2845945715, 0.8844349384307861, 0.0012039393186569214, -0.4618930220603943, -0.06675595045089722, 7.9618940353393555, 0.6166251301765442, 5.548839569091797, -0.706632673740387, 0.7987799048423767, -0.09563074260950089, -0.906494140625, 0.138916015625, -0.23291015625, 
211, 2845954048, 0.8843936920166016, 0.0012087374925613403, -0.4619651734828949, -0.06680423021316528, 7.943125247955322, 0.6342130303382874, 5.539460182189941, -0.33294662833213806, -1.6544618606567383, -0.45963460206985474, -0.906005859375, 0.1396484375, -0.2314453125, 
212, 2845962381, 0.884262204170227, 0.001212090253829956, -0.4622038006782532, -0.06689366698265076, 8.006165504455566, 0.617422878742218, 5.596534252166748, -0.339606374502182, -4.236684322357178, -0.9629030823707581, -0.907470703125, 0.13916015625, -0.2314453125, 
213, 2845970714, 0.8841413259506226, 0.0012889206409454346, -0.462427020072937, -0.06694731116294861, 8.094462394714355, 0.6053046584129333, 5.655074596405029, 0.6500636339187622, -3.932284355163574, -1.0522712469100952, -0.910400390625, 0.138916015625, -0.23193359375, 
214, 2845979047, 0.8840972781181335, 0.0014273226261138916, -0.4625111222267151, -0.06694412231445312, 8.139359474182129, 0.6037838459014893, 5.664126873016357, 1.6645411252975464, -1.6829193830490112, -0.6663671731948853, -0.907958984375, 0.138916015625, -0.232421875, 
215, 2845987380, 0.8841274976730347, 0.0015252679586410522, -0.4624566435813904, -0.06691935658454895, 8.187344551086426, 0.6120401620864868, 5.623751163482666, 1.1480811834335327, 0.42729663848876953, -0.1005742996931076, -0.90869140625, 0.1396484375, -0.22998046875, 
216, 2845995713, 0.8841853141784668, 0.0015601515769958496, -0.4623483419418335, -0.06690415740013123, 8.175642967224121, 0.6675103306770325, 5.572115421295166, 0.12469009310007095, 1.1953651905059814, 0.1064271405339241, -0.910400390625, 0.137939453125, -0.23046875, 
217, 2846004046, 0.884238064289093, 0.00150984525680542, -0.4622441530227661, -0.06692823767662048, 8.147774696350098, 0.6871881484985352, 5.566435813903809, -1.0118006467819214, 1.0374021530151367, 0.26961541175842285, -0.90966796875, 0.140380859375, -0.2314453125, 
218, 2846012379, 0.8842889070510864, 0.001431882381439209, -0.4621419906616211, -0.06696230173110962, 8.040433883666992, 0.6924798488616943, 5.662609577178955, -1.485023856163025, 0.9767220616340637, 0.2665673494338989, -0.909912109375, 0.137939453125, -0.232421875, 
219, 2846020712, 0.8843494057655334, 0.0013701170682907104, -0.4620218276977539, -0.06699460744857788, 7.990269660949707, 0.6907163858413696, 5.690260887145996, -1.218148946762085, 1.2702099084854126, 0.24827876687049866, -0.91064453125, 0.140380859375, -0.230224609375, 
220, 2846029045, 0.8843932151794434, 0.001349806785583496, -0.4619346857070923, -0.06701689958572388, 7.973832130432129, 0.6822882294654846, 5.681102752685547, -0.7588601112365723, 0.7978066205978394, -0.0075177778489887714, -0.907958984375, 0.138427734375, -0.2314453125, 
221, 2846037378, 0.8843923211097717, 0.0013358592987060547, -0.4619268774986267, -0.06708347797393799, 7.987586975097656, 0.6897772550582886, 5.671210289001465, -0.750637948513031, -0.44295981526374817, -0.526897668838501, -0.908935546875, 0.138671875, -0.22998046875, 
222, 2846045711, 0.8843866586685181, 0.0013486891984939575, -0.4619278311729431, -0.06715139746665955, 7.998638153076172, 0.7003489136695862, 5.667004108428955, -0.3538222014904022, -0.5414465069770813, -0.673795223236084, -0.907958984375, 0.138916015625, -0.2333984375, 
223, 2846054044, 0.8843966722488403, 0.0014112144708633423, -0.46190136671066284, -0.06720137596130371, 8.031311988830566, 0.6654790639877319, 5.643120765686035, 0.2680785655975342, -0.07631761580705643, -0.8016871213912964, -0.908935546875, 0.138427734375, -0.23193359375, 
224, 2846062377, 0.8844114542007446, 0.001438736915588379, -0.46186357736587524, -0.06726381182670593, 8.011613845825195, 0.6497715711593628, 5.632084369659424, -0.2339988350868225, 0.06849246472120285, -0.7211815118789673, -0.907958984375, 0.137939453125, -0.2333984375, 
225, 2846070710, 0.8844069242477417, 0.0014154762029647827, -0.46186184883117676, -0.06733500957489014, 8.037785530090332, 0.6391279697418213, 5.605918884277344, -0.8870849609375, -0.5483623147010803, -0.526462197303772, -0.906005859375, 0.139892578125, -0.23388671875, 
226, 2846079043, 0.8843814134597778, 0.0013285130262374878, -0.4619027078151703, -0.06739437580108643, 8.055400848388672, 0.6210075616836548, 5.651585102081299, -1.7474416494369507, -1.2669953107833862, -0.13784301280975342, -0.907958984375, 0.138916015625, -0.2314453125, 
227, 2846087376, 0.8843709230422974, 0.0012352019548416138, -0.4619109332561493, -0.0674770176410675, 8.040133476257324, 0.6283170580863953, 5.673532009124756, -1.8029733896255493, -0.7717440724372864, -0.22823566198349, -0.90771484375, 0.139892578125, -0.23291015625, 
228, 2846095709, 0.8843861818313599, 0.001188039779663086, -0.4618714451789856, -0.06754955649375916, 8.042370796203613, 0.5818909406661987, 5.708183288574219, -1.3702975511550903, 0.009169896133244038, -0.47797444462776184, -0.908447265625, 0.136962890625, -0.23046875, 
229, 2846104042, 0.8844304084777832, 0.001196354627609253, -0.4617793560028076, -0.06760060787200928, 8.028292655944824, 0.5199897885322571, 5.68459939956665, -0.4594041407108307, 0.8896849155426025, -0.43717098236083984, -0.913818359375, 0.137939453125, -0.230224609375, 
230, 2846112375, 0.8844778537750244, 0.0012237727642059326, -0.46168655157089233, -0.06761261820793152, 8.036320686340332, 0.5272431373596191, 5.64166259765625, 0.07986517995595932, 0.9507490992546082, -0.04724545404314995, -0.90966796875, 0.14013671875, -0.22998046875, 
231, 2846120708, 0.8845028281211853, 0.0012318044900894165, -0.461638867855072, -0.06761106848716736, 7.993622779846191, 0.5963683128356934, 5.644343376159668, -0.08881735056638718, 0.22668597102165222, 0.18613864481449127, -0.9091796875, 0.139892578125, -0.232421875, 
232, 2846129041, 0.8845174312591553, 0.001215517520904541, -0.46160826086997986, -0.06762915849685669, 8.01307201385498, 0.6203160285949707, 5.6350884437561035, -0.3329721987247467, -0.0484493188560009, 0.19346430897712708, -0.91015625, 0.139404296875, -0.23193359375, 
233, 2846137374, 0.8845560550689697, 0.0012114346027374268, -0.4615345001220703, -0.06762674450874329, 8.022863388061523, 0.6078413724899292, 5.584495544433594, -0.2540547847747803, 0.6208122372627258, 0.2849327325820923, -0.906494140625, 0.138427734375, -0.23291015625, 
234, 2846145707, 0.8846015930175781, 0.001244872808456421, -0.4614523649215698, -0.06759166717529297, 8.058156967163086, 0.6023194193840027, 5.493004322052002, 0.39082199335098267, 0.8067971467971802, 0.4387974441051483, -0.909912109375, 0.135498046875, -0.23291015625, 
235, 2846154040, 0.8846126794815063, 0.001239001750946045, -0.4614333510398865, -0.06757649779319763, 7.979803562164307, 0.6403867602348328, 5.6385931968688965, -0.14488692581653595, -0.2212173342704773, 0.42596471309661865, -0.907958984375, 0.138427734375, -0.23193359375, 
236, 2846162373, 0.8846019506454468, 0.0011771619319915771, -0.46145308017730713, -0.06758475303649902, 7.961915493011475, 0.590989351272583, 5.727689266204834, -0.988594114780426, -0.8803484439849854, 0.4390791952610016, -0.908447265625, 0.137939453125, -0.23583984375, 
237, 2846170706, 0.884636402130127, 0.001187846064567566, -0.46139436960220337, -0.06753355264663696, 8.002644538879395, 0.6017612218856812, 5.701823711395264, 0.2487398236989975, 0.42565733194351196, 0.7814390659332275, -0.906494140625, 0.137939453125, -0.2314453125, 
238, 2846179039, 0.8847383260726929, 0.0012052357196807861, -0.4612048268318176, -0.06749328970909119, 7.948925018310547, 0.6668203473091125, 5.65352725982666, 0.2205129712820053, 2.464294672012329, 0.7175828814506531, -0.907958984375, 0.139404296875, -0.234375, 
239, 2846187372, 0.8847851753234863, 0.0011976510286331177, -0.4611203372478485, -0.06745737791061401, 7.941079139709473, 0.6075839400291443, 5.596742153167725, -0.09429880231618881, 0.7994458079338074, 0.7224494218826294, -0.907958984375, 0.138916015625, -0.2353515625, 
240, 2846195705, 0.8847277164459229, 0.0011425167322158813, -0.46123063564300537, -0.06745782494544983, 7.963899612426758, 0.5864819884300232, 5.614376544952393, -0.6831700801849365, -2.264721155166626, 0.5080583691596985, -0.907470703125, 0.139404296875, -0.234375, 
241, 2846204038, 0.8846094012260437, 0.0010983794927597046, -0.4614589810371399, -0.06744751334190369, 7.977603435516357, 0.5949315428733826, 5.660181522369385, -0.4083293080329895, -4.088172435760498, 0.49543049931526184, -0.907470703125, 0.138427734375, -0.2314453125, 
242, 2846212371, 0.8845254182815552, 0.0011403411626815796, -0.4616312086582184, -0.06737107038497925, 8.039170265197754, 0.6390790343284607, 5.666926383972168, 0.9565122723579407, -3.102024555206299, 0.7451436519622803, -0.9111328125, 0.138916015625, -0.231689453125, 
243, 2846220704, 0.8844852447509766, 0.0012114793062210083, -0.4617213010787964, -0.06727996468544006, 8.078155517578125, 0.6418459415435791, 5.657646656036377, 1.3772006034851074, -1.801590085029602, 0.8150961995124817, -0.909912109375, 0.138671875, -0.22900390625, 
244, 2846229037, 0.8844400644302368, 0.0012101531028747559, -0.4618149399757385, -0.06723037362098694, 8.068319320678711, 0.6785933375358582, 5.640410423278809, 0.25224900245666504, -1.9364235401153564, 0.7737805247306824, -0.90869140625, 0.139404296875, -0.23388671875, 
245, 2846237370, 0.884409487247467, 0.0011852085590362549, -0.4618780314922333, -0.06720152497291565, 8.056089401245117, 0.6960216760635376, 5.634866714477539, -0.21314884722232819, -1.5029535293579102, 0.6783417463302612, -0.9091796875, 0.140625, -0.2314453125, 
246, 2846245703, 0.8844274282455444, 0.0012031793594360352, -0.4618534445762634, -0.06713250279426575, 8.069022178649902, 0.7041401863098145, 5.6312689781188965, 0.3441784679889679, -0.0912507101893425, 0.8365865349769592, -0.907958984375, 0.138427734375, -0.2314453125, 
247, 2846254036, 0.8844516277313232, 0.0012231171131134033, -0.46181511878967285, -0.06707847118377686, 8.039473533630371, 0.6995981335639954, 5.6157684326171875, 0.39937713742256165, 0.12082234025001526, 0.7469110488891602, -0.9091796875, 0.140869140625, -0.2333984375, 
248, 2846262369, 0.884450376033783, 0.001219913363456726, -0.4618222713470459, -0.06704506278038025, 8.02023983001709, 0.6815013885498047, 5.5866780281066895, -0.09821778535842896, -0.6182124018669128, 0.5289851427078247, -0.908447265625, 0.137939453125, -0.23046875, 
249, 2846270702, 0.8844307661056519, 0.0011849403381347656, -0.4618610739707947, -0.06703662872314453, 8.049530029296875, 0.6968729496002197, 5.600811958312988, -0.4873492121696472, -1.1467621326446533, 0.5030892491340637, -0.908447265625, 0.137939453125, -0.23193359375, 
250, 2846279035, 0.8844046592712402, 0.0011616051197052002, -0.4619136452674866, -0.06701898574829102, 8.048128128051758, 0.6818304657936096, 5.642155170440674, -0.26273801922798157, -1.3370758295059204, 0.5369255542755127, -0.908203125, 0.139404296875, -0.2333984375, 
251, 2846287368, 0.8844023942947388, 0.0011663734912872314, -0.461925745010376, -0.0669662356376648, 8.05631160736084, 0.6689624786376953, 5.694457054138184, 0.2529149353504181, -0.6751784682273865, 0.8039795756340027, -0.90869140625, 0.1416015625, -0.23193359375, 
252, 2846295701, 0.8844377994537354, 0.0011876076459884644, -0.4618697762489319, -0.06688284873962402, 8.080545425415039, 0.6717020273208618, 5.692325592041016, 0.36551517248153687, 0.39971017837524414, 0.9504930973052979, -0.909423828125, 0.137939453125, -0.23046875, 
253, 2846304034, 0.8844982385635376, 0.0011874586343765259, -0.46176183223724365, -0.06682875752449036, 8.1063814163208, 0.6138781309127808, 5.655366897583008, 0.09098175913095474, 1.1809443235397339, 0.9083831310272217, -0.9091796875, 0.140380859375, -0.232421875, 
254, 2846312367, 0.8845548033714294, 0.001184716820716858, -0.46166104078292847, -0.06677648425102234, 8.111774444580078, 0.5671203136444092, 5.6513824462890625, 0.04715580493211746, 1.0716739892959595, 0.8887882828712463, -0.90771484375, 0.140380859375, -0.23388671875, 
255, 2846320700, 0.8846170902252197, 0.0011602044105529785, -0.46154895424842834, -0.06672823429107666, 8.043329238891602, 0.6180342435836792, 5.6267194747924805, -0.24713893234729767, 1.2178032398223877, 0.9928333163261414, -0.90869140625, 0.140380859375, -0.2333984375, 
256, 2846329033, 0.8846770524978638, 0.0011292248964309692, -0.461438924074173, -0.06669291853904724, 8.009188652038574, 0.6571531295776367, 5.676975250244141, -0.45292365550994873, 1.176436185836792, 0.8363302946090698, -0.90966796875, 0.14111328125, -0.231201171875, 
257, 2846337366, 0.8847266435623169, 0.001102358102798462, -0.46134641766548157, -0.06667488813400269, 7.972807884216309, 0.6615306735038757, 5.66616678237915, -0.44933778047561646, 0.8974204063415527, 0.6286245584487915, -0.908203125, 0.1416015625, -0.232421875, 
258, 2846345699, 0.8847713470458984, 0.0011198967695236206, -0.46126431226730347, -0.06664898991584778, 7.973817825317383, 0.6508657932281494, 5.6309895515441895, -0.045811060816049576, 0.7721923589706421, 0.301582008600235, -0.90771484375, 0.140869140625, -0.234375, 
259, 2846354032, 0.8847814798355103, 0.00115126371383667, -0.46124371886253357, -0.0666557252407074, 7.950885772705078, 0.6453081965446472, 5.58928918838501, 0.16925884783267975, -0.1729857325553894, -0.07811060547828674, -0.906494140625, 0.138916015625, -0.234375, 
260, 2846362365, 0.8847465515136719, 0.0011950135231018066, -0.4613078236579895, -0.06667640805244446, 7.951736927032471, 0.6300009489059448, 5.609860420227051, 0.3149013817310333, -1.4729849100112915, -0.3662451207637787, -0.908203125, 0.140380859375, -0.23486328125, 
261, 2846370698, 0.8846783638000488, 0.0012486129999160767, -0.4614356458187103, -0.06669735908508301, 7.990570545196533, 0.6193555593490601, 5.650545120239258, 0.48720839619636536, -2.4575705528259277, -0.459301620721817, -0.90869140625, 0.140869140625, -0.23291015625, 
262, 2846379031, 0.8845993280410767, 0.0012962669134140015, -0.4615849256515503, -0.06670987606048584, 8.06096363067627, 0.605670154094696, 5.683236122131348, 0.4035266637802124, -2.7915291786193848, -0.3903481066226959, -0.906494140625, 0.13916015625, -0.23193359375, 
263, 2846387364, 0.8845415115356445, 0.0013256818056106567, -0.46169230341911316, -0.06673267483711243, 8.088111877441406, 0.6295057535171509, 5.672037124633789, 0.1616770476102829, -2.1648001670837402, -0.3207286298274994, -0.9091796875, 0.14111328125, -0.2314453125, 
264, 2846395697, 0.8845089673995972, 0.0013355612754821777, -0.4617490768432617, -0.06677067279815674, 8.087140083312988, 0.59003084897995, 5.668807029724121, -0.05418691411614418, -1.3882019519805908, -0.2527228593826294, -0.908447265625, 0.138427734375, -0.23095703125, 
265, 2846404030, 0.8845210075378418, 0.0013502389192581177, -0.4617266058921814, -0.06676560640335083, 8.089099884033203, 0.578471839427948, 5.638328552246094, 0.0400862842798233, -0.15490208566188812, 0.17433050274848938, -0.907470703125, 0.139404296875, -0.23291015625, 
266, 2846412363, 0.8845802545547485, 0.001393929123878479, -0.4616164565086365, -0.06674203276634216, 8.087484359741211, 0.5814329385757446, 5.597636699676514, 0.4221225380897522, 1.2448773384094238, 0.24638330936431885, -0.9072265625, 0.1396484375, -0.23193359375, 
267, 2846420696, 0.8846607208251953, 0.0014191120862960815, -0.4614640772342682, -0.06672930717468262, 8.040963172912598, 0.6158723831176758, 5.587223052978516, 0.09423477202653885, 1.8701210021972656, 0.26123958826065063, -0.907958984375, 0.139404296875, -0.23193359375, 
268, 2846429029, 0.8847277164459229, 0.0014255791902542114, -0.461338073015213, -0.06671124696731567, 8.000941276550293, 0.6037428379058838, 5.5705695152282715, -0.1573866754770279, 1.4456419944763184, 0.37010014057159424, -0.907470703125, 0.138916015625, -0.23193359375, 
269, 2846437362, 0.8847734928131104, 0.0014168918132781982, -0.4612535238265991, -0.06668785214424133, 7.959233283996582, 0.592326819896698, 5.5862202644348145, -0.1862795054912567, 0.7946816086769104, 0.5746297240257263, -0.908203125, 0.139892578125, -0.232421875, 
270, 2846445695, 0.884763240814209, 0.0013621002435684204, -0.4612709879875183, -0.06670448184013367, 7.9220380783081055, 0.5917904376983643, 5.604452610015869, -0.7538909912109375, -0.8281978964805603, 0.43451985716819763, -0.908203125, 0.140380859375, -0.2333984375, 
271, 2846454028, 0.8847240209579468, 0.0013305842876434326, -0.4613458514213562, -0.06670752167701721, 7.956484794616699, 0.6070890426635742, 5.5947957038879395, -0.4847622215747833, -1.7055623531341553, 0.3231492042541504, -0.907958984375, 0.138671875, -0.23095703125, 
272, 2846462361, 0.8846585750579834, 0.0013481825590133667, -0.4614730179309845, -0.06669709086418152, 7.963177680969238, 0.6153687238693237, 5.605900287628174, 0.37519729137420654, -2.448221445083618, 0.23219303786754608, -0.90771484375, 0.139892578125, -0.23388671875, 
273, 2846470694, 0.8845759034156799, 0.0013654977083206177, -0.4616326689720154, -0.06668710708618164, 8.028626441955566, 0.6103850603103638, 5.638859748840332, 0.2711266577243805, -2.9693429470062256, 0.13626772165298462, -0.906982421875, 0.138671875, -0.23046875, 
274, 2846479027, 0.8845050930976868, 0.0013869255781173706, -0.4617686867713928, -0.0666830837726593, 8.118210792541504, 0.5713102221488953, 5.634681701660156, 0.34056687355041504, -2.591123104095459, 0.09277476370334625, -0.908935546875, 0.138916015625, -0.23046875, 
275, 2846487360, 0.8844743967056274, 0.001392453908920288, -0.4618302583694458, -0.06666365265846252, 8.12023639678955, 0.5699170827865601, 5.675108432769775, 0.09730847179889679, -1.4557465314865112, 0.3696390390396118, -0.903564453125, 0.14013671875, -0.23291015625, 
276, 2846495693, 0.8844868540763855, 0.0013784170150756836, -0.46181201934814453, -0.06662431359291077, 8.100788116455078, 0.6040075421333313, 5.631161212921143, -0.17121835052967072, -0.22797949612140656, 0.7140992283821106, -0.90966796875, 0.139404296875, -0.2314453125, 
277, 2846504026, 0.8845374584197998, 0.0013431459665298462, -0.46171897649765015, -0.06659919023513794, 8.070988655090332, 0.5960821509361267, 5.639565944671631, -0.5049718022346497, 0.9024919271469116, 0.7674793004989624, -0.90673828125, 0.1416015625, -0.2314453125, 
278, 2846512359, 0.8846036195755005, 0.0013219267129898071, -0.4615958333015442, -0.06657335162162781, 8.030776023864746, 0.5932424664497375, 5.579195976257324, -0.38128066062927246, 1.3866777420043945, 0.6827474236488342, -0.906982421875, 0.137451171875, -0.23095703125, 
279, 2846520692, 0.8846659064292908, 0.0012797564268112183, -0.461479127407074, -0.06655606627464294, 7.9807915687561035, 0.6058529615402222, 5.588187217712402, -0.6625506281852722, 1.258427381515503, 0.7278796434402466, -0.90625, 0.14013671875, -0.23095703125, 
280, 2846529025, 0.88469398021698, 0.0012224912643432617, -0.46142494678497314, -0.06655970215797424, 7.953153133392334, 0.5848093032836914, 5.602585792541504, -1.0365439653396606, 0.26636239886283875, 0.4580593407154083, -0.908203125, 0.139892578125, -0.23291015625, 
281, 2846537358, 0.8846604824066162, 0.0011572539806365967, -0.46148592233657837, -0.06658211350440979, 7.939824104309082, 0.5847151279449463, 5.602991580963135, -1.02806556224823, -1.5334089994430542, 0.3075757324695587, -0.90869140625, 0.1416015625, -0.23291015625, 
282, 2846545691, 0.884566605091095, 0.0010998547077178955, -0.46166256070137024, -0.06660696864128113, 7.94622278213501, 0.6254662871360779, 5.639718055725098, -0.8435408473014832, -3.3059141635894775, 0.16989924013614655, -0.908203125, 0.139892578125, -0.23193359375, 
283, 2846554024, 0.8844515085220337, 0.0010493546724319458, -0.46187707781791687, -0.06665000319480896, 7.996011257171631, 0.6570461392402649, 5.673892021179199, -0.840262234210968, -3.906055450439453, -0.10900136828422546, -0.90625, 0.140625, -0.22998046875, 
284, 2846562357, 0.8843362331390381, 0.001009136438369751, -0.462088942527771, -0.0667121410369873, 8.083417892456055, 0.6374260783195496, 5.721737384796143, -0.7756373286247253, -3.8519577980041504, -0.37059950828552246, -0.908935546875, 0.13916015625, -0.228515625, 
285, 2846570690, 0.8842606544494629, 0.0009805858135223389, -0.46222344040870667, -0.06678208708763123, 8.141067504882812, 0.5985143184661865, 5.728821277618408, -0.8184643983840942, -2.661869525909424, -0.541958749294281, -0.906494140625, 0.1396484375, -0.23046875, 
286, 2846579023, 0.8842511177062988, 0.0009451210498809814, -0.4622306227684021, -0.06685835123062134, 8.116209030151367, 0.5923483967781067, 5.748403549194336, -1.032266616821289, -0.690546989440918, -0.5033837556838989, -0.90869140625, 0.140625, -0.228515625, 
287, 2846587356, 0.8842839002609253, 0.0009429305791854858, -0.46216005086898804, -0.06691300868988037, 8.100143432617188, 0.5878415107727051, 5.694271087646484, -0.5902928113937378, 0.5456344485282898, -0.42520907521247864, -0.9072265625, 0.14013671875, -0.23193359375, 
288, 2846595689, 0.8843218088150024, 0.0009526163339614868, -0.46208328008651733, -0.06694230437278748, 8.070616722106934, 0.6220327019691467, 5.619638442993164, -0.34475475549697876, 0.6699914932250977, -0.2301310896873474, -0.909912109375, 0.138916015625, -0.2314453125, 
289, 2846604022, 0.8843854069709778, 0.0009839534759521484, -0.4619583487510681, -0.06696495413780212, 8.072484016418457, 0.657346248626709, 5.490880012512207, -0.028880048543214798, 1.4326297044754028, -0.22193452715873718, -0.908203125, 0.1416015625, -0.2314453125, 
290, 2846612355, 0.8844302892684937, 0.0010343939065933228, -0.4618681073188782, -0.06699290871620178, 8.008487701416016, 0.6305660009384155, 5.495700836181641, 0.08652488142251968, 0.9107909202575684, -0.5070465803146362, -0.90966796875, 0.1396484375, -0.23046875, 
291, 2846620688, 0.8843522071838379, 0.0009443014860153198, -0.4620016813278198, -0.06710457801818848, 7.953974723815918, 0.6007338166236877, 5.632484436035156, -1.8319941759109497, -2.7246246337890625, -0.6618846654891968, -0.908203125, 0.14013671875, -0.23046875, 
292, 2846629021, 0.8842412233352661, 0.0008229613304138184, -0.46219825744628906, -0.06721580028533936, 7.961617946624756, 0.6690133810043335, 5.6634111404418945, -2.2616474628448486, -3.729496717453003, -0.5651140809059143, -0.908935546875, 0.138671875, -0.22705078125, 
293, 2846637354, 0.8842077255249023, 0.0008041858673095703, -0.4622519016265869, -0.0672873854637146, 8.014148712158203, 0.674514889717102, 5.6532368659973145, -0.7851147651672363, -1.3999333381652832, -0.5868093371391296, -0.90869140625, 0.140625, -0.2314453125, 
294, 2846645687, 0.8841977119445801, 0.0007791370153427124, -0.46225935220718384, -0.0673677921295166, 8.030904769897461, 0.6363601088523865, 5.589009761810303, -1.0098795890808105, -0.6930314898490906, -0.674819827079773, -0.907470703125, 0.13818359375, -0.22998046875, 
295, 2846654020, 0.8842067718505859, 0.0007433593273162842, -0.4622257351875305, -0.06747958064079285, 8.041547775268555, 0.6054667234420776, 5.534683704376221, -1.3279316425323486, -0.08704998344182968, -0.9281445741653442, -0.907958984375, 0.13916015625, -0.22900390625, 
296, 2846662353, 0.8841633796691895, 0.0006192624568939209, -0.4622877836227417, -0.06762301921844482, 8.034196853637695, 0.568355143070221, 5.672213077545166, -2.393432378768921, -1.648775577545166, -0.7222573757171631, -0.9072265625, 0.140625, -0.23046875, 
297, 2846670686, 0.8841180801391602, 0.0005006790161132812, -0.46235859394073486, -0.06773343682289124, 8.0421142578125, 0.5842119455337524, 5.707143306732178, -2.229271173477173, -1.7784861326217651, -0.4355829060077667, -0.909423828125, 0.137939453125, -0.23193359375, 
298, 2846679019, 0.8841670155525208, 0.0005425065755844116, -0.46226224303245544, -0.06775224208831787, 8.031291961669922, 0.581619143486023, 5.685516834259033, 0.17105185985565186, 1.0111730098724365, -0.2448592633008957, -0.908203125, 0.139892578125, -0.23193359375, 
299, 2846687352, 0.8842319250106812, 0.0005807578563690186, -0.4621341824531555, -0.06777796149253845, 8.016621589660645, 0.5412986278533936, 5.638350963592529, 0.030788308009505272, 1.4870855808258057, -0.30133867263793945, -0.908447265625, 0.138427734375, -0.2314453125, 
300, 2846695685, 0.884243369102478, 0.0005494058132171631, -0.4621027708053589, -0.06784209609031677, 8.02651309967041, 0.5623779892921448, 5.577279090881348, -0.9843165874481201, -0.08692190051078796, -0.38952845335006714, -0.9111328125, 0.14013671875, -0.226806640625, 
301, 2846704018, 0.8842324614524841, 0.000513419508934021, -0.46211352944374084, -0.06791222095489502, 8.058028221130371, 0.5807822346687317, 5.571828842163086, -1.0237882137298584, -0.7534555792808533, -0.43811866641044617, -0.906982421875, 0.1376953125, -0.23046875, 
302, 2846712351, 0.8842554092407227, 0.00055713951587677, -0.46206924319267273, -0.06791433691978455, 8.080223083496094, 0.5766695737838745, 5.53317403793335, 0.3697926998138428, 0.21664518117904663, -0.06246030703186989, -0.90869140625, 0.140625, -0.228515625, 
303, 2846720684, 0.8842897415161133, 0.0006083846092224121, -0.4620087742805481, -0.0678786039352417, 8.092068672180176, 0.6208457350730896, 5.53578519821167, 0.6428149342536926, 0.4824185073375702, 0.33616122603416443, -0.90625, 0.14013671875, -0.22998046875, 
304, 2846729017, 0.8843039274215698, 0.0005808323621749878, -0.46198195219039917, -0.06787720322608948, 8.089471817016602, 0.6813154220581055, 5.528582572937012, -0.45538264513015747, -0.11589161306619644, 0.4252474904060364, -0.9072265625, 0.140625, -0.22900390625, 
305, 2846737350, 0.8842980861663818, 0.0005067586898803711, -0.46198663115501404, -0.0679216980934143, 8.076096534729004, 0.7239177823066711, 5.576106071472168, -1.3295197486877441, -0.6814796328544617, 0.11941356956958771, -0.90869140625, 0.14013671875, -0.23046875, 
306, 2846745683, 0.8843057751655579, 0.0004428774118423462, -0.4619622826576233, -0.06798920035362244, 8.05473804473877, 0.6701069474220276, 5.688605785369873, -1.4810534715652466, -0.2341012954711914, -0.2851504385471344, -0.90771484375, 0.140625, -0.2314453125, 
307, 2846754016, 0.8843803405761719, 0.0004402250051498413, -0.4618142247200012, -0.06802421808242798, 8.061984062194824, 0.6303716897964478, 5.7174506187438965, -0.5443665385246277, 1.7528076171875, -0.14309391379356384, -0.909912109375, 0.137939453125, -0.23046875, 
308, 2846762349, 0.8845286965370178, 0.0004961341619491577, -0.4615313410758972, -0.06801539659500122, 8.059897422790527, 0.6342558264732361, 5.668866157531738, 0.17038586735725403, 3.9117801189422607, -0.02242525853216648, -0.907958984375, 0.137451171875, -0.23291015625, 
309, 2846770682, 0.884703516960144, 0.0005695968866348267, -0.4611985385417938, -0.06799933314323425, 8.049199104309082, 0.5973235368728638, 5.617976188659668, 0.5328529477119446, 4.707230567932129, 0.0851929560303688, -0.90673828125, 0.14013671875, -0.22900390625, 
310, 2846779015, 0.8848773241043091, 0.0006220638751983643, -0.46085989475250244, -0.06803199648857117, 8.059699058532715, 0.5604569911956787, 5.520644187927246, 0.25529709458351135, 4.782869338989258, -0.17869773507118225, -0.906982421875, 0.137939453125, -0.2314453125, 
311, 2846787348, 0.8850250244140625, 0.0006623715162277222, -0.46057310700416565, -0.06805306673049927, 8.049604415893555, 0.5079032778739929, 5.489208698272705, -0.06325434893369675, 3.9444124698638916, -0.18043945729732513, -0.906005859375, 0.139404296875, -0.234375, 
312, 2846795681, 0.8851364254951477, 0.000645563006401062, -0.46035313606262207, -0.0680936872959137, 8.028761863708496, 0.5157493948936462, 5.529402256011963, -0.7802736163139343, 2.859419345855713, -0.07006773352622986, -0.90966796875, 0.139892578125, -0.232421875, 
313, 2846804014, 0.8852523565292358, 0.0005581974983215332, -0.4601210057735443, -0.0681564211845398, 7.969517230987549, 0.5453697443008423, 5.59200382232666, -1.8289716243743896, 2.958623170852661, 0.09249300509691238, -0.906982421875, 0.13916015625, -0.2314453125, 
314, 2846812347, 0.885370135307312, 0.00044968724250793457, -0.4598841071128845, -0.06822487711906433, 7.9648756980896, 0.5708010196685791, 5.651870250701904, -2.3435354232788086, 3.0008609294891357, 0.0036628348752856255, -0.90771484375, 0.140869140625, -0.2353515625, 
315, 2846820680, 0.8855075836181641, 0.00034849345684051514, -0.4596096873283386, -0.06829214096069336, 7.983038425445557, 0.6170280575752258, 5.595778942108154, -2.0653653144836426, 3.5964434146881104, 0.14228707551956177, -0.906494140625, 0.139404296875, -0.23486328125, 
316, 2846829013, 0.8857176303863525, 0.00023436546325683594, -0.45919069647789, -0.06838640570640564, 7.980329513549805, 0.6211187839508057, 5.538963794708252, -2.4392054080963135, 5.817095756530762, 0.02054261974990368, -0.906005859375, 0.139404296875, -0.23828125, 
317, 2846837346, 0.885953426361084, 0.00012284517288208008, -0.45872175693511963, -0.0684797465801239, 7.993741035461426, 0.5859625935554504, 5.476673603057861, -2.5399715900421143, 6.578298568725586, -0.01750732958316803, -0.9052734375, 0.140380859375, -0.236328125, 
318, 2846845679, 0.8862016201019287, -0.00009177625179290771, -0.458218514919281, -0.06863674521446228, 8.007554054260254, 0.5580027103424072, 5.515676021575928, -4.014404296875, 7.0006279945373535, 0.012013077735900879, -0.90576171875, 0.141845703125, -0.23681640625, 
319, 2846854012, 0.8863886594772339, -0.00039201974868774414, -0.45783233642578125, -0.06879761815071106, 8.016647338867188, 0.603465735912323, 5.65175199508667, -5.18625545501709, 5.082504749298096, 0.30427154898643494, -0.90625, 0.140380859375, -0.23779296875, 
320, 2846862345, 0.8865752220153809, -0.0006976574659347534, -0.4574487507343292, -0.06894391775131226, 8.069772720336914, 0.6664568781852722, 5.6779398918151855, -5.219093322753906, 5.047977447509766, 0.4670756161212921, -0.9072265625, 0.140869140625, -0.23779296875, 
321, 2846870678, 0.8868108987808228, -0.0009275227785110474, -0.4569733738899231, -0.06906268000602722, 8.086590766906738, 0.603943407535553, 5.71912145614624, -4.149238109588623, 6.5431060791015625, 0.420713871717453, -0.90625, 0.143310546875, -0.23876953125, 
322, 2846879011, 0.8870552778244019, -0.0011114925146102905, -0.4564869999885559, -0.06913653016090393, 8.028691291809082, 0.5385291576385498, 5.725375652313232, -3.3030707836151123, 6.783084392547607, 0.6925832629203796, -0.90673828125, 0.139892578125, -0.240234375, 
323, 2846887344, 0.8872264623641968, -0.0013340264558792114, -0.45613807439804077, -0.06923991441726685, 7.914386749267578, 0.595855712890625, 5.8732194900512695, -3.8427374362945557, 4.603236198425293, 0.4987604320049286, -0.9072265625, 0.140869140625, -0.2392578125, 
324, 2846895677, 0.8873233795166016, -0.0016337335109710693, -0.4559245705604553, -0.06939646601676941, 7.870512008666992, 0.5608925819396973, 5.9689249992370605, -4.757601261138916, 2.4361958503723145, 0.41676926612854004, -0.90625, 0.140380859375, -0.2421875, 
325, 2846904010, 0.8874479532241821, -0.0017665475606918335, -0.4556743800640106, -0.06944620609283447, 7.8891730308532715, 0.5094512104988098, 5.919734477996826, -2.3183059692382812, 3.189817428588867, 0.5444561839103699, -0.90625, 0.143310546875, -0.2412109375, 
326, 2846912343, 0.8876103758811951, -0.0017804652452468872, -0.4553583562374115, -0.06944140791893005, 7.874880790710449, 0.5738985538482666, 5.886551380157471, -0.7176468372344971, 4.3417158126831055, 0.4070870578289032, -0.902587890625, 0.138916015625, -0.24169921875, 
327, 2846920676, 0.88770592212677, -0.0018211156129837036, -0.4551709294319153, -0.06944981217384338, 7.926734447479248, 0.600147545337677, 5.7378411293029785, -0.8767623901367188, 2.328282356262207, 0.44292134046554565, -0.904296875, 0.142822265625, -0.2421875, 
328, 2846929009, 0.8877086639404297, -0.0018351972103118896, -0.4551621377468109, -0.06947046518325806, 7.9891533851623535, 0.5735721588134766, 5.698455333709717, -0.5790994167327881, -0.4056398272514343, -0.05649220198392868, -0.905029296875, 0.13916015625, -0.244140625, 
329, 2846937342, 0.8876310586929321, -0.0018592625856399536, -0.4553077518939972, -0.06950780749320984, 8.00170612335205, 0.5987093448638916, 5.85609245300293, -0.5406268239021301, -2.8054633140563965, -0.18640759587287903, -0.908203125, 0.141357421875, -0.24365234375, 
330, 2846945675, 0.8875998258590698, -0.001824989914894104, -0.4553696811199188, -0.06950259208679199, 8.009517669677734, 0.6266605854034424, 5.869915962219238, 0.3111104667186737, -1.4311312437057495, -0.026395468041300774, -0.90673828125, 0.140869140625, -0.2431640625, 
331, 2846954008, 0.8876512050628662, -0.0017319321632385254, -0.45527464151382446, -0.06947106122970581, 8.032556533813477, 0.5695236325263977, 5.86879301071167, 1.094342589378357, 1.0513875484466553, 0.049742843955755234, -0.90625, 0.140625, -0.2451171875, 
332, 2846962341, 0.8877116441726685, -0.001694709062576294, -0.4551578164100647, -0.06946316361427307, 7.987187385559082, 0.5542235374450684, 5.910953044891357, 0.27819618582725525, 1.3315815925598145, 0.1386498510837555, -0.9033203125, 0.143798828125, -0.24267578125, 
333, 2846970674, 0.8877418041229248, -0.0017232149839401245, -0.4550993740558624, -0.0694618821144104, 7.952666759490967, 0.5722488760948181, 5.861261367797852, -0.546799898147583, 0.3552694022655487, 0.41979172825813293, -0.903076171875, 0.138427734375, -0.24267578125, 
334, 2846979007, 0.887757420539856, -0.001719832420349121, -0.4550747275352478, -0.06942284107208252, 7.942945957183838, 0.6151087284088135, 5.867448329925537, 0.10760539770126343, -0.10912944376468658, 0.6554170250892639, -0.90576171875, 0.142822265625, -0.24169921875, 
335, 2846987340, 0.8877794146537781, -0.0016725808382034302, -0.45504191517829895, -0.06935688853263855, 7.9312520027160645, 0.6276404857635498, 5.846333980560303, 0.8088974952697754, 0.06319031864404678, 0.7279053330421448, -0.90380859375, 0.141845703125, -0.2431640625, 
336, 2846995673, 0.887781023979187, -0.0016243606805801392, -0.4550480246543884, -0.06929674744606018, 7.931658744812012, 0.6135140657424927, 5.819252967834473, 0.833410382270813, -0.5297920107841492, 0.6302126049995422, -0.90673828125, 0.142822265625, -0.2451171875, 
337, 2847004006, 0.8877488374710083, -0.0016035735607147217, -0.45511746406555176, -0.06925392150878906, 7.927412033081055, 0.6322296857833862, 5.757358074188232, 0.4369277060031891, -1.5485727787017822, 0.5560595393180847, -0.904296875, 0.140869140625, -0.2431640625, 
338, 2847012339, 0.887682318687439, -0.001597076654434204, -0.45524999499320984, -0.06923410296440125, 7.920095920562744, 0.6673638224601746, 5.747413158416748, 0.20924268662929535, -2.5388190746307373, 0.34853288531303406, -0.9033203125, 0.143310546875, -0.24462890625, 
339, 2847020672, 0.8875993490219116, -0.0015698522329330444, -0.4554130434989929, -0.06922787427902222, 7.964560508728027, 0.6508312225341797, 5.765681266784668, 0.3731738328933716, -3.0016684532165527, 0.017878737300634384, -0.90576171875, 0.140869140625, -0.24169921875, 
340, 2847029005, 0.8875337839126587, -0.001501232385635376, -0.45554184913635254, -0.06922009587287903, 7.964402675628662, 0.6187615990638733, 5.77683162689209, 0.8875333070755005, -2.42598819732666, -0.18971185386180878, -0.90283203125, 0.142822265625, -0.244140625, 
341, 2847037338, 0.8874737620353699, -0.0014295130968093872, -0.45566001534461975, -0.06921413540840149, 7.9397993087768555, 0.6136274933815002, 5.800632953643799, 0.8727794289588928, -2.268178939819336, -0.2396339327096939, -0.90283203125, 0.141845703125, -0.24365234375, 
342, 2847045671, 0.8874285221099854, -0.0013436973094940186, -0.4557523727416992, -0.06918773055076599, 7.918878078460693, 0.6190736889839172, 5.730955123901367, 1.101309895515442, -1.8433157205581665, -0.10252098739147186, -0.90478515625, 0.140869140625, -0.2421875, 
343, 2847054004, 0.8873882293701172, -0.0012673139572143555, -0.4558357000350952, -0.06915763020515442, 7.95051908493042, 0.5852512717247009, 5.69770622253418, 1.0490309000015259, -1.7171653509140015, 0.04228910058736801, -0.9052734375, 0.141357421875, -0.24462890625, 
344, 2847062337, 0.8873233795166016, -0.0012166798114776611, -0.4559668302536011, -0.06912493705749512, 7.97304630279541, 0.5713642239570618, 5.709844589233398, 0.8366122245788574, -2.46643328666687, 0.23511306941509247, -0.9033203125, 0.140380859375, -0.24267578125, 
345, 2847070670, 0.8872326612472534, -0.0012040138244628906, -0.4561478793621063, -0.06909611821174622, 7.969643592834473, 0.562283992767334, 5.764903545379639, 0.3548852503299713, -3.284449577331543, 0.3798079192638397, -0.9052734375, 0.142822265625, -0.23974609375, 
346, 2847079003, 0.8871524930000305, -0.0012302398681640625, -0.4563087821006775, -0.06906172633171082, 7.978025436401367, 0.5661723017692566, 5.784825801849365, -0.29024770855903625, -3.017958879470825, 0.565126895904541, -0.90625, 0.140380859375, -0.24267578125, 
347, 2847087336, 0.8870874643325806, -0.0012548863887786865, -0.45644068717956543, -0.06902596354484558, 7.960079669952393, 0.5732985138893127, 5.794186115264893, -0.10264904797077179, -2.5588748455047607, 0.7205796837806702, -0.90625, 0.142822265625, -0.24169921875, 
348, 2847095669, 0.887033224105835, -0.0012396275997161865, -0.45655208826065063, -0.06898382306098938, 7.938659191131592, 0.5912880301475525, 5.765900135040283, 0.43162545561790466, -2.194794178009033, 0.5743223428726196, -0.90478515625, 0.141357421875, -0.2392578125, 
349, 2847104002, 0.8869702816009521, -0.0012047290802001953, -0.45667922496795654, -0.06895378232002258, 7.935877323150635, 0.5638740658760071, 5.742090702056885, 0.5818274021148682, -2.4320592880249023, 0.27957940101623535, -0.9052734375, 0.143310546875, -0.240234375, 
350, 2847112335, 0.8868886232376099, -0.0011607706546783447, -0.4568416476249695, -0.06892761588096619, 7.925817012786865, 0.5850362181663513, 5.751996040344238, 0.5662794709205627, -2.973210573196411, 0.06057766079902649, -0.90625, 0.141357421875, -0.240234375, 
351, 2847120668, 0.8867750763893127, -0.0011190176010131836, -0.4570656716823578, -0.06890422105789185, 7.944166660308838, 0.6124801635742188, 5.7588958740234375, 0.7157641053199768, -3.925137758255005, 0.10494150221347809, -0.90673828125, 0.141845703125, -0.24169921875, 
352, 2847129001, 0.8866347074508667, -0.0010446161031723022, -0.4573425054550171, -0.0688747763633728, 7.965509414672852, 0.6336316466331482, 5.731995582580566, 1.1127592325210571, -4.707320213317871, -0.11719793826341629, -0.9052734375, 0.141845703125, -0.240234375, 
353, 2847137334, 0.8864841461181641, -0.000957682728767395, -0.45763683319091797, -0.06885728240013123, 7.983871936798096, 0.5932519435882568, 5.749670028686523, 1.294901967048645, -4.969327926635742, -0.2852785587310791, -0.90673828125, 0.140869140625, -0.23876953125, 
354, 2847145667, 0.886329710483551, -0.0008895695209503174, -0.45794013142585754, -0.06883120536804199, 8.009566307067871, 0.5403898358345032, 5.773582458496094, 1.0773347616195679, -5.120784759521484, -0.1061069667339325, -0.90625, 0.141357421875, -0.23779296875, 
355, 2847154000, 0.8861849904060364, -0.0008111149072647095, -0.458227276802063, -0.06878504157066345, 8.03579330444336, 0.5473065376281738, 5.793549060821533, 1.3658277988433838, -4.855549335479736, 0.12302517145872116, -0.906982421875, 0.138916015625, -0.23681640625, 
356, 2847162333, 0.8860438466072083, -0.000696912407875061, -0.45851194858551025, -0.06870707869529724, 8.017452239990234, 0.553175687789917, 5.809208393096924, 2.0676064491271973, -4.75783109664917, 0.3291941285133362, -0.90673828125, 0.139892578125, -0.2392578125, 
357, 2847170666, 0.8858845233917236, -0.0005607008934020996, -0.4588361978530884, -0.06859943270683289, 8.047187805175781, 0.561219334602356, 5.844161033630371, 2.49190616607666, -5.3461127281188965, 0.4933813810348511, -0.905029296875, 0.139404296875, -0.23583984375, 
358, 2847178999, 0.8857053518295288, -0.0004140585660934448, -0.4592019319534302, -0.06846487522125244, 8.040410041809082, 0.5752010345458984, 5.84193754196167, 2.8258132934570312, -5.959624767303467, 0.7313888072967529, -0.908203125, 0.140869140625, -0.23486328125, 
359, 2847187332, 0.8855401873588562, -0.00027939677238464355, -0.4595332145690918, -0.06838059425354004, 8.022724151611328, 0.6177780628204346, 5.811393737792969, 2.333277702331543, -5.470265865325928, 0.2126493901014328, -0.90966796875, 0.141357421875, -0.233642578125, 
360, 2847195665, 0.8854418992996216, -0.00012065470218658447, -0.4597316086292267, -0.06831875443458557, 8.040895462036133, 0.6391949653625488, 5.7176713943481445, 2.4263339042663574, -3.3950002193450928, -0.10687538981437683, -0.909423828125, 0.138916015625, -0.23486328125, 
361, 2847203998, 0.8853986859321594, 0.0000979006290435791, -0.45982638001441956, -0.06824243068695068, 8.018264770507812, 0.67978435754776, 5.6154913902282715, 3.082134962081909, -1.7400387525558472, -0.29859793186187744, -0.9072265625, 0.141357421875, -0.2353515625, 
362, 2847212331, 0.8853490352630615, 0.000339508056640625, -0.4599302411079407, -0.06818553805351257, 7.975993633270264, 0.6564263105392456, 5.521399974822998, 3.1273698806762695, -1.8735147714614868, -0.7732296586036682, -0.909912109375, 0.138427734375, -0.23486328125, 
363, 2847220664, 0.8852697014808655, 0.0005362182855606079, -0.46008598804473877, -0.06816357374191284, 7.967092037200928, 0.6220421195030212, 5.440165996551514, 2.5296874046325684, -2.731642723083496, -0.8548879027366638, -0.908935546875, 0.138916015625, -0.2333984375, 
364, 2847228997, 0.8851679563522339, 0.0006951838731765747, -0.4602832794189453, -0.06815150380134583, 7.990975856781006, 0.6169827580451965, 5.452027797698975, 2.049855947494507, -3.4077560901641846, -0.7615240812301636, -0.906494140625, 0.137939453125, -0.2333984375, 
365, 2847237330, 0.8850657343864441, 0.0008097589015960693, -0.4604784846305847, -0.06815916299819946, 8.028708457946777, 0.62531977891922, 5.446325778961182, 1.3786605596542358, -3.4346508979797363, -0.7179285287857056, -0.908203125, 0.139892578125, -0.23193359375, 
366, 2847245663, 0.8849539160728455, 0.0009178817272186279, -0.4606945514678955, -0.06815031170845032, 8.047819137573242, 0.603075385093689, 5.494783878326416, 1.2654197216033936, -3.7603611946105957, -0.5984637141227722, -0.906494140625, 0.1376953125, -0.23095703125, 
367, 2847253996, 0.8848422765731812, 0.0009867548942565918, -0.46090543270111084, -0.06817245483398438, 8.075329780578613, 0.5924310088157654, 5.5533671379089355, 0.7466548085212708, -3.7269601821899414, -0.6137297749519348, -0.908203125, 0.140625, -0.23193359375, 
368, 2847262329, 0.8847672939300537, 0.0010044127702713013, -0.46104204654693604, -0.06822115182876587, 8.110243797302246, 0.5955318808555603, 5.587494373321533, 0.04413333162665367, -2.6198880672454834, -0.47410669922828674, -0.908203125, 0.1396484375, -0.2314453125, 
369, 2847270662, 0.884737491607666, 0.0010379701852798462, -0.4610922336578369, -0.06826812028884888, 8.090229988098145, 0.634700357913971, 5.636991024017334, 0.006096187513321638, -1.2868974208831787, -0.6151642203330994, -0.9091796875, 0.139404296875, -0.232421875, 
370, 2847278995, 0.8847132325172424, 0.001027435064315796, -0.4611262083053589, -0.0683550238609314, 8.041389465332031, 0.6329841017723083, 5.6766886711120605, -0.7684910297393799, -1.0879261493682861, -0.8043766021728516, -0.909912109375, 0.137939453125, -0.2353515625, 
371, 2847287328, 0.8847018480300903, 0.0010329633951187134, -0.46113497018814087, -0.06844425201416016, 8.01149845123291, 0.6274902820587158, 5.673227310180664, -0.6413164138793945, -0.6928009986877441, -0.93628990650177, -0.908935546875, 0.138427734375, -0.2314453125, 
372, 2847295661, 0.8846914768218994, 0.0010600537061691284, -0.4611438512802124, -0.0685167908668518, 8.054272651672363, 0.6075910925865173, 5.650216579437256, -0.3211384415626526, -0.6645740866661072, -0.9059627056121826, -0.908935546875, 0.137451171875, -0.234375, 
373, 2847303994, 0.8846922516822815, 0.0011779367923736572, -0.4611431956291199, -0.06850826740264893, 8.036819458007812, 0.6309165358543396, 5.584181785583496, 1.3367043733596802, -0.3930119574069977, -0.4484155774116516, -0.91015625, 0.140380859375, -0.230712890625, 
374, 2847312327, 0.884658932685852, 0.0013322830200195312, -0.46120887994766235, -0.06849405169487, 7.983660697937012, 0.6453376412391663, 5.658132076263428, 1.630448341369629, -1.3953481912612915, -0.8162615895271301, -0.908447265625, 0.136962890625, -0.23291015625, 
375, 2847320660, 0.8845512270927429, 0.0014319270849227905, -0.46140897274017334, -0.068535715341568, 7.980474472045898, 0.5856235027313232, 5.680749416351318, 0.9867627620697021, -3.542205333709717, -1.0421535968780518, -0.907958984375, 0.137451171875, -0.2314453125, 
376, 2847328993, 0.8844183683395386, 0.0015373378992080688, -0.46165943145751953, -0.06856116652488708, 7.991089344024658, 0.5963379740715027, 5.674222946166992, 1.19085693359375, -4.301846981048584, -0.9207420349121094, -0.908447265625, 0.136474609375, -0.23095703125, 
377, 2847337326, 0.8843166828155518, 0.0016064941883087158, -0.4618503153324127, -0.06858572363853455, 8.031462669372559, 0.6737557053565979, 5.662613868713379, 0.7154055833816528, -3.421613931655884, -0.6357581615447998, -0.910888671875, 0.137939453125, -0.22900390625, 
378, 2847345659, 0.8842441439628601, 0.0016508251428604126, -0.4619869291782379, -0.06859880685806274, 8.023385047912598, 0.6634606719017029, 5.597033977508545, 0.4934070110321045, -2.587614059448242, -0.27895185351371765, -0.9091796875, 0.139404296875, -0.23291015625, 
379, 2847353992, 0.8842202425003052, 0.0016796737909317017, -0.4620308578014374, -0.06861042976379395, 7.980327606201172, 0.6169971227645874, 5.623544216156006, 0.16759391129016876, -1.1784212589263916, -0.1509062498807907, -0.910400390625, 0.13720703125, -0.22607421875, 
380, 2847362325, 0.884222149848938, 0.001690700650215149, -0.4620293378829956, -0.06859773397445679, 7.99985408782959, 0.6113535165786743, 5.620875835418701, -0.15024028718471527, -0.4862734079360962, 0.1323743611574173, -0.911376953125, 0.138427734375, -0.229248046875, 
381, 2847370658, 0.8842127919197083, 0.0017060339450836182, -0.462047278881073, -0.06859716773033142, 7.962716579437256, 0.6343784928321838, 5.642648696899414, 0.05568534508347511, -0.7808114886283875, 0.09602776169776917, -0.908935546875, 0.136962890625, -0.22998046875, 
382, 2847378991, 0.8841674327850342, 0.0017800182104110718, -0.46213439106941223, -0.06859138607978821, 7.935403347015381, 0.6720619797706604, 5.616478443145752, 0.9918856620788574, -1.7800483703613281, -0.16507093608379364, -0.910888671875, 0.135986328125, -0.23046875, 
383, 2847387324, 0.8840753436088562, 0.001922309398651123, -0.46231335401535034, -0.06856927275657654, 7.957869052886963, 0.6949605345726013, 5.577152729034424, 1.8912012577056885, -3.145286798477173, -0.5228249430656433, -0.909423828125, 0.136962890625, -0.22998046875, 
384, 2847395657, 0.8839253783226013, 0.0020623356103897095, -0.4625934958457947, -0.06860777735710144, 7.986062049865723, 0.6359919309616089, 5.627684593200684, 1.7071884870529175, -4.72888708114624, -1.2117197513580322, -0.911376953125, 0.135498046875, -0.228515625, 
385, 2847403990, 0.8837828636169434, 0.002213209867477417, -0.4628613591194153, -0.06863325834274292, 8.027804374694824, 0.6072839498519897, 5.648155689239502, 1.7773975133895874, -4.537984371185303, -1.2013205289840698, -0.910888671875, 0.135986328125, -0.22998046875, 
386, 2847412323, 0.883683443069458, 0.0023551881313323975, -0.4630501866340637, -0.06863543391227722, 8.084261894226074, 0.6181026697158813, 5.628701210021973, 1.7948917150497437, -3.301457166671753, -0.7951042652130127, -0.910400390625, 0.134521484375, -0.22705078125, 
387, 2847420656, 0.8836333751678467, 0.0024674981832504272, -0.46314626932144165, -0.0686292052268982, 8.136408805847168, 0.6743951439857483, 5.587909698486328, 1.3466684818267822, -1.8978995084762573, -0.4888092279434204, -0.909423828125, 0.136474609375, -0.22900390625, 
388, 2847428989, 0.8836161494255066, 0.0025594085454940796, -0.46317774057388306, -0.06863367557525635, 8.091324806213379, 0.7259492874145508, 5.5695109367370605, 0.7947840690612793, -0.931833028793335, -0.5816608667373657, -0.909912109375, 0.135498046875, -0.22802734375, 
389, 2847437322, 0.8836166262626648, 0.002605721354484558, -0.46316924691200256, -0.06868287920951843, 8.033293724060059, 0.7428871393203735, 5.563230991363525, 0.090418241918087, -0.3693188428878784, -0.6974884271621704, -0.908935546875, 0.135498046875, -0.228515625, 
390, 2847445655, 0.8836262822151184, 0.0026629865169525146, -0.4631466865539551, -0.06870964169502258, 8.015926361083984, 0.7269362807273865, 5.568638324737549, 0.23288458585739136, -0.13138820230960846, -0.5730031728744507, -0.912841796875, 0.136962890625, -0.228759765625, 
391, 2847453988, 0.8836175799369812, 0.0027409791946411133, -0.46315813064575195, -0.06874150037765503, 8.027765274047852, 0.7226161360740662, 5.579832553863525, 0.6052899360656738, -0.6411626935005188, -0.6967711448669434, -0.909912109375, 0.135009765625, -0.2265625, 
392, 2847462321, 0.8835874795913696, 0.0028339922428131104, -0.4632089138031006, -0.06878221035003662, 8.048498153686523, 0.721499502658844, 5.5596795082092285, 0.743632435798645, -1.2372316122055054, -0.9406698942184448, -0.911865234375, 0.133544921875, -0.2265625, 
393, 2847470654, 0.8835530281066895, 0.002925187349319458, -0.46326565742492676, -0.06883731484413147, 8.025761604309082, 0.663705587387085, 5.60410213470459, 0.6612570881843567, -1.3430951833724976, -1.0851855278015137, -0.910400390625, 0.135986328125, -0.2265625, 
394, 2847478987, 0.8835257887840271, 0.002967938780784607, -0.4633021354675293, -0.06894055008888245, 8.04794979095459, 0.6527827382087708, 5.628357410430908, 0.18306493759155273, -1.0552679300308228, -1.0674092769622803, -0.908935546875, 0.136474609375, -0.22900390625, 
395, 2847487320, 0.8835123777389526, 0.003019988536834717, -0.4633188843727112, -0.06899815797805786, 8.048049926757812, 0.6687121391296387, 5.578917026519775, 0.13086311519145966, -0.7606019377708435, -0.8473572731018066, -0.909912109375, 0.135009765625, -0.22802734375, 
396, 2847495653, 0.8834924697875977, 0.0030803531408309937, -0.4633539915084839, -0.06901577115058899, 8.030404090881348, 0.6641200184822083, 5.554139614105225, 0.2599332928657532, -1.0268363952636719, -0.592470109462738, -0.909912109375, 0.134033203125, -0.22705078125, 
397, 2847503986, 0.8834537863731384, 0.0030996501445770264, -0.463422566652298, -0.0690489113330841, 8.028129577636719, 0.6776174306869507, 5.587221622467041, -0.061538197100162506, -1.5815637111663818, -0.3634275794029236, -0.910400390625, 0.135498046875, -0.228515625, 
398, 2847512319, 0.8834145069122314, 0.003096073865890503, -0.46349385380744934, -0.06907376646995544, 8.064784049987793, 0.7059937119483948, 5.557291030883789, -0.3656303882598877, -1.6387603282928467, -0.17867209017276764, -0.910888671875, 0.133056640625, -0.22900390625, 
399, 2847520652, 0.8833866119384766, 0.003090217709541321, -0.46354037523269653, -0.06911855936050415, 8.058943748474121, 0.6947985291481018, 5.577758312225342, -0.46322059631347656, -1.2684552669525146, -0.3353031277656555, -0.910400390625, 0.133056640625, -0.22607421875, 
400, 2847528985, 0.8833538293838501, 0.0030775517225265503, -0.4635962247848511, -0.06916487216949463, 8.044394493103027, 0.6639626622200012, 5.577264785766602, -0.5253095626831055, -1.4110498428344727, -0.3070506453514099, -0.909423828125, 0.135009765625, -0.2275390625, 
401, 2847537318, 0.8832917213439941, 0.0030698180198669434, -0.46371006965637207, -0.06919467449188232, 8.068901062011719, 0.679961621761322, 5.58130407333374, -0.3230338990688324, -2.305422067642212, -0.17313940823078156, -0.910888671875, 0.134033203125, -0.2255859375, 
402, 2847545651, 0.8832172155380249, 0.0030706822872161865, -0.46385037899017334, -0.06920379400253296, 8.096770286560059, 0.6795451045036316, 5.599307537078857, -0.15410804748535156, -2.6990106105804443, -0.051471810787916183, -0.910400390625, 0.135009765625, -0.22900390625, 
403, 2847553984, 0.8831495046615601, 0.0030512958765029907, -0.4639778733253479, -0.06921553611755371, 8.130058288574219, 0.7201464176177979, 5.6077704429626465, -0.337480366230011, -2.516355037689209, 0.1172107458114624, -0.907958984375, 0.13427734375, -0.2255859375, 
404, 2847562317, 0.8831101059913635, 0.0030402690172195435, -0.4640516936779022, -0.06922277808189392, 8.149012565612793, 0.7069623470306396, 5.626861095428467, -0.28512483835220337, -1.6712901592254639, 0.12166761606931686, -0.910888671875, 0.135498046875, -0.2255859375, 
405, 2847570650, 0.8831151723861694, 0.0030678510665893555, -0.4640434980392456, -0.06921133399009705, 8.14726734161377, 0.708267331123352, 5.5351057052612305, 0.24884231388568878, -0.35932931303977966, 0.1625223308801651, -0.910888671875, 0.133056640625, -0.22705078125, 
406, 2847578983, 0.8831361532211304, 0.0031243562698364258, -0.4640069007873535, -0.06918603181838989, 8.125600814819336, 0.729640007019043, 5.495143890380859, 0.7201186418533325, 0.12696976959705353, 0.19346432387828827, -0.911376953125, 0.134033203125, -0.22607421875, 
407, 2847587316, 0.883103609085083, 0.00310535728931427, -0.4640631377696991, -0.06922471523284912, 8.036426544189453, 0.6888473629951477, 5.644129753112793, -0.5736435651779175, -1.429133415222168, -0.18277037143707275, -0.910400390625, 0.133056640625, -0.22705078125, 
408, 2847595649, 0.8830568194389343, 0.003038927912712097, -0.4641471207141876, -0.06926149129867554, 8.091203689575195, 0.6470651030540466, 5.6415114402771, -1.0384395122528076, -1.8878843784332275, 0.1767382174730301, -0.908935546875, 0.134033203125, -0.22509765625, 
409, 2847603982, 0.883087158203125, 0.003038153052330017, -0.46408843994140625, -0.06926831603050232, 8.114643096923828, 0.742400586605072, 5.600754261016846, -0.259408175945282, 0.3871079385280609, 0.14267131686210632, -0.911376953125, 0.134033203125, -0.22607421875, 
410, 2847612315, 0.8831671476364136, 0.0030368268489837646, -0.4639323353767395, -0.06929484009742737, 8.05734634399414, 0.7269622683525085, 5.549711227416992, -0.4365817904472351, 1.8976562023162842, -0.018455056473612785, -0.911376953125, 0.134033203125, -0.2255859375, 
411, 2847620648, 0.8831944465637207, 0.0029799938201904297, -0.4638742208480835, -0.06933817267417908, 8.072175979614258, 0.6688551902770996, 5.482961654663086, -1.1734265089035034, 0.30644869804382324, 0.054891303181648254, -0.911865234375, 0.133056640625, -0.2255859375, 
412, 2847628981, 0.8831664323806763, 0.002905607223510742, -0.4639175534248352, -0.0694073736667633, 8.061592102050781, 0.6892902851104736, 5.503537178039551, -1.5241111516952515, -1.294812560081482, -0.2480354607105255, -0.911865234375, 0.134033203125, -0.2255859375, 
413, 2847637314, 0.8831329941749573, 0.0028531551361083984, -0.4639720320701599, -0.06947124004364014, 8.009485244750977, 0.707565426826477, 5.60134220123291, -1.1416136026382446, -1.445705771446228, -0.2757244110107422, -0.911865234375, 0.13671875, -0.224609375, 
414, 2847645647, 0.8831461668014526, 0.0028678178787231445, -0.46394479274749756, -0.0694848895072937, 8.00946044921875, 0.6722599267959595, 5.583988666534424, -0.26104745268821716, -0.09767988324165344, -0.1743432879447937, -0.912353515625, 0.134033203125, -0.22705078125, 
415, 2847653980, 0.8831770420074463, 0.0028695017099380493, -0.4638819098472595, -0.06951233744621277, 8.028401374816895, 0.6728608012199402, 5.580426216125488, -0.36744898557662964, 0.4430494010448456, -0.12285866588354111, -0.910400390625, 0.134033203125, -0.22412109375, 
416, 2847662313, 0.8831599950790405, 0.0028202980756759644, -0.463909387588501, -0.06954526901245117, 8.015461921691895, 0.7251771092414856, 5.582614898681641, -1.1868740320205688, -1.0218414068222046, -0.07951938360929489, -0.908935546875, 0.135498046875, -0.2265625, 
417, 2847670646, 0.8830974102020264, 0.0027607083320617676, -0.4640219807624817, -0.06959187984466553, 8.032628059387207, 0.7443321943283081, 5.5853681564331055, -1.0613899230957031, -2.344330072402954, -0.04673317074775696, -0.909423828125, 0.134033203125, -0.2265625, 
418, 2847678979, 0.8830379843711853, 0.0027097761631011963, -0.4641319513320923, -0.0696151852607727, 8.064129829406738, 0.6993306279182434, 5.635847091674805, -0.8962805867195129, -2.2826766967773438, 0.12261534482240677, -0.908935546875, 0.135498046875, -0.2265625, 
419, 2847687312, 0.8830058574676514, 0.002634972333908081, -0.4641883969306946, -0.06964954733848572, 8.097829818725586, 0.6495146751403809, 5.655450344085693, -1.2241939306259155, -1.481950044631958, 0.22609685361385345, -0.912353515625, 0.133056640625, -0.224609375, 
420, 2847695645, 0.8829954862594604, 0.0025078505277633667, -0.4641968607902527, -0.06972917914390564, 8.096724510192871, 0.671958327293396, 5.648055553436279, -1.6282585859298706, -0.7576051354408264, 0.4080604016780853, -0.910888671875, 0.132568359375, -0.22509765625, 
421, 2847703978, 0.8830052614212036, 0.002410188317298889, -0.4641748070716858, -0.06975612044334412, 8.103649139404297, 0.7020443677902222, 5.608458995819092, -1.5300533771514893, -0.2827683389186859, 0.4988372027873993, -0.908935546875, 0.134033203125, -0.22607421875, 
422, 2847712311, 0.883013904094696, 0.002323523163795471, -0.4641552269458771, -0.06977897882461548, 8.080795288085938, 0.6818804740905762, 5.608687877655029, -1.3529053926467896, -0.30172282457351685, 0.4819830358028412, -0.910888671875, 0.135986328125, -0.2275390625, 
423, 2847720644, 0.8830374479293823, 0.0022473782300949097, -0.4641077220439911, -0.06979897618293762, 8.062076568603516, 0.6620243191719055, 5.603415489196777, -1.250346064567566, 0.1351919174194336, 0.45849481225013733, -0.912353515625, 0.134033203125, -0.22607421875, 
424, 2847728977, 0.8830744624137878, 0.0021629929542541504, -0.4640352129936218, -0.06981706619262695, 8.037857055664062, 0.706851065158844, 5.5761919021606445, -1.3571062088012695, 0.5222485661506653, 0.546223521232605, -0.910400390625, 0.134033203125, -0.2255859375, 
425, 2847737310, 0.8831067085266113, 0.0020781755447387695, -0.4639691710472107, -0.0698513388633728, 8.003158569335938, 0.6733540892601013, 5.572199821472168, -1.4643018245697021, 0.40701016783714294, 0.3493013083934784, -0.909423828125, 0.134521484375, -0.22607421875, 
426, 2847745643, 0.8831242322921753, 0.0019981861114501953, -0.46392953395843506, -0.06989362835884094, 7.9972004890441895, 0.6524608731269836, 5.55142879486084, -1.4332317113876343, 0.0045337192714214325, 0.2006106823682785, -0.910888671875, 0.135009765625, -0.22607421875, 
427, 2847753976, 0.8831099271774292, 0.001950085163116455, -0.4639517366886139, -0.06992918252944946, 7.991950035095215, 0.6635904312133789, 5.569418430328369, -0.9394659399986267, -0.9277859926223755, 0.05699167400598526, -0.910888671875, 0.134521484375, -0.22607421875, 
428, 2847762309, 0.8830727338790894, 0.0019234418869018555, -0.4640200734138489, -0.06994697451591492, 8.03109073638916, 0.6610372066497803, 5.563381671905518, -0.526718258857727, -1.604155421257019, 0.10783592611551285, -0.911376953125, 0.134521484375, -0.22509765625, 
429, 2847770642, 0.883025050163269, 0.0019076615571975708, -0.4641079306602478, -0.06996628642082214, 8.048267364501953, 0.6241903305053711, 5.583250045776367, -0.3785143792629242, -1.905686378479004, 0.01872400753200054, -0.910400390625, 0.134765625, -0.22265625, 
430, 2847778975, 0.8829814195632935, 0.0018769800662994385, -0.46418648958206177, -0.06999623775482178, 8.077066421508789, 0.6005904674530029, 5.609501838684082, -0.477718323469162, -1.761042833328247, 0.0915708914399147, -0.909912109375, 0.134521484375, -0.2255859375, 
431, 2847787308, 0.8829430341720581, 0.0018447637557983398, -0.46425721049308777, -0.07001197338104248, 8.0799560546875, 0.6509173512458801, 5.629591941833496, -0.572977602481842, -1.65410315990448, 0.1740231066942215, -0.909912109375, 0.135498046875, -0.22607421875, 
432, 2847795641, 0.8829119801521301, 0.0018225759267807007, -0.46431273221969604, -0.07003504037857056, 8.084450721740723, 0.6577826142311096, 5.629222869873047, -0.5503602027893066, -1.4078480005264282, -0.000986148021183908, -0.910400390625, 0.13427734375, -0.22265625, 
433, 2847803974, 0.882891058921814, 0.0017991364002227783, -0.4643476605415344, -0.07006716728210449, 8.10081672668457, 0.6321825385093689, 5.624931335449219, -0.6066091656684875, -1.0980950593948364, -0.06466314196586609, -0.909912109375, 0.134765625, -0.224609375, 
434, 2847812307, 0.8828696012496948, 0.0017463266849517822, -0.46438276767730713, -0.07010743021965027, 8.097912788391113, 0.6485128402709961, 5.6176066398620605, -0.8885706067085266, -1.1175363063812256, 0.10263623297214508, -0.911865234375, 0.134521484375, -0.22705078125, 
435, 2847820640, 0.8828651905059814, 0.00169391930103302, -0.46438825130462646, -0.0701276957988739, 8.085309028625488, 0.6655219793319702, 5.569854259490967, -0.9111623167991638, -0.664189875125885, 0.2805270850658417, -0.907958984375, 0.13525390625, -0.2255859375, 
436, 2847828973, 0.8828839063644409, 0.0016496330499649048, -0.4643516540527344, -0.07013627886772156, 8.053736686706543, 0.667474627494812, 5.541322231292725, -0.8693599104881287, 0.001972296042367816, 0.32483971118927, -0.912841796875, 0.134033203125, -0.22705078125, 
437, 2847837306, 0.8828883171081543, 0.0015978366136550903, -0.46434104442596436, -0.07015213370323181, 8.011927604675293, 0.6754071712493896, 5.544425964355469, -0.8926944732666016, -0.41017353534698486, 0.33669912815093994, -0.913818359375, 0.133544921875, -0.22509765625, 
438, 2847845639, 0.8828566074371338, 0.0015365779399871826, -0.46439462900161743, -0.07019734382629395, 8.031290054321289, 0.6848349571228027, 5.518196105957031, -0.8631868958473206, -1.403570532798767, 0.18242458999156952, -0.910888671875, 0.135009765625, -0.22509765625, 
439, 2847853972, 0.8828179836273193, 0.0015049576759338379, -0.4644637107849121, -0.07022708654403687, 8.073678016662598, 0.6666057109832764, 5.503008842468262, -0.6574790477752686, -1.6356611251831055, -0.0014728185487911105, -0.910400390625, 0.13525390625, -0.22314453125, 
440, 2847862305, 0.8827841281890869, 0.0014649033546447754, -0.4645228385925293, -0.07026273012161255, 8.07088851928711, 0.6296933889389038, 5.538825511932373, -0.6762285232543945, -1.4735996723175049, 0.06808263063430786, -0.910400390625, 0.1357421875, -0.2236328125, 
441, 2847870638, 0.8827608823776245, 0.0014377385377883911, -0.46456366777420044, -0.07028535008430481, 8.068041801452637, 0.6285632252693176, 5.531643867492676, -0.5847857594490051, -1.1882059574127197, 0.07277003675699234, -0.909912109375, 0.13525390625, -0.22412109375, 
442, 2847878971, 0.8827426433563232, 0.00141964852809906, -0.46459418535232544, -0.07031306624412537, 8.0715970993042, 0.6061605215072632, 5.534698009490967, -0.4515661299228668, -1.0123385190963745, -0.00032017790363170207, -0.910888671875, 0.134521484375, -0.2265625, 
443, 2847887304, 0.8827049732208252, 0.001390710473060608, -0.4646623432636261, -0.07033595442771912, 8.09473705291748, 0.6091727614402771, 5.522644996643066, -0.5820450186729431, -1.6135815382003784, 0.06587980687618256, -0.908935546875, 0.132568359375, -0.22265625, 
