sep=,
PacketCounter,SampleTimeFine,Quat_W,Quat_X,Quat_Y,Quat_Z,Acc_X,Acc_Y,Acc_Z,Gyr_X,Gyr_Y,Gyr_Z,Mag_X,Mag_Y,Mag_Z,
0, 3535718123, 0.8820089101791382, -0.060299187898635864, -0.4435961842536926, -0.1472131311893463, 0, 0, 0, 0, 0, 0, -0.893798828125, 0.13671875, -0.238525390625, 
1, 3535726456, 0.8820161819458008, -0.06020286679267883, -0.4435490369796753, -0.14735153317451477, 7.863165378570557, 0.2546946406364441, 5.894443035125732, 0.048282839357852936, 0.4261696934700012, -2.017646312713623, -0.892822265625, 0.13671875, -0.236328125, 
2, 3535734789, 0.8819799423217773, -0.060182005167007446, -0.4435636103153229, -0.14753225445747375, 7.847773551940918, 0.24388206005096436, 5.9079718589782715, -1.0085221529006958, -0.7102699875831604, -2.178759813308716, -0.893798828125, 0.1376953125, -0.239013671875, 
3, 3535743122, 0.8819347023963928, -0.060150206089019775, -0.4435969591140747, -0.14771544933319092, 7.858813762664795, 0.24184884130954742, 5.916348457336426, -0.8885962963104248, -0.9653621912002563, -2.340974807739258, -0.893310546875, 0.1376953125, -0.234619140625, 
4, 3535751455, 0.8819018006324768, -0.06009674072265625, -0.4436124563217163, -0.14788705110549927, 7.856927394866943, 0.2849186360836029, 5.955636501312256, -0.5554062724113464, -0.6423409581184387, -2.263235330581665, -0.895263671875, 0.1376953125, -0.236572265625, 
5, 3535759788, 0.8818790912628174, -0.060056790709495544, -0.4435948133468628, -0.14809179306030273, 7.863093852996826, 0.2876795828342438, 5.9172163009643555, -1.005704641342163, -0.17442014813423157, -2.5632550716400146, -0.894287109375, 0.1376953125, -0.237060546875, 
6, 3535768121, 0.8818457126617432, -0.060054928064346313, -0.44358187913894653, -0.14832961559295654, 7.832672595977783, 0.27006569504737854, 5.887357234954834, -1.6684985160827637, -0.34611234068870544, -2.7571804523468018, -0.895263671875, 0.13427734375, -0.235595703125, 
7, 3535776454, 0.8818053007125854, -0.060077548027038574, -0.4435718059539795, -0.14859113097190857, 7.8356475830078125, 0.26735755801200867, 5.897133827209473, -2.0991249084472656, -0.4609409272670746, -2.893601655960083, -0.895263671875, 0.13427734375, -0.235595703125, 
8, 3535784787, 0.8817684650421143, -0.060077324509620667, -0.44356366991996765, -0.148834228515625, 7.824611186981201, 0.26643049716949463, 5.9284796714782715, -1.7148603200912476, -0.4240308701992035, -2.822957992553711, -0.893798828125, 0.1357421875, -0.23779296875, 
9, 3535793120, 0.8817364573478699, -0.060056135058403015, -0.44354885816574097, -0.14907589554786682, 7.859281063079834, 0.2498650997877121, 5.937265872955322, -1.4237030744552612, -0.27746620774269104, -2.8818702697753906, -0.894775390625, 0.13720703125, -0.235107421875, 
10, 3535801453, 0.8817023634910583, -0.06003502011299133, -0.4435384273529053, -0.149316668510437, 7.86522102355957, 0.2604236304759979, 5.920328617095947, -1.4492918252944946, -0.34414011240005493, -2.902848482131958, -0.89208984375, 0.13134765625, -0.23486328125, 
11, 3535809786, 0.8816564083099365, -0.060034751892089844, -0.4435441195964813, -0.14957121014595032, 7.884245872497559, 0.2325827181339264, 5.911169528961182, -1.761785626411438, -0.6392416954040527, -2.99295973777771, -0.893798828125, 0.134765625, -0.23486328125, 
12, 3535818119, 0.8816123604774475, -0.06001627445220947, -0.44354963302612305, -0.14982134103775024, 7.887263298034668, 0.21619322896003723, 5.922066688537598, -1.480950951576233, -0.5949802398681641, -3.0125539302825928, -0.89404296875, 0.131591796875, -0.23779296875, 
13, 3535826452, 0.8815706372261047, -0.05998915433883667, -0.4435577690601349, -0.15005359053611755, 7.910637378692627, 0.21306608617305756, 5.935390949249268, -1.2922254800796509, -0.6060968637466431, -2.879129648208618, -0.89453125, 0.133056640625, -0.2373046875, 
14, 3535834785, 0.8815610408782959, -0.059946805238723755, -0.4435057044029236, -0.15028074383735657, 7.928414344787598, 0.19806747138500214, 5.951173305511475, -1.153037667274475, 0.3432563543319702, -2.7691681385040283, -0.89599609375, 0.133056640625, -0.2373046875, 
15, 3535843118, 0.8815780878067017, -0.05990229547023773, -0.4434010982513428, -0.1505070924758911, 7.915099620819092, 0.22357900440692902, 5.947325229644775, -1.2280616760253906, 1.1486191749572754, -2.69875431060791, -0.893798828125, 0.134765625, -0.23583984375, 
16, 3535851451, 0.8816110491752625, -0.05982714891433716, -0.44327622652053833, -0.1507112979888916, 7.876947402954102, 0.24956020712852478, 5.919806480407715, -0.747256875038147, 1.5340877771377563, -2.5546231269836426, -0.89453125, 0.132568359375, -0.2353515625, 
17, 3535859784, 0.8816330432891846, -0.05975377559661865, -0.44317883253097534, -0.1508985459804535, 7.868307590484619, 0.2604268491268158, 5.875850200653076, -0.623207151889801, 1.1208534240722656, -2.396864891052246, -0.892578125, 0.131591796875, -0.240234375, 
18, 3535868117, 0.8816390633583069, -0.05968737602233887, -0.443114310503006, -0.15107882022857666, 7.851170063018799, 0.2838101387023926, 5.877157211303711, -0.59159916639328, 0.6007562875747681, -2.3084702491760254, -0.89404296875, 0.130615234375, -0.2392578125, 
19, 3535876450, 0.8816359043121338, -0.05962827801704407, -0.44306695461273193, -0.15125900506973267, 7.864249229431152, 0.2895406186580658, 5.899011611938477, -0.6691078543663025, 0.325275182723999, -2.3165900707244873, -0.892578125, 0.131103515625, -0.23681640625, 
20, 3535884783, 0.8816409707069397, -0.059556007385253906, -0.44300878047943115, -0.15142852067947388, 7.869819641113281, 0.3046254515647888, 5.895542144775391, -0.42385151982307434, 0.5214802026748657, -2.207524538040161, -0.89501953125, 0.132080078125, -0.2373046875, 
21, 3535893116, 0.8816525340080261, -0.05947604775428772, -0.4429432451725006, -0.1515847146511078, 7.868538856506348, 0.31861868500709534, 5.882712364196777, -0.2960365116596222, 0.6587724685668945, -2.1072959899902344, -0.8935546875, 0.130615234375, -0.23876953125, 
22, 3535901449, 0.8816616535186768, -0.05938395857810974, -0.44288480281829834, -0.15173718333244324, 7.8615288734436035, 0.29105034470558167, 5.904391288757324, -0.09675777703523636, 0.5776779055595398, -2.1263785362243652, -0.89404296875, 0.128173828125, -0.23828125, 
23, 3535909782, 0.8816692233085632, -0.059313222765922546, -0.4428277611732483, -0.15188777446746826, 7.868134021759033, 0.3085010349750519, 5.901027679443359, -0.35920119285583496, 0.507110595703125, -2.0003821849823, -0.89306640625, 0.132080078125, -0.23681640625, 
24, 3535918115, 0.8816806077957153, -0.059249281883239746, -0.44275808334350586, -0.1520499587059021, 7.895544528961182, 0.32548895478248596, 5.911536693572998, -0.5148589015007019, 0.6742178797721863, -2.0541720390319824, -0.89404296875, 0.129150390625, -0.23876953125, 
25, 3535926448, 0.8817042708396912, -0.05915890634059906, -0.4426723122596741, -0.15219810605049133, 7.889547824859619, 0.2969251275062561, 5.916923999786377, -0.15326276421546936, 0.9944983124732971, -2.0325534343719482, -0.8955078125, 0.130615234375, -0.23828125, 
26, 3535934781, 0.881736695766449, -0.059058547019958496, -0.4425724744796753, -0.15233880281448364, 7.877379894256592, 0.31446099281311035, 5.895423889160156, 0.00770988455042243, 1.2281513214111328, -1.9536616802215576, -0.89599609375, 0.1298828125, -0.2412109375, 
27, 3535943114, 0.8817717432975769, -0.05893869698047638, -0.4424726963043213, -0.15247270464897156, 7.860023498535156, 0.33316123485565186, 5.872204303741455, 0.27076810598373413, 1.281070351600647, -2.0024311542510986, -0.89501953125, 0.129638671875, -0.24072265625, 
28, 3535951447, 0.8818021416664124, -0.05883017182350159, -0.44238030910491943, -0.15260636806488037, 7.852752685546875, 0.34445858001708984, 5.871617317199707, 0.14623165130615234, 1.1410373449325562, -1.9476679563522339, -0.8935546875, 0.1279296875, -0.24072265625, 
29, 3535959780, 0.8818355202674866, -0.05872657895088196, -0.4422801434993744, -0.15274396538734436, 7.861021041870117, 0.32782840728759766, 5.885817050933838, 0.05222742632031441, 1.2415475845336914, -1.9421353340148926, -0.89404296875, 0.126953125, -0.23974609375, 
30, 3535968113, 0.8818657398223877, -0.058628857135772705, -0.44218945503234863, -0.15286937355995178, 7.89025354385376, 0.3426518738269806, 5.875743389129639, 0.09387616068124771, 1.0864020586013794, -1.754664659500122, -0.8916015625, 0.129150390625, -0.24072265625, 
31, 3535976446, 0.8818899393081665, -0.05853429436683655, -0.44211217761039734, -0.15298989415168762, 7.865360736846924, 0.3508128523826599, 5.873311996459961, 0.08462943136692047, 0.8794392347335815, -1.7287687063217163, -0.892578125, 0.129150390625, -0.2412109375, 
32, 3535984779, 0.8819161057472229, -0.0584421306848526, -0.4420323371887207, -0.15310412645339966, 7.862770080566406, 0.36239469051361084, 5.88076114654541, 0.05906641483306885, 0.9065133929252625, -1.6462396383285522, -0.8935546875, 0.1279296875, -0.2412109375, 
33, 3535993112, 0.8819418549537659, -0.05836203694343567, -0.4419496953487396, -0.1532251238822937, 7.8708624839782715, 0.3600829541683197, 5.911445617675781, -0.10421152412891388, 0.9239054918289185, -1.6387603282928467, -0.892578125, 0.12744140625, -0.24267578125, 
34, 3536001445, 0.8819655776023865, -0.05828303098678589, -0.44187304377555847, -0.15333998203277588, 7.856850624084473, 0.36834588646888733, 5.904800891876221, -0.08033904433250427, 0.8286460638046265, -1.566656231880188, -0.89306640625, 0.126708984375, -0.23828125, 
35, 3536009778, 0.8819897174835205, -0.05819383263587952, -0.441802442073822, -0.15343880653381348, 7.8571906089782715, 0.37419381737709045, 5.9197001457214355, 0.16541671752929688, 0.7695540189743042, -1.4375349283218384, -0.890869140625, 0.125, -0.239501953125, 
36, 3536018111, 0.8820161819458008, -0.05811047554016113, -0.44172489643096924, -0.15354081988334656, 7.865624904632568, 0.37299954891204834, 5.926445007324219, 0.09287721663713455, 0.8559508323669434, -1.3984220027923584, -0.89404296875, 0.12646484375, -0.240234375, 
37, 3536026444, 0.8820482492446899, -0.05803315341472626, -0.4416359066963196, -0.1536422073841095, 7.8557963371276855, 0.351382851600647, 5.937154769897461, -0.026344239711761475, 1.0171157121658325, -1.3640731573104858, -0.8935546875, 0.1259765625, -0.2412109375, 
38, 3536034777, 0.8820925951004028, -0.057951584458351135, -0.4415217936038971, -0.1537455916404724, 7.842601299285889, 0.36290085315704346, 5.944995403289795, 0.03165919706225395, 1.4066826105117798, -1.3140742778778076, -0.892578125, 0.1259765625, -0.24267578125, 
39, 3536043110, 0.882142961025238, -0.05786789953708649, -0.4414028823375702, -0.15382996201515198, 7.841938018798828, 0.3756233751773834, 5.95643424987793, 0.10440362244844437, 1.4913119077682495, -1.1348258256912231, -0.893310546875, 0.1240234375, -0.2412109375, 
40, 3536051443, 0.8821781277656555, -0.05778151750564575, -0.44131234288215637, -0.153920978307724, 7.8504228591918945, 0.37435808777809143, 5.937188625335693, 0.16641566157341003, 1.0625808238983154, -1.2630506753921509, -0.89208984375, 0.1259765625, -0.2451171875, 
41, 3536059776, 0.8822118639945984, -0.05771636962890625, -0.44122570753097534, -0.15400058031082153, 7.849765300750732, 0.36295652389526367, 5.955836296081543, -0.03633379191160202, 0.9570246934890747, -1.0250688791275024, -0.89453125, 0.1259765625, -0.24267578125, 
42, 3536068109, 0.882242739200592, -0.05767114460468292, -0.44114232063293457, -0.15407872200012207, 7.865345001220703, 0.34609031677246094, 5.967245101928711, -0.23673953115940094, 0.853466272354126, -0.8661837577819824, -0.89208984375, 0.1259765625, -0.240234375, 
43, 3536076442, 0.8822779655456543, -0.057640522718429565, -0.44105252623558044, -0.15414580702781677, 7.862926006317139, 0.3806595802307129, 5.953038692474365, -0.38358592987060547, 0.9196279048919678, -0.6570947170257568, -0.8935546875, 0.126953125, -0.24169921875, 
44, 3536084775, 0.8823157548904419, -0.05761517584323883, -0.4409591555595398, -0.15420648455619812, 7.852684497833252, 0.3900516927242279, 5.961350917816162, -0.40512752532958984, 0.9594324231147766, -0.5236189365386963, -0.8935546875, 0.1259765625, -0.2412109375, 
45, 3536093108, 0.882358729839325, -0.05758686363697052, -0.44085943698883057, -0.15425604581832886, 7.846911907196045, 0.3812536895275116, 5.974676609039307, -0.3208566904067993, 1.0702139139175415, -0.40794509649276733, -0.89501953125, 0.12744140625, -0.24267578125, 
46, 3536101441, 0.8824034333229065, -0.05756214261054993, -0.4407554566860199, -0.15430676937103271, 7.8211822509765625, 0.38773372769355774, 5.976650238037109, -0.3754662275314331, 1.1202641725540161, -0.3795132637023926, -0.893310546875, 0.1240234375, -0.24169921875, 
47, 3536109774, 0.8824515342712402, -0.05752655863761902, -0.4406496286392212, -0.15434736013412476, 7.829223155975342, 0.3589654266834259, 5.977230072021484, -0.18730410933494568, 1.182942271232605, -0.32792627811431885, -0.894287109375, 0.12451171875, -0.2431640625, 
48, 3536118107, 0.882496178150177, -0.057483598589897156, -0.44055449962615967, -0.15437963604927063, 7.826175689697266, 0.3615976572036743, 5.981786727905273, -0.010693943127989769, 1.038170576095581, -0.2654787302017212, -0.893798828125, 0.1240234375, -0.24609375, 
49, 3536126440, 0.8825397491455078, -0.05743303894996643, -0.44046467542648315, -0.1544058620929718, 7.7909979820251465, 0.3513619601726532, 6.004218101501465, 0.11226719617843628, 0.9801030158996582, -0.26491522789001465, -0.891845703125, 0.12451171875, -0.242919921875, 
50, 3536134773, 0.8825821876525879, -0.057389289140701294, -0.4403733015060425, -0.1544395387172699, 7.766163349151611, 0.37336409091949463, 5.988581657409668, 0.015138012357056141, 0.9819985032081604, -0.2810778021812439, -0.89453125, 0.1259765625, -0.24365234375, 
51, 3536143106, 0.8826165795326233, -0.05735787749290466, -0.4402933120727539, -0.15448278188705444, 7.7684807777404785, 0.34756380319595337, 5.973825454711914, -0.20925547182559967, 0.7795948386192322, -0.38222837448120117, -0.89599609375, 0.12548828125, -0.24462890625, 
52, 3536151439, 0.8826484084129333, -0.05733436346054077, -0.44021838903427124, -0.15452313423156738, 7.775848388671875, 0.3654959797859192, 5.9767866134643555, -0.255002498626709, 0.6809543967247009, -0.28207674622535706, -0.894287109375, 0.125, -0.2421875, 
53, 3536159772, 0.8826696872711182, -0.0573149174451828, -0.44016674160957336, -0.15455612540245056, 7.787929534912109, 0.35080403089523315, 5.9799699783325195, -0.24362978339195251, 0.3225856423377991, -0.23650901019573212, -0.892333984375, 0.12353515625, -0.239990234375, 
54, 3536168105, 0.8826855421066284, -0.05729992687702179, -0.4401242733001709, -0.15459182858467102, 7.785568714141846, 0.35912948846817017, 5.990584373474121, -0.16668462753295898, 0.17064203321933746, -0.15072695910930634, -0.891845703125, 0.12353515625, -0.246826171875, 
55, 3536176438, 0.8826966285705566, -0.057286933064460754, -0.44009679555892944, -0.15461182594299316, 7.787371635437012, 0.3451818823814392, 5.979569435119629, -0.19921471178531647, -0.05628728121519089, -0.0796474739909172, -0.890625, 0.1259765625, -0.247314453125, 
56, 3536184771, 0.8827022910118103, -0.057273268699645996, -0.4400816261768341, -0.1546272337436676, 7.816068649291992, 0.3282439708709717, 5.971429347991943, -0.14606517553329468, -0.24460314214229584, -0.04427420347929001, -0.892822265625, 0.125, -0.24365234375, 
57, 3536193104, 0.8827069401741028, -0.05726124346256256, -0.44006797671318054, -0.15464404225349426, 7.811877250671387, 0.3333081901073456, 5.989683628082275, -0.16760674118995667, -0.2670668065547943, -0.060616083443164825, -0.893798828125, 0.125, -0.24365234375, 
58, 3536201437, 0.8827206492424011, -0.057245224714279175, -0.4400396943092346, -0.15465256571769714, 7.813808441162109, 0.3596664071083069, 5.975592136383057, -0.0640484020113945, -0.03707660734653473, 0.07748306542634964, -0.894287109375, 0.123291015625, -0.24462890625, 
59, 3536209770, 0.8827364444732666, -0.05722181499004364, -0.4400154948234558, -0.15463995933532715, 7.808986663818359, 0.34895119071006775, 5.979498386383057, 0.13370630145072937, -0.07086177915334702, 0.2589086890220642, -0.892578125, 0.12548828125, -0.24560546875, 
60, 3536218103, 0.882742702960968, -0.057196810841560364, -0.4400111436843872, -0.1546255648136139, 7.809173583984375, 0.34572580456733704, 5.962917327880859, 0.19950926303863525, -0.3676026463508606, 0.23480568826198578, -0.890380859375, 0.12255859375, -0.246337890625, 
61, 3536226436, 0.8827447295188904, -0.05716896057128906, -0.4400160312652588, -0.15461018681526184, 7.793501853942871, 0.34489578008651733, 5.982430458068848, 0.27463582158088684, -0.5050743222236633, 0.23583023250102997, -0.892822265625, 0.1240234375, -0.244384765625, 
62, 3536234769, 0.8827476501464844, -0.05716143548488617, -0.44002145528793335, -0.15458112955093384, 7.803858280181885, 0.36306366324424744, 5.977337837219238, 0.136037215590477, -0.5575322508811951, 0.5451477766036987, -0.893798828125, 0.12548828125, -0.2412109375, 
63, 3536243102, 0.8827512860298157, -0.05716429650783539, -0.4400252103805542, -0.1545485258102417, 7.781219482421875, 0.3421774208545685, 5.981937408447266, -0.013076066970825195, -0.5555087327957153, 0.6124107837677002, -0.892333984375, 0.125, -0.242919921875, 
64, 3536251435, 0.882745623588562, -0.057184696197509766, -0.44004079699516296, -0.15452861785888672, 7.784868240356445, 0.34895142912864685, 6.033172607421875, -0.2338963896036148, -0.784551203250885, 0.585618257522583, -0.892333984375, 0.12353515625, -0.246826171875, 
65, 3536259768, 0.8827283978462219, -0.057236671447753906, -0.4400763213634491, -0.15450653433799744, 7.808193683624268, 0.35311439633369446, 6.058321952819824, -0.6227460503578186, -1.1634881496429443, 0.7119988799095154, -0.891845703125, 0.1240234375, -0.244384765625, 
66, 3536268101, 0.8827210664749146, -0.057314157485961914, -0.44008803367614746, -0.15448632836341858, 7.820131778717041, 0.35666221380233765, 6.071633338928223, -0.9307060241699219, -0.8704100847244263, 0.9374552965164185, -0.891357421875, 0.1240234375, -0.244384765625, 
67, 3536276434, 0.8827457427978516, -0.05733667314052582, -0.4400550127029419, -0.15443143248558044, 7.805790424346924, 0.3776629567146301, 6.024946689605713, -0.17818541824817657, -0.04058575630187988, 1.0756441354751587, -0.891845703125, 0.125, -0.242919921875, 
68, 3536284767, 0.882777214050293, -0.05728106200695038, -0.4400368928909302, -0.15432357788085938, 7.7900071144104, 0.3410680890083313, 5.9112467765808105, 1.1275385618209839, -0.05756799131631851, 1.2508455514907837, -0.892333984375, 0.1240234375, -0.244384765625, 
69, 3536293100, 0.8828100562095642, -0.05716310441493988, -0.44003474712371826, -0.15418586134910583, 7.783587455749512, 0.37429025769233704, 5.859884738922119, 2.1230616569519043, -0.1369977444410324, 1.2503844499588013, -0.893798828125, 0.123046875, -0.24365234375, 
70, 3536301433, 0.8827382922172546, -0.057207122445106506, -0.440183162689209, -0.1541561484336853, 7.739851951599121, 0.3486862778663635, 6.0656208992004395, -0.2412220537662506, -2.855564594268799, 0.5939428806304932, -0.890869140625, 0.12548828125, -0.244873046875, 
71, 3536309766, 0.8826192617416382, -0.0573277473449707, -0.4404091238975525, -0.1541476547718048, 7.776506423950195, 0.28216552734375, 6.083286762237549, -1.2133079767227173, -4.226233959197998, 0.5969141721725464, -0.8935546875, 0.1259765625, -0.2412109375, 
72, 3536318099, 0.8826450109481812, -0.05731721222400665, -0.4403849244117737, -0.15407288074493408, 7.896001815795898, 0.32663458585739136, 5.943912506103516, 0.38336828351020813, -0.09071281552314758, 1.1377331018447876, -0.892333984375, 0.12451171875, -0.244384765625, 
73, 3536326432, 0.8827230930328369, -0.05733706057071686, -0.4402574598789215, -0.15398335456848145, 7.806746482849121, 0.430921733379364, 5.91860818862915, -0.09437564760446548, 1.4060678482055664, 1.6681013107299805, -0.89404296875, 0.12548828125, -0.244140625, 
74, 3536334765, 0.8827509880065918, -0.05743776261806488, -0.44020575284957886, -0.1539342999458313, 7.690784931182861, 0.43378522992134094, 5.8913702964782715, -1.155522108078003, 0.03949715197086334, 1.5426172018051147, -0.89306640625, 0.126953125, -0.2431640625, 
75, 3536343098, 0.8827087879180908, -0.057611092925071716, -0.4402657747268677, -0.15393942594528198, 7.693256378173828, 0.294634073972702, 6.01821756362915, -2.2281181812286377, -1.845313549041748, 1.0456242561340332, -0.892333984375, 0.12451171875, -0.244384765625, 
76, 3536351431, 0.8825957775115967, -0.05786764621734619, -0.4404560923576355, -0.15394583344459534, 7.785661697387695, 0.2750665247440338, 6.059079170227051, -2.9866580963134766, -4.036841869354248, 1.3181085586547852, -0.89306640625, 0.1259765625, -0.2421875, 
77, 3536359764, 0.8825437426567078, -0.05800774693489075, -0.4405721426010132, -0.1538596749305725, 7.842103004455566, 0.3297225534915924, 5.95974588394165, -1.160722017288208, -2.5892279148101807, 1.8873594999313354, -0.892578125, 0.1279296875, -0.2431640625, 
78, 3536368097, 0.8825043439865112, -0.05804787576198578, -0.4406852424144745, -0.15374711155891418, 7.748344421386719, 0.360088974237442, 5.986407279968262, 0.21270062029361725, -2.2929224967956543, 1.6377743482589722, -0.890625, 0.127685546875, -0.24267578125, 
79, 3536376430, 0.8823977708816528, -0.05812138319015503, -0.4409143924713135, -0.15367311239242554, 7.749464511871338, 0.315717488527298, 5.943692207336426, -0.2306434065103531, -4.140400409698486, 1.1307661533355713, -0.892578125, 0.12646484375, -0.24267578125, 
80, 3536384763, 0.8822813630104065, -0.05813951790332794, -0.441174179315567, -0.15358975529670715, 7.840427875518799, 0.28227007389068604, 5.946585178375244, 0.5821859240531921, -4.467135429382324, 0.8920925855636597, -0.89453125, 0.129638671875, -0.24072265625, 
81, 3536393096, 0.8822062015533447, -0.058092281222343445, -0.4413703978061676, -0.15347561240196228, 7.879184722900391, 0.2981736660003662, 5.997445583343506, 1.4323221445083618, -3.327967405319214, 0.9799236059188843, -0.8935546875, 0.129638671875, -0.24072265625, 
82, 3536401429, 0.8821738958358765, -0.058046936988830566, -0.44148093461990356, -0.1533607542514801, 7.842495441436768, 0.30869680643081665, 5.993415355682373, 1.2681864500045776, -2.034372329711914, 1.1555606126785278, -0.8916015625, 0.12744140625, -0.24169921875, 
83, 3536409762, 0.8821486830711365, -0.058062225580215454, -0.44156163930892944, -0.15326720476150513, 7.850107192993164, 0.3508073091506958, 5.938640117645264, 0.3325496017932892, -1.7437788248062134, 1.3034058809280396, -0.89111328125, 0.12890625, -0.24365234375, 
84, 3536418095, 0.8821002244949341, -0.05812832713127136, -0.4416782855987549, -0.15318524837493896, 7.826648712158203, 0.3503016233444214, 5.936687469482422, -0.31460684537887573, -2.4227097034454346, 1.38119637966156, -0.89453125, 0.12744140625, -0.2421875, 
85, 3536426428, 0.8820255994796753, -0.058195799589157104, -0.4418509304523468, -0.1530919373035431, 7.814064025878906, 0.36183783411979675, 5.959650993347168, -0.13451313972473145, -3.26334285736084, 1.4409544467926025, -0.8935546875, 0.128173828125, -0.23876953125, 
86, 3536434761, 0.8819541335105896, -0.058234840631484985, -0.4420245587825775, -0.1529865264892578, 7.7986674308776855, 0.3446476459503174, 5.950277328491211, 0.2968177795410156, -3.212524890899658, 1.4362927675247192, -0.892578125, 0.126220703125, -0.23876953125, 
87, 3536443094, 0.881904125213623, -0.058241501450538635, -0.4421631991863251, -0.15287169814109802, 7.842688083648682, 0.3146350085735321, 5.963043689727783, 0.682465672492981, -2.5914306640625, 1.4141875505447388, -0.896484375, 0.12548828125, -0.23974609375, 
88, 3536451427, 0.881868839263916, -0.05825747549533844, -0.4422650635242462, -0.15277427434921265, 7.824174880981445, 0.31038445234298706, 5.932276725769043, 0.5350301861763, -2.0619843006134033, 1.4322457313537598, -0.89453125, 0.12646484375, -0.24072265625, 
89, 3536459760, 0.8818345069885254, -0.05828283727169037, -0.4423692524433136, -0.15266144275665283, 7.82808780670166, 0.30504149198532104, 5.912423610687256, 0.38318896293640137, -2.11603045463562, 1.5624427795410156, -0.892578125, 0.126708984375, -0.236328125, 
90, 3536468093, 0.8817784190177917, -0.05831557512283325, -0.4425155818462372, -0.15254932641983032, 7.819918155670166, 0.29420047998428345, 5.9097418785095215, 0.450400710105896, -2.7771339416503906, 1.5948448181152344, -0.89501953125, 0.128662109375, -0.23828125, 
91, 3536476426, 0.8817103505134583, -0.058363184332847595, -0.4426845908164978, -0.1524333655834198, 7.836313724517822, 0.29730892181396484, 5.89198112487793, 0.24213135242462158, -3.155045986175537, 1.612979531288147, -0.896484375, 0.12890625, -0.2392578125, 
92, 3536484759, 0.8816407918930054, -0.058436810970306396, -0.44284895062446594, -0.15233054757118225, 7.8420915603637695, 0.30289801955223083, 5.906529903411865, -0.13441070914268494, -3.158017635345459, 1.6421029567718506, -0.8916015625, 0.127685546875, -0.23779296875, 
93, 3536493092, 0.8815876841545105, -0.05849333107471466, -0.442987322807312, -0.15221378207206726, 7.8355231285095215, 0.2781219780445099, 5.916403293609619, 0.08603822439908981, -2.7144558429718018, 1.7334178686141968, -0.89306640625, 0.127197265625, -0.23828125, 
94, 3536501425, 0.8815357685089111, -0.05851756036281586, -0.44313234090805054, -0.1520823836326599, 7.847689151763916, 0.27598312497138977, 5.911384105682373, 0.625217854976654, -2.73307728767395, 1.751091718673706, -0.8935546875, 0.128173828125, -0.23388671875, 
95, 3536509758, 0.8814798593521118, -0.05852343142032623, -0.443291038274765, -0.15194231271743774, 7.866347312927246, 0.3155975639820099, 5.893361568450928, 0.8829739689826965, -2.8908612728118896, 1.6848020553588867, -0.89208984375, 0.129638671875, -0.23681640625, 
96, 3536518091, 0.8814055323600769, -0.05852058529853821, -0.44348835945129395, -0.1517990231513977, 7.865382194519043, 0.2719908654689789, 5.915168285369873, 1.0742865800857544, -3.4556801319122314, 1.6010688543319702, -0.89501953125, 0.128662109375, -0.2373046875, 
97, 3536526424, 0.8813227415084839, -0.05851055681705475, -0.4436960816383362, -0.15167582035064697, 7.8565287590026855, 0.27718767523765564, 5.912928581237793, 1.065014123916626, -3.6040377616882324, 1.3047633171081543, -0.896484375, 0.129638671875, -0.23828125, 
98, 3536534757, 0.8812405467033386, -0.05847486853599548, -0.4439098536968231, -0.15154168009757996, 7.870746612548828, 0.27605748176574707, 5.9423017501831055, 1.4798880815505981, -3.6316757202148438, 1.2931346893310547, -0.89306640625, 0.130615234375, -0.2373046875, 
99, 3536543090, 0.8811597228050232, -0.05841544270515442, -0.4441288709640503, -0.15139266848564148, 7.859508991241455, 0.29622745513916016, 5.9496002197265625, 1.8341331481933594, -3.6427669525146484, 1.2950044870376587, -0.89501953125, 0.127197265625, -0.23681640625, 
100, 3536551423, 0.8810693621635437, -0.058367058634757996, -0.44436153769493103, -0.1512545645236969, 7.893172740936279, 0.3057757616043091, 5.942964553833008, 1.6856472492218018, -3.8869218826293945, 1.2290990352630615, -0.89404296875, 0.128173828125, -0.236328125, 
101, 3536559756, 0.880977213382721, -0.05835932493209839, -0.44458431005477905, -0.15113946795463562, 7.934658527374268, 0.3169495165348053, 5.923181056976318, 0.9978281259536743, -3.837332248687744, 1.171646237373352, -0.89453125, 0.128662109375, -0.234375, 
102, 3536568089, 0.8809136152267456, -0.05832837522029877, -0.4447535276412964, -0.1510242223739624, 7.9841485023498535, 0.32504504919052124, 5.902228355407715, 1.2470803260803223, -2.9717252254486084, 1.1824045181274414, -0.8935546875, 0.130126953125, -0.2373046875, 
103, 3536576422, 0.8808797001838684, -0.05824628472328186, -0.4448854327201843, -0.15086588263511658, 7.947399139404297, 0.2999110817909241, 5.832099437713623, 2.022653818130493, -2.2634661197662354, 1.4356523752212524, -0.89453125, 0.127685546875, -0.234375, 
104, 3536584755, 0.8808259963989258, -0.05816580355167389, -0.4450613856315613, -0.1506901979446411, 7.899764537811279, 0.3202565312385559, 5.912583351135254, 2.1965231895446777, -2.9390926361083984, 1.5936152935028076, -0.896484375, 0.130126953125, -0.23486328125, 
105, 3536593088, 0.880746603012085, -0.058184266090393066, -0.44525963068008423, -0.15056189894676208, 7.863713264465332, 0.3633488118648529, 5.984248638153076, 0.7221933603286743, -3.527963638305664, 1.5396971702575684, -0.89404296875, 0.129638671875, -0.2353515625, 
106, 3536601421, 0.8807098865509033, -0.05817173421382904, -0.4453851878643036, -0.1504102647304535, 7.905214309692383, 0.3222447633743286, 5.866004943847656, 1.1495157480239868, -2.344688653945923, 1.8073660135269165, -0.8955078125, 0.129638671875, -0.23388671875, 
107, 3536609754, 0.8807412385940552, -0.058099910616874695, -0.44538936018943787, -0.15024250745773315, 7.872438907623291, 0.34336137771606445, 5.7380757331848145, 1.7453283071517944, -0.3457793891429901, 1.8490148782730103, -0.89501953125, 0.130126953125, -0.2353515625, 
108, 3536618087, 0.880702555179596, -0.058076560497283936, -0.44551804661750793, -0.15009582042694092, 7.827062129974365, 0.3819008469581604, 5.75216817855835, 1.278867483139038, -2.3687403202056885, 1.690616250038147, -0.89404296875, 0.130615234375, -0.23388671875, 
109, 3536626420, 0.8805264234542847, -0.05816420912742615, -0.44589197635650635, -0.1499844491481781, 7.854525089263916, 0.31544992327690125, 5.829782009124756, 0.06462471187114716, -6.376189708709717, 1.4194127321243286, -0.8955078125, 0.130615234375, -0.2333984375, 
110, 3536634753, 0.8803317546844482, -0.058274030685424805, -0.44629529118537903, -0.1498854160308838, 7.891660690307617, 0.28082212805747986, 5.903714179992676, -0.20131509006023407, -6.88757848739624, 1.3759455680847168, -0.896484375, 0.130615234375, -0.2333984375, 
111, 3536643086, 0.8802319169044495, -0.05827316641807556, -0.4465430974960327, -0.14973431825637817, 7.969221591949463, 0.29758545756340027, 5.859242916107178, 1.1815335750579834, -4.232918739318848, 1.6159253120422363, -0.8974609375, 0.130615234375, -0.23046875, 
112, 3536651419, 0.8801873326301575, -0.05824553966522217, -0.44668492674827576, -0.14958396553993225, 7.950356960296631, 0.31717583537101746, 5.825783729553223, 1.388624668121338, -2.556851387023926, 1.694100022315979, -0.896484375, 0.130615234375, -0.23291015625, 
113, 3536659752, 0.8800933361053467, -0.05827730894088745, -0.446907103061676, -0.1494608223438263, 7.92368221282959, 0.3265669643878937, 5.82588005065918, 0.5654342174530029, -3.930388927459717, 1.5079869031906128, -0.8955078125, 0.13037109375, -0.23046875, 
114, 3536668085, 0.8799660801887512, -0.05835479497909546, -0.44718241691589355, -0.14935633540153503, 7.939271450042725, 0.32165899872779846, 5.8692474365234375, 0.028816014528274536, -4.861107349395752, 1.4956406354904175, -0.896484375, 0.130859375, -0.23095703125, 
115, 3536676418, 0.8798539638519287, -0.05838923156261444, -0.4474351704120636, -0.1492469608783722, 7.973644733428955, 0.356852263212204, 5.916418552398682, 0.49870920181274414, -4.4083251953125, 1.299282193183899, -0.89697265625, 0.128662109375, -0.23046875, 
116, 3536684751, 0.8797786235809326, -0.05840890109539032, -0.4476156234741211, -0.14914199709892273, 7.980457305908203, 0.374561071395874, 5.926236152648926, 0.6188656091690063, -3.2727952003479004, 1.360628366470337, -0.89794921875, 0.13330078125, -0.231201171875, 
117, 3536693084, 0.8797198534011841, -0.05847139656543732, -0.4477505087852478, -0.14905887842178345, 7.977968215942383, 0.38486573100090027, 5.876489639282227, -0.20157121121883392, -2.688713312149048, 1.3560175895690918, -0.89501953125, 0.13232421875, -0.22802734375, 
118, 3536701417, 0.8796757459640503, -0.05855026841163635, -0.44784465432167053, -0.14900583028793335, 7.971254825592041, 0.3968571424484253, 5.834011554718018, -0.6343749761581421, -2.1191811561584473, 1.182942271232605, -0.896484375, 0.13330078125, -0.227783203125, 
119, 3536709750, 0.8796462416648865, -0.058600202202796936, -0.44791504740715027, -0.14894887804985046, 7.938579559326172, 0.38383907079696655, 5.79537296295166, -0.31998583674430847, -1.6824325323104858, 1.0743378400802612, -0.8974609375, 0.130859375, -0.22900390625, 
120, 3536718083, 0.8796310424804688, -0.058614760637283325, -0.44796955585479736, -0.14886870980262756, 7.918821811676025, 0.3445351719856262, 5.761107921600342, 0.2777351438999176, -1.3503695726394653, 1.2238481044769287, -0.89599609375, 0.1337890625, -0.230712890625, 
121, 3536726416, 0.8796119689941406, -0.05862148106098175, -0.44802939891815186, -0.14879900217056274, 7.914730548858643, 0.34779658913612366, 5.76634407043457, 0.2684371769428253, -1.4118694067001343, 0.9915526509284973, -0.89599609375, 0.1318359375, -0.22802734375, 
122, 3536734749, 0.8795725107192993, -0.05866476893424988, -0.44811925292015076, -0.14874383807182312, 7.916290283203125, 0.33462202548980713, 5.740394115447998, -0.1896093785762787, -1.9687743186950684, 1.0053075551986694, -0.8994140625, 0.130859375, -0.227783203125, 
123, 3536743082, 0.8795041441917419, -0.058729127049446106, -0.4482593238353729, -0.1487012803554535, 7.927495002746582, 0.30974623560905457, 5.731438636779785, -0.4729028344154358, -2.7812318801879883, 0.8543372750282288, -0.89794921875, 0.1328125, -0.228271484375, 
124, 3536751415, 0.8794203996658325, -0.05878463387489319, -0.4484279751777649, -0.148666113615036, 7.966035842895508, 0.3271344006061554, 5.747011661529541, -0.3426288068294525, -3.202150821685791, 0.6800580024719238, -0.89404296875, 0.134033203125, -0.22607421875, 
125, 3536759748, 0.8793440461158752, -0.058823361992836, -0.44858747720718384, -0.1486213505268097, 7.987644195556641, 0.3189031779766083, 5.778319835662842, -0.11566109210252762, -3.015730381011963, 0.6900475025177002, -0.89599609375, 0.130859375, -0.2265625, 
126, 3536768081, 0.8792902231216431, -0.05885002017021179, -0.44869962334632874, -0.14858993887901306, 8.002161026000977, 0.2905740737915039, 5.79347038269043, -0.063100665807724, -2.27130389213562, 0.5974776148796082, -0.8955078125, 0.1328125, -0.22900390625, 
127, 3536776414, 0.8792499303817749, -0.05887296795845032, -0.44878727197647095, -0.1485549509525299, 7.997950553894043, 0.29287654161453247, 5.793784141540527, -0.102444127202034, -1.8820443153381348, 0.6059558987617493, -0.898681640625, 0.13427734375, -0.228271484375, 
128, 3536784747, 0.8792183995246887, -0.058885931968688965, -0.448860228061676, -0.1485157608985901, 7.980034828186035, 0.28270915150642395, 5.777731418609619, 0.033375345170497894, -1.640809416770935, 0.641841471195221, -0.8955078125, 0.1298828125, -0.2275390625, 
129, 3536793080, 0.8791868090629578, -0.058897510170936584, -0.4489371180534363, -0.14846569299697876, 7.98762321472168, 0.2962004244327545, 5.773965358734131, 0.1135479062795639, -1.6888363361358643, 0.7463220357894897, -0.8955078125, 0.130859375, -0.22705078125, 
130, 3536801413, 0.8791529536247253, -0.058919623494148254, -0.44901004433631897, -0.1484367847442627, 7.991776466369629, 0.29675382375717163, 5.763020038604736, -0.1068497821688652, -1.6621973514556885, 0.595863938331604, -0.900390625, 0.13232421875, -0.224853515625, 
131, 3536809746, 0.8791216611862183, -0.058943331241607666, -0.4490778148174286, -0.14840763807296753, 8.011316299438477, 0.29142507910728455, 5.772861480712891, -0.1800040453672409, -1.5863792896270752, 0.5760129690170288, -0.89697265625, 0.13330078125, -0.224853515625, 
132, 3536818079, 0.8790978193283081, -0.05896376073360443, -0.4491296112537384, -0.14838483929634094, 7.991486072540283, 0.29154282808303833, 5.787044048309326, -0.16960464417934418, -1.335052251815796, 0.540434718132019, -0.89794921875, 0.13232421875, -0.224853515625, 
133, 3536826412, 0.8790772557258606, -0.0589674711227417, -0.44917911291122437, -0.14835545420646667, 7.987344264984131, 0.2989388704299927, 5.773109436035156, 0.03463044390082359, -1.257953405380249, 0.4915883541107178, -0.89599609375, 0.130859375, -0.224609375, 
134, 3536834745, 0.8790500164031982, -0.05897073447704315, -0.4492361545562744, -0.14834246039390564, 7.994182586669922, 0.29285892844200134, 5.782323360443115, 0.0036372211761772633, -1.3789807558059692, 0.32099756598472595, -0.896484375, 0.1318359375, -0.22607421875, 
135, 3536843078, 0.8790411949157715, -0.0589803010225296, -0.44925805926322937, -0.14832442998886108, 7.9848551750183105, 0.2872582674026489, 5.828286647796631, -0.15349330008029938, -0.8528899550437927, 0.4354163706302643, -0.89892578125, 0.13232421875, -0.226806640625, 
136, 3536851411, 0.8790352940559387, -0.058980792760849, -0.44927340745925903, -0.14831286668777466, 7.973287105560303, 0.31142038106918335, 5.818858623504639, -0.09529776126146317, -0.7331946492195129, 0.3142610490322113, -0.89501953125, 0.1328125, -0.22705078125, 
137, 3536859744, 0.8790360689163208, -0.0589800626039505, -0.4492717981338501, -0.14831340312957764, 7.952775001525879, 0.31574082374572754, 5.8155622482299805, -0.13044050335884094, -0.47613024711608887, 0.23419097065925598, -0.896240234375, 0.134033203125, -0.224853515625, 
138, 3536868077, 0.8790382742881775, -0.058956071734428406, -0.4492725729942322, -0.14830762147903442, 7.9513373374938965, 0.3047185242176056, 5.8158345222473145, 0.15827034413814545, -0.45663774013519287, 0.1410575807094574, -0.8974609375, 0.1328125, -0.226806640625, 
139, 3536876410, 0.8790295720100403, -0.05892588198184967, -0.4492948353290558, -0.1483035683631897, 7.962723731994629, 0.31287965178489685, 5.844423294067383, 0.24274609982967377, -0.7640085816383362, 0.022335615009069443, -0.8974609375, 0.1337890625, -0.225830078125, 
140, 3536884743, 0.8790237903594971, -0.058911874890327454, -0.4493080675601959, -0.14830365777015686, 7.951651096343994, 0.33371588587760925, 5.85618257522583, 0.022002626210451126, -0.6706959009170532, 0.10711872577667236, -0.896484375, 0.1298828125, -0.22607421875, 
141, 3536893076, 0.8790295720100403, -0.05888378620147705, -0.44930213689804077, -0.14829814434051514, 7.945207118988037, 0.32436037063598633, 5.866655349731445, 0.17973507940769196, -0.3415530323982239, 0.10545379668474197, -0.896484375, 0.13330078125, -0.225830078125, 
142, 3536901409, 0.879042387008667, -0.058850497007369995, -0.44927889108657837, -0.14830583333969116, 7.899320602416992, 0.34561821818351746, 5.845038414001465, 0.15140573680400848, -0.06947861611843109, -0.03523237630724907, -0.8974609375, 0.13134765625, -0.22607421875, 
143, 3536909742, 0.8790464997291565, -0.05883507430553436, -0.4492693543434143, -0.14831694960594177, 7.902495861053467, 0.32789361476898193, 5.8282999992370605, -0.08520574867725372, -0.31919175386428833, -0.017661014571785927, -0.8974609375, 0.1328125, -0.226318359375, 
144, 3536918075, 0.8790426850318909, -0.05883204936981201, -0.4492698013782501, -0.14833858609199524, 7.933353900909424, 0.336491197347641, 5.800812721252441, -0.24439820647239685, -0.5088395476341248, -0.05597991123795509, -0.8984375, 0.1318359375, -0.226318359375, 
145, 3536926408, 0.8790314793586731, -0.05883707106113434, -0.4492843747138977, -0.14835917949676514, 7.911343574523926, 0.3351038694381714, 5.823350429534912, -0.3534124493598938, -0.7397775053977966, -0.056389741599559784, -0.8984375, 0.1328125, -0.225341796875, 
146, 3536934741, 0.8790196776390076, -0.058845534920692444, -0.44929543137550354, -0.14839160442352295, 7.934126377105713, 0.34800010919570923, 5.8057122230529785, -0.43192002177238464, -0.7003315687179565, -0.13576824963092804, -0.8984375, 0.1318359375, -0.226806640625, 
147, 3536943074, 0.8790110945701599, -0.058846086263656616, -0.44930294156074524, -0.14842018485069275, 7.9262800216674805, 0.32635560631752014, 5.822564601898193, -0.3611479103565216, -0.6225924491882324, -0.17052677273750305, -0.89794921875, 0.1328125, -0.224365234375, 
148, 3536951407, 0.8789932727813721, -0.05884864926338196, -0.449325293302536, -0.14845702052116394, 7.921501636505127, 0.3214559257030487, 5.813129901885986, -0.37503084540367126, -0.8581408858299255, -0.24847087264060974, -0.89453125, 0.1328125, -0.2265625, 
149, 3536959740, 0.8789724111557007, -0.058853939175605774, -0.4493498206138611, -0.1485041379928589, 7.922460079193115, 0.31833726167678833, 5.809474468231201, -0.5085577964782715, -0.8996102809906006, -0.4035394489765167, -0.8984375, 0.13232421875, -0.225341796875, 
150, 3536968073, 0.8789516687393188, -0.05885574221611023, -0.44937461614608765, -0.14855080842971802, 7.907589435577393, 0.29892444610595703, 5.819381237030029, -0.4625290632247925, -0.8926944732666016, -0.42031678557395935, -0.8955078125, 0.130859375, -0.22607421875, 
151, 3536976406, 0.8789305090904236, -0.05885252356529236, -0.4494014382362366, -0.14859610795974731, 7.895594120025635, 0.29931071400642395, 5.805612087249756, -0.37008726596832275, -0.9170024394989014, -0.4139387905597687, -0.896484375, 0.13037109375, -0.22509765625, 
152, 3536984739, 0.8789036870002747, -0.05886022746562958, -0.44943732023239136, -0.14864316582679749, 7.8911309242248535, 0.31411710381507874, 5.8235015869140625, -0.487989604473114, -1.081215262413025, -0.3761834502220154, -0.89794921875, 0.12939453125, -0.2265625, 
153, 3536993072, 0.8788684606552124, -0.058883264660835266, -0.44948428869247437, -0.14870059490203857, 7.907461643218994, 0.32325804233551025, 5.799482822418213, -0.7512784004211426, -1.2863342761993408, -0.4668322801589966, -0.89697265625, 0.13330078125, -0.224853515625, 
154, 3537001405, 0.8788197636604309, -0.05891817808151245, -0.44954997301101685, -0.1487758457660675, 7.913237571716309, 0.3181740939617157, 5.790240287780762, -0.9619554281234741, -1.6098674535751343, -0.6282276511192322, -0.89892578125, 0.13134765625, -0.225341796875, 
155, 3537009738, 0.878756046295166, -0.05897234380245209, -0.4496397376060486, -0.14885985851287842, 7.934638977050781, 0.29924196004867554, 5.790884494781494, -1.2277542352676392, -2.0218212604522705, -0.6876268982887268, -0.8974609375, 0.13134765625, -0.22412109375, 
156, 3537018071, 0.8786736726760864, -0.0590570867061615, -0.4497564136981964, -0.14896008372306824, 7.972270488739014, 0.3162723183631897, 5.808624744415283, -1.6157587766647339, -2.5148696899414062, -0.7156233787536621, -0.8974609375, 0.130859375, -0.22509765625, 
157, 3537026404, 0.8785975575447083, -0.059144631028175354, -0.44986096024513245, -0.14905893802642822, 7.977087497711182, 0.32753461599349976, 5.814908981323242, -1.7033337354660034, -2.3326756954193115, -0.6985129714012146, -0.8974609375, 0.13232421875, -0.223876953125, 
158, 3537034737, 0.8785356283187866, -0.05924175679683685, -0.44993525743484497, -0.1491612195968628, 7.970041751861572, 0.3093792796134949, 5.811376571655273, -1.8907276391983032, -1.897874116897583, -0.6259223222732544, -0.8984375, 0.13134765625, -0.224853515625, 
159, 3537043070, 0.878498375415802, -0.05932503938674927, -0.44996413588523865, -0.14925971627235413, 7.981407642364502, 0.32012394070625305, 5.779208183288574, -1.759428858757019, -1.174553394317627, -0.5596581697463989, -0.896484375, 0.13037109375, -0.224609375, 
160, 3537051403, 0.878472089767456, -0.059412404894828796, -0.4499651789665222, -0.14937716722488403, 7.976567268371582, 0.32219868898391724, 5.783106327056885, -1.945055365562439, -0.7620363235473633, -0.6974628567695618, -0.89794921875, 0.130859375, -0.224365234375, 
161, 3537059736, 0.8784307241439819, -0.059500038623809814, -0.4500012695789337, -0.14947673678398132, 7.949028968811035, 0.3195064067840576, 5.775396347045898, -1.8201346397399902, -1.2914056777954102, -0.5804312825202942, -0.8974609375, 0.1298828125, -0.2255859375, 
162, 3537068069, 0.8783822655677795, -0.05958928167819977, -0.4500490128993988, -0.14958184957504272, 7.939480304718018, 0.30484068393707275, 5.757667541503906, -1.7963647842407227, -1.4757000207901, -0.6062760353088379, -0.8984375, 0.13232421875, -0.223876953125, 
163, 3537076402, 0.8783278465270996, -0.05967320501804352, -0.45011037588119507, -0.14968374371528625, 7.930962562561035, 0.2874319553375244, 5.763011932373047, -1.748491883277893, -1.6683703660964966, -0.6792511940002441, -0.899169921875, 0.1337890625, -0.224853515625, 
164, 3537084735, 0.8782622814178467, -0.05976516008377075, -0.4501897096633911, -0.14979222416877747, 7.935276985168457, 0.28762975335121155, 5.80039644241333, -1.8527159690856934, -1.9692606925964355, -0.7320675849914551, -0.89794921875, 0.13232421875, -0.224853515625, 
165, 3537093068, 0.8781865835189819, -0.05987352132797241, -0.4502890706062317, -0.14989453554153442, 7.94392204284668, 0.2938176095485687, 5.812235355377197, -1.985167384147644, -2.307189464569092, -0.6064298152923584, -0.8984375, 0.13134765625, -0.222900390625, 
166, 3537101401, 0.8781103491783142, -0.05998414754867554, -0.4503909945487976, -0.14999008178710938, 7.968176364898682, 0.2952423095703125, 5.834981918334961, -1.9518688917160034, -2.3566505908966064, -0.49503350257873535, -0.89794921875, 0.13134765625, -0.221923828125, 
167, 3537109734, 0.8780535459518433, -0.060087308287620544, -0.45045602321624756, -0.1500866711139679, 7.979128360748291, 0.29239746928215027, 5.828733444213867, -1.9416744709014893, -1.7711604833602905, -0.5022823810577393, -0.8994140625, 0.13232421875, -0.222412109375, 
168, 3537118067, 0.8780092000961304, -0.06020224094390869, -0.45049458742141724, -0.15018382668495178, 7.977921962738037, 0.3112088739871979, 5.823683738708496, -2.1034538745880127, -1.4018031358718872, -0.35786932706832886, -0.8974609375, 0.12939453125, -0.220703125, 
169, 3537126400, 0.877967894077301, -0.060330018401145935, -0.45052164793014526, -0.1502929925918579, 7.994799613952637, 0.3052118420600891, 5.838961601257324, -2.384544610977173, -1.2566215991973877, -0.4390663802623749, -0.89794921875, 0.13037109375, -0.2216796875, 
170, 3537134733, 0.8779385685920715, -0.060494258999824524, -0.4505136013031006, -0.15042227506637573, 8.053266525268555, 0.3152930736541748, 5.856146812438965, -2.9586617946624756, -0.8196683526039124, -0.3552054166793823, -0.900390625, 0.13037109375, -0.222900390625, 
171, 3537143066, 0.8779339790344238, -0.060659125447273254, -0.450456440448761, -0.1505536139011383, 8.046173095703125, 0.2968460023403168, 5.8699750900268555, -3.1128084659576416, -0.0701189711689949, -0.32969367504119873, -0.896484375, 0.13037109375, -0.2236328125, 
172, 3537151399, 0.8779677152633667, -0.06074132025241852, -0.45034629106521606, -0.1506534218788147, 7.966269493103027, 0.26841193437576294, 5.808279037475586, -1.9972314834594727, 0.9512869715690613, -0.3391196131706238, -0.8984375, 0.133056640625, -0.221435546875, 
173, 3537159732, 0.878011167049408, -0.06072522699832916, -0.4502509832382202, -0.1506914496421814, 7.943352699279785, 0.25697991251945496, 5.64279842376709, -0.36089178919792175, 0.9809484481811523, -0.16422566771507263, -0.89794921875, 0.13037109375, -0.2236328125, 
174, 3537168065, 0.8780437707901001, -0.06067429482936859, -0.4501826763153076, -0.15072667598724365, 7.94282341003418, 0.31594815850257874, 5.638907432556152, 0.16467392444610596, 0.6583114862442017, -0.3619675636291504, -0.8974609375, 0.13134765625, -0.2216796875, 
175, 3537176398, 0.877950131893158, -0.06078508496284485, -0.45030906796455383, -0.1508496105670929, 7.852715969085693, 0.2695370018482208, 5.824778079986572, -2.1012256145477295, -2.733180046081543, -0.9022998213768005, -0.8994140625, 0.1298828125, -0.224853515625, 
176, 3537184731, 0.8778111338615417, -0.06096506118774414, -0.45050299167633057, -0.1510067582130432, 7.8931732177734375, 0.22620315849781036, 5.875580310821533, -3.023158073425293, -3.9482421875, -1.0117237567901611, -0.89990234375, 0.13134765625, -0.220458984375, 
177, 3537193064, 0.8778148889541626, -0.06104476749897003, -0.45044195652008057, -0.15113496780395508, 8.046598434448242, 0.2784035801887512, 5.741182327270508, -2.0674655437469482, 0.20125102996826172, -0.7991513609886169, -0.89697265625, 0.12939453125, -0.22314453125, 
178, 3537201397, 0.8778596520423889, -0.061145856976509094, -0.4503055810928345, -0.1512400507926941, 7.990684986114502, 0.33841344714164734, 5.6740522384643555, -2.291897773742676, 1.2968487739562988, -0.2206026166677475, -0.9013671875, 0.13037109375, -0.222412109375, 
179, 3537209730, 0.8778707981109619, -0.06133083999156952, -0.45020410418510437, -0.15140274167060852, 7.9189677238464355, 0.325654536485672, 5.684979438781738, -3.6292166709899902, 0.5456856489181519, -0.5161139965057373, -0.89990234375, 0.13134765625, -0.222412109375, 
180, 3537218063, 0.8778136968612671, -0.06156100332736969, -0.4502161741256714, -0.15160393714904785, 7.909790992736816, 0.2118212729692459, 5.842960357666016, -4.201797962188721, -1.3117177486419678, -0.9048869609832764, -0.89599609375, 0.1298828125, -0.22265625, 
181, 3537226396, 0.8777573108673096, -0.06180858612060547, -0.45023632049560547, -0.151769757270813, 7.972082614898682, 0.225079745054245, 5.857154369354248, -4.2065110206604, -1.469117283821106, -0.4082269072532654, -0.8994140625, 0.130859375, -0.221435546875, 
182, 3537234729, 0.8777986764907837, -0.06185479462146759, -0.4501294493675232, -0.15182897448539734, 7.982672691345215, 0.28985464572906494, 5.703498363494873, -1.2718364000320435, 0.9965473413467407, -0.028290923684835434, -0.8974609375, 0.130859375, -0.22265625, 
183, 3537243062, 0.8778173923492432, -0.0618215948343277, -0.45008212327957153, -0.1518743336200714, 7.872783660888672, 0.2851194739341736, 5.695472717285156, -0.15072695910930634, 0.2940257787704468, -0.477308452129364, -0.8994140625, 0.13134765625, -0.220458984375, 
184, 3537251395, 0.8777147531509399, -0.061883509159088135, -0.4502415060997009, -0.15196987986564636, 7.881861209869385, 0.22670479118824005, 5.70563268661499, -1.2492702007293701, -3.1107590198516846, -0.8958450555801392, -0.896484375, 0.12841796875, -0.2236328125, 
185, 3537259728, 0.8775879144668579, -0.06190307438373566, -0.4504547715187073, -0.15206268429756165, 7.982996940612793, 0.2204739898443222, 5.715299129486084, -0.6598354578018188, -3.8221943378448486, -1.2506533861160278, -0.900390625, 0.1318359375, -0.221923828125, 
186, 3537268061, 0.8775195479393005, -0.0618426650762558, -0.4505774676799774, -0.1521180272102356, 8.02226734161377, 0.22068645060062408, 5.799150466918945, 0.41804996132850647, -2.234726905822754, -1.0718917846679688, -0.89892578125, 0.131591796875, -0.219970703125, 
187, 3537276394, 0.8775039911270142, -0.06179742515087128, -0.4506043791770935, -0.15214622020721436, 8.006112098693848, 0.28114256262779236, 5.820511817932129, 0.22617368400096893, -0.8029933571815491, -0.4799979627132416, -0.8974609375, 0.12841796875, -0.22021484375, 
188, 3537284727, 0.8775117993354797, -0.06179596483707428, -0.4505711793899536, -0.15220031142234802, 8.02161979675293, 0.32441720366477966, 5.7790751457214355, -0.4954945743083954, -0.004495298955589533, -0.3623005747795105, -0.9013671875, 0.13037109375, -0.218505859375, 
189, 3537293060, 0.8775044083595276, -0.061794474720954895, -0.45056676864624023, -0.15225669741630554, 7.978009223937988, 0.3311265707015991, 5.750363349914551, -0.5336853861808777, -0.44208887219429016, -0.5069184899330139, -0.89990234375, 0.12841796875, -0.221435546875, 
190, 3537301393, 0.8774688243865967, -0.06178286671638489, -0.45061811804771423, -0.15231472253799438, 7.966728210449219, 0.338680237531662, 5.760283946990967, -0.2949095070362091, -1.2696079015731812, -0.6602965593338013, -0.8994140625, 0.130859375, -0.220458984375, 
191, 3537309726, 0.8774310946464539, -0.06175050139427185, -0.45068061351776123, -0.15235984325408936, 8.00238037109375, 0.32435980439186096, 5.811978816986084, 0.023334570229053497, -1.3827204704284668, -0.6815820336341858, -0.900390625, 0.13134765625, -0.220947265625, 
192, 3537318059, 0.8774298429489136, -0.061705902218818665, -0.45067286491394043, -0.15240782499313354, 8.01102066040039, 0.32471752166748047, 5.831347942352295, 0.057657647877931595, -0.28445887565612793, -0.6310963034629822, -0.89892578125, 0.12939453125, -0.219482421875, 
193, 3537326392, 0.8774673938751221, -0.06166881322860718, -0.45058709383010864, -0.1524609625339508, 7.980834484100342, 0.30278700590133667, 5.819309711456299, -0.21614570915699005, 0.8898385167121887, -0.5254119634628296, -0.89697265625, 0.12890625, -0.22021484375, 
194, 3537334725, 0.8775193691253662, -0.06162092089653015, -0.45047542452812195, -0.15251055359840393, 7.973811626434326, 0.30658531188964844, 5.75295352935791, -0.07265478372573853, 1.3084007501602173, -0.460761696100235, -0.8994140625, 0.1279296875, -0.22216796875, 
195, 3537343058, 0.8775587677955627, -0.06156419217586517, -0.45039358735084534, -0.15254896879196167, 7.948524475097656, 0.3031087815761566, 5.751830101013184, 0.12307639420032501, 0.8822310566902161, -0.4681641757488251, -0.89892578125, 0.13134765625, -0.220458984375, 
196, 3537351391, 0.877571702003479, -0.061527788639068604, -0.4503547251224518, -0.15260359644889832, 7.9313154220581055, 0.30514028668403625, 5.778266906738281, -0.13694651424884796, 0.1685928851366043, -0.6050978302955627, -0.89990234375, 0.12744140625, -0.220703125, 
197, 3537359724, 0.877574622631073, -0.061509981751441956, -0.45033201575279236, -0.15266117453575134, 7.9328107833862305, 0.29758697748184204, 5.77418327331543, -0.373263418674469, -0.12385762482881546, -0.5854260921478271, -0.900390625, 0.126953125, -0.221923828125, 
198, 3537368057, 0.8775760531425476, -0.0615115761756897, -0.4503064751625061, -0.15272793173789978, 7.956235408782959, 0.2926870584487915, 5.805554389953613, -0.607428789138794, -0.13190050423145294, -0.5199562311172485, -0.89892578125, 0.12890625, -0.22216796875, 
199, 3537376390, 0.877577543258667, -0.06150960922241211, -0.4502887427806854, -0.15277263522148132, 7.933904647827148, 0.31708553433418274, 5.815583229064941, -0.47543859481811523, -0.23551008105278015, -0.3384024500846863, -0.8984375, 0.1298828125, -0.22119140625, 
200, 3537384723, 0.8775746822357178, -0.06150531768798828, -0.4502817392349243, -0.152811199426651, 7.95326042175293, 0.3318418562412262, 5.797922611236572, -0.36880654096603394, -0.3966748118400574, -0.27119070291519165, -0.8984375, 0.12744140625, -0.22119140625, 
201, 3537393056, 0.8775768280029297, -0.06150580942630768, -0.4502575695514679, -0.15286925435066223, 7.94238805770874, 0.341877281665802, 5.806198596954346, -0.6012301445007324, -0.1475507915019989, -0.4764888286590576, -0.89892578125, 0.12744140625, -0.220703125, 
202, 3537401389, 0.8775914907455444, -0.06149984896183014, -0.4502062201499939, -0.15293875336647034, 7.976349830627441, 0.3269421458244324, 5.827192306518555, -0.6269468069076538, 0.2774277627468109, -0.5848626494407654, -0.8994140625, 0.12841796875, -0.22216796875, 
203, 3537409722, 0.8776170015335083, -0.06147517263889313, -0.45013752579689026, -0.1530044972896576, 7.960921287536621, 0.3270494341850281, 5.8077006340026855, -0.41903603076934814, 0.5943014025688171, -0.6395745277404785, -0.89599609375, 0.12744140625, -0.22265625, 
204, 3537418055, 0.877642810344696, -0.06143207848072052, -0.45006948709487915, -0.15307378768920898, 7.960648536682129, 0.31994637846946716, 5.800791263580322, -0.2172471284866333, 0.6300332546234131, -0.7964873909950256, -0.89990234375, 0.12744140625, -0.2216796875, 
205, 3537426388, 0.8776692748069763, -0.06140296161174774, -0.4499965012073517, -0.1531488001346588, 7.959390163421631, 0.321105420589447, 5.805948257446289, -0.40458962321281433, 0.6635367274284363, -0.7448490858078003, -0.896484375, 0.1279296875, -0.22216796875, 
206, 3537434721, 0.877705991268158, -0.061380550265312195, -0.44989442825317383, -0.15324702858924866, 7.949197769165039, 0.31853756308555603, 5.769812107086182, -0.6589134335517883, 1.0859923362731934, -0.9187953472137451, -0.90185546875, 0.12939453125, -0.220458984375, 
207, 3537443054, 0.8777564764022827, -0.06132882833480835, -0.44977980852127075, -0.15331515669822693, 7.962424278259277, 0.2995041012763977, 5.712840557098389, -0.18174579739570618, 1.362139344215393, -0.7425694465637207, -0.89794921875, 0.12841796875, -0.224609375, 
208, 3537451387, 0.8778213858604431, -0.061207354068756104, -0.44966447353363037, -0.15333086252212524, 7.964037895202637, 0.3142780065536499, 5.652045249938965, 1.0251330137252808, 1.559189796447754, -0.48079201579093933, -0.89697265625, 0.1279296875, -0.2216796875, 
209, 3537459720, 0.8778402805328369, -0.06113986670970917, -0.44962596893310547, -0.1533624827861786, 7.867869853973389, 0.3586936295032501, 5.800462245941162, 0.366667777299881, 0.25055843591690063, -0.5295358896255493, -0.89697265625, 0.1298828125, -0.22216796875, 
210, 3537468053, 0.8778285384178162, -0.06115841865539551, -0.4496127963066101, -0.1534598171710968, 7.893198013305664, 0.30487561225891113, 5.878299236297607, -1.043818473815918, -0.375568687915802, -0.8687451481819153, -0.89892578125, 0.12841796875, -0.22265625, 
211, 3537476386, 0.8778606057167053, -0.06113211810588837, -0.4495399594306946, -0.15350013971328735, 7.939927577972412, 0.24678738415241241, 5.75616455078125, -0.24511542916297913, 0.6656115055084229, -0.3238535523414612, -0.8974609375, 0.12744140625, -0.22412109375, 
212, 3537484719, 0.8779401779174805, -0.06107991933822632, -0.449380099773407, -0.15353402495384216, 7.872113227844238, 0.32712072134017944, 5.735271453857422, -0.033208854496479034, 2.0562593936920166, -0.2230103313922882, -0.896484375, 0.1298828125, -0.22509765625, 
213, 3537493052, 0.8779259920120239, -0.06106731295585632, -0.4493962526321411, -0.1535729169845581, 7.83102560043335, 0.3345813751220703, 5.758632183074951, -0.25236424803733826, -0.7243321537971497, -0.3946000635623932, -0.89697265625, 0.1279296875, -0.22509765625, 
214, 3537501385, 0.8778390884399414, -0.06110917031764984, -0.4495386481285095, -0.15363627672195435, 7.913882732391357, 0.2519235610961914, 5.78239107131958, -0.85714191198349, -2.796088457107544, -0.6075312495231628, -0.8984375, 0.12890625, -0.22265625, 
215, 3537509718, 0.8777719736099243, -0.06111617386341095, -0.4496564567089081, -0.153672456741333, 7.960781097412109, 0.23620401322841644, 5.820368766784668, -0.3030548095703125, -2.3210723400115967, -0.4378369152545929, -0.8984375, 0.12890625, -0.2236328125, 
216, 3537518051, 0.8777751922607422, -0.0610562264919281, -0.44966572523117065, -0.15365132689476013, 7.9973578453063965, 0.27235880494117737, 5.831097602844238, 0.6980903148651123, -0.4876309633255005, 0.09374809265136719, -0.89794921875, 0.12939453125, -0.22412109375, 
217, 3537526384, 0.8778153657913208, -0.06100863218307495, -0.4496002793312073, -0.15363216400146484, 7.92335319519043, 0.33523985743522644, 5.805411338806152, 0.40211790800094604, 0.62183678150177, 0.2730221152305603, -0.8974609375, 0.12646484375, -0.22412109375, 
218, 3537534717, 0.8778213262557983, -0.06099492311477661, -0.4495909810066223, -0.15363028645515442, 7.866259574890137, 0.34586116671562195, 5.803837299346924, 0.010834820568561554, -0.32708093523979187, 0.18764987587928772, -0.89990234375, 0.125244140625, -0.22265625, 
219, 3537543050, 0.8777902126312256, -0.061021432280540466, -0.44964390993118286, -0.15364301204681396, 7.923304080963135, 0.3134876489639282, 5.817657470703125, -0.4990293085575104, -1.3774950504302979, 0.09684742242097855, -0.8974609375, 0.12890625, -0.22314453125, 
220, 3537551383, 0.8777576684951782, -0.06097933650016785, -0.44971764087677, -0.15362948179244995, 7.968568325042725, 0.28214412927627563, 5.79548454284668, 0.5405628681182861, -1.517630696296692, -0.02014559507369995, -0.89794921875, 0.1259765625, -0.22119140625, 
221, 3537559716, 0.877731442451477, -0.060938864946365356, -0.449776291847229, -0.1536235511302948, 7.991270542144775, 0.25677990913391113, 5.832149028778076, 0.44028306007385254, -1.2907140254974365, -0.08692189306020737, -0.8994140625, 0.12646484375, -0.2236328125, 
222, 3537568049, 0.8777130842208862, -0.06093348562717438, -0.44981011748313904, -0.15363162755966187, 8.021147727966309, 0.2616724669933319, 5.82330846786499, -0.06614876538515091, -1.0057814121246338, 0.04218664765357971, -0.89794921875, 0.126953125, -0.2236328125, 
223, 3537576382, 0.877716064453125, -0.06093426048755646, -0.449797660112381, -0.15365111827850342, 8.0156831741333, 0.30064114928245544, 5.812164306640625, -0.3395550847053528, -0.3169633448123932, -0.016969429329037666, -0.8994140625, 0.12744140625, -0.22412109375, 
224, 3537584715, 0.8777419328689575, -0.06091079115867615, -0.44974803924560547, -0.15365812182426453, 7.983888626098633, 0.2900764048099518, 5.803223133087158, -0.007415321189910173, 0.30888205766677856, 0.08690909296274185, -0.8984375, 0.12939453125, -0.22119140625, 
225, 3537593048, 0.8777819871902466, -0.06085309386253357, -0.4496789872646332, -0.15365368127822876, 7.951685905456543, 0.3299395442008972, 5.780404567718506, 0.42609280347824097, 0.6990635991096497, 0.0341181606054306, -0.896484375, 0.12939453125, -0.2236328125, 
226, 3537601381, 0.8778246641159058, -0.06079396605491638, -0.4496042728424072, -0.15365168452262878, 7.9566731452941895, 0.3273209035396576, 5.7701921463012695, 0.4168972671031952, 0.7894819378852844, 0.008145326748490334, -0.8984375, 0.126708984375, -0.2255859375, 
227, 3537609714, 0.8778519630432129, -0.06077222526073456, -0.44955092668533325, -0.15366098284721375, 7.93236780166626, 0.3132302165031433, 5.764190673828125, -0.08228573203086853, 0.36054596304893494, 0.050997938960790634, -0.89599609375, 0.12646484375, -0.22314453125, 
228, 3537618047, 0.8778637647628784, -0.06076957285404205, -0.44952481985092163, -0.1536712944507599, 7.891924858093262, 0.3042604923248291, 5.775885105133057, -0.21476255357265472, -0.10039499402046204, 0.14530956745147705, -0.89892578125, 0.12744140625, -0.22314453125, 
229, 3537626380, 0.8778536915779114, -0.060785576701164246, -0.44954580068588257, -0.15366080403327942, 7.890508651733398, 0.32205674052238464, 5.779919147491455, -0.2788749933242798, -0.8591398596763611, 0.38349631428718567, -0.89990234375, 0.128173828125, -0.225341796875, 
230, 3537634713, 0.8778305053710938, -0.060810238122940063, -0.44959115982055664, -0.15365031361579895, 7.908326148986816, 0.31928861141204834, 5.813723564147949, -0.3386586010456085, -1.2565704584121704, 0.3981732726097107, -0.89794921875, 0.12646484375, -0.22314453125, 
231, 3537643046, 0.8778051733970642, -0.06085039675235748, -0.44964006543159485, -0.15363603830337524, 7.905014514923096, 0.3239021897315979, 5.829345226287842, -0.5003356337547302, -1.343966007232666, 0.5214290022850037, -0.8974609375, 0.12744140625, -0.22509765625, 
232, 3537651379, 0.877784788608551, -0.06089760363101959, -0.4496766924858093, -0.1536273956298828, 7.948024272918701, 0.36441588401794434, 5.834238052368164, -0.621849536895752, -1.1812900304794312, 0.542048454284668, -0.8984375, 0.12841796875, -0.22509765625, 
233, 3537659712, 0.8777831792831421, -0.06094464659690857, -0.44968146085739136, -0.15360355377197266, 7.947351932525635, 0.3395955264568329, 5.837134838104248, -0.5979514718055725, -0.6853216886520386, 0.7674024701118469, -0.89892578125, 0.126953125, -0.2236328125, 
234, 3537668045, 0.8777862787246704, -0.060996368527412415, -0.44967395067214966, -0.15358752012252808, 7.919963836669922, 0.3609110116958618, 5.846612453460693, -0.6765615940093994, -0.5175996422767639, 0.7656863331794739, -0.8994140625, 0.12890625, -0.223388671875, 
235, 3537676378, 0.8777913451194763, -0.061045512557029724, -0.44966208934783936, -0.1535733938217163, 7.9103217124938965, 0.3758533000946045, 5.835346698760986, -0.7130106687545776, -0.44062885642051697, 0.6906110048294067, -0.8994140625, 0.12841796875, -0.2236328125, 
236, 3537684711, 0.8777910470962524, -0.06110981106758118, -0.44965660572052, -0.15356552600860596, 7.90415620803833, 0.371554434299469, 5.8128509521484375, -0.9042209982872009, -0.5820194482803345, 0.7174291014671326, -0.89892578125, 0.12744140625, -0.224609375, 
237, 3537693044, 0.8777899742126465, -0.06116953492164612, -0.44965723156929016, -0.15354618430137634, 7.895514488220215, 0.37415811419487, 5.790668964385986, -0.7861905097961426, -0.6566337943077087, 0.7959367632865906, -0.89892578125, 0.126953125, -0.22314453125, 
238, 3537701377, 0.8777860403060913, -0.06123800575733185, -0.44965898990631104, -0.1535359025001526, 7.885286808013916, 0.3533933460712433, 5.790834426879883, -0.8842930197715759, -0.7030211091041565, 0.7891489863395691, -0.8974609375, 0.12646484375, -0.22412109375, 
239, 3537709710, 0.8777753114700317, -0.06131039559841156, -0.44967883825302124, -0.1535104513168335, 7.865130424499512, 0.331813246011734, 5.79707145690918, -0.8699234127998352, -0.9803719520568848, 0.9109189510345459, -0.89794921875, 0.12890625, -0.2236328125, 
240, 3537718043, 0.8777481913566589, -0.06140513718128204, -0.449728399515152, -0.15348243713378906, 7.875445365905762, 0.3214348554611206, 5.787818431854248, -1.0759388208389282, -1.4899415969848633, 1.0203943252563477, -0.89794921875, 0.12939453125, -0.2236328125, 
241, 3537726376, 0.8777020573616028, -0.061519742012023926, -0.4498082399368286, -0.1534666121006012, 7.921297073364258, 0.3015804886817932, 5.763714790344238, -1.332183599472046, -2.008937358856201, 0.9471119046211243, -0.89697265625, 0.1298828125, -0.22265625, 
242, 3537734709, 0.8776379227638245, -0.0616278350353241, -0.44992899894714355, -0.15343615412712097, 7.923236846923828, 0.29635336995124817, 5.762264251708984, -1.090257167816162, -2.612178087234497, 1.0137091875076294, -0.8984375, 0.12939453125, -0.22216796875, 
243, 3537743042, 0.8775739669799805, -0.06172850728034973, -0.45005670189857483, -0.15338698029518127, 7.944202423095703, 0.30144408345222473, 5.791136741638184, -0.882679283618927, -2.690762519836426, 1.1681628227233887, -0.89794921875, 0.1279296875, -0.220703125, 
244, 3537751375, 0.8775187730789185, -0.06183306872844696, -0.4501637816429138, -0.1533462107181549, 7.9707350730896, 0.2990363836288452, 5.788290500640869, -1.0039116144180298, -2.393714427947998, 1.1457502841949463, -0.89697265625, 0.13037109375, -0.22021484375, 
245, 3537759708, 0.8774779438972473, -0.061927661299705505, -0.4502468705177307, -0.15329793095588684, 7.96732234954834, 0.29959946870803833, 5.7965087890625, -0.8878278732299805, -1.9976670742034912, 1.206481695175171, -0.8994140625, 0.12744140625, -0.22119140625, 
246, 3537768041, 0.8774433732032776, -0.06201718747615814, -0.4503132104873657, -0.15326446294784546, 7.972299098968506, 0.27559980750083923, 5.802699565887451, -0.8824743628501892, -1.7338916063308716, 1.0807414054870605, -0.89990234375, 0.13134765625, -0.220947265625, 
247, 3537776374, 0.8774160146713257, -0.06208483874797821, -0.45037081837654114, -0.15322443842887878, 7.972306728363037, 0.2947455048561096, 5.813525676727295, -0.6577094793319702, -1.5413494110107422, 0.9916039109230042, -0.8984375, 0.126953125, -0.22265625, 
248, 3537784707, 0.877388060092926, -0.06216314435005188, -0.45042338967323303, -0.15319842100143433, 7.969894886016846, 0.26710161566734314, 5.796162128448486, -0.8596522212028503, -1.499854326248169, 0.9195510745048523, -0.8994140625, 0.12841796875, -0.22119140625, 
249, 3537793040, 0.8773612380027771, -0.062235549092292786, -0.4504748582839966, -0.15317073464393616, 7.971478462219238, 0.276276558637619, 5.766089916229248, -0.802301824092865, -1.4634051322937012, 0.877338707447052, -0.896484375, 0.1298828125, -0.22021484375, 
250, 3537801373, 0.8773283958435059, -0.062311798334121704, -0.4505336880683899, -0.153155118227005, 7.986207485198975, 0.26414060592651367, 5.790985584259033, -0.8875717520713806, -1.5926036834716797, 0.7663523554801941, -0.90087890625, 0.12939453125, -0.220947265625, 
251, 3537809706, 0.8772954940795898, -0.06236433982849121, -0.45060089230537415, -0.15312451124191284, 7.9682135581970215, 0.25500383973121643, 5.789770126342773, -0.5180606842041016, -1.6511318683624268, 0.7609732151031494, -0.89794921875, 0.12744140625, -0.22119140625, 
252, 3537818039, 0.8772731423377991, -0.062423065304756165, -0.4506444036960602, -0.1531001329421997, 7.948575496673584, 0.25759533047676086, 5.8005266189575195, -0.6431350708007812, -1.313126564025879, 0.7990360260009766, -0.8994140625, 0.130859375, -0.220458984375, 
253, 3537826372, 0.8772549033164978, -0.06246970593929291, -0.45068106055259705, -0.15307798981666565, 7.931344032287598, 0.26388269662857056, 5.802371978759766, -0.5504370927810669, -1.1710700988769531, 0.6820046305656433, -0.8984375, 0.12939453125, -0.2197265625, 
254, 3537834705, 0.8772258758544922, -0.06251281499862671, -0.4507402777671814, -0.15305334329605103, 7.9329986572265625, 0.24551133811473846, 5.774191379547119, -0.4080475866794586, -1.510484218597412, 0.6897401213645935, -0.8984375, 0.1298828125, -0.2216796875, 
255, 3537843038, 0.877187967300415, -0.0625598132610321, -0.4508157968521118, -0.15302890539169312, 7.9380202293396, 0.26721495389938354, 5.767323017120361, -0.47502878308296204, -1.7664216756820679, 0.6378200650215149, -0.8984375, 0.130126953125, -0.218505859375, 
256, 3537851371, 0.877142608165741, -0.0626104325056076, -0.450901597738266, -0.1530151069164276, 7.956141471862793, 0.27958446741104126, 5.762874126434326, -0.5211088061332703, -1.9378576278686523, 0.5520123839378357, -0.89599609375, 0.131103515625, -0.21826171875, 
257, 3537859704, 0.8770958781242371, -0.06266696751117706, -0.4509875178337097, -0.15300610661506653, 7.946685314178467, 0.2701372802257538, 5.7962327003479, -0.6721815466880798, -1.9529188871383667, 0.4840065836906433, -0.8974609375, 0.12939453125, -0.22021484375, 
258, 3537868037, 0.8770534992218018, -0.06270819902420044, -0.45106640458106995, -0.15299981832504272, 7.979762077331543, 0.23904143273830414, 5.796677112579346, -0.5257450342178345, -1.8129117488861084, 0.3701257109642029, -0.8984375, 0.1298828125, -0.220703125, 
259, 3537876370, 0.8770166635513306, -0.0627402514219284, -0.4511350393295288, -0.15299582481384277, 7.973634243011475, 0.246151864528656, 5.781096458435059, -0.4345070421695709, -1.6281559467315674, 0.3068073093891144, -0.89892578125, 0.12841796875, -0.21875, 
260, 3537884703, 0.8769839406013489, -0.0627516657114029, -0.4512006640434265, -0.1529850959777832, 7.948625564575195, 0.24567869305610657, 5.785676956176758, -0.09242896735668182, -1.5318976640701294, 0.3170529901981354, -0.89892578125, 0.12939453125, -0.217529296875, 
261, 3537893036, 0.8769578337669373, -0.06275154650211334, -0.4512562155723572, -0.15297070145606995, 7.986928939819336, 0.23547159135341644, 5.784239292144775, -0.0018314179033041, -1.3449395895004272, 0.2666442096233368, -0.900390625, 0.1298828125, -0.220458984375, 
262, 3537901369, 0.8769271373748779, -0.06274735927581787, -0.45132142305374146, -0.1529560685157776, 7.998316287994385, 0.2155008465051651, 5.778395652770996, 0.10015164315700531, -1.48453688621521, 0.2579353451728821, -0.89697265625, 0.12939453125, -0.22119140625, 
263, 3537909702, 0.876899242401123, -0.06273220479488373, -0.4513806104660034, -0.1529477834701538, 7.964999198913574, 0.2298423945903778, 5.788417339324951, 0.14846010506153107, -1.362869381904602, 0.09139158576726913, -0.8994140625, 0.130126953125, -0.217041015625, 
264, 3537918035, 0.8768795728683472, -0.06271195411682129, -0.45142924785614014, -0.152925044298172, 7.969497203826904, 0.2148427963256836, 5.768217086791992, 0.3131852149963379, -1.1897426843643188, 0.28979942202568054, -0.900390625, 0.130126953125, -0.215576171875, 
265, 3537926368, 0.8768694400787354, -0.06267669796943665, -0.451463520526886, -0.1528971791267395, 8.008065223693848, 0.23499950766563416, 5.760677814483643, 0.47578442096710205, -0.9279397130012512, 0.2621360719203949, -0.9013671875, 0.12890625, -0.218505859375, 
266, 3537934701, 0.876862108707428, -0.06266652047634125, -0.4514821469783783, -0.1528872847557068, 8.02255630493164, 0.2649625539779663, 5.789989471435547, 0.05478883907198906, -0.7610372304916382, 0.24922648072242737, -0.900390625, 0.1298828125, -0.217529296875, 
267, 3537943034, 0.8768594264984131, -0.06266947090625763, -0.45148807764053345, -0.1528843641281128, 8.030146598815918, 0.25574275851249695, 5.804603576660156, -0.19414308667182922, -0.5980027318000793, 0.23803308606147766, -0.89794921875, 0.130615234375, -0.2197265625, 
268, 3537951367, 0.8768750429153442, -0.06269396841526031, -0.4514521658420563, -0.15289071202278137, 8.033737182617188, 0.24988457560539246, 5.829895973205566, -0.5837099552154541, -0.021810520440340042, 0.34130966663360596, -0.89794921875, 0.129638671875, -0.21875, 
269, 3537959700, 0.8769282102584839, -0.06263981759548187, -0.45136159658432007, -0.15287500619888306, 8.024773597717285, 0.25681599974632263, 5.772450923919678, 0.4188695549964905, 1.0223920345306396, 0.23921135067939758, -0.89501953125, 0.130126953125, -0.21875, 
270, 3537968033, 0.8769924640655518, -0.0625041127204895, -0.4512702226638794, -0.15283191204071045, 7.986414432525635, 0.25993776321411133, 5.6794114112854, 1.5991990566253662, 1.2449029684066772, 0.10647837072610855, -0.89990234375, 0.130615234375, -0.217529296875, 
271, 3537976366, 0.8770583271980286, -0.06231999397277832, -0.4511992037296295, -0.15273919701576233, 8.019125938415527, 0.30710870027542114, 5.632419586181641, 2.5161375999450684, 1.0724425315856934, 0.3711758852005005, -0.8994140625, 0.130126953125, -0.217529296875, 
272, 3537984699, 0.8770489692687988, -0.062243685126304626, -0.4512326121330261, -0.15272510051727295, 7.974590301513672, 0.3272640109062195, 5.797879695892334, 0.9436540603637695, -0.8173630237579346, -0.10457011312246323, -0.89892578125, 0.12939453125, -0.218505859375, 
273, 3537993032, 0.8770147562026978, -0.06225265562534332, -0.4512827694416046, -0.15276983380317688, 7.996593475341797, 0.2812137305736542, 5.86962366104126, -0.4952127933502197, -1.2972456216812134, -0.40302717685699463, -0.8994140625, 0.1298828125, -0.218017578125, 
274, 3538001365, 0.8770986199378967, -0.06220062077045441, -0.4511100947856903, -0.15281984210014343, 8.086880683898926, 0.2721180021762848, 5.682683944702148, -0.1302868127822876, 2.250133991241455, -0.3771311938762665, -0.8984375, 0.13134765625, -0.219970703125, 
275, 3538009698, 0.8772567510604858, -0.06214165687561035, -0.45080938935279846, -0.15282407402992249, 8.049588203430176, 0.3340654671192169, 5.5918731689453125, 0.0008708840468898416, 4.2351603507995605, 0.36789727210998535, -0.89794921875, 0.1298828125, -0.21923828125, 
276, 3538018031, 0.8773708343505859, -0.06223909556865692, -0.45054420828819275, -0.15291067957878113, 7.958301544189453, 0.38863563537597656, 5.619295120239258, -2.33052396774292, 3.2702460289001465, 0.2477920949459076, -0.89990234375, 0.13037109375, -0.219970703125, 
277, 3538026364, 0.8774140477180481, -0.062398359179496765, -0.4504024088382721, -0.15301573276519775, 7.874762535095215, 0.28671878576278687, 5.7145185470581055, -3.0195980072021484, 1.23240327835083, 0.12791748344898224, -0.8994140625, 0.12939453125, -0.219482421875, 
278, 3538034697, 0.8774672746658325, -0.06251819431781769, -0.45026522874832153, -0.15306520462036133, 7.938288688659668, 0.2700004279613495, 5.742039680480957, -2.1109073162078857, 1.2715160846710205, 0.6308273673057556, -0.896484375, 0.129638671875, -0.2197265625, 
279, 3538043030, 0.8775496482849121, -0.06254056096076965, -0.450111985206604, -0.15303516387939453, 7.913580894470215, 0.35708126425743103, 5.636246204376221, -0.5219540596008301, 1.7863107919692993, 1.0015676021575928, -0.8974609375, 0.13037109375, -0.22119140625, 
280, 3538051363, 0.8775612115859985, -0.06250979006290436, -0.4501045346260071, -0.15300235152244568, 7.809817314147949, 0.3865036070346832, 5.646883487701416, 0.4117744266986847, -0.30612853169441223, 0.4613891541957855, -0.8974609375, 0.12890625, -0.2216796875, 
281, 3538059696, 0.8774566650390625, -0.0625171959400177, -0.45030030608177185, -0.15302300453186035, 7.84064245223999, 0.2945496141910553, 5.696913719177246, -0.08044151216745377, -3.5085484981536865, -0.39687979221343994, -0.8994140625, 0.130859375, -0.219482421875, 
282, 3538068029, 0.8773101568222046, -0.06249772012233734, -0.4505755603313446, -0.15306052565574646, 7.967678070068359, 0.2457854151725769, 5.8113532066345215, 0.3126217722892761, -4.659037113189697, -0.8842675089836121, -0.89794921875, 0.13037109375, -0.220703125, 
283, 3538076362, 0.8772194981575012, -0.06240285933017731, -0.4507564306259155, -0.15308675169944763, 8.031739234924316, 0.26209917664527893, 5.901111125946045, 1.0984408855438232, -3.0212628841400146, -1.0540128946304321, -0.89794921875, 0.12841796875, -0.22021484375, 
284, 3538084695, 0.8772245645523071, -0.06227743625640869, -0.45076316595077515, -0.1530892252922058, 8.020790100097656, 0.2927372455596924, 5.914521217346191, 1.3624467849731445, -0.28766068816185, -0.5741302967071533, -0.89697265625, 0.12939453125, -0.22265625, 
285, 3538093028, 0.8772751092910767, -0.06218193471431732, -0.45067131519317627, -0.15310940146446228, 7.978509902954102, 0.3202041685581207, 5.834173202514648, 0.6912000775337219, 1.1380915641784668, -0.4540763199329376, -0.89697265625, 0.13037109375, -0.22265625, 
286, 3538101361, 0.8773153424263, -0.062130048871040344, -0.45058494806289673, -0.15315288305282593, 7.9404425621032715, 0.36362192034721375, 5.788917541503906, 0.009195511229336262, 0.9334083199501038, -0.4929843246936798, -0.89794921875, 0.12548828125, -0.22119140625, 
287, 3538109694, 0.8773108720779419, -0.06208908557891846, -0.45058780908584595, -0.15318718552589417, 7.920342922210693, 0.36766329407691956, 5.768589019775391, 0.09771830588579178, -0.4492352604866028, -0.48286673426628113, -0.8984375, 0.126953125, -0.2216796875, 
288, 3538118027, 0.8772821426391602, -0.06204068660736084, -0.4506479501724243, -0.15319377183914185, 7.917117118835449, 0.34166985750198364, 5.798802852630615, 0.5143338441848755, -1.2986034154891968, -0.24757437407970428, -0.89990234375, 0.126953125, -0.22021484375, 
289, 3538126360, 0.8772627115249634, -0.06197632849216461, -0.45068949460983276, -0.1532089114189148, 7.967208385467529, 0.36716973781585693, 5.799246311187744, 0.5689178109169006, -0.9740197658538818, -0.460787296295166, -0.89697265625, 0.12646484375, -0.22216796875, 
290, 3538134693, 0.8772704601287842, -0.06189693510532379, -0.4506770372390747, -0.15323355793952942, 7.999331951141357, 0.37959423661231995, 5.770584583282471, 0.5847729444503784, -0.11986180394887924, -0.5693916082382202, -0.8984375, 0.12890625, -0.220703125, 
291, 3538143026, 0.8772774934768677, -0.06181967258453369, -0.45065760612487793, -0.15328174829483032, 8.009066581726074, 0.3854881823062897, 5.738790512084961, 0.41300395131111145, -0.018326986581087112, -0.8332951664924622, -0.89794921875, 0.12939453125, -0.22216796875, 
292, 3538151359, 0.8772616386413574, -0.061743080615997314, -0.45066967606544495, -0.15336790680885315, 8.013794898986816, 0.3613330125808716, 5.7417802810668945, 0.22066661715507507, -0.5142697691917419, -1.3473984003067017, -0.89697265625, 0.126953125, -0.21923828125, 
293, 3538159692, 0.8772411942481995, -0.061670273542404175, -0.4506750702857971, -0.1534983217716217, 8.066850662231445, 0.32992732524871826, 5.745660781860352, -0.1222183108329773, -0.4273863136768341, -1.8771519660949707, -0.8994140625, 0.126953125, -0.22216796875, 
294, 3538168025, 0.8772438764572144, -0.06161731481552124, -0.4506201446056366, -0.1536656618118286, 8.09794807434082, 0.25777122378349304, 5.729902744293213, -0.6985385417938232, 0.4312668442726135, -2.098459005355835, -0.8984375, 0.1279296875, -0.22119140625, 
295, 3538176358, 0.8772940635681152, -0.06157727539539337, -0.45046550035476685, -0.1538488268852234, 8.075209617614746, 0.21047084033489227, 5.704850196838379, -1.042384147644043, 1.9151252508163452, -1.9612690210342407, -0.8994140625, 0.12744140625, -0.22119140625, 
296, 3538184691, 0.877377986907959, -0.061540842056274414, -0.4502490162849426, -0.15401789546012878, 8.039753913879395, 0.2507529854774475, 5.67281436920166, -1.135491967201233, 2.8477649688720703, -1.6654504537582397, -0.89990234375, 0.1259765625, -0.22265625, 
297, 3538193024, 0.8774694800376892, -0.06150318682193756, -0.450025737285614, -0.15416404604911804, 8.000476837158203, 0.2768881618976593, 5.6586480140686035, -1.031267523765564, 2.9640536308288574, -1.418887972831726, -0.89990234375, 0.12744140625, -0.2216796875, 
298, 3538201357, 0.8775506019592285, -0.061494261026382446, -0.44981449842453003, -0.15432259440422058, 7.954866409301758, 0.3495379388332367, 5.6605143547058105, -1.3869469165802002, 2.700406551361084, -1.3760864734649658, -0.8984375, 0.125732421875, -0.2236328125, 
299, 3538209690, 0.8775997757911682, -0.06149625778198242, -0.44966214895248413, -0.1544865071773529, 7.917514801025391, 0.3252332806587219, 5.7219743728637695, -1.5065652132034302, 1.77668035030365, -1.5376864671707153, -0.89990234375, 0.12548828125, -0.22021484375, 
300, 3538218023, 0.8776192665100098, -0.061522141098976135, -0.44956174492836, -0.1546572744846344, 7.942791938781738, 0.23517486453056335, 5.769446849822998, -1.637351632118225, 0.9213184714317322, -1.4857666492462158, -0.8984375, 0.1279296875, -0.224609375, 
301, 3538226356, 0.8776581287384033, -0.06153878569602966, -0.4494394361972809, -0.15478602051734924, 7.982607364654541, 0.18606653809547424, 5.761765956878662, -1.4102556705474854, 1.2884985208511353, -1.0697656869888306, -0.8984375, 0.1279296875, -0.22265625, 
302, 3538234689, 0.8777137398719788, -0.061574891209602356, -0.4492926597595215, -0.15488117933273315, 7.995149612426758, 0.1939675360918045, 5.805794715881348, -1.4693478345870972, 1.6153104305267334, -0.4735175371170044, -0.898193359375, 0.125244140625, -0.2236328125, 
303, 3538243022, 0.8777924180030823, -0.06162355840206146, -0.4491153359413147, -0.15493106842041016, 7.995931625366211, 0.19746433198451996, 5.789431095123291, -1.3934272527694702, 2.0635342597961426, 0.21154795587062836, -0.8974609375, 0.12646484375, -0.2236328125, 
304, 3538251355, 0.8778934478759766, -0.061614006757736206, -0.4489190876483917, -0.15493109822273254, 8.050346374511719, 0.20701830089092255, 5.763871669769287, -0.37049704790115356, 2.509580135345459, 0.5515000224113464, -0.8994140625, 0.1279296875, -0.22314453125, 
305, 3538259688, 0.8779926300048828, -0.061485275626182556, -0.44877296686172485, -0.1548430621623993, 8.083374977111816, 0.2383243292570114, 5.7537078857421875, 1.6846740245819092, 2.0759825706481934, 0.7986262440681458, -0.89990234375, 0.126708984375, -0.2255859375, 
306, 3538268021, 0.8779872059822083, -0.06140729784965515, -0.4488154649734497, -0.15478110313415527, 8.066139221191406, 0.3040458858013153, 5.929098606109619, 1.2538679838180542, -0.935726523399353, 0.4459694027900696, -0.89892578125, 0.127685546875, -0.2255859375, 
307, 3538276354, 0.877991795539856, -0.06136952340602875, -0.44881340861320496, -0.15477651357650757, 7.96195125579834, 0.32291510701179504, 5.990856647491455, 0.29758620262145996, -0.3705483376979828, 0.029738130047917366, -0.8994140625, 0.126220703125, -0.22412109375, 
308, 3538284687, 0.8780868053436279, -0.061217278242111206, -0.4486605226993561, -0.15474149584770203, 7.966534614562988, 0.3280263841152191, 5.769279956817627, 1.6611601114273071, 2.2231874465942383, 0.04610562324523926, -0.89599609375, 0.12646484375, -0.22509765625, 
309, 3538293020, 0.8782311677932739, -0.06103892624378204, -0.4484017789363861, -0.15474256873130798, 7.930431365966797, 0.44725531339645386, 5.56752872467041, 1.532064437866211, 3.894414186477661, -0.3939853608608246, -0.897216796875, 0.125, -0.22314453125, 
310, 3538301353, 0.8782536387443542, -0.060965195298194885, -0.4483298361301422, -0.15485206246376038, 7.820768356323242, 0.4157804548740387, 5.526679992675781, -0.0460415855050087, 0.753673255443573, -1.4220637083053589, -0.89697265625, 0.12646484375, -0.22216796875, 
311, 3538309686, 0.8781698346138, -0.061029911041259766, -0.44841474294662476, -0.15505611896514893, 7.8782782554626465, 0.26731404662132263, 5.59371280670166, -2.1159791946411133, -2.008424997329712, -2.118438243865967, -0.89794921875, 0.126708984375, -0.2255859375, 
312, 3538318019, 0.8781148791313171, -0.06114436686038971, -0.44842255115509033, -0.15529969334602356, 8.014572143554688, 0.1082175225019455, 5.680625915527344, -3.0831212997436523, -0.9772213101387024, -2.1450767517089844, -0.89892578125, 0.126220703125, -0.22607421875, 
313, 3538326352, 0.8781587481498718, -0.061221614480018616, -0.4482569694519043, -0.15549880266189575, 7.977041721343994, 0.06085142865777016, 5.746438026428223, -2.6649692058563232, 1.7723771333694458, -1.5002386569976807, -0.899658203125, 0.124755859375, -0.224609375, 
314, 3538334685, 0.8782939314842224, -0.061270102858543396, -0.44793611764907837, -0.15564066171646118, 7.89967155456543, 0.07616252452135086, 5.702235698699951, -2.153811454772949, 4.2224297523498535, -0.6063786149024963, -0.897216796875, 0.124755859375, -0.2255859375, 
315, 3538343018, 0.878413736820221, -0.061311960220336914, -0.44767236709594727, -0.15570703148841858, 7.806734561920166, 0.1264014095067978, 5.678075790405273, -1.5651192665100098, 3.3890187740325928, 0.13214382529258728, -0.8994140625, 0.126220703125, -0.2275390625, 
316, 3538351351, 0.8784318566322327, -0.06141592562198639, -0.447620153427124, -0.15571445226669312, 7.795933723449707, 0.2389151155948639, 5.766030311584473, -1.5836384296417236, 0.024794578552246094, 0.8290558457374573, -0.8974609375, 0.126708984375, -0.2265625, 
317, 3538359684, 0.8783906102180481, -0.06154726445674896, -0.4477033317089081, -0.15565580129623413, 7.866916656494141, 0.35173794627189636, 5.887460708618164, -1.2368730306625366, -2.0916202068328857, 1.5811153650283813, -0.89794921875, 0.125732421875, -0.22607421875, 
318, 3538368017, 0.8783621788024902, -0.061695098876953125, -0.44778135418891907, -0.1555325984954834, 7.9091105461120605, 0.43487119674682617, 5.984230041503906, -1.032702088356018, -2.0396487712860107, 2.502997875213623, -0.89990234375, 0.126220703125, -0.22607421875, 
319, 3538376350, 0.8783687949180603, -0.06191147863864899, -0.447781503200531, -0.15540865063667297, 7.933426856994629, 0.45875221490859985, 6.073706150054932, -2.030888557434082, -1.030063509941101, 3.039410352706909, -0.896240234375, 0.125, -0.224609375, 
320, 3538384683, 0.8784118890762329, -0.06217959523200989, -0.4477023780345917, -0.15528583526611328, 7.965811729431152, 0.46169066429138184, 6.073681831359863, -2.7595624923706055, 0.04070102050900459, 3.5271317958831787, -0.89697265625, 0.125732421875, -0.22607421875, 
321, 3538393016, 0.8784855604171753, -0.06238953769207001, -0.44757288694381714, -0.15515881776809692, 7.961106300354004, 0.5003154873847961, 6.099469184875488, -2.154425859451294, 0.9603288769721985, 3.289098024368286, -0.89794921875, 0.126953125, -0.22314453125, 
322, 3538401349, 0.8785721063613892, -0.06246842443943024, -0.4474394917488098, -0.1550218164920807, 7.91942834854126, 0.5448944568634033, 6.128483772277832, -0.48499274253845215, 1.3547112941741943, 2.6586549282073975, -0.8984375, 0.127197265625, -0.2275390625, 
323, 3538409682, 0.8786608576774597, -0.06240653991699219, -0.44732317328453064, -0.15487977862358093, 7.869010925292969, 0.49697574973106384, 6.131498336791992, 1.2634989023208618, 1.4611639976501465, 1.8213512897491455, -0.8994140625, 0.126220703125, -0.22509765625, 
324, 3538418015, 0.8787503242492676, -0.0622522234916687, -0.4472121000289917, -0.15475431084632874, 7.8510823249816895, 0.4281589090824127, 6.110419273376465, 2.3270533084869385, 1.6083436012268066, 1.0815865993499756, -0.90087890625, 0.127685546875, -0.226318359375, 
325, 3538426348, 0.8788270950317383, -0.062044933438301086, -0.44712674617767334, -0.15464836359024048, 7.798834323883057, 0.3936360478401184, 6.055542469024658, 2.8540661334991455, 1.354685664176941, 0.4385668933391571, -0.89697265625, 0.126953125, -0.2255859375, 
326, 3538434681, 0.878891110420227, -0.06182543933391571, -0.44706714153289795, -0.15454497933387756, 7.771970748901367, 0.3622303307056427, 5.92128324508667, 3.0578272342681885, 0.9886837601661682, 0.3108799457550049, -0.900390625, 0.129150390625, -0.227294921875, 
327, 3538443014, 0.8789453506469727, -0.061614990234375, -0.4470313787460327, -0.15442413091659546, 7.8264479637146, 0.37430885434150696, 5.783082008361816, 3.070173501968384, 0.6090040802955627, 0.5075716972351074, -0.89892578125, 0.126708984375, -0.228515625, 
328, 3538451347, 0.8789728879928589, -0.0614774227142334, -0.44703447818756104, -0.15431255102157593, 7.901662826538086, 0.3779616057872772, 5.729228496551514, 2.226210117340088, -0.17652051150798798, 0.787432849407196, -0.8974609375, 0.127197265625, -0.22900390625, 
329, 3538459680, 0.8790004849433899, -0.061375319957733154, -0.4470299780368805, -0.15420886874198914, 7.980320453643799, 0.36285480856895447, 5.734743595123291, 1.6993763446807861, -0.14701290428638458, 0.8839983940124512, -0.89404296875, 0.127685546875, -0.22998046875, 
330, 3538468013, 0.879065752029419, -0.06126213073730469, -0.44695430994033813, -0.15410193800926208, 7.993673801422119, 0.35915231704711914, 5.7346906661987305, 1.747889757156372, 0.9617120027542114, 1.012171983718872, -0.89599609375, 0.127685546875, -0.23046875, 
331, 3538476346, 0.8791604042053223, -0.06114925444126129, -0.4468231201171875, -0.15398690104484558, 7.96602725982666, 0.34052765369415283, 5.715227127075195, 1.6862365007400513, 1.8084163665771484, 1.2045093774795532, -0.89892578125, 0.128173828125, -0.2294921875, 
332, 3538484679, 0.8792473077774048, -0.06106577813625336, -0.4467040002346039, -0.15386971831321716, 7.904931545257568, 0.35536712408065796, 5.69910192489624, 1.4037882089614868, 1.5492769479751587, 1.4211546182632446, -0.89794921875, 0.128662109375, -0.228515625, 
333, 3538493012, 0.8792818188667297, -0.06103825569152832, -0.4466671347618103, -0.1537904441356659, 7.832971096038818, 0.35928013920783997, 5.731222629547119, 0.5832104682922363, 0.14810150861740112, 1.0890916585922241, -0.896484375, 0.126220703125, -0.2314453125, 
334, 3538501345, 0.8793106079101562, -0.0610092431306839, -0.4466334879398346, -0.15373486280441284, 7.835946559906006, 0.3797229826450348, 5.805089950561523, 0.5270385146141052, 0.09572040289640427, 0.8372781872749329, -0.89892578125, 0.129638671875, -0.230224609375, 
335, 3538509678, 0.8793686628341675, -0.06093581020832062, -0.44655001163482666, -0.15367412567138672, 7.879757881164551, 0.41301229596138, 5.8559393882751465, 0.9473169445991516, 0.9701904058456421, 0.6723224520683289, -0.8984375, 0.128173828125, -0.2294921875, 
336, 3538518011, 0.8794441223144531, -0.06089046597480774, -0.44642579555511475, -0.15362131595611572, 7.865996360778809, 0.40965765714645386, 5.84475040435791, 0.5152302980422974, 1.511239767074585, 0.847241997718811, -0.89697265625, 0.127685546875, -0.2314453125, 
337, 3538526344, 0.8795316219329834, -0.060889288783073425, -0.4462662637233734, -0.15358448028564453, 7.875365257263184, 0.40800315141677856, 5.851804733276367, -0.21043376624584198, 1.9378705024719238, 0.9521836638450623, -0.89599609375, 0.128662109375, -0.22998046875, 
338, 3538534677, 0.8796048760414124, -0.06093478202819824, -0.44612276554107666, -0.15356308221817017, 7.8808159828186035, 0.4026426672935486, 5.846223831176758, -0.817542314529419, 1.5675654411315918, 1.0411416292190552, -0.8974609375, 0.127685546875, -0.23193359375, 
339, 3538543010, 0.8796706795692444, -0.06098577380180359, -0.4459886848926544, -0.15355584025382996, 7.912513256072998, 0.32800355553627014, 5.874264240264893, -0.9866987466812134, 1.410063624382019, 0.8467297554016113, -0.896484375, 0.129150390625, -0.22998046875, 
340, 3538551343, 0.8797473311424255, -0.06099186837673187, -0.4458428621292114, -0.15353789925575256, 7.9273457527160645, 0.2885720133781433, 5.9102702140808105, -0.3720083236694336, 1.702911138534546, 0.7601792812347412, -0.8974609375, 0.128662109375, -0.22900390625, 
341, 3538559676, 0.8798478841781616, -0.06092013418674469, -0.4456614851951599, -0.1535164713859558, 7.923652648925781, 0.2259039729833603, 5.918747425079346, 0.5144619345664978, 2.442599296569824, 0.3791162967681885, -0.89697265625, 0.129150390625, -0.23291015625, 
342, 3538568009, 0.8799669742584229, -0.06081853806972504, -0.44544652104377747, -0.15349817276000977, 7.9126996994018555, 0.16935411095619202, 5.912472724914551, 0.8241123557090759, 3.0263986587524414, 0.24994370341300964, -0.8974609375, 0.128173828125, -0.2314453125, 
343, 3538576342, 0.8800897598266602, -0.060684651136398315, -0.4452333450317383, -0.15346625447273254, 7.856723308563232, 0.15874309837818146, 5.885580062866211, 1.2819923162460327, 3.0863871574401855, 0.20022647082805634, -0.89599609375, 0.129150390625, -0.2314453125, 
344, 3538584675, 0.8802006840705872, -0.06055779755115509, -0.44504642486572266, -0.15342172980308533, 7.846500396728516, 0.16439808905124664, 5.854931354522705, 1.3326061964035034, 2.66715931892395, 0.36572009325027466, -0.89794921875, 0.129638671875, -0.23388671875, 
345, 3538593008, 0.8802857995033264, -0.06045304238796234, -0.4449133276939392, -0.1533612310886383, 7.836400032043457, 0.20395462214946747, 5.8644304275512695, 1.2431612014770508, 1.8020380735397339, 0.5781388878822327, -0.8974609375, 0.130615234375, -0.23291015625, 
346, 3538601341, 0.8803509473800659, -0.06038700044155121, -0.44481784105300903, -0.1532900631427765, 7.831723213195801, 0.25174680352211, 5.863227367401123, 0.9067951440811157, 1.1291266679763794, 0.8811551332473755, -0.89453125, 0.129150390625, -0.23291015625, 
347, 3538609674, 0.8803914189338684, -0.06036624312400818, -0.4447716772556305, -0.15320008993148804, 7.825460433959961, 0.22901257872581482, 5.879543781280518, 0.5518587231636047, 0.27484074234962463, 1.2825559377670288, -0.89306640625, 0.129150390625, -0.2353515625, 
348, 3538618007, 0.8804285526275635, -0.06034576892852783, -0.4447394609451294, -0.15308848023414612, 7.8313117027282715, 0.2623482644557953, 5.942932605743408, 0.7079262137413025, 0.06800579279661179, 1.5264034271240234, -0.89501953125, 0.129150390625, -0.2353515625, 
349, 3538626340, 0.8804657459259033, -0.06033250689506531, -0.4447146952152252, -0.15295088291168213, 7.882328033447266, 0.279493510723114, 5.961388111114502, 0.793580174446106, -0.06322873383760452, 1.8878203630447388, -0.89404296875, 0.128662109375, -0.23388671875, 
350, 3538634673, 0.8805142641067505, -0.060311734676361084, -0.44467175006866455, -0.1528046429157257, 7.931614398956299, 0.30016645789146423, 5.991537570953369, 0.9341511130332947, 0.23344813287258148, 2.0045957565307617, -0.896484375, 0.130126953125, -0.23486328125, 
351, 3538643006, 0.8805820941925049, -0.06028926372528076, -0.44458889961242676, -0.1526632010936737, 7.950753211975098, 0.32367631793022156, 5.992897987365723, 0.8321807980537415, 0.8477030396461487, 1.9823622703552246, -0.8974609375, 0.130126953125, -0.234375, 
352, 3538651339, 0.8806754350662231, -0.06024627387523651, -0.44445765018463135, -0.1525244414806366, 7.949487686157227, 0.29818195104599, 6.007614612579346, 1.0165778398513794, 1.6308839321136475, 1.948116421699524, -0.89453125, 0.130859375, -0.232421875, 
353, 3538659672, 0.880793571472168, -0.06018632650375366, -0.44427555799484253, -0.15239673852920532, 7.937266826629639, 0.27266907691955566, 5.995697975158691, 1.0355322360992432, 2.4450578689575195, 1.775886058807373, -0.89501953125, 0.1298828125, -0.2314453125, 
354, 3538668005, 0.8809225559234619, -0.06011094152927399, -0.44406968355178833, -0.15228083729743958, 7.9203596115112305, 0.2858864665031433, 5.952990531921387, 1.1553303003311157, 2.8396456241607666, 1.620535969734192, -0.89501953125, 0.131591796875, -0.2353515625, 
355, 3538676338, 0.8810555338859558, -0.060023680329322815, -0.44385579228401184, -0.15216869115829468, 7.8489155769348145, 0.2714359760284424, 5.907757759094238, 1.2163945436477661, 2.9929726123809814, 1.4770193099975586, -0.89404296875, 0.128173828125, -0.234375, 
356, 3538684671, 0.8811760544776917, -0.059928253293037415, -0.4436696171760559, -0.1520516574382782, 7.845970630645752, 0.27212390303611755, 5.881285190582275, 1.4296330213546753, 2.5901882648468018, 1.4695144891738892, -0.89501953125, 0.129150390625, -0.2373046875, 
357, 3538693004, 0.8812718391418457, -0.05985984206199646, -0.4435301423072815, -0.151930570602417, 7.819232940673828, 0.293016254901886, 5.888126373291016, 1.167650580406189, 1.8172276020050049, 1.5608289241790771, -0.89599609375, 0.127685546875, -0.2353515625, 
358, 3538701337, 0.8813567757606506, -0.059808000922203064, -0.44341468811035156, -0.1517949402332306, 7.797396183013916, 0.28785160183906555, 5.8856024742126465, 1.1671125888824463, 1.4112420082092285, 1.8548036813735962, -0.89404296875, 0.130126953125, -0.236328125, 
359, 3538709670, 0.8814258575439453, -0.059797078371047974, -0.44333070516586304, -0.15164345502853394, 7.798255920410156, 0.28001517057418823, 5.915194988250732, 0.7512399554252625, 0.8365353941917419, 2.1778504848480225, -0.89208984375, 0.13232421875, -0.23681640625, 
360, 3538718003, 0.8814951181411743, -0.05978216230869293, -0.4432571828365326, -0.15146201848983765, 7.838233470916748, 0.27504944801330566, 5.898392200469971, 1.0216749906539917, 0.6910721063613892, 2.531864643096924, -0.8935546875, 0.130615234375, -0.2373046875, 
361, 3538726336, 0.8815619945526123, -0.05979028344154358, -0.4431901276111603, -0.1512652337551117, 7.840572834014893, 0.29667285084724426, 5.886749267578125, 0.8298244476318359, 0.5420228838920593, 2.8232011795043945, -0.89599609375, 0.131591796875, -0.236328125, 
362, 3538734669, 0.8816138505935669, -0.059816405177116394, -0.4431513249874115, -0.15106651186943054, 7.85025691986084, 0.3067942261695862, 5.905604362487793, 0.7206308841705322, 0.0624731183052063, 2.9501965045928955, -0.89208984375, 0.13232421875, -0.23681640625, 
363, 3538743002, 0.8816520571708679, -0.059870317578315735, -0.4431338310241699, -0.15087249875068665, 7.843010902404785, 0.2963934540748596, 5.9352827072143555, 0.33736515045166016, -0.32498061656951904, 2.9704830646514893, -0.89404296875, 0.1337890625, -0.23681640625, 
364, 3538751335, 0.8816880583763123, -0.05994102358818054, -0.4431160092353821, -0.15068641304969788, 7.885806083679199, 0.27689215540885925, 5.998701572418213, 0.09520812332630157, -0.3703690469264984, 2.9891812801361084, -0.89501953125, 0.131591796875, -0.236328125, 
365, 3538759668, 0.8817483186721802, -0.059982314705848694, -0.44305720925331116, -0.1504892110824585, 7.894616603851318, 0.2637116014957428, 6.013278007507324, 0.44302380084991455, 0.33313870429992676, 3.0127716064453125, -0.8955078125, 0.133056640625, -0.23779296875, 
366, 3538768001, 0.8818261623382568, -0.059937819838523865, -0.4429830312728882, -0.150270015001297, 7.877312183380127, 0.27938002347946167, 5.9417572021484375, 1.6280665397644043, 0.7799534797668457, 2.834599733352661, -0.896484375, 0.131103515625, -0.23828125, 
367, 3538776334, 0.8819057941436768, -0.05977223813533783, -0.4429425001144409, -0.14998826384544373, 7.843578338623047, 0.31829795241355896, 5.823062419891357, 3.5202412605285645, 0.5860280990600586, 2.8020949363708496, -0.896484375, 0.130615234375, -0.2392578125, 
368, 3538784667, 0.8819641470909119, -0.05957984924316406, -0.44293898344039917, -0.14973199367523193, 7.835297107696533, 0.3664494752883911, 5.84014892578125, 3.785938024520874, 0.08065922558307648, 2.2936010360717773, -0.893798828125, 0.135009765625, -0.2392578125, 
369, 3538793000, 0.8819097280502319, -0.059572264552116394, -0.44310152530670166, -0.14957430958747864, 7.803529262542725, 0.298660546541214, 6.022433280944824, 1.1552276611328125, -2.91878080368042, 1.8167921304702759, -0.89404296875, 0.132080078125, -0.2373046875, 
370, 3538801333, 0.8818466067314148, -0.0596233606338501, -0.44326525926589966, -0.14944061636924744, 7.878462314605713, 0.2761414051055908, 6.002897262573242, 0.2946149706840515, -3.084914445877075, 1.8638964891433716, -0.89306640625, 0.131591796875, -0.2373046875, 
371, 3538809666, 0.8819411993026733, -0.059563472867012024, -0.4431368112564087, -0.1492874026298523, 7.946169376373291, 0.3847871422767639, 5.862829208374023, 1.3690807819366455, 1.6284505128860474, 2.0600759983062744, -0.892333984375, 0.13525390625, -0.23486328125, 
372, 3538817999, 0.8820513486862183, -0.05955749750137329, -0.4429682493209839, -0.1491391360759735, 7.849612712860107, 0.4554569721221924, 5.797729015350342, 0.5572633147239685, 2.10262131690979, 2.3460845947265625, -0.892822265625, 0.13427734375, -0.2373046875, 
373, 3538826332, 0.882110595703125, -0.05965556204319, -0.4428568184375763, -0.14908039569854736, 7.767940998077393, 0.41149502992630005, 5.818701267242432, -1.1979649066925049, 0.9618912935256958, 1.718151569366455, -0.8935546875, 0.132568359375, -0.23876953125, 
374, 3538834665, 0.8820972442626953, -0.05978876352310181, -0.4428730607032776, -0.14905843138694763, 7.809446811676025, 0.2759246528148651, 5.944590091705322, -1.5470612049102783, -1.072378396987915, 1.317416787147522, -0.89404296875, 0.133544921875, -0.23681640625, 
375, 3538842998, 0.882059633731842, -0.05991645157337189, -0.44295427203178406, -0.14898890256881714, 7.84758186340332, 0.20764559507369995, 6.009565830230713, -1.1749634742736816, -2.0324769020080566, 1.6721998453140259, -0.893798828125, 0.135498046875, -0.23974609375, 
376, 3538851331, 0.8820872902870178, -0.059870630502700806, -0.44295838475227356, -0.1488303542137146, 7.880410194396973, 0.2748636305332184, 5.905673027038574, 1.3829381465911865, -0.42356982827186584, 1.912845492362976, -0.893798828125, 0.13720703125, -0.236572265625, 
377, 3538859664, 0.882104754447937, -0.059757083654403687, -0.4429975152015686, -0.14865633845329285, 7.800512790679932, 0.2621687352657318, 5.919751167297363, 2.345341682434082, -0.7796332240104675, 1.6198443174362183, -0.89453125, 0.133056640625, -0.23974609375, 
378, 3538867997, 0.8820474743843079, -0.05969284474849701, -0.4431677460670471, -0.14851436018943787, 7.8167853355407715, 0.21094214916229248, 5.917758464813232, 1.7892565727233887, -2.903667449951172, 1.2999478578567505, -0.892822265625, 0.134765625, -0.23779296875, 
379, 3538876330, 0.8819810152053833, -0.05960363149642944, -0.44335925579071045, -0.14837265014648438, 7.885162830352783, 0.2200663983821869, 5.922571182250977, 2.0954744815826416, -3.162038564682007, 1.078282356262207, -0.895263671875, 0.134033203125, -0.23828125, 
380, 3538884663, 0.8819615840911865, -0.059480637311935425, -0.44346943497657776, -0.14820793271064758, 7.910741329193115, 0.25415098667144775, 5.946863174438477, 2.534170150756836, -1.843904733657837, 1.33501398563385, -0.896240234375, 0.135009765625, -0.236572265625, 
381, 3538892996, 0.8820023536682129, -0.0593881756067276, -0.4434518814086914, -0.14805537462234497, 7.911240577697754, 0.31857582926750183, 5.942347049713135, 1.8637174367904663, 0.024640895426273346, 1.5795788764953613, -0.894775390625, 0.134765625, -0.2353515625, 
382, 3538901329, 0.8820597529411316, -0.059396177530288696, -0.44336825609207153, -0.14796069264411926, 7.896277904510498, 0.3324532210826874, 5.899723052978516, 0.2269933670759201, 0.7666853070259094, 1.6280921697616577, -0.892333984375, 0.1357421875, -0.23583984375, 
383, 3538909662, 0.8820943832397461, -0.059460803866386414, -0.4433149993419647, -0.14788740873336792, 7.857920169830322, 0.31981179118156433, 5.861569404602051, -0.6032536029815674, 0.16528864204883575, 1.5940250158309937, -0.891845703125, 0.134765625, -0.236328125, 
384, 3538917995, 0.8820876479148865, -0.05952759087085724, -0.44334304332733154, -0.14781644940376282, 7.811620235443115, 0.30617937445640564, 5.877901077270508, -0.5117083191871643, -1.0753495693206787, 1.4277629852294922, -0.892578125, 0.1337890625, -0.2373046875, 
385, 3538926328, 0.8820714950561523, -0.05955323576927185, -0.4433981776237488, -0.14773714542388916, 7.832119941711426, 0.28679797053337097, 5.919286727905273, 0.14830641448497772, -1.3882017135620117, 1.2924429178237915, -0.896240234375, 0.135009765625, -0.237060546875, 
386, 3538934661, 0.8820695877075195, -0.05957712233066559, -0.4434167444705963, -0.14768365025520325, 7.850738525390625, 0.2823799252510071, 5.890301704406738, -0.06443260610103607, -0.8339865803718567, 1.0197538137435913, -0.895751953125, 0.135498046875, -0.239013671875, 
387, 3538942994, 0.8820822834968567, -0.059607356786727905, -0.443401575088501, -0.14764109253883362, 7.859522342681885, 0.2709997594356537, 5.877927303314209, -0.3136078715324402, -0.3354056179523468, 0.9339974522590637, -0.89208984375, 0.13427734375, -0.23779296875, 
388, 3538951327, 0.8820923566818237, -0.059636712074279785, -0.44338589906692505, -0.14761608839035034, 7.871453285217285, 0.26713722944259644, 5.908520221710205, -0.33535438776016235, -0.3321269750595093, 0.7778530716896057, -0.893798828125, 0.1357421875, -0.2353515625, 
389, 3538959660, 0.8820981979370117, -0.05964633822441101, -0.4433891475200653, -0.14756762981414795, 7.858736038208008, 0.21995726227760315, 5.892404556274414, 0.0034066932275891304, -0.5635772347450256, 0.8519806265830994, -0.890869140625, 0.13525390625, -0.23583984375, 
390, 3538967993, 0.8821046948432922, -0.0596691370010376, -0.4433833062648773, -0.14753738045692444, 7.896766185760498, 0.24935504794120789, 5.902261257171631, -0.23720063269138336, -0.46378421783447266, 0.7627663612365723, -0.893798828125, 0.135986328125, -0.23974609375, 
391, 3538976326, 0.8821277618408203, -0.059714317321777344, -0.44333416223526, -0.14752909541130066, 7.923754692077637, 0.2518158257007599, 5.887304782867432, -0.7646745443344116, 0.13703615963459015, 0.6599763631820679, -0.892822265625, 0.13720703125, -0.23779296875, 
392, 3538984659, 0.8821591138839722, -0.059760257601737976, -0.4432677626609802, -0.14752274751663208, 7.917810916900635, 0.24754558503627777, 5.885330677032471, -0.8032240867614746, 0.39333221316337585, 0.6879984140396118, -0.892822265625, 0.1376953125, -0.2373046875, 
393, 3538992992, 0.8822035789489746, -0.05978462100028992, -0.44318774342536926, -0.14748749136924744, 7.891202449798584, 0.24400493502616882, 5.908498764038086, -0.39224356412887573, 0.663844108581543, 0.9272864460945129, -0.892822265625, 0.134765625, -0.236328125, 
394, 3539001325, 0.882251501083374, -0.059786006808280945, -0.44310685992240906, -0.14744260907173157, 7.8957014083862305, 0.2574951946735382, 5.910129547119141, 0.015445382334291935, 0.7290579676628113, 0.9739556312561035, -0.893798828125, 0.134765625, -0.236328125, 
395, 3539009658, 0.8823012113571167, -0.05977270007133484, -0.44302821159362793, -0.1473865807056427, 7.865837574005127, 0.23792535066604614, 5.907411575317383, 0.19948364794254303, 0.7379460334777832, 0.9608667492866516, -0.894287109375, 0.13671875, -0.238037109375, 
396, 3539017991, 0.8823418021202087, -0.05976295471191406, -0.4429602324962616, -0.14735180139541626, 7.846360206604004, 0.23343335092067719, 5.897268772125244, 0.059066422283649445, 0.558185338973999, 0.7199392914772034, -0.891357421875, 0.134765625, -0.23974609375, 
397, 3539026324, 0.8823865652084351, -0.059742093086242676, -0.44289013743400574, -0.1473025381565094, 7.8495869636535645, 0.2279539555311203, 5.903512954711914, 0.2625715136528015, 0.6246799230575562, 0.8141996264457703, -0.892822265625, 0.13671875, -0.23828125, 
398, 3539034657, 0.8824297189712524, -0.0597199946641922, -0.44282296299934387, -0.14725491404533386, 7.878748893737793, 0.2193136215209961, 5.910423278808594, 0.29756054282188416, 0.5799318552017212, 0.8091536164283752, -0.894287109375, 0.13720703125, -0.238525390625, 
399, 3539042990, 0.8824743628501892, -0.05970767140388489, -0.4427539110183716, -0.14720067381858826, 7.87375545501709, 0.23107284307479858, 5.905351161956787, 0.18969902396202087, 0.5883077383041382, 0.9275170564651489, -0.892822265625, 0.1376953125, -0.23779296875, 
400, 3539051323, 0.8825352191925049, -0.05972228944301605, -0.4426426887512207, -0.147163987159729, 7.915765285491943, 0.24140845239162445, 5.886496543884277, -0.2848430871963501, 1.1574816703796387, 0.97661954164505, -0.892333984375, 0.13720703125, -0.23876953125, 
401, 3539059656, 0.8826326131820679, -0.05969570577144623, -0.44247379899024963, -0.1470988392829895, 7.924643516540527, 0.19350077211856842, 5.822988986968994, 0.27130600810050964, 2.1409146785736084, 1.1610420942306519, -0.892333984375, 0.13720703125, -0.23876953125, 
402, 3539067989, 0.8827505111694336, -0.05959710478782654, -0.44228869676589966, -0.14698821306228638, 7.918355464935303, 0.21086396276950836, 5.821106910705566, 1.447998285293579, 2.569261312484741, 1.3690295219421387, -0.893798828125, 0.136474609375, -0.2412109375, 
403, 3539076322, 0.8828122615814209, -0.05958585441112518, -0.4421919286251068, -0.14691302180290222, 7.830389022827148, 0.22919854521751404, 5.977215766906738, 0.2634936273097992, 1.0105584859848022, 1.2456459999084473, -0.892333984375, 0.13671875, -0.240234375, 
404, 3539084655, 0.8828897476196289, -0.059609875082969666, -0.4420616030693054, -0.14683032035827637, 7.885779857635498, 0.18581661581993103, 5.987855911254883, -0.1316443532705307, 1.4325017929077148, 1.6488394737243652, -0.893310546875, 0.13720703125, -0.238525390625, 
405, 3539092988, 0.8830326795578003, -0.05952592194080353, -0.4418320655822754, -0.1466953456401825, 7.904792308807373, 0.19680647552013397, 5.897603511810303, 1.3076322078704834, 3.2141764163970947, 1.8024481534957886, -0.892333984375, 0.135009765625, -0.240234375, 
406, 3539101321, 0.8832298517227173, -0.05940227210521698, -0.44149619340896606, -0.14657044410705566, 7.827525615692139, 0.2750886082649231, 5.883780002593994, 1.559292197227478, 4.922697067260742, 1.6337783336639404, -0.890869140625, 0.13623046875, -0.23876953125, 
407, 3539109654, 0.8833529949188232, -0.05931632220745087, -0.4413025975227356, -0.14644521474838257, 7.799498081207275, 0.23223671317100525, 5.90811824798584, 1.3704639673233032, 2.6664421558380127, 1.6429483890533447, -0.894775390625, 0.138671875, -0.241455078125, 
408, 3539117987, 0.8833979964256287, -0.0592755526304245, -0.4412534534931183, -0.14633771777153015, 7.813024997711182, 0.19031865894794464, 5.940072536468506, 0.9316921234130859, 0.3597775101661682, 1.4176452159881592, -0.892822265625, 0.1357421875, -0.240234375, 
409, 3539126320, 0.88343346118927, -0.05923183262348175, -0.44123154878616333, -0.14620745182037354, 7.835317611694336, 0.1963985562324524, 5.988576889038086, 1.1205459833145142, -0.03725590929389, 1.6031694412231445, -0.891357421875, 0.140625, -0.242431640625, 
410, 3539134653, 0.8835205435752869, -0.059158697724342346, -0.4411199986934662, -0.14604797959327698, 7.837440013885498, 0.24119937419891357, 5.984948635101318, 1.5285037755966187, 1.3953866958618164, 1.9722448587417603, -0.890380859375, 0.1376953125, -0.24365234375, 
411, 3539142986, 0.8836250901222229, -0.059063270688056946, -0.4409782886505127, -0.1458818018436432, 7.832366943359375, 0.2647397816181183, 5.949047088623047, 1.780855417251587, 1.912845492362976, 1.960615873336792, -0.892333984375, 0.138671875, -0.2392578125, 
412, 3539151319, 0.8836972117424011, -0.059014156460762024, -0.44088518619537354, -0.14574682712554932, 7.799157619476318, 0.26755571365356445, 5.956489086151123, 1.1696996688842773, 1.0531549453735352, 1.819225549697876, -0.891845703125, 0.1376953125, -0.2431640625, 
413, 3539159652, 0.8837531208992004, -0.058984771370887756, -0.44081830978393555, -0.14562201499938965, 7.799659729003906, 0.25674891471862793, 5.95717716217041, 0.8394296765327454, 0.6090808510780334, 1.7008875608444214, -0.893798828125, 0.138916015625, -0.244384765625, 
414, 3539167985, 0.8837991952896118, -0.05893886089324951, -0.4407678246498108, -0.14551255106925964, 7.812048435211182, 0.2756555676460266, 5.974513053894043, 1.0077664852142334, 0.39146238565444946, 1.4176967144012451, -0.890380859375, 0.140625, -0.24365234375, 
415, 3539176318, 0.883846640586853, -0.05891066789627075, -0.4407081604003906, -0.14541661739349365, 7.843385696411133, 0.2905055582523346, 5.926344871520996, 0.6580809354782104, 0.49102485179901123, 1.3338357210159302, -0.890380859375, 0.13916015625, -0.24462890625, 
416, 3539184651, 0.8838862776756287, -0.058939799666404724, -0.4406411647796631, -0.14536675810813904, 7.8570475578308105, 0.2678382098674774, 5.938962459564209, -0.32093358039855957, 0.45160457491874695, 1.1350692510604858, -0.890869140625, 0.14111328125, -0.242919921875, 
417, 3539192984, 0.8839172720909119, -0.05902239680290222, -0.44057366251945496, -0.14534959197044373, 7.865674018859863, 0.2939603924751282, 5.953339576721191, -1.196043848991394, 0.3280671238899231, 1.0229556560516357, -0.891845703125, 0.13916015625, -0.244140625, 
418, 3539201317, 0.8839564919471741, -0.059096306562423706, -0.44048336148262024, -0.14535489678382874, 7.872082710266113, 0.27080678939819336, 5.956960201263428, -1.2177903652191162, 0.6880753040313721, 0.7745233178138733, -0.890380859375, 0.13720703125, -0.24267578125, 
419, 3539209650, 0.8840137124061584, -0.05913726985454559, -0.44036081433296204, -0.14536124467849731, 7.886931896209717, 0.25785282254219055, 5.9553141593933105, -0.9192051887512207, 1.2587090730667114, 0.5815711617469788, -0.889404296875, 0.13916015625, -0.24462890625, 
420, 3539217983, 0.8840758800506592, -0.059170618653297424, -0.44021931290626526, -0.14539828896522522, 7.874271392822266, 0.26371875405311584, 5.948105812072754, -1.022584319114685, 1.5560393333435059, 0.21597924828529358, -0.891357421875, 0.13916015625, -0.2451171875, 
421, 3539226316, 0.8841407299041748, -0.059214502573013306, -0.4400654137134552, -0.14545249938964844, 7.853819847106934, 0.21262124180793762, 5.929553508758545, -1.3029063940048218, 1.7187663316726685, 0.05681237205862999, -0.892333984375, 0.1396484375, -0.243408203125, 
422, 3539234649, 0.884200394153595, -0.05928337574005127, -0.43991363048553467, -0.14552012085914612, 7.837925910949707, 0.2236384004354477, 5.949839115142822, -1.6296159029006958, 1.6207917928695679, 0.08619189262390137, -0.891845703125, 0.138427734375, -0.2451171875, 
423, 3539242982, 0.8842546343803406, -0.059352993965148926, -0.43977534770965576, -0.1455807387828827, 7.79790735244751, 0.1795247495174408, 5.961134433746338, -1.6328946352005005, 1.4187724590301514, 0.10135552287101746, -0.889404296875, 0.140625, -0.24560546875, 
424, 3539251315, 0.8843181729316711, -0.05939802527427673, -0.4396257996559143, -0.14562800526618958, 7.81744384765625, 0.1734079271554947, 5.989716053009033, -1.281800389289856, 1.646201491355896, 0.13795827329158783, -0.890380859375, 0.140625, -0.24609375, 
425, 3539259648, 0.8843945860862732, -0.059411078691482544, -0.43945711851119995, -0.1456679403781891, 7.811048984527588, 0.19357411563396454, 5.963735580444336, -0.8612657785415649, 2.0179920196533203, 0.07978833466768265, -0.891845703125, 0.139892578125, -0.246337890625, 
426, 3539267981, 0.8844479322433472, -0.05943813920021057, -0.4393313527107239, -0.14571192860603333, 7.80002498626709, 0.21698863804340363, 5.9233622550964355, -0.9727902412414551, 1.3293789625167847, 0.055480435490608215, -0.890380859375, 0.13818359375, -0.2421875, 
427, 3539276314, 0.8844630718231201, -0.0594821572303772, -0.43928056955337524, -0.14575493335723877, 7.804194927215576, 0.2717078924179077, 5.921724319458008, -1.0699704885482788, 0.1555040180683136, 0.010860435664653778, -0.888427734375, 0.14111328125, -0.244140625, 
428, 3539284647, 0.8844394683837891, -0.05953776836395264, -0.43930235505104065, -0.14581036567687988, 7.8266191482543945, 0.29190003871917725, 5.975277900695801, -1.159825325012207, -0.9790657162666321, -0.1876114457845688, -0.888427734375, 0.1416015625, -0.24755859375, 
429, 3539292980, 0.8844248652458191, -0.05959433317184448, -0.4393051862716675, -0.14586704969406128, 7.819995880126953, 0.28969013690948486, 6.0111918449401855, -1.222759485244751, -0.6899834275245667, -0.18382056057453156, -0.890380859375, 0.14111328125, -0.24462890625, 
430, 3539301313, 0.88443922996521, -0.05962347984313965, -0.4392576217651367, -0.14591136574745178, 7.788308620452881, 0.26338914036750793, 6.014575481414795, -0.886649489402771, 0.1386498510837555, -0.0841299518942833, -0.891845703125, 0.14111328125, -0.245849609375, 
431, 3539309646, 0.8844588994979858, -0.059644609689712524, -0.4392026662826538, -0.14594906568527222, 7.788043975830078, 0.2379107028245926, 6.011871337890625, -0.7644184231758118, 0.2745845913887024, -0.050831448286771774, -0.889404296875, 0.13818359375, -0.24560546875, 
432, 3539317979, 0.8844582438468933, -0.059659942984580994, -0.439186155796051, -0.14599642157554626, 7.782214641571045, 0.21968527138233185, 6.006957530975342, -0.6586828827857971, -0.2993663549423218, -0.24124766886234283, -0.892822265625, 0.138427734375, -0.244873046875, 
433, 3539326312, 0.8844430446624756, -0.059666648507118225, -0.43919289112091064, -0.14606568217277527, 7.768280029296875, 0.16809935867786407, 5.988095760345459, -0.6848349571228027, -0.6307633519172668, -0.6418030261993408, -0.890380859375, 0.14013671875, -0.24609375, 
434, 3539334645, 0.8844202756881714, -0.05966933071613312, -0.439220130443573, -0.14612066745758057, 7.773931503295898, 0.15997333824634552, 6.005784511566162, -0.49270257353782654, -0.933395504951477, -0.4989524781703949, -0.891845703125, 0.14013671875, -0.243408203125, 
435, 3539342978, 0.8843894004821777, -0.05968756973743439, -0.4392684996128082, -0.14615440368652344, 7.7451558113098145, 0.14041030406951904, 5.998838901519775, -0.5396279096603394, -1.2835421562194824, -0.2040558159351349, -0.892822265625, 0.140869140625, -0.246337890625, 
436, 3539351311, 0.884357213973999, -0.05973787605762482, -0.4393276572227478, -0.14615082740783691, 7.761143684387207, 0.18128857016563416, 5.9664459228515625, -0.6685442924499512, -1.5237523317337036, 0.44763433933258057, -0.893798828125, 0.139404296875, -0.246826171875, 
437, 3539359644, 0.8843221664428711, -0.059799402952194214, -0.4394024610519409, -0.14611300826072693, 7.805349826812744, 0.21009723842144012, 5.94931173324585, -0.5840173363685608, -1.7765393257141113, 0.8952942490577698, -0.891845703125, 0.14013671875, -0.242919921875, 
438, 3539367977, 0.8842859268188477, -0.05989481508731842, -0.4394819438457489, -0.146054208278656, 7.8435492515563965, 0.27389323711395264, 5.939571857452393, -0.8613170981407166, -1.9254350662231445, 1.3505618572235107, -0.890869140625, 0.14111328125, -0.244873046875, 
439, 3539376310, 0.8842524886131287, -0.06002694368362427, -0.43954357504844666, -0.14601632952690125, 7.809613227844238, 0.3530818521976471, 5.950470447540283, -1.4135600328445435, -1.7537939548492432, 1.385832667350769, -0.8935546875, 0.14208984375, -0.245361328125, 
440, 3539384643, 0.884207010269165, -0.06017687916755676, -0.4396100640296936, -0.1460300087928772, 7.813003063201904, 0.38484302163124084, 5.966849327087402, -1.9816325902938843, -1.8778693675994873, 0.807873010635376, -0.8916015625, 0.142578125, -0.243896484375, 
441, 3539392976, 0.8841478824615479, -0.06031641364097595, -0.4396873116493225, -0.14609763026237488, 7.828250408172607, 0.37310531735420227, 5.92678165435791, -2.1859829425811768, -2.0196950435638428, 0.0354757122695446, -0.889892578125, 0.140625, -0.24462890625, 
442, 3539401309, 0.8840614557266235, -0.06044091284275055, -0.4398055672645569, -0.1462135910987854, 7.858344078063965, 0.31750258803367615, 5.9200897216796875, -2.2062437534332275, -2.6204259395599365, -0.7013562321662903, -0.891845703125, 0.138671875, -0.2431640625, 
443, 3539409642, 0.8839449286460876, -0.06058242917060852, -0.4399721622467041, -0.1463584303855896, 7.838627815246582, 0.24524395167827606, 5.949899196624756, -2.543275833129883, -3.3939504623413086, -1.0820093154907227, -0.892333984375, 0.140625, -0.244873046875, 
444, 3539417975, 0.8838215470314026, -0.06073230504989624, -0.44014525413513184, -0.14652055501937866, 7.822918891906738, 0.16294747591018677, 6.013670444488525, -2.7182209491729736, -3.5211503505706787, -1.2315963506698608, -0.892822265625, 0.1396484375, -0.241455078125, 
445, 3539426308, 0.8837430477142334, -0.060810551047325134, -0.44025588035583496, -0.14662954211235046, 7.793314456939697, 0.08177335560321808, 6.051564693450928, -1.6408864259719849, -2.3870291709899902, -0.9058090448379517, -0.893310546875, 0.140625, -0.245361328125, 
