sep=,
PacketCounter,SampleTimeFine,Quat_W,Quat_X,Quat_Y,Quat_Z,Acc_X,Acc_Y,Acc_Z,Gyr_X,Gyr_Y,Gyr_Z,Mag_X,Mag_Y,Mag_Z,
0, 3080677992, 0.8439981341362, -0.04279327392578125, -0.5014224052429199, -0.1855849027633667, 0, 0, 0, 0, 0, 0, -0.965576171875, 0.043701171875, -0.197998046875, 
1, 3080686325, 0.843930184841156, -0.042777225375175476, -0.5015431046485901, -0.18557104468345642, 8.631464004516602, 1.093878984451294, 4.8839521408081055, 0.4652057886123657, -2.329576253890991, 0.04339051619172096, -0.96826171875, 0.046142578125, -0.197265625, 
2, 3080694658, 0.8439360857009888, -0.04274962842464447, -0.5015578269958496, -0.18551084399223328, 8.56379222869873, 1.146021842956543, 4.885376930236816, 0.6495770812034607, -0.6117832064628601, 0.7227056622505188, -0.96630859375, 0.045166015625, -0.19580078125, 
3, 3080702991, 0.8439829349517822, -0.04269753396511078, -0.5015102624893188, -0.1854381561279297, 8.480589866638184, 1.1476736068725586, 4.816495418548584, 0.8257773518562317, 0.4609794020652771, 0.8169916868209839, -0.967041015625, 0.043212890625, -0.195068359375, 
4, 3080711324, 0.8440197110176086, -0.042638421058654785, -0.5014707446098328, -0.18539130687713623, 8.46082592010498, 1.0906511545181274, 4.808084011077881, 0.8021353483200073, 0.31910210847854614, 0.45954495668411255, -0.965576171875, 0.042236328125, -0.195556640625, 
5, 3080719657, 0.8440112471580505, -0.04261036217212677, -0.5014933943748474, -0.18537482619285583, 8.43448257446289, 1.0973749160766602, 4.845686435699463, 0.40444880723953247, -0.7528152465820312, 0.19930437207221985, -0.967529296875, 0.043212890625, -0.19384765625, 
6, 3080727990, 0.8440073132514954, -0.04263657331466675, -0.5014908313751221, -0.18539336323738098, 8.467299461364746, 1.1415793895721436, 4.8467020988464355, -0.5694429278373718, -0.5695966482162476, 0.16459707915782928, -0.96533203125, 0.04443359375, -0.195556640625, 
7, 3080736323, 0.8440282344818115, -0.042674317955970764, -0.5014398097991943, -0.1854276955127716, 8.494852066040039, 1.1552125215530396, 4.830235481262207, -0.9345993399620056, 0.1592692881822586, 0.15171311795711517, -0.966552734375, 0.043212890625, -0.194091796875, 
8, 3080744656, 0.844048023223877, -0.04273253679275513, -0.501389741897583, -0.18545949459075928, 8.46611213684082, 1.1710132360458374, 4.841336727142334, -1.1396156549453735, 0.07261635363101959, 0.3177189528942108, -0.966552734375, 0.042724609375, -0.194580078125, 
9, 3080752989, 0.8440287709236145, -0.042811423540115356, -0.5014058351516724, -0.18548578023910522, 8.45009708404541, 1.144168496131897, 4.844885349273682, -1.1315215826034546, -0.9951514005661011, 0.43003737926483154, -0.96484375, 0.0458984375, -0.197021484375, 
10, 3080761322, 0.8439934253692627, -0.04287239909172058, -0.5014525651931763, -0.18550622463226318, 8.45688533782959, 1.1238172054290771, 4.858009338378906, -0.8791446685791016, -1.4456802606582642, 0.27233055233955383, -0.967529296875, 0.043701171875, -0.1962890625, 
11, 3080769655, 0.8439676761627197, -0.04293633997440338, -0.5014836192131042, -0.18552419543266296, 8.469473838806152, 1.1270376443862915, 4.871365070343018, -0.9883636236190796, -1.196940302848816, 0.3300394117832184, -0.966064453125, 0.043701171875, -0.197509765625, 
12, 3080777988, 0.8439632058143616, -0.04301375150680542, -0.5014680624008179, -0.18556872010231018, 8.490045547485352, 1.1254141330718994, 4.890741348266602, -1.3764832019805908, -0.5359009504318237, 0.2223699539899826, -0.96435546875, 0.04541015625, -0.197021484375, 
13, 3080786321, 0.8439642190933228, -0.04308079183101654, -0.5014480352401733, -0.1856023669242859, 8.476190567016602, 1.131372332572937, 4.866443634033203, -1.293723702430725, -0.42470961809158325, 0.24111957848072052, -0.96533203125, 0.04541015625, -0.196044921875, 
14, 3080794654, 0.8439477682113647, -0.043146759271621704, -0.5014545321464539, -0.1856442093849182, 8.494416236877441, 1.1275811195373535, 4.826538562774658, -1.1749505996704102, -0.8472933769226074, 0.13095277547836304, -0.966796875, 0.04443359375, -0.19384765625, 
15, 3080802987, 0.8439145684242249, -0.04322351515293121, -0.5014876127243042, -0.18568846583366394, 8.497841835021973, 1.1217507123947144, 4.782594203948975, -1.2791107892990112, -1.2838494777679443, 0.11408580094575882, -0.96630859375, 0.0458984375, -0.1953125, 
16, 3080811320, 0.8438832759857178, -0.04330086708068848, -0.5015171766281128, -0.1857331097126007, 8.51323127746582, 1.112206220626831, 4.829171657562256, -1.2752431631088257, -1.2454025745391846, 0.12438271939754486, -0.965576171875, 0.044189453125, -0.197509765625, 
17, 3080819653, 0.8438749313354492, -0.04336059093475342, -0.501512885093689, -0.1857685148715973, 8.511053085327148, 1.1130753755569458, 4.848411560058594, -1.1090707778930664, -0.6432246565818787, 0.17944051325321198, -0.9658203125, 0.04638671875, -0.1943359375, 
18, 3080827986, 0.8438965082168579, -0.04338134825229645, -0.5014674067497253, -0.18578791618347168, 8.484930992126465, 1.1170737743377686, 4.838526248931885, -0.6045086979866028, 0.12102726101875305, 0.2071935385465622, -0.966552734375, 0.041259765625, -0.196533203125, 
19, 3080836319, 0.8439064025878906, -0.04340830445289612, -0.501428484916687, -0.1858414113521576, 8.480761528015137, 1.0936839580535889, 4.816624164581299, -0.5485928654670715, 0.03032725490629673, 0.030711466446518898, -0.96630859375, 0.04541015625, -0.19482421875, 
20, 3080844652, 0.8439089059829712, -0.043429091572761536, -0.5014100670814514, -0.1858750581741333, 8.472199440002441, 1.096373438835144, 4.78654670715332, -0.6453890204429626, -0.3184489607810974, -0.022066662088036537, -0.96728515625, 0.044921875, -0.1923828125, 
21, 3080852985, 0.8438799977302551, -0.04348817467689514, -0.5014314651489258, -0.18593469262123108, 8.486833572387695, 1.0850719213485718, 4.798356056213379, -1.0852365493774414, -1.0486851930618286, -0.10198306292295456, -0.966064453125, 0.0439453125, -0.194580078125, 
22, 3080861318, 0.8438370227813721, -0.04355016350746155, -0.501477062702179, -0.18599262833595276, 8.492658615112305, 1.0855103731155396, 4.8235015869140625, -1.155368447303772, -1.4649934768676758, -0.17470188438892365, -0.966064453125, 0.043701171875, -0.196533203125, 
23, 3080869651, 0.8437967896461487, -0.04358366131782532, -0.5015263557434082, -0.1860339343547821, 8.485410690307617, 1.0981831550598145, 4.8565874099731445, -0.6425586938858032, -1.400970458984375, -0.1380351036787033, -0.96533203125, 0.04541015625, -0.194091796875, 
24, 3080877984, 0.8437703847885132, -0.04358844459056854, -0.5015659332275391, -0.18604600429534912, 8.499944686889648, 1.1001501083374023, 4.84467077255249, -0.181361585855484, -1.162566065788269, 0.008478311821818352, -0.965087890625, 0.0439453125, -0.190673828125, 
25, 3080886317, 0.8437533378601074, -0.043597668409347534, -0.5015901923179626, -0.18605485558509827, 8.499637603759766, 1.1301921606063843, 4.849033832550049, -0.16121599078178406, -0.9074866771697998, 0.16422566771507263, -0.965087890625, 0.0439453125, -0.193115234375, 
26, 3080894650, 0.8437449932098389, -0.043601810932159424, -0.5016034841537476, -0.1860562264919281, 8.521074295043945, 1.1304925680160522, 4.816788673400879, -0.15491488575935364, -0.7364093065261841, 0.19311851263046265, -0.966796875, 0.044921875, -0.193359375, 
27, 3080902983, 0.8437325358390808, -0.04358673095703125, -0.5016244053840637, -0.18606022000312805, 8.488764762878418, 1.1258002519607544, 4.821810245513916, -0.05847729742527008, -0.8032112121582031, -0.051740750670433044, -0.965576171875, 0.044189453125, -0.195068359375, 
28, 3080911316, 0.8437244892120361, -0.04357330501079559, -0.5016359090805054, -0.18606868386268616, 8.517319679260254, 1.1171882152557373, 4.82261848449707, -0.005430217832326889, -0.663690447807312, -0.010527451522648335, -0.966064453125, 0.041748046875, -0.193603515625, 
29, 3080919649, 0.843713641166687, -0.04355490207672119, -0.501656711101532, -0.18606635928153992, 8.505436897277832, 1.1048424243927002, 4.822367191314697, 0.05510902404785156, -0.7822330594062805, 0.021605605259537697, -0.965576171875, 0.041748046875, -0.194580078125, 
30, 3080927982, 0.8437123894691467, -0.04353044927120209, -0.5016608238220215, -0.1860663890838623, 8.50123405456543, 1.1297917366027832, 4.817333221435547, 0.1667998880147934, -0.507891833782196, 0.032811831682920456, -0.96630859375, 0.044921875, -0.193359375, 
31, 3080936315, 0.8437206149101257, -0.04350438714027405, -0.5016518831253052, -0.18605899810791016, 8.526131629943848, 1.124376893043518, 4.805451393127441, 0.10460852831602097, -0.28845468163490295, 0.08865085989236832, -0.966796875, 0.044921875, -0.1943359375, 
32, 3080944648, 0.8437300324440002, -0.0434839129447937, -0.501641035079956, -0.18605056405067444, 8.515094757080078, 1.1114444732666016, 4.823276519775391, 0.14500218629837036, -0.2785675823688507, 0.19310571253299713, -0.96533203125, 0.044921875, -0.195068359375, 
33, 3080952981, 0.8437432646751404, -0.04346223175525665, -0.5016276836395264, -0.18603137135505676, 8.524879455566406, 1.128875970840454, 4.810673236846924, 0.06068012863397598, -0.23061776161193848, 0.23278215527534485, -0.965087890625, 0.044189453125, -0.195556640625, 
34, 3080961314, 0.843758225440979, -0.04344174265861511, -0.5016069412231445, -0.18602421879768372, 8.51703929901123, 1.123646855354309, 4.822146415710449, 0.11554581671953201, -0.12352465093135834, 0.19927874207496643, -0.96826171875, 0.044677734375, -0.193359375, 
35, 3080969647, 0.8437747955322266, -0.04343363642692566, -0.5015771389007568, -0.186031311750412, 8.523456573486328, 1.1211222410202026, 4.80761194229126, -0.1740231066942215, -0.018058035522699356, 0.12196218222379684, -0.9658203125, 0.04541015625, -0.1953125, 
36, 3080977980, 0.8437970876693726, -0.043410420417785645, -0.5015437006950378, -0.18602585792541504, 8.496811866760254, 1.1256283521652222, 4.821044921875, 0.10661924630403519, 0.08318222314119339, 0.18876409530639648, -0.966796875, 0.045166015625, -0.1962890625, 
37, 3080986313, 0.8438225388526917, -0.04338175058364868, -0.5015100240707397, -0.18600806593894958, 8.495889663696289, 1.1227102279663086, 4.801116943359375, 0.11011560261249542, 0.11183175444602966, 0.22494421899318695, -0.967041015625, 0.044189453125, -0.19580078125, 
38, 3080994646, 0.8438288569450378, -0.04336673021316528, -0.5015019178390503, -0.1860044002532959, 8.478241920471191, 1.1117589473724365, 4.769836902618408, 0.05568534508347511, -0.34129688143730164, 0.16802939772605896, -0.964599609375, 0.042724609375, -0.195556640625, 
39, 3081002979, 0.8438197374343872, -0.04335518181324005, -0.5015169382095337, -0.1860077977180481, 8.493865013122559, 1.1134544610977173, 4.783535480499268, 0.04961477592587471, -0.7003572583198547, 0.08094098418951035, -0.965576171875, 0.0439453125, -0.194580078125, 
40, 3081011312, 0.8438066840171814, -0.04335595667362213, -0.5015377402305603, -0.18601101636886597, 8.487849235534668, 1.1031543016433716, 4.8017964363098145, -0.11286912113428116, -0.8467937707901001, 0.12909573316574097, -0.96630859375, 0.04443359375, -0.192626953125, 
41, 3081019645, 0.8437868356704712, -0.043360963463783264, -0.5015677809715271, -0.18601837754249573, 8.497970581054688, 1.1203783750534058, 4.843154430389404, -0.21668361127376556, -0.998634934425354, 0.07059282809495926, -0.963623046875, 0.043701171875, -0.197021484375, 
42, 3081027978, 0.8437777757644653, -0.04336267709732056, -0.5015850067138672, -0.18601268529891968, 8.497269630432129, 1.0980043411254883, 4.815086364746094, -0.06876140087842941, -0.7854220271110535, 0.2519928216934204, -0.96630859375, 0.04541015625, -0.1943359375, 
43, 3081036311, 0.843769907951355, -0.04334498941898346, -0.5016060471534729, -0.18599602580070496, 8.485102653503418, 1.1018024682998657, 4.856172561645508, 0.08963701128959656, -0.7818232774734497, 0.1681702584028244, -0.966064453125, 0.043701171875, -0.195068359375, 
44, 3081044644, 0.8437656164169312, -0.04333844780921936, -0.5016172528266907, -0.18598690629005432, 8.475275039672852, 1.095286250114441, 4.850521564483643, 0.037038180977106094, -0.6621407270431519, 0.24932895600795746, -0.965576171875, 0.043212890625, -0.195068359375, 
45, 3081052977, 0.8437557220458984, -0.043344587087631226, -0.5016319155693054, -0.18599078059196472, 8.504507064819336, 1.1202424764633179, 4.8480963706970215, -0.1503683626651764, -0.7458224892616272, 0.20263420045375824, -0.964111328125, 0.04150390625, -0.192626953125, 
46, 3081061310, 0.8437477350234985, -0.04336833953857422, -0.5016404986381531, -0.18599793314933777, 8.494845390319824, 1.141650915145874, 4.912672519683838, -0.43550601601600647, -0.7264068722724915, 0.2622641324996948, -0.964599609375, 0.0439453125, -0.195068359375, 
47, 3081069643, 0.8437413573265076, -0.04339711368083954, -0.5016409754753113, -0.18601900339126587, 8.479745864868164, 1.126336693763733, 4.925132751464844, -0.5687512755393982, -0.6040733456611633, 0.17609788477420807, -0.964111328125, 0.041748046875, -0.196044921875, 
48, 3081077976, 0.8437621593475342, -0.04340328276157379, -0.5015962719917297, -0.18604353070259094, 8.471055030822754, 1.1094849109649658, 4.887445449829102, -0.4706743657588959, 0.14584743976593018, 0.044312622398138046, -0.965087890625, 0.042724609375, -0.194580078125, 
49, 3081086309, 0.8438120484352112, -0.04333515465259552, -0.501525342464447, -0.18602490425109863, 8.526117324829102, 1.0797715187072754, 4.734595775604248, 0.5850034952163696, 0.822882890701294, 0.10204710811376572, -0.966064453125, 0.043212890625, -0.196533203125, 
50, 3081094642, 0.8438467383384705, -0.04323290288448334, -0.5014882683753967, -0.18599122762680054, 8.492656707763672, 1.1822218894958496, 4.739867210388184, 1.2177903652191162, 0.3965211808681488, 0.003726871218532324, -0.9677734375, 0.044921875, -0.19287109375, 
51, 3081102975, 0.84376060962677, -0.04326160252094269, -0.5016107559204102, -0.18604502081871033, 8.43576717376709, 1.1742979288101196, 4.9473419189453125, -0.6434679627418518, -2.565739631652832, -0.5463132262229919, -0.9658203125, 0.044921875, -0.194580078125, 
52, 3081111308, 0.8436952829360962, -0.0432848185300827, -0.5017024874687195, -0.18608897924423218, 8.493273735046387, 1.1067146062850952, 4.877401828765869, -0.5054072737693787, -2.0647506713867188, -0.3644777536392212, -0.967529296875, 0.042724609375, -0.192138671875, 
53, 3081119641, 0.8437560796737671, -0.04317618906497955, -0.5016230344772339, -0.18605202436447144, 8.617459297180176, 1.112653374671936, 4.718315601348877, 1.1091220378875732, 1.0843017101287842, 0.033605873584747314, -0.967529296875, 0.043701171875, -0.1953125, 
54, 3081127974, 0.8438247442245483, -0.04312433302402496, -0.5015127062797546, -0.18605035543441772, 8.497363090515137, 1.2517832517623901, 4.701370716094971, 0.24412930011749268, 1.369490623474121, 0.11014120280742645, -0.967041015625, 0.04296875, -0.191650390625, 
55, 3081136307, 0.8437835574150085, -0.04326154291629791, -0.501533567905426, -0.18614870309829712, 8.386724472045898, 1.2222291231155396, 4.770681858062744, -2.2524261474609375, -1.3005753755569458, -0.031441472470760345, -0.965576171875, 0.04443359375, -0.194580078125, 
56, 3081144640, 0.8436382412910461, -0.043476104736328125, -0.5017204284667969, -0.18625414371490479, 8.452163696289062, 1.0887407064437866, 4.877298355102539, -2.9521431922912598, -4.172661781311035, -0.019415590912103653, -0.966552734375, 0.041748046875, -0.194091796875, 
57, 3081152973, 0.8435582518577576, -0.04359513521194458, -0.501827597618103, -0.18629947304725647, 8.542190551757812, 1.0716406106948853, 4.86253023147583, -1.4070667028427124, -2.5477712154388428, 0.34695759415626526, -0.965087890625, 0.04443359375, -0.193115234375, 
58, 3081161306, 0.8435920476913452, -0.043623968958854675, -0.5017673373222351, -0.1863018274307251, 8.482584953308105, 1.1938166618347168, 4.870320796966553, -0.6126668453216553, 0.3441912829875946, 0.5003356337547302, -0.96484375, 0.044921875, -0.195556640625, 
59, 3081169639, 0.8435933589935303, -0.04365290701389313, -0.5017563700675964, -0.18631866574287415, 8.411493301391602, 1.217756986618042, 4.8235344886779785, -0.7689905166625977, -0.44648170471191406, 0.13722825050354004, -0.964111328125, 0.04345703125, -0.194091796875, 
60, 3081177972, 0.8435202240943909, -0.04370516538619995, -0.5018425583839417, -0.186405748128891, 8.496047019958496, 1.1051007509231567, 4.804595947265625, -1.1582884788513184, -2.1014816761016846, -0.6820430159568787, -0.965576171875, 0.04296875, -0.193603515625, 
61, 3081186305, 0.8434299230575562, -0.04372178018093109, -0.5019614100456238, -0.18649041652679443, 8.569355010986328, 1.0303901433944702, 4.824906826019287, -0.6507552862167358, -2.492316484451294, -0.9539764523506165, -0.966064453125, 0.04443359375, -0.192626953125, 
62, 3081194638, 0.8433634042739868, -0.04368212819099426, -0.5020695924758911, -0.18650957942008972, 8.567922592163086, 1.0764795541763306, 4.849815845489502, 0.4372221529483795, -2.1148645877838135, -0.524707555770874, -0.966064453125, 0.042724609375, -0.194580078125, 
63, 3081202971, 0.8433435559272766, -0.043642401695251465, -0.5021160840988159, -0.1864832043647766, 8.531533241271973, 1.1647838354110718, 4.827890872955322, 0.6910465359687805, -1.0804469585418701, 0.2062714546918869, -0.967041015625, 0.041748046875, -0.193115234375, 
64, 3081211304, 0.8433434367179871, -0.043627917766571045, -0.5021299123764038, -0.18644976615905762, 8.519123077392578, 1.2201682329177856, 4.745318412780762, 0.30511674284935, -0.6594000458717346, 0.48600447177886963, -0.966552734375, 0.043212890625, -0.194580078125, 
65, 3081219637, 0.843305230140686, -0.043607696890830994, -0.5022084712982178, -0.18641585111618042, 8.502195358276367, 1.2077946662902832, 4.762961387634277, 0.530778169631958, -1.640681266784668, 0.32788780331611633, -0.965087890625, 0.04443359375, -0.194091796875, 
66, 3081227970, 0.8432266712188721, -0.04358108341693878, -0.5023483037948608, -0.18640097975730896, 8.505369186401367, 1.16311514377594, 4.8247785568237305, 0.5958255529403687, -2.6220009326934814, -0.08959858864545822, -0.964111328125, 0.04443359375, -0.189697265625, 
67, 3081236303, 0.8431530594825745, -0.043580710887908936, -0.5024698972702026, -0.18640565872192383, 8.576373100280762, 1.1601905822753906, 4.870664119720459, 0.01620100438594818, -2.4240541458129883, -0.1579117476940155, -0.96728515625, 0.044921875, -0.19189453125, 
68, 3081244636, 0.8431533575057983, -0.04360157251358032, -0.5024549961090088, -0.18643948435783386, 8.617036819458008, 1.1368013620376587, 4.85307502746582, -0.6419054865837097, -0.37508201599121094, -0.031159717589616776, -0.966552734375, 0.0439453125, -0.193603515625, 
69, 3081252969, 0.8432164192199707, -0.04360736906528473, -0.502335786819458, -0.1864739954471588, 8.560400009155273, 1.1197272539138794, 4.820765018463135, -0.6877806186676025, 1.3280212879180908, 0.09692426770925522, -0.968017578125, 0.041748046875, -0.190673828125, 
70, 3081261302, 0.8432883620262146, -0.04357610642910004, -0.5022193789482117, -0.1864698827266693, 8.514349937438965, 1.1037625074386597, 4.747934818267822, 0.008017255924642086, 1.4095001220703125, 0.29189983010292053, -0.967041015625, 0.043701171875, -0.194091796875, 
71, 3081269635, 0.8433133363723755, -0.04349836707115173, -0.5022029280662537, -0.18641909956932068, 8.459481239318848, 1.1255499124526978, 4.710583209991455, 1.0439337491989136, 0.02666441723704338, 0.3102908432483673, -0.966064453125, 0.041259765625, -0.192626953125, 
72, 3081277968, 0.8432761430740356, -0.043437063694000244, -0.5022878050804138, -0.18637311458587646, 8.453117370605469, 1.1275749206542969, 4.720437049865723, 1.0957257747650146, -1.6285400390625, 0.17002728581428528, -0.965576171875, 0.04296875, -0.190185546875, 
73, 3081286301, 0.8432251214981079, -0.043425336480140686, -0.5023772716522217, -0.1863660216331482, 8.464497566223145, 1.124667763710022, 4.75241756439209, 0.24092748761177063, -1.8626799583435059, 0.021259816363453865, -0.967529296875, 0.043212890625, -0.19287109375, 
74, 3081294634, 0.843180775642395, -0.043448880314826965, -0.5024382472038269, -0.18639683723449707, 8.468586921691895, 1.1302636861801147, 4.771117687225342, -0.4839169979095459, -1.571138858795166, -0.13794545829296112, -0.967041015625, 0.042236328125, -0.193603515625, 
75, 3081302967, 0.8431375026702881, -0.04349061846733093, -0.5024961233139038, -0.18642637133598328, 8.470820426940918, 1.123816967010498, 4.783886909484863, -0.7036231160163879, -1.560752272605896, 0.008772877044975758, -0.966552734375, 0.042236328125, -0.196044921875, 
76, 3081311300, 0.8430882692337036, -0.043546631932258606, -0.5025607943534851, -0.18646183609962463, 8.488909721374512, 1.134441614151001, 4.793529987335205, -0.8855352997779846, -1.7270140647888184, 0.018096458166837692, -0.965576171875, 0.04345703125, -0.193603515625, 
77, 3081319633, 0.843036949634552, -0.04357939958572388, -0.5026436448097229, -0.18646302819252014, 8.514656066894531, 1.1442962884902954, 4.7776970863342285, -0.5150383114814758, -1.920824408531189, 0.14418254792690277, -0.965087890625, 0.04296875, -0.191650390625, 
78, 3081327966, 0.8429903984069824, -0.0435994416475296, -0.5027207136154175, -0.1864609718322754, 8.553178787231445, 1.1365107297897339, 4.814648628234863, -0.17545750737190247, -1.7832117080688477, 0.20387649536132812, -0.967041015625, 0.043212890625, -0.193115234375, 
79, 3081336299, 0.8429617285728455, -0.04359598457813263, -0.502775251865387, -0.18644490838050842, 8.557039260864258, 1.1319373846054077, 4.819478511810303, 0.23383232951164246, -1.3173015117645264, 0.3191789388656616, -0.967529296875, 0.043212890625, -0.193359375, 
80, 3081344632, 0.8429391980171204, -0.04358917474746704, -0.5028209686279297, -0.1864243745803833, 8.538956642150879, 1.1614786386489868, 4.840836524963379, 0.19635872542858124, -1.1957110166549683, 0.3123399615287781, -0.967529296875, 0.0439453125, -0.19287109375, 
81, 3081352965, 0.8429068326950073, -0.04362465441226959, -0.502869725227356, -0.1864311397075653, 8.564391136169434, 1.1501845121383667, 4.821651935577393, -0.5726446509361267, -1.3857940435409546, 0.21513395011425018, -0.968017578125, 0.042724609375, -0.19287109375, 
82, 3081361298, 0.8428915143013, -0.04369138181209564, -0.5028702020645142, -0.18648386001586914, 8.58106517791748, 1.1541613340377808, 4.82461404800415, -1.2740135192871094, -0.7682092785835266, 0.017981192097067833, -0.967041015625, 0.041748046875, -0.193115234375, 
83, 3081369631, 0.8429107666015625, -0.04371054470539093, -0.5028234124183655, -0.18651804327964783, 8.581766128540039, 1.117295503616333, 4.772970676422119, -0.9100865125656128, 0.11995146423578262, -0.09099456667900085, -0.967529296875, 0.04345703125, -0.1923828125, 
84, 3081377964, 0.8429569602012634, -0.04365687072277069, -0.5027568340301514, -0.18650159239768982, 8.5763521194458, 1.1480169296264648, 4.764773368835449, 0.4648470878601074, 0.704032838344574, 0.1854214370250702, -0.968017578125, 0.0439453125, -0.19140625, 
85, 3081386297, 0.8429490327835083, -0.04359215497970581, -0.5027921795845032, -0.1864573061466217, 8.454317092895508, 1.1484178304672241, 4.89889669418335, 1.0068955421447754, -0.8259694576263428, 0.2345239371061325, -0.967041015625, 0.041259765625, -0.194580078125, 
86, 3081394630, 0.8429213762283325, -0.04358173906803131, -0.5028558969497681, -0.1864132583141327, 8.497913360595703, 1.1081899404525757, 4.948629856109619, 0.44470152258872986, -1.4450526237487793, 0.5360931158065796, -0.966552734375, 0.04248046875, -0.191650390625, 
87, 3081402963, 0.8429774641990662, -0.04353412985801697, -0.5027864575386047, -0.18635788559913635, 8.557353973388672, 1.0711668729782104, 4.805372714996338, 0.7107822299003601, 0.78867506980896, 0.7409301996231079, -0.969482421875, 0.041259765625, -0.1904296875, 
88, 3081411296, 0.8430901169776917, -0.04345032572746277, -0.5026253461837769, -0.18630284070968628, 8.448243141174316, 1.1504294872283936, 4.736542701721191, 0.8800411224365234, 2.312593936920166, 0.6512290835380554, -0.966552734375, 0.04150390625, -0.189697265625, 
89, 3081419629, 0.8431121706962585, -0.04350128769874573, -0.5025768280029297, -0.18632164597511292, 8.4061279296875, 1.1754624843597412, 4.735067367553711, -0.8192201852798462, 0.1155330091714859, 0.5174203515052795, -0.965576171875, 0.04443359375, -0.192138671875, 
90, 3081427962, 0.8430325388908386, -0.04359057545661926, -0.502681314945221, -0.18637937307357788, 8.472721099853516, 1.0962779521942139, 4.751649856567383, -1.342839002609253, -2.4715049266815186, -0.11087121069431305, -0.967529296875, 0.04345703125, -0.19140625, 
91, 3081436295, 0.8429540991783142, -0.043618813157081604, -0.5028008818626404, -0.18640485405921936, 8.567705154418945, 1.0672053098678589, 4.802042484283447, -0.42075222730636597, -2.4898698329925537, -0.1857416033744812, -0.967041015625, 0.0419921875, -0.190673828125, 
92, 3081444628, 0.8429248332977295, -0.04361133277416229, -0.5028583407402039, -0.18638384342193604, 8.565701484680176, 1.0958369970321655, 4.876336097717285, 0.23580463230609894, -1.3772644996643066, 0.2883906662464142, -0.968505859375, 0.040771484375, -0.190185546875, 
93, 3081452961, 0.842965841293335, -0.04357092082500458, -0.5028079748153687, -0.18634307384490967, 8.494616508483887, 1.118539810180664, 4.794270992279053, 0.6773557066917419, 0.4672677218914032, 0.6359374523162842, -0.967529296875, 0.043212890625, -0.192626953125, 
94, 3081461294, 0.8430020213127136, -0.043524011969566345, -0.5027728080749512, -0.18628564476966858, 8.448216438293457, 1.1147491931915283, 4.779194355010986, 0.7451564073562622, 0.2291833758354187, 0.661884605884552, -0.968017578125, 0.04345703125, -0.19189453125, 
95, 3081469627, 0.8429684042930603, -0.04352019727230072, -0.5028344392776489, -0.18627262115478516, 8.398932456970215, 1.1000356674194336, 4.834299087524414, 0.10289237648248672, -1.4488307237625122, 0.19164569675922394, -0.967529296875, 0.0439453125, -0.19091796875, 
96, 3081477960, 0.8429017663002014, -0.043532028794288635, -0.5029416084289551, -0.18628233671188354, 8.467973709106445, 1.1453577280044556, 4.869867324829102, -0.09686022996902466, -2.243589401245117, -0.05784975364804268, -0.967041015625, 0.0439453125, -0.189453125, 
97, 3081486293, 0.8428625464439392, -0.043528541922569275, -0.5029996037483215, -0.18630337715148926, 8.520953178405762, 1.160141110420227, 4.863554000854492, -0.16562162339687347, -1.42737877368927, -0.22381716966629028, -0.967041015625, 0.0439453125, -0.19091796875, 
98, 3081494626, 0.8428565263748169, -0.04355013370513916, -0.5029969215393066, -0.18633320927619934, 8.530573844909668, 1.167393684387207, 4.851337432861328, -0.5942373871803284, -0.5643200278282166, -0.004008627962321043, -0.966064453125, 0.04248046875, -0.190185546875, 
99, 3081502959, 0.8428574204444885, -0.043587327003479004, -0.5029761791229248, -0.18637630343437195, 8.54053783416748, 1.1343905925750732, 4.807104587554932, -0.8351137042045593, -0.3108927607536316, 0.03370833024382591, -0.967529296875, 0.042724609375, -0.194091796875, 
100, 3081511292, 0.8428521752357483, -0.04360242187976837, -0.5029750466346741, -0.18640008568763733, 8.529715538024902, 1.1116729974746704, 4.8070969581604, -0.47231367230415344, -0.562091588973999, 0.023641938343644142, -0.966552734375, 0.042724609375, -0.192626953125, 
101, 3081519625, 0.8428536653518677, -0.043602243065834045, -0.5029706954956055, -0.18640488386154175, 8.521261215209961, 1.0916310548782349, 4.821689128875732, -0.23529236018657684, -0.44333115220069885, 0.12499746680259705, -0.968994140625, 0.04248046875, -0.189453125, 
102, 3081527958, 0.8428688049316406, -0.043627724051475525, -0.5029375553131104, -0.18642008304595947, 8.516532897949219, 1.1078108549118042, 4.877501964569092, -0.6040861010551453, -0.08421960473060608, 0.2658116817474365, -0.969482421875, 0.041748046875, -0.1904296875, 
103, 3081536291, 0.8428994417190552, -0.04367050528526306, -0.5028674006462097, -0.18646082282066345, 8.512526512145996, 1.1190265417099, 4.8412370681762695, -0.8858042359352112, 0.4648214876651764, 0.26049676537513733, -0.967529296875, 0.042236328125, -0.194091796875, 
104, 3081544624, 0.8429296016693115, -0.04370824992656708, -0.5028054118156433, -0.1864824891090393, 8.48675537109375, 1.103877067565918, 4.805187702178955, -0.8559123873710632, 0.32824641466140747, 0.3308846652507782, -0.967041015625, 0.042236328125, -0.193603515625, 
105, 3081552957, 0.8429199457168579, -0.043748632073402405, -0.5028097033500671, -0.18650531768798828, 8.496848106384277, 1.0919244289398193, 4.772841930389404, -0.6257686018943787, -0.6883953213691711, 0.27519935369491577, -0.965087890625, 0.04345703125, -0.190673828125, 
106, 3081561290, 0.8428874611854553, -0.04378432035446167, -0.5028575658798218, -0.18651458621025085, 8.537640571594238, 1.125421166419983, 4.7949652671813965, -0.5022566914558411, -1.3809529542922974, 0.23301267623901367, -0.967041015625, 0.0439453125, -0.1923828125, 
107, 3081569623, 0.8428643345832825, -0.043806836009025574, -0.5028926134109497, -0.18651989102363586, 8.541975975036621, 1.1402417421340942, 4.819700717926025, -0.4400653839111328, -1.1322643756866455, 0.17640523612499237, -0.966064453125, 0.04248046875, -0.191650390625, 
108, 3081577956, 0.8428768515586853, -0.04380984604358673, -0.5028735399246216, -0.18651419878005981, 8.553820610046387, 1.1423019170761108, 4.808720588684082, -0.16555757820606232, -0.2203976809978485, 0.33605873584747314, -0.966064453125, 0.04248046875, -0.190673828125, 
109, 3081586289, 0.8429306149482727, -0.04378052055835724, -0.5027907490730286, -0.18650078773498535, 8.524664878845215, 1.1247917413711548, 4.8002729415893555, 0.12983855605125427, 0.900955080986023, 0.3585992753505707, -0.96728515625, 0.044921875, -0.19189453125, 
110, 3081594622, 0.8429843783378601, -0.04374614357948303, -0.5027078986167908, -0.1864890456199646, 8.492777824401855, 1.1503273248672485, 4.73283576965332, 0.17248624563217163, 0.8977788686752319, 0.2931292951107025, -0.968017578125, 0.040771484375, -0.193603515625, 
111, 3081602955, 0.8429968953132629, -0.043753549456596375, -0.502683162689209, -0.18649756908416748, 8.486912727355957, 1.1609636545181274, 4.751998424530029, -0.3316402733325958, -0.13904687762260437, 0.2115991860628128, -0.968017578125, 0.042236328125, -0.192626953125, 
112, 3081611288, 0.8429840803146362, -0.043794453144073486, -0.5026895403862, -0.18652820587158203, 8.491118431091309, 1.1529452800750732, 4.7639079093933105, -0.8046583533287048, -0.7638805508613586, 0.09582285583019257, -0.966552734375, 0.042724609375, -0.193603515625, 
113, 3081619621, 0.8429722189903259, -0.0438268780708313, -0.5026983618736267, -0.18655091524124146, 8.482799530029297, 1.130041480064392, 4.7970757484436035, -0.7464628219604492, -0.7654173970222473, 0.08101782202720642, -0.968505859375, 0.041259765625, -0.193115234375, 
114, 3081627954, 0.8429685831069946, -0.043833404779434204, -0.5026981830596924, -0.18656662106513977, 8.508707046508789, 1.1279747486114502, 4.812690258026123, -0.31483736634254456, -0.5457496643066406, 0.059758007526397705, -0.966552734375, 0.041015625, -0.190185546875, 
115, 3081636287, 0.8429707288742065, -0.043832242488861084, -0.5026904344558716, -0.1865779459476471, 8.522806167602539, 1.1149276494979858, 4.799980163574219, -0.19089007377624512, -0.38105013966560364, 0.09746215492486954, -0.968017578125, 0.042236328125, -0.194091796875, 
116, 3081644620, 0.8429710865020752, -0.04383277893066406, -0.5026879906654358, -0.18658313155174255, 8.52381420135498, 1.1014591455459595, 4.789908409118652, -0.1750860959291458, -0.48424991965293884, 0.15353171527385712, -0.966552734375, 0.0419921875, -0.191162109375, 
117, 3081652953, 0.8429681062698364, -0.04383501410484314, -0.5026810765266418, -0.18661406636238098, 8.518170356750488, 1.0831907987594604, 4.773156642913818, -0.2681810259819031, -0.4105961322784424, -0.06644332408905029, -0.966552734375, 0.04248046875, -0.190185546875, 
118, 3081661286, 0.8429797291755676, -0.04382102191448212, -0.502659261226654, -0.1866237223148346, 8.502555847167969, 1.1031972169876099, 4.774508476257324, -0.08104344457387924, -0.13944390416145325, 0.0408162884414196, -0.968505859375, 0.042236328125, -0.19140625, 
119, 3081669619, 0.8429900407791138, -0.04379834234714508, -0.5026434659957886, -0.1866258680820465, 8.519214630126953, 1.1003791093826294, 4.7848801612854, 0.03142866864800453, -0.1929648369550705, 0.03616730123758316, -0.967041015625, 0.039794921875, -0.193603515625, 
120, 3081677952, 0.8429868817329407, -0.043792858719825745, -0.5026508569717407, -0.18662089109420776, 8.502026557922363, 1.1279890537261963, 4.782998561859131, -0.013485894538462162, -0.61203932762146, 0.21528762578964233, -0.964599609375, 0.0419921875, -0.191162109375, 
121, 3081686285, 0.8429745435714722, -0.043796733021736145, -0.5026678442955017, -0.1866300404071808, 8.499178886413574, 1.1462289094924927, 4.812246322631836, -0.16444338858127594, -0.7815670967102051, 0.11171648651361465, -0.968017578125, 0.040771484375, -0.191162109375, 
122, 3081694618, 0.8429507613182068, -0.04378712177276611, -0.5027059316635132, -0.1866370439529419, 8.498042106628418, 1.1439112424850464, 4.837646484375, 0.019146637991070747, -1.0907821655273438, -0.023949306458234787, -0.966064453125, 0.042724609375, -0.194580078125, 
123, 3081702951, 0.8429283499717712, -0.04376500844955444, -0.5027429461479187, -0.18664437532424927, 8.503271102905273, 1.1359500885009766, 4.83647346496582, 0.23511303961277008, -1.0115700960159302, -0.06028309836983681, -0.968994140625, 0.042724609375, -0.19140625, 
124, 3081711284, 0.8429127335548401, -0.043748483061790466, -0.502765417098999, -0.18665823340415955, 8.532696723937988, 1.109220027923584, 4.86457633972168, 0.01618819683790207, -0.8340635895729065, -0.12232079356908798, -0.966064453125, 0.041259765625, -0.192626953125, 
125, 3081719617, 0.8429118394851685, -0.04375118017196655, -0.5027550458908081, -0.18668895959854126, 8.502225875854492, 1.1087983846664429, 4.860613822937012, -0.2723049223423004, -0.3563196063041687, -0.046771593391895294, -0.965576171875, 0.041259765625, -0.193603515625, 
126, 3081727950, 0.8429259657859802, -0.04375492036342621, -0.5027188658714294, -0.18672189116477966, 8.520659446716309, 1.1247987747192383, 4.80612325668335, -0.4828539192676544, 0.013716422021389008, -0.09110982716083527, -0.965576171875, 0.041259765625, -0.194091796875, 
127, 3081736283, 0.8429421782493591, -0.043751224875450134, -0.5026849508285522, -0.18674081563949585, 8.526453018188477, 1.144755244255066, 4.794300079345703, -0.4790886342525482, 0.0017161535797640681, -0.07353846728801727, -0.969970703125, 0.042236328125, -0.1923828125, 
128, 3081744616, 0.8429493308067322, -0.04376015067100525, -0.5026604533195496, -0.18677255511283875, 8.512640953063965, 1.144762396812439, 4.754051685333252, -0.5093134641647339, -0.1857544332742691, -0.06657139211893082, -0.967529296875, 0.040771484375, -0.192138671875, 
129, 3081752949, 0.8429465293884277, -0.043770939111709595, -0.5026522278785706, -0.186804860830307, 8.522576332092285, 1.1406567096710205, 4.769622802734375, -0.4541403651237488, -0.42440229654312134, -0.06088504195213318, -0.968505859375, 0.041259765625, -0.193603515625, 
130, 3081761282, 0.8429426550865173, -0.04377494752407074, -0.5026488304138184, -0.18683069944381714, 8.513771057128906, 1.1223597526550293, 4.769601345062256, -0.36331233382225037, -0.49778708815574646, -0.07107950747013092, -0.965087890625, 0.04150390625, -0.191162109375, 
131, 3081769615, 0.8429366946220398, -0.04378160834312439, -0.5026493072509766, -0.186854749917984, 8.510724067687988, 1.1206001043319702, 4.802955150604248, -0.3355977237224579, -0.5425094962120056, -0.014369585551321507, -0.967529296875, 0.041748046875, -0.191650390625, 
132, 3081777948, 0.8429309725761414, -0.04379698634147644, -0.5026471614837646, -0.1868830919265747, 8.482950210571289, 1.1457281112670898, 4.81970739364624, -0.5123487114906311, -0.5529472827911377, -0.02821407839655876, -0.967529296875, 0.04345703125, -0.19189453125, 
133, 3081786281, 0.842920184135437, -0.04380109906196594, -0.5026583075523376, -0.18690073490142822, 8.479960441589355, 1.1524875164031982, 4.8272247314453125, -0.3921923339366913, -0.7174675464630127, -0.0616406574845314, -0.966552734375, 0.040283203125, -0.193603515625, 
134, 3081794614, 0.8428997993469238, -0.0438251793384552, -0.5026760697364807, -0.1869390606880188, 8.491604804992676, 1.1356782913208008, 4.816645622253418, -0.639087975025177, -0.9007630348205566, -0.13651105761528015, -0.966552734375, 0.04345703125, -0.193115234375, 
135, 3081802947, 0.8428769111633301, -0.043859079480171204, -0.5027036070823669, -0.18696069717407227, 8.483257293701172, 1.1446479558944702, 4.83565092086792, -0.825149655342102, -1.0789355039596558, 0.0012294831685721874, -0.967529296875, 0.041748046875, -0.190673828125, 
136, 3081811280, 0.8428456783294678, -0.04391258955001831, -0.5027374029159546, -0.18699800968170166, 8.519722938537598, 1.155849814414978, 4.869612216949463, -0.9372760057449341, -1.2382177114486694, 0.04509386420249939, -0.966552734375, 0.04150390625, -0.191162109375, 
137, 3081819613, 0.8428220748901367, -0.04397515952587128, -0.5027592778205872, -0.18703076243400574, 8.520130157470703, 1.1507922410964966, 4.894976615905762, -1.0389901399612427, -1.0577398538589478, 0.18963497877120972, -0.967529296875, 0.038818359375, -0.191162109375, 
138, 3081827946, 0.8428200483322144, -0.0440250039100647, -0.5027499198913574, -0.18705356121063232, 8.516861915588379, 1.139497995376587, 4.889590263366699, -0.8879942297935486, -0.5340567827224731, 0.28858277201652527, -0.966064453125, 0.04150390625, -0.189697265625, 
139, 3081836279, 0.8428491353988647, -0.04404398798942566, -0.5026911497116089, -0.18707606196403503, 8.49957275390625, 1.1037547588348389, 4.838096618652344, -0.5958383083343506, 0.35218289494514465, 0.21816924214363098, -0.967041015625, 0.04248046875, -0.191650390625, 
140, 3081844612, 0.8429158329963684, -0.04398152232170105, -0.5025973320007324, -0.18704256415367126, 8.52440071105957, 1.0824612379074097, 4.699281692504883, 0.6262552738189697, 1.1732215881347656, 0.39027130603790283, -0.967041015625, 0.039794921875, -0.191650390625, 
141, 3081852945, 0.8429648876190186, -0.04389214515686035, -0.5025322437286377, -0.18701773881912231, 8.516947746276855, 1.1682878732681274, 4.695190906524658, 1.1287808418273926, 0.8331925868988037, 0.1571817398071289, -0.966552734375, 0.041748046875, -0.192626953125, 
142, 3081861278, 0.8428876996040344, -0.04394422471523285, -0.502636730670929, -0.18707206845283508, 8.437453269958496, 1.137758731842041, 4.904905796051025, -0.8844084143638611, -2.3602237701416016, -0.3244555592536926, -0.966064453125, 0.041748046875, -0.192138671875, 
143, 3081869611, 0.8427700400352478, -0.044037654995918274, -0.5028067231178284, -0.1871235966682434, 8.471552848815918, 1.0599186420440674, 4.8710713386535645, -1.224514126777649, -3.4953184127807617, -0.15837281942367554, -0.967529296875, 0.04296875, -0.192138671875, 
144, 3081877944, 0.8428008556365967, -0.04398888349533081, -0.502758800983429, -0.18712520599365234, 8.632587432861328, 1.1278460025787354, 4.7550740242004395, 0.3222399055957794, 0.3798975348472595, -0.039343468844890594, -0.967529296875, 0.041259765625, -0.192138671875, 
145, 3081886277, 0.84288090467453, -0.04394237697124481, -0.5026311874389648, -0.1871185600757599, 8.534982681274414, 1.223912000656128, 4.666400909423828, 0.2388143092393875, 1.6568695306777954, 0.28722521662712097, -0.964599609375, 0.041259765625, -0.193115234375, 
146, 3081894610, 0.8429344892501831, -0.043938130140304565, -0.5025349855422974, -0.1871364414691925, 8.372032165527344, 1.2720904350280762, 4.653811931610107, -0.41716617345809937, 0.9928844571113586, 0.16777323186397552, -0.968017578125, 0.041259765625, -0.193603515625, 
147, 3081902943, 0.8428665995597839, -0.04407484829425812, -0.5026066303253174, -0.18721801042556763, 8.431099891662598, 1.100606083869934, 4.814070224761963, -2.108128309249878, -2.098855972290039, 0.008260590024292469, -0.969482421875, 0.041259765625, -0.19140625, 
148, 3081911276, 0.8427404165267944, -0.04425017535686493, -0.5027723908424377, -0.18729963898658752, 8.487338066101074, 1.0648193359375, 4.8389458656311035, -2.3741836547851562, -3.710299253463745, 0.047424763441085815, -0.966552734375, 0.04150390625, -0.190673828125, 
149, 3081919609, 0.8427323698997498, -0.04430806636810303, -0.5027745366096497, -0.18731603026390076, 8.52033805847168, 1.1343765258789062, 4.798091411590576, -0.9099072217941284, -0.717749297618866, 0.40490981936454773, -0.968017578125, 0.043212890625, -0.19189453125, 
150, 3081927942, 0.8427364826202393, -0.04435978829860687, -0.5027545690536499, -0.1873387098312378, 8.46578311920166, 1.18677818775177, 4.795172691345215, -0.9326398372650146, -0.37404465675354004, 0.3245964050292969, -0.968505859375, 0.041748046875, -0.19287109375, 
151, 3081936275, 0.8426664471626282, -0.04446035623550415, -0.5028352737426758, -0.18741375207901, 8.49000358581543, 1.1071102619171143, 4.801218509674072, -1.661505937576294, -2.133729934692383, -0.19952209293842316, -0.967529296875, 0.041259765625, -0.192626953125, 
152, 3081944608, 0.8425772190093994, -0.044506192207336426, -0.5029557943344116, -0.1874808669090271, 8.579397201538086, 1.0476230382919312, 4.78974723815918, -0.8667216897010803, -2.606363534927368, -0.555380642414093, -0.968017578125, 0.042724609375, -0.19287109375, 
153, 3081952941, 0.8425133228302002, -0.04443085193634033, -0.5030741095542908, -0.1874682605266571, 8.615440368652344, 1.083562970161438, 4.850241661071777, 0.9391202926635742, -2.1448209285736084, -0.4920879304409027, -0.966552734375, 0.04150390625, -0.190185546875, 
154, 3081961274, 0.8424839377403259, -0.044344156980514526, -0.503150999546051, -0.18741446733474731, 8.54778003692627, 1.1527272462844849, 4.842696189880371, 1.4292230606079102, -1.41817045211792, 0.10814329236745834, -0.968017578125, 0.040283203125, -0.190185546875, 
155, 3081969607, 0.8424743413925171, -0.04428352415561676, -0.5031962394714355, -0.18735036253929138, 8.540738105773926, 1.2116553783416748, 4.785130023956299, 1.0940865278244019, -0.9766579270362854, 0.4630541205406189, -0.966064453125, 0.04150390625, -0.190185546875, 
156, 3081977940, 0.8424594402313232, -0.044251590967178345, -0.5032338500022888, -0.18732362985610962, 8.543177604675293, 1.205225944519043, 4.783156871795654, 0.5141801238059998, -0.9906688928604126, 0.23385797441005707, -0.966552734375, 0.04150390625, -0.191162109375, 
157, 3081986273, 0.8424185514450073, -0.044232502579689026, -0.5033078789710999, -0.187313050031662, 8.517669677734375, 1.183344841003418, 4.7946577072143555, 0.30183812975883484, -1.5988532304763794, 0.0368332713842392, -0.965576171875, 0.0419921875, -0.190673828125, 
158, 3081994606, 0.8423817753791809, -0.0442100465297699, -0.5033725500106812, -0.187310129404068, 8.531060218811035, 1.1518223285675049, 4.845049858093262, 0.2967921197414398, -1.4639431238174438, -0.04921775311231613, -0.966552734375, 0.0419921875, -0.187744140625, 
159, 3082002939, 0.8423994183540344, -0.04418213665485382, -0.5033435821533203, -0.18731486797332764, 8.575350761413574, 1.1413004398345947, 4.837402820587158, 0.11575072258710861, 0.03708941489458084, 0.03975329175591469, -0.967041015625, 0.0419921875, -0.191162109375, 
160, 3082011272, 0.842473030090332, -0.0441579669713974, -0.5032183527946472, -0.18732652068138123, 8.559978485107422, 1.1104860305786133, 4.784143447875977, -0.2055414319038391, 1.512674331665039, 0.17059080302715302, -0.966552734375, 0.04150390625, -0.189697265625, 
161, 3082019605, 0.8425441384315491, -0.04411141574382782, -0.5031110644340515, -0.18730539083480835, 8.501749038696289, 1.1310073137283325, 4.756290912628174, 0.3639910817146301, 1.3477058410644531, 0.40648511052131653, -0.965576171875, 0.041259765625, -0.192138671875, 
162, 3082027938, 0.8425630331039429, -0.04403261840343475, -0.5031107068061829, -0.18723991513252258, 8.464953422546387, 1.1394553184509277, 4.696328163146973, 1.2482455968856812, -0.21646586060523987, 0.4695985019207001, -0.966552734375, 0.040283203125, -0.190185546875, 
163, 3082036271, 0.8425129652023315, -0.043974995613098145, -0.5032207369804382, -0.18718332052230835, 8.46103572845459, 1.123366355895996, 4.690483570098877, 1.230431079864502, -2.000330924987793, 0.30352866649627686, -0.965576171875, 0.04248046875, -0.191162109375, 
164, 3082044604, 0.8424503803253174, -0.04397197067737579, -0.5033340454101562, -0.18716108798980713, 8.490976333618164, 1.1155749559402466, 4.742166042327881, 0.31481173634529114, -2.2662193775177, 0.2144295573234558, -0.965576171875, 0.04052734375, -0.189697265625, 
165, 3082052937, 0.8424036502838135, -0.04398857057094574, -0.5034075379371643, -0.18716910481452942, 8.494863510131836, 1.1119939088821411, 4.772670269012451, -0.10116341710090637, -1.6959055662155151, 0.13529440760612488, -0.968994140625, 0.041259765625, -0.189453125, 
166, 3082061270, 0.8423773646354675, -0.044005438685417175, -0.5034481287002563, -0.1871744692325592, 8.499444007873535, 1.1234898567199707, 4.782190322875977, -0.2716901898384094, -1.208915114402771, 0.16950219869613647, -0.968017578125, 0.042236328125, -0.191650390625, 
167, 3082069603, 0.8423495888710022, -0.04401567578315735, -0.5034907460212708, -0.18718230724334717, 8.478729248046875, 1.1498767137527466, 4.770395278930664, -0.15369822084903717, -1.1986052989959717, 0.12643185257911682, -0.968994140625, 0.039306640625, -0.187744140625, 
168, 3082077936, 0.842326283454895, -0.04401896893978119, -0.5035361647605896, -0.18716412782669067, 8.521160125732422, 1.1454205513000488, 4.763679027557373, 0.06265241652727127, -1.222938895225525, 0.35209327936172485, -0.968017578125, 0.04248046875, -0.18994140625, 
169, 3082086269, 0.842301607131958, -0.044014230370521545, -0.5035898089408875, -0.18713179230690002, 8.523577690124512, 1.1681021451950073, 4.787633895874023, 0.15328839421272278, -1.3151628971099854, 0.3904505670070648, -0.967041015625, 0.04052734375, -0.188232421875, 
170, 3082094602, 0.8422676920890808, -0.04399770498275757, -0.5036608576774597, -0.1870972216129303, 8.513177871704102, 1.1510283946990967, 4.817711353302002, 0.4649367928504944, -1.5511211156845093, 0.36160895228385925, -0.966552734375, 0.039794921875, -0.192626953125, 
171, 3082102935, 0.8422322869300842, -0.04398368299007416, -0.5037301182746887, -0.18707337975502014, 8.5208101272583, 1.1616145372390747, 4.840357303619385, 0.5103123784065247, -1.5034658908843994, 0.35073572397232056, -0.965576171875, 0.041259765625, -0.191650390625, 
172, 3082111268, 0.8422062993049622, -0.04398910701274872, -0.5037729740142822, -0.18707361817359924, 8.540687561035156, 1.1484318971633911, 4.834005832672119, -0.09796163439750671, -1.2069810628890991, 0.1478709727525711, -0.968017578125, 0.041015625, -0.188720703125, 
173, 3082119601, 0.8421996831893921, -0.044030770659446716, -0.5037650465965271, -0.1871146857738495, 8.540022850036621, 1.135599970817566, 4.832960605621338, -0.8558355569839478, -0.5262060165405273, 0.047693703323602676, -0.965576171875, 0.041015625, -0.186767578125, 
174, 3082127934, 0.8422157168388367, -0.04406397044658661, -0.503720223903656, -0.18715515732765198, 8.599842071533203, 1.1359643936157227, 4.794872283935547, -0.8967671394348145, 0.05519867315888405, 0.03724309802055359, -0.966552734375, 0.04150390625, -0.187255859375, 
175, 3082136267, 0.8422427177429199, -0.044049620628356934, -0.503673791885376, -0.18716177344322205, 8.553834915161133, 1.1307286024093628, 4.7468767166137695, -0.043505776673555374, 0.2761726677417755, 0.17494520545005798, -0.967529296875, 0.040283203125, -0.188720703125, 
176, 3082144600, 0.8422427773475647, -0.04398183524608612, -0.5036978721618652, -0.18711277842521667, 8.495388984680176, 1.187457799911499, 4.833276271820068, 1.0583033561706543, -0.6496154069900513, 0.29189983010292053, -0.968017578125, 0.0419921875, -0.189697265625, 
177, 3082152933, 0.8422043323516846, -0.04395073652267456, -0.5037846565246582, -0.18706008791923523, 8.482873916625977, 1.1534534692764282, 4.89601993560791, 0.7511374354362488, -1.726975679397583, 0.4330342411994934, -0.967529296875, 0.04150390625, -0.190185546875, 
178, 3082161266, 0.8422291874885559, -0.04392293095588684, -0.5037669539451599, -0.18700197339057922, 8.582560539245605, 1.0958513021469116, 4.783871650695801, 0.565716028213501, -0.10195745527744293, 0.7616392374038696, -0.966064453125, 0.040771484375, -0.191162109375, 
179, 3082169599, 0.8423504829406738, -0.04385092854499817, -0.503594696521759, -0.1869361698627472, 8.513467788696289, 1.1228817701339722, 4.668647289276123, 0.6007306575775146, 2.457583427429199, 0.7903273105621338, -0.968017578125, 0.041748046875, -0.191162109375, 
180, 3082177932, 0.8424015045166016, -0.04385404288768768, -0.5035075545310974, -0.18694067001342773, 8.417901992797852, 1.1722007989883423, 4.722435474395752, -0.38922107219696045, 0.8423240780830383, 0.3594958186149597, -0.966552734375, 0.0419921875, -0.191650390625, 
181, 3082186265, 0.8423141241073608, -0.043960317969322205, -0.5036200881004333, -0.1870059370994568, 8.444379806518555, 1.1179194450378418, 4.7305006980896, -1.4052097797393799, -2.618760824203491, -0.004520912654697895, -0.967041015625, 0.04248046875, -0.189697265625, 
182, 3082194598, 0.8422219157218933, -0.04402993619441986, -0.5037479400634766, -0.18706050515174866, 8.512720108032227, 1.089829683303833, 4.78463077545166, -1.0389518737792969, -2.781872510910034, -0.25728219747543335, -0.968017578125, 0.0419921875, -0.189208984375, 
183, 3082202931, 0.8422054648399353, -0.043992578983306885, -0.5037856101989746, -0.18704211711883545, 8.56824779510498, 1.0683486461639404, 4.792640686035156, 0.5136422514915466, -0.9641837477684021, 0.0996137484908104, -0.967041015625, 0.0439453125, -0.1904296875, 
184, 3082211264, 0.8422560095787048, -0.043921202421188354, -0.5037292242050171, -0.1869828701019287, 8.532196998596191, 1.1174817085266113, 4.749874114990234, 0.9946391582489014, 0.6358349919319153, 0.5630136728286743, -0.966064453125, 0.04150390625, -0.190185546875, 
185, 3082219597, 0.8422624468803406, -0.0438871830701828, -0.5037373304367065, -0.18693983554840088, 8.515380859375, 1.122459888458252, 4.7439799308776855, 0.6723864674568176, -0.47596365213394165, 0.5335572957992554, -0.968017578125, 0.04345703125, -0.1875, 
186, 3082227930, 0.8422104120254517, -0.043899521231651306, -0.5038259029388428, -0.1869330108165741, 8.501429557800293, 1.1276466846466064, 4.785597324371338, -0.02774021588265896, -1.9364616870880127, 0.18535739183425903, -0.968017578125, 0.037841796875, -0.187255859375, 
187, 3082236263, 0.8421412706375122, -0.043919965624809265, -0.5039276480674744, -0.18696537613868713, 8.538029670715332, 1.1519520282745361, 4.841266632080078, 0.01864716224372387, -2.1375205516815186, -0.03733275085687637, -0.967529296875, 0.041015625, -0.189208984375, 
188, 3082244596, 0.8421200513839722, -0.043925583362579346, -0.5039607286453247, -0.18697044253349304, 8.579657554626465, 1.1693538427352905, 4.841409683227539, -0.15615719556808472, -1.0568561553955078, 0.11242088675498962, -0.969482421875, 0.04248046875, -0.18896484375, 
189, 3082252929, 0.842143714427948, -0.04395557940006256, -0.503909707069397, -0.18699395656585693, 8.576380729675293, 1.1850544214248657, 4.825000286102295, -0.8182082772254944, 0.18539582192897797, 0.20486263930797577, -0.966552734375, 0.04052734375, -0.187255859375, 
190, 3082261262, 0.8421837091445923, -0.04397830367088318, -0.5038314461708069, -0.1870194375514984, 8.54283332824707, 1.1708276271820068, 4.781797409057617, -0.7438245415687561, 0.6254227757453918, 0.21874555945396423, -0.967041015625, 0.039306640625, -0.190673828125, 
191, 3082269595, 0.8422036170959473, -0.04400146007537842, -0.5037813782691956, -0.18705898523330688, 8.526066780090332, 1.1399271488189697, 4.7783637046813965, -0.5652933716773987, 0.21303358674049377, 0.127046599984169, -0.968017578125, 0.04150390625, -0.189208984375, 
192, 3082277928, 0.8422088623046875, -0.04400569200515747, -0.5037640929222107, -0.18708118796348572, 8.530588150024414, 1.1606062650680542, 4.793026447296143, -0.3714448809623718, -0.2762879729270935, 0.0036884502042084932, -0.966552734375, 0.040771484375, -0.190185546875, 
193, 3082286261, 0.8422316908836365, -0.04400366544723511, -0.5037151575088501, -0.18711039423942566, 8.54525089263916, 1.1298773288726807, 4.795086860656738, -0.4438050091266632, 0.2445647120475769, -0.0656108558177948, -0.968017578125, 0.04248046875, -0.1904296875, 
194, 3082294594, 0.8422873020172119, -0.044020310044288635, -0.503606915473938, -0.1871475875377655, 8.553412437438965, 1.135857105255127, 4.788907051086426, -0.8228445053100586, 1.1031025648117065, 0.0996137484908104, -0.968505859375, 0.042236328125, -0.19140625, 
195, 3082302927, 0.8423521518707275, -0.04402720928192139, -0.503487229347229, -0.1871758997440338, 8.52688217163086, 1.1150566339492798, 4.795373439788818, -0.8369323015213013, 1.3140614032745361, 0.08150450140237808, -0.967041015625, 0.041748046875, -0.191162109375, 
196, 3082311260, 0.8423835635185242, -0.04404720664024353, -0.5034196972846985, -0.18721148371696472, 8.498135566711426, 1.1252280473709106, 4.765223979949951, -0.7624973654747009, 0.45431968569755554, 0.05448148027062416, -0.967041015625, 0.0419921875, -0.191162109375, 
197, 3082319593, 0.8423960208892822, -0.04407143592834473, -0.5033776760101318, -0.18726229667663574, 8.514508247375488, 1.131515383720398, 4.746547698974609, -0.7817848920822144, 0.052662864327430725, -0.10633750259876251, -0.968017578125, 0.042236328125, -0.191650390625, 
198, 3082327926, 0.8424258232116699, -0.04410602152347565, -0.5033104419708252, -0.1873018443584442, 8.530709266662598, 1.136293888092041, 4.769852638244629, -0.9569222331047058, 0.4031040072441101, 0.10526169091463089, -0.965576171875, 0.04150390625, -0.191162109375, 
199, 3082336259, 0.842485785484314, -0.04414196312427521, -0.5032016038894653, -0.1873152256011963, 8.522040367126465, 1.1361647844314575, 4.79121732711792, -0.8889420032501221, 1.0917171239852905, 0.5247203707695007, -0.967529296875, 0.0419921875, -0.190185546875, 
200, 3082344592, 0.8425750732421875, -0.04417744278907776, -0.5030537247657776, -0.1873026192188263, 8.505219459533691, 1.1073241233825684, 4.773819446563721, -0.777558445930481, 1.7175112962722778, 0.9169127941131592, -0.966552734375, 0.0419921875, -0.190185546875, 
201, 3082352925, 0.8426869511604309, -0.04418942332267761, -0.5028891563415527, -0.18723848462104797, 8.488242149353027, 1.0974366664886475, 4.75023078918457, -0.22910653054714203, 2.1060023307800293, 1.4033015966415405, -0.965087890625, 0.039794921875, -0.191650390625, 
202, 3082361258, 0.8427845239639282, -0.044232577085494995, -0.5027577877044678, -0.18714269995689392, 8.491854667663574, 1.0776242017745972, 4.722810745239258, -0.2452947497367859, 1.5117778778076172, 1.9452216625213623, -0.967529296875, 0.041259765625, -0.194580078125, 
203, 3082369591, 0.8428559303283691, -0.04430748522281647, -0.5026710033416748, -0.18703603744506836, 8.500524520874023, 1.0694154500961304, 4.759839057922363, -0.482303261756897, 0.7361019253730774, 2.1804630756378174, -0.966064453125, 0.04345703125, -0.192138671875, 
204, 3082377924, 0.8429245352745056, -0.04438395798206329, -0.502593994140625, -0.186915785074234, 8.539966583251953, 1.0533236265182495, 4.770087242126465, -0.3385561406612396, 0.5821090936660767, 2.3542299270629883, -0.966552734375, 0.0439453125, -0.192626953125, 
205, 3082386257, 0.8429960012435913, -0.04445895552635193, -0.5025253891944885, -0.1867593228816986, 8.552038192749023, 1.0403265953063965, 4.804495334625244, -0.2987644374370575, 0.4705207049846649, 2.630953311920166, -0.966552734375, 0.0439453125, -0.193115234375, 
206, 3082394590, 0.8430817127227783, -0.044528767466545105, -0.5024317502975464, -0.18660756945610046, 8.551565170288086, 1.051210641860962, 4.8454694747924805, -0.07788008451461792, 0.8915546536445618, 2.7244324684143066, -0.966064453125, 0.04345703125, -0.191162109375, 
207, 3082402923, 0.8431811332702637, -0.04458656907081604, -0.5023073554039001, -0.18648001551628113, 8.593218803405762, 1.034242033958435, 4.82096529006958, -0.16102389991283417, 1.4020975828170776, 2.426231622695923, -0.966552734375, 0.041748046875, -0.192626953125, 
208, 3082411256, 0.8432937860488892, -0.044613808393478394, -0.5021601915359497, -0.1863599419593811, 8.576064109802246, 1.0763542652130127, 4.833856582641602, 0.07709883898496628, 1.827114224433899, 2.1666312217712402, -0.967529296875, 0.04345703125, -0.1923828125, 
209, 3082419589, 0.8434078693389893, -0.044592514634132385, -0.502007782459259, -0.1862596869468689, 8.585342407226562, 1.0416758060455322, 4.865729808807373, 0.5656391978263855, 2.058180570602417, 1.6546540260314941, -0.96435546875, 0.044921875, -0.192626953125, 
210, 3082427922, 0.8435302376747131, -0.044486939907073975, -0.5018603801727295, -0.18612805008888245, 8.574435234069824, 1.0318723917007446, 4.899016380310059, 1.7028855085372925, 2.2300262451171875, 1.410037875175476, -0.96826171875, 0.045654296875, -0.19580078125, 
211, 3082436255, 0.8437012434005737, -0.044288188219070435, -0.5016473531723022, -0.18597400188446045, 8.549696922302246, 1.042298436164856, 4.903186798095703, 2.7473576068878174, 3.5594568252563477, 1.1667540073394775, -0.96484375, 0.04541015625, -0.194091796875, 
212, 3082444588, 0.8439109325408936, -0.04402381181716919, -0.5013784766197205, -0.18581032752990723, 8.522537231445312, 1.0471360683441162, 4.902024269104004, 3.510277509689331, 4.6265459060668945, 0.9830743670463562, -0.9658203125, 0.044921875, -0.193115234375, 
213, 3082452921, 0.8441527485847473, -0.04370546340942383, -0.501057505607605, -0.1856529414653778, 8.484713554382324, 1.042345404624939, 4.871670722961426, 4.015684127807617, 5.615421295166016, 0.680711030960083, -0.963623046875, 0.044921875, -0.194091796875, 
214, 3082461254, 0.844396710395813, -0.043344154953956604, -0.5007379055023193, -0.18549078702926636, 8.453700065612793, 1.0839998722076416, 4.838612079620361, 4.515533924102783, 5.70078182220459, 0.41428467631340027, -0.96533203125, 0.044677734375, -0.197021484375, 
215, 3082469587, 0.8445930480957031, -0.042977720499038696, -0.500485360622406, -0.18536314368247986, 8.447577476501465, 1.1299412250518799, 4.843649864196777, 4.463843822479248, 4.641402244567871, -0.18469145894050598, -0.967041015625, 0.042724609375, -0.197509765625, 
216, 3082477920, 0.8447471857070923, -0.042663708329200745, -0.500266969203949, -0.18532314896583557, 8.491035461425781, 1.194313645362854, 4.804447650909424, 3.3286983966827393, 3.859450578689575, -0.9656951427459717, -0.965576171875, 0.043212890625, -0.199462890625, 
217, 3082486253, 0.8448712229728699, -0.0423956960439682, -0.5000663995742798, -0.18536022305488586, 8.49100399017334, 1.234843134880066, 4.78631067276001, 2.273993730545044, 3.384524345397949, -1.63797926902771, -0.965576171875, 0.041259765625, -0.198974609375, 
218, 3082494586, 0.8449708223342896, -0.042167291045188904, -0.4998740553855896, -0.1854768991470337, 8.462322235107422, 1.2976309061050415, 4.821840286254883, 1.2917128801345825, 3.0547404289245605, -2.352846622467041, -0.966552734375, 0.043701171875, -0.197509765625, 
219, 3082502919, 0.8450627326965332, -0.04196050763130188, -0.4996689260005951, -0.1856575310230255, 8.468360900878906, 1.3166720867156982, 4.779634952545166, 0.6523433923721313, 3.1605918407440186, -2.8996212482452393, -0.964111328125, 0.041748046875, -0.198486328125, 
220, 3082511252, 0.8451589345932007, -0.04175439476966858, -0.4994453191757202, -0.1858678162097931, 8.474201202392578, 1.3203359842300415, 4.795135498046875, 0.3078831434249878, 3.3930156230926514, -3.2771496772766113, -0.966552734375, 0.040771484375, -0.199951171875, 
221, 3082519585, 0.8452503085136414, -0.0415729284286499, -0.49922215938568115, -0.18609213829040527, 8.424222946166992, 1.3210558891296387, 4.7769880294799805, -0.01591924950480461, 3.322627544403076, -3.244107246398926, -0.963623046875, 0.042236328125, -0.200439453125, 
222, 3082527918, 0.8453680276870728, -0.04141153395175934, -0.49896252155303955, -0.18629023432731628, 8.421709060668945, 1.2940040826797485, 4.734197616577148, -0.2086535543203354, 3.837127685546875, -2.751455545425415, -0.963134765625, 0.041259765625, -0.200927734375, 
223, 3082536251, 0.8455229997634888, -0.04125656187534332, -0.4986588954925537, -0.18643376231193542, 8.406051635742188, 1.2749004364013672, 4.712394714355469, -0.024640895426273346, 4.569336414337158, -1.9637666940689087, -0.964111328125, 0.04150390625, -0.205322265625, 
224, 3082544584, 0.8456771969795227, -0.04116125404834747, -0.4983690679073334, -0.18653109669685364, 8.422966957092285, 1.2228240966796875, 4.713862895965576, -0.34383270144462585, 4.212005138397217, -1.0195873975753784, -0.964111328125, 0.04052734375, -0.202880859375, 
225, 3082552917, 0.8457893133163452, -0.041177019476890564, -0.4981517493724823, -0.1865997314453125, 8.37156867980957, 1.1647343635559082, 4.742232799530029, -1.2109001874923706, 2.8039391040802, -0.02585757151246071, -0.963623046875, 0.041015625, -0.205810546875, 
226, 3082561250, 0.8458618521690369, -0.04128818213939667, -0.49800384044647217, -0.18664094805717468, 8.381481170654297, 1.1317474842071533, 4.790329933166504, -2.041992664337158, 1.4397377967834473, 0.7585272192955017, -0.964599609375, 0.041015625, -0.205810546875, 
227, 3082569583, 0.8459227681159973, -0.041456446051597595, -0.49788767099380493, -0.18663763999938965, 8.385472297668457, 1.053376317024231, 4.863466262817383, -2.541764736175537, 0.8080522418022156, 1.4993549585342407, -0.966064453125, 0.043212890625, -0.203857421875, 
228, 3082577916, 0.846002995967865, -0.041694968938827515, -0.49773314595222473, -0.18663281202316284, 8.39818286895752, 0.9972205758094788, 4.8819708824157715, -3.221719980239868, 1.2176238298416138, 2.1908366680145264, -0.962158203125, 0.04150390625, -0.206298828125, 
229, 3082586249, 0.8460874557495117, -0.04195497930049896, -0.49758225679397583, -0.18659338355064392, 8.424062728881836, 0.9798610210418701, 4.926479339599609, -3.3203864097595215, 1.1323285102844238, 2.699817419052124, -0.964111328125, 0.041015625, -0.204345703125, 
230, 3082594582, 0.8461464643478394, -0.04223358631134033, -0.497478187084198, -0.18654173612594604, 8.46422004699707, 1.0094945430755615, 4.990833282470703, -3.2493066787719727, 0.3544241786003113, 2.924402952194214, -0.965087890625, 0.043701171875, -0.203857421875, 
231, 3082602915, 0.8461707830429077, -0.04249724745750427, -0.49744608998298645, -0.1864553689956665, 8.475711822509766, 1.0456336736679077, 5.0215911865234375, -2.7421445846557617, -0.6939023733139038, 3.0664594173431396, -0.963134765625, 0.042724609375, -0.205322265625, 
232, 3082611248, 0.8461644649505615, -0.04273819923400879, -0.49747800827026367, -0.18634432554244995, 8.515823364257812, 1.0897412300109863, 5.0941548347473145, -2.0929133892059326, -1.6134148836135864, 3.112372398376465, -0.964111328125, 0.043212890625, -0.205322265625, 
233, 3082619581, 0.8461443185806274, -0.042920082807540894, -0.4975455105304718, -0.18621394038200378, 8.50978946685791, 1.1598539352416992, 5.159210205078125, -1.1437268257141113, -1.9573373794555664, 2.9122488498687744, -0.9638671875, 0.044677734375, -0.205810546875, 
234, 3082627914, 0.8461554050445557, -0.04300674796104431, -0.49756887555122375, -0.1860809624195099, 8.530842781066895, 1.191038727760315, 5.164953708648682, -0.16056282818317413, -1.011954426765442, 2.3614275455474854, -0.965087890625, 0.04150390625, -0.203857421875, 
235, 3082636247, 0.8462175726890564, -0.04299747943878174, -0.4975008964538574, -0.18598246574401855, 8.499037742614746, 1.1717013120651245, 5.093332290649414, 0.6582473516464233, 0.7002803683280945, 1.577029824256897, -0.964111328125, 0.04248046875, -0.205322265625, 
236, 3082644580, 0.8463505506515503, -0.042844682931900024, -0.49732789397239685, -0.1858753263950348, 8.49432373046875, 1.199581265449524, 4.957865238189697, 2.019669771194458, 2.7356646060943604, 0.8518142700195312, -0.96240234375, 0.044677734375, -0.205810546875, 
237, 3082652913, 0.8465050458908081, -0.04265667498111725, -0.4970962107181549, -0.18583405017852783, 8.447656631469727, 1.3015824556350708, 4.945201396942139, 1.7313045263290405, 3.695890426635742, -0.12479254603385925, -0.96533203125, 0.044189453125, -0.203857421875, 
238, 3082661246, 0.8465849757194519, -0.042620688676834106, -0.49692341685295105, -0.18594065308570862, 8.336687088012695, 1.22857666015625, 5.063950538635254, -0.8316686749458313, 2.196945905685425, -0.9739813804626465, -0.96728515625, 0.04443359375, -0.20654296875, 
239, 3082669579, 0.8466671705245972, -0.04258090257644653, -0.49674612283706665, -0.18604937195777893, 8.347702980041504, 1.1762059926986694, 4.9664835929870605, -0.8341403603553772, 2.288862466812134, -1.0206375122070312, -0.96337890625, 0.045166015625, -0.206298828125, 
240, 3082677912, 0.8468246459960938, -0.04244637489318848, -0.4964640140533447, -0.1861165463924408, 8.472310066223145, 1.2524689435958862, 4.802043437957764, 0.3503515124320984, 4.228628635406494, -0.9265820980072021, -0.963134765625, 0.043701171875, -0.205810546875, 
241, 3082686245, 0.8469815254211426, -0.042323946952819824, -0.49618732929229736, -0.18616747856140137, 8.40590763092041, 1.360840082168579, 4.707456111907959, 0.35818949341773987, 4.139414310455322, -0.6386013627052307, -0.961669921875, 0.041015625, -0.208251953125, 
242, 3082694578, 0.8470810651779175, -0.042303070425987244, -0.4959942698478699, -0.18623483180999756, 8.261794090270996, 1.3445829153060913, 4.723543167114258, -0.7797614336013794, 2.504995346069336, -0.35377100110054016, -0.964111328125, 0.0419921875, -0.206298828125, 
243, 3082702911, 0.8469880819320679, -0.04246576130390167, -0.4960974156856537, -0.18634551763534546, 8.29682731628418, 1.2237427234649658, 4.872935771942139, -2.2730205059051514, -2.6493959426879883, -0.08835631608963013, -0.965087890625, 0.0439453125, -0.209228515625, 
244, 3082711244, 0.8468677401542664, -0.042652904987335205, -0.4962717592716217, -0.1863856315612793, 8.427851676940918, 1.109931468963623, 4.920220851898193, -2.204899311065674, -3.8217978477478027, 0.6072495579719543, -0.96240234375, 0.044677734375, -0.207275390625, 
245, 3082719577, 0.8468455076217651, -0.04269900918006897, -0.4963318109512329, -0.1863161325454712, 8.485522270202637, 1.156539797782898, 4.929381847381592, -0.18793164193630219, -1.5260705947875977, 1.1644614934921265, -0.962646484375, 0.04345703125, -0.208740234375, 
246, 3082727910, 0.8468641638755798, -0.04274049401283264, -0.496316134929657, -0.186264306306839, 8.428444862365723, 1.1488467454910278, 5.004021644592285, -0.2869562804698944, -0.342820942401886, 1.1512446403503418, -0.964111328125, 0.04296875, -0.205322265625, 
247, 3082736243, 0.846896767616272, -0.04284757375717163, -0.49625083804130554, -0.18626469373703003, 8.390108108520508, 1.099933385848999, 5.004602909088135, -1.2870129346847534, 0.24086347222328186, 1.2070581912994385, -0.962158203125, 0.0419921875, -0.207275390625, 
248, 3082744576, 0.846937894821167, -0.042866289615631104, -0.49619603157043457, -0.18621954321861267, 8.442843437194824, 1.0093305110931396, 4.95847225189209, -0.1530962884426117, 0.32925814390182495, 0.999659538269043, -0.966064453125, 0.0439453125, -0.206787109375, 
249, 3082752909, 0.846961498260498, -0.0427803099155426, -0.4962046146392822, -0.18610912561416626, 8.420270919799805, 1.0437359809875488, 4.984316349029541, 1.69741690158844, -0.27799129486083984, 0.9883123636245728, -0.963623046875, 0.04248046875, -0.207763671875, 
250, 3082761242, 0.8469610810279846, -0.04264029860496521, -0.4962807297706604, -0.1859402358531952, 8.324806213378906, 1.1299057006835938, 5.0143141746521, 2.850288152694702, -1.1454429626464844, 1.174092411994934, -0.962890625, 0.044677734375, -0.207275390625, 
251, 3082769575, 0.8469473123550415, -0.042545825242996216, -0.4963779151439667, -0.1857653260231018, 8.369850158691406, 1.1693922281265259, 4.981186389923096, 2.380446195602417, -1.58877432346344, 1.4999312162399292, -0.962646484375, 0.04150390625, -0.207275390625, 
252, 3082777908, 0.8469123840332031, -0.04248678684234619, -0.496496319770813, -0.185621976852417, 8.40371322631836, 1.1542515754699707, 4.9427971839904785, 1.8200196027755737, -2.065211772918701, 1.3158801794052124, -0.96484375, 0.044921875, -0.209228515625, 
253, 3082786241, 0.8468677401542664, -0.04247075319290161, -0.4966166913509369, -0.1855069100856781, 8.472640037536621, 1.1261464357376099, 4.977696895599365, 0.8150193095207214, -2.272840976715088, 1.0782057046890259, -0.96435546875, 0.044189453125, -0.205810546875, 
254, 3082794574, 0.8468188047409058, -0.04250846803188324, -0.49672311544418335, -0.18543675541877747, 8.504090309143066, 1.1460843086242676, 4.981452465057373, 0.15432576835155487, -2.2255823612213135, 1.0938045978546143, -0.964599609375, 0.04345703125, -0.208740234375, 
255, 3082802907, 0.8467822670936584, -0.04256550967693329, -0.4967975616455078, -0.18539083003997803, 8.510530471801758, 1.1767902374267578, 5.005467891693115, -0.29076001048088074, -1.7858117818832397, 1.0147079229354858, -0.962158203125, 0.04296875, -0.207763671875, 
256, 3082811240, 0.8467852473258972, -0.042628929018974304, -0.49679628014564514, -0.18536624312400818, 8.517698287963867, 1.1698617935180664, 4.966719627380371, -0.6997424960136414, -0.6564288139343262, 0.9339718222618103, -0.966064453125, 0.04345703125, -0.206787109375, 
257, 3082819573, 0.8468152284622192, -0.04264873266220093, -0.4967617392539978, -0.18531706929206848, 8.487957000732422, 1.101223111152649, 4.919417858123779, -0.21241886913776398, 0.01258939690887928, 0.9484823346138, -0.96435546875, 0.044677734375, -0.206787109375, 
258, 3082827906, 0.8468289971351624, -0.04262852668762207, -0.4967615604400635, -0.18525943160057068, 8.43539810180664, 1.0657163858413696, 4.9055986404418945, 0.5084297060966492, -0.40170803666114807, 0.774894654750824, -0.9658203125, 0.04541015625, -0.2060546875, 
259, 3082836239, 0.8468238711357117, -0.042618781328201294, -0.49679064750671387, -0.1852072775363922, 8.453330039978027, 1.057769536972046, 4.9121575355529785, 0.39760980010032654, -0.879810631275177, 0.7189916372299194, -0.9638671875, 0.04541015625, -0.209228515625, 
260, 3082844572, 0.8468142747879028, -0.04260572791099548, -0.4968246519565582, -0.18516254425048828, 8.44558334350586, 1.072168231010437, 4.91211462020874, 0.41118529438972473, -0.9681284427642822, 0.5938404202461243, -0.96240234375, 0.046142578125, -0.207275390625, 
261, 3082852905, 0.8468115329742432, -0.04260610044002533, -0.49683764576911926, -0.18514063954353333, 8.483522415161133, 1.063584804534912, 4.90654993057251, -0.016226617619395256, -0.6923655271530151, 0.4195099472999573, -0.96484375, 0.044921875, -0.206787109375, 
262, 3082861238, 0.8468085527420044, -0.0426391065120697, -0.4968409538269043, -0.1851373016834259, 8.510931968688965, 1.0709809064865112, 4.864734172821045, -0.48317408561706543, -0.6599379777908325, 0.4615685045719147, -0.964599609375, 0.04345703125, -0.206298828125, 
263, 3082869571, 0.8467940092086792, -0.0426906943321228, -0.4968640208244324, -0.18512994050979614, 8.516890525817871, 1.0642786026000977, 4.808391571044922, -0.7042762041091919, -1.0134400129318237, 0.559414803981781, -0.964111328125, 0.04345703125, -0.206298828125, 
264, 3082877904, 0.8467710018157959, -0.04278549551963806, -0.49689239263534546, -0.18513751029968262, 8.532032012939453, 1.1175940036773682, 4.8070526123046875, -1.2234125137329102, -1.239190936088562, 0.691545844078064, -0.963134765625, 0.04296875, -0.206787109375, 
265, 3082886237, 0.8467423915863037, -0.04293665289878845, -0.4969179928302765, -0.1851644217967987, 8.543377876281738, 1.108790636062622, 4.849020957946777, -2.0443105697631836, -1.363637924194336, 0.8357412219047546, -0.96435546875, 0.045654296875, -0.206787109375, 
266, 3082894570, 0.8467248678207397, -0.0430799275636673, -0.4969322085380554, -0.1851736307144165, 8.501383781433105, 1.0710046291351318, 4.874666690826416, -1.8333004713058472, -1.1603376865386963, 1.0264136791229248, -0.962158203125, 0.044677734375, -0.204833984375, 
267, 3082902903, 0.8467299938201904, -0.04319465160369873, -0.4969117045402527, -0.18517813086509705, 8.491778373718262, 1.0760583877563477, 4.916125774383545, -1.6277846097946167, -0.5268591642379761, 0.9230985641479492, -0.966064453125, 0.0439453125, -0.205322265625, 
268, 3082911236, 0.8467328548431396, -0.04330487549304962, -0.49689286947250366, -0.18518975377082825, 8.419283866882324, 1.0545958280563354, 4.953481674194336, -1.5376994609832764, -0.5490155816078186, 0.8446422815322876, -0.963134765625, 0.04296875, -0.207275390625, 
269, 3082919569, 0.8467293977737427, -0.043420955538749695, -0.49687185883522034, -0.18523508310317993, 8.4072847366333, 1.057875156402588, 4.93658971786499, -1.5646966695785522, -0.5099025368690491, 0.6480529308319092, -0.96484375, 0.044921875, -0.207275390625, 
270, 3082927902, 0.8467249870300293, -0.04351764917373657, -0.4968569278717041, -0.18527302145957947, 8.411578178405762, 1.0557438135147095, 4.939628601074219, -1.5538620948791504, -0.5963762402534485, 0.4224940240383148, -0.9638671875, 0.045166015625, -0.205322265625, 
271, 3082936235, 0.8466976284980774, -0.04359917342662811, -0.4968836009502411, -0.1853064000606537, 8.40918254852295, 1.0569827556610107, 4.904397010803223, -1.082188606262207, -1.1609266996383667, 0.3985830843448639, -0.96484375, 0.046142578125, -0.203369140625, 
272, 3082944568, 0.8466357588768005, -0.043626636266708374, -0.4969918131828308, -0.1852928102016449, 8.389518737792969, 1.073353886604309, 5.006103992462158, -0.11673688888549805, -2.2769649028778076, 0.3305773437023163, -0.96484375, 0.044677734375, -0.206298828125, 
273, 3082952901, 0.8465422987937927, -0.043706148862838745, -0.4971472918987274, -0.18528404831886292, 8.39627742767334, 1.0878386497497559, 5.100062847137451, -0.7735756039619446, -3.169992446899414, 0.4578416645526886, -0.96337890625, 0.046142578125, -0.205322265625, 
274, 3082961234, 0.8465287089347839, -0.043774306774139404, -0.49717819690704346, -0.1852475106716156, 8.495646476745605, 1.0266189575195312, 4.969895362854004, -0.6010636687278748, -1.1640901565551758, 1.045432209968567, -0.9638671875, 0.045654296875, -0.205810546875, 
275, 3082969567, 0.8465976119041443, -0.0437488853931427, -0.4970827102661133, -0.18519407510757446, 8.48186206817627, 1.0777835845947266, 4.860908031463623, 0.2166067659854889, 1.1023215055465698, 0.8288125991821289, -0.9638671875, 0.047119140625, -0.206298828125, 
276, 3082977900, 0.8465898036956787, -0.04382269084453583, -0.497082382440567, -0.18521344661712646, 8.410706520080566, 1.143410325050354, 4.918037414550781, -1.1263219118118286, -0.7407764196395874, 0.46625587344169617, -0.96435546875, 0.045654296875, -0.206298828125, 
277, 3082986233, 0.8464776277542114, -0.04398706555366516, -0.4972367286682129, -0.18527323007583618, 8.410172462463379, 1.1108511686325073, 4.926065921783447, -2.313183069229126, -3.470305919647217, 0.14961275458335876, -0.96337890625, 0.044677734375, -0.203857421875, 
278, 3082994566, 0.8463761210441589, -0.044068843126297, -0.49738430976867676, -0.18532118201255798, 8.493334770202637, 1.0392650365829468, 4.989814758300781, -1.094317078590393, -3.106135845184326, -0.14077584445476532, -0.9638671875, 0.045166015625, -0.203857421875, 
279, 3083002899, 0.8463662266731262, -0.044012755155563354, -0.49741464853286743, -0.18529808521270752, 8.507247924804688, 0.9810696244239807, 4.998456954956055, 0.7011640071868896, -0.7975888252258301, 0.0232321098446846, -0.96435546875, 0.044189453125, -0.205322265625, 
280, 3083011232, 0.846415102481842, -0.04390701651573181, -0.4973582625389099, -0.185251384973526, 8.445362091064453, 0.9960546493530273, 4.961198329925537, 1.3085416555404663, 0.7167247533798218, 0.18761146068572998, -0.96533203125, 0.047607421875, -0.2060546875, 
281, 3083019565, 0.8464430570602417, -0.04380658268928528, -0.497337281703949, -0.18520396947860718, 8.437979698181152, 1.0575978755950928, 4.934016704559326, 1.2304693460464478, 0.15065012872219086, 0.10334062576293945, -0.9638671875, 0.048095703125, -0.202392578125, 
282, 3083027898, 0.8464361429214478, -0.04367700219154358, -0.49737077951431274, -0.18517622351646423, 8.406204223632812, 1.0620452165603638, 4.9390950202941895, 1.6505939960479736, -0.6381785869598389, -0.39310160279273987, -0.964111328125, 0.043701171875, -0.204345703125, 
283, 3083036231, 0.8464034795761108, -0.04352949559688568, -0.4974389672279358, -0.18517732620239258, 8.369298934936523, 1.0879266262054443, 5.018705368041992, 2.097728967666626, -1.093740701675415, -0.7196959853172302, -0.96435546875, 0.044677734375, -0.204833984375, 
284, 3083044564, 0.8463694453239441, -0.0433950275182724, -0.4975040555000305, -0.18518966436386108, 8.415104866027832, 1.1685329675674438, 5.0340142250061035, 1.4981253147125244, -1.1555989980697632, -0.9807049036026001, -0.96435546875, 0.045166015625, -0.205322265625, 
285, 3083052897, 0.8463504910469055, -0.04327867925167084, -0.4975323975086212, -0.18522736430168152, 8.43356704711914, 1.1878011226654053, 4.951233863830566, 1.1065607070922852, -0.6296619772911072, -1.0391823053359985, -0.96484375, 0.046630859375, -0.205322265625, 
286, 3083061230, 0.8463599681854248, -0.04317173361778259, -0.4975070059299469, -0.18527734279632568, 8.43408203125, 1.146829605102539, 4.939717769622803, 0.7156104445457458, 0.14707693457603455, -1.0658466815948486, -0.962646484375, 0.044189453125, -0.204833984375, 
287, 3083069563, 0.8463852405548096, -0.0430690199136734, -0.49745768308639526, -0.18531808257102966, 8.426213264465332, 1.133718490600586, 4.877859592437744, 0.607185423374176, 0.523913562297821, -0.9123918414115906, -0.9658203125, 0.04443359375, -0.206787109375, 
288, 3083077896, 0.8464071154594421, -0.04300062358379364, -0.4974070191383362, -0.18536993861198425, 8.459617614746094, 1.139955759048462, 4.831194877624512, 0.19740889966487885, 0.43037036061286926, -0.7790440917015076, -0.96533203125, 0.045166015625, -0.205322265625, 
289, 3083086229, 0.8464303016662598, -0.04298931360244751, -0.49734601378440857, -0.185430645942688, 8.45622730255127, 1.1093058586120605, 4.8276896476745605, -0.49039730429649353, 0.44166624546051025, -0.4349168837070465, -0.966796875, 0.04443359375, -0.2041015625, 
290, 3083094562, 0.8464572429656982, -0.04301053285598755, -0.4972766041755676, -0.1854889988899231, 8.46375846862793, 1.1128321886062622, 4.799314498901367, -0.9350860118865967, 0.45795688033103943, -0.21842537820339203, -0.963623046875, 0.044189453125, -0.202880859375, 
291, 3083102895, 0.8464572429656982, -0.04305271804332733, -0.49725717306137085, -0.18553176522254944, 8.444567680358887, 1.0567610263824463, 4.848447322845459, -0.8416966795921326, -0.33996492624282837, 0.0866529569029808, -0.96484375, 0.044189453125, -0.204345703125, 
292, 3083111228, 0.8464152216911316, -0.04308687150478363, -0.49731600284576416, -0.1855577826499939, 8.454109191894531, 1.0528770685195923, 4.8530964851379395, -0.5780876874923706, -1.558703064918518, -0.002766337478533387, -0.96435546875, 0.045166015625, -0.204345703125, 
293, 3083119561, 0.8463422060012817, -0.04312609136104584, -0.4974210560321808, -0.18559983372688293, 8.471073150634766, 1.0564477443695068, 4.870358943939209, -0.6769329309463501, -2.2995433807373047, -0.2721000015735626, -0.96435546875, 0.044677734375, -0.205322265625, 
294, 3083127894, 0.8462728261947632, -0.04318150877952576, -0.49750930070877075, -0.18566694855690002, 8.499727249145508, 1.0804649591445923, 4.90024471282959, -1.0493768453598022, -2.1196677684783936, -0.4259263277053833, -0.96484375, 0.044189453125, -0.204345703125, 
295, 3083136227, 0.8462246656417847, -0.04322269558906555, -0.4975532293319702, -0.18575912714004517, 8.488081932067871, 1.0726271867752075, 4.933745861053467, -0.9966626167297363, -1.3685556650161743, -0.634246826171875, -0.966552734375, 0.0439453125, -0.204833984375, 
296, 3083144560, 0.8461942672729492, -0.04323001205921173, -0.4975793659687042, -0.18582579493522644, 8.483365058898926, 1.0876187086105347, 4.915591239929199, -0.619877278804779, -1.0060375928878784, -0.6125003695487976, -0.966552734375, 0.043701171875, -0.201416015625, 
297, 3083152893, 0.8461549282073975, -0.04323548078536987, -0.49761831760406494, -0.18589884042739868, 8.457727432250977, 1.134784460067749, 4.905712127685547, -0.4811762273311615, -1.1763978004455566, -0.6465160846710205, -0.965576171875, 0.043701171875, -0.204345703125, 
298, 3083161226, 0.8461100459098816, -0.04320310056209564, -0.49767717719078064, -0.18595343828201294, 8.446249008178711, 1.1349916458129883, 4.913602352142334, 0.00023052813776303083, -1.3924540281295776, -0.798844039440155, -0.964599609375, 0.042724609375, -0.204345703125, 
299, 3083169559, 0.846056342124939, -0.04319794476032257, -0.49773097038269043, -0.1860550045967102, 8.481283187866211, 1.157977819442749, 4.907293796539307, -0.43851569294929504, -1.3903661966323853, -1.0446765422821045, -0.965576171875, 0.043701171875, -0.202880859375, 
300, 3083177892, 0.8460167050361633, -0.04317860305309296, -0.49776241183280945, -0.18615582585334778, 8.458626747131348, 1.1583948135375977, 4.9193949699401855, -0.5355936884880066, -1.042089581489563, -1.2189559936523438, -0.966796875, 0.04443359375, -0.20751953125, 
301, 3083186225, 0.8459847569465637, -0.04313056170940399, -0.4977816343307495, -0.1862609088420868, 8.43431568145752, 1.1342672109603882, 4.92133092880249, -0.44541874527931213, -0.779351532459259, -1.538967251777649, -0.966064453125, 0.041015625, -0.203369140625, 
302, 3083194558, 0.8459620475769043, -0.04310184717178345, -0.4977734684944153, -0.18639293313026428, 8.427898406982422, 1.1019805669784546, 4.941416263580322, -0.7328104972839355, -0.42485055327415466, -1.5775424242019653, -0.965576171875, 0.04296875, -0.205810546875, 
303, 3083202891, 0.8459364771842957, -0.043099284172058105, -0.4977589547634125, -0.1865481734275818, 8.437061309814453, 1.0835227966308594, 4.904514789581299, -1.1750144958496094, -0.4009780287742615, -1.6423463821411133, -0.964111328125, 0.042236328125, -0.203369140625, 
304, 3083211224, 0.8459165096282959, -0.043125540018081665, -0.49773699045181274, -0.18669134378433228, 8.466285705566406, 1.0682623386383057, 4.886444091796875, -1.4816937446594238, -0.3788985311985016, -1.3163795471191406, -0.966064453125, 0.04150390625, -0.203369140625, 
305, 3083219557, 0.8458787202835083, -0.04318802058696747, -0.49774232506752014, -0.1868341863155365, 8.465131759643555, 1.1004287004470825, 4.845088481903076, -1.6391319036483765, -0.8699619770050049, -1.0017727613449097, -0.964111328125, 0.04345703125, -0.205810546875, 
306, 3083227890, 0.8458356261253357, -0.04322606325149536, -0.49777552485466003, -0.18693211674690247, 8.505390167236328, 1.1217756271362305, 4.86450719833374, -1.180201530456543, -1.23601496219635, -0.8017511367797852, -0.963623046875, 0.042724609375, -0.202392578125, 
307, 3083236223, 0.8457856774330139, -0.04324965178966522, -0.4978330731391907, -0.18699851632118225, 8.509100914001465, 1.1075644493103027, 4.890669345855713, -0.7283151745796204, -1.5303481817245483, -0.5525246858596802, -0.963134765625, 0.04248046875, -0.205322265625, 
308, 3083244556, 0.8457388281822205, -0.04323703050613403, -0.4978976547718048, -0.1870417594909668, 8.502241134643555, 1.1052072048187256, 4.956820011138916, -0.13811196386814117, -1.528427243232727, -0.5397175550460815, -0.964599609375, 0.041015625, -0.203369140625, 
309, 3083252889, 0.84571772813797, -0.043200209736824036, -0.4979309141635895, -0.1870572865009308, 8.495983123779297, 1.0905009508132935, 4.982162952423096, 0.26114991307258606, -0.9274402260780334, -0.297637403011322, -0.964111328125, 0.042724609375, -0.203369140625, 
310, 3083261222, 0.8457181453704834, -0.04314890503883362, -0.497921884059906, -0.18709099292755127, 8.494165420532227, 1.071545958518982, 4.994865894317627, 0.2153644859790802, -0.2551305592060089, -0.5289211273193359, -0.966064453125, 0.04150390625, -0.202392578125, 
311, 3083269555, 0.8457404375076294, -0.043082624673843384, -0.49786776304244995, -0.18714946508407593, 8.465117454528809, 1.0867385864257812, 4.960660934448242, 0.3546290695667267, 0.5202507376670837, -0.693569540977478, -0.963623046875, 0.041015625, -0.204833984375, 
312, 3083277888, 0.8457856178283691, -0.04298630356788635, -0.497780442237854, -0.18719986081123352, 8.436256408691406, 1.0873894691467285, 4.966948509216309, 0.44922250509262085, 1.0871449708938599, -0.8698210716247559, -0.966552734375, 0.04296875, -0.204833984375, 
313, 3083286221, 0.8458355665206909, -0.042876437306404114, -0.49768972396850586, -0.18724098801612854, 8.407852172851562, 1.0910087823867798, 4.927457809448242, 0.6486293077468872, 1.2027932405471802, -0.8437456488609314, -0.964599609375, 0.041015625, -0.204345703125, 
314, 3083294554, 0.845883846282959, -0.042757391929626465, -0.4976051151752472, -0.18727484345436096, 8.407486915588379, 1.1164014339447021, 4.911606788635254, 0.8358179926872253, 1.1254382133483887, -0.8267378211021423, -0.966552734375, 0.04150390625, -0.203857421875, 
315, 3083302887, 0.8459135890007019, -0.04265877604484558, -0.49755287170410156, -0.18730229139328003, 8.35742473602295, 1.1231393814086914, 4.9109416007995605, 0.712408721446991, 0.5818529725074768, -0.6733086109161377, -0.966552734375, 0.04248046875, -0.203857421875, 
316, 3083311220, 0.8459377288818359, -0.04258912801742554, -0.4975138306617737, -0.18731310963630676, 8.36698055267334, 1.1018954515457153, 4.8792548179626465, 0.5224791765213013, 0.2904142141342163, -0.3114050626754761, -0.965087890625, 0.04052734375, -0.202880859375, 
317, 3083319553, 0.8459579944610596, -0.04256676137447357, -0.4974859356880188, -0.18730029463768005, 8.388890266418457, 1.0839847326278687, 4.884232997894287, 0.19889453053474426, 0.018903303891420364, 0.29976338148117065, -0.963134765625, 0.0390625, -0.204833984375, 
318, 3083327886, 0.845964789390564, -0.04257398843765259, -0.49748867750167847, -0.18726032972335815, 8.421886444091797, 1.1129251718521118, 4.893767833709717, 0.07251390069723129, -0.5412159562110901, 0.7377923727035522, -0.963134765625, 0.04150390625, -0.204833984375, 
319, 3083336219, 0.8459431529045105, -0.04261566698551178, -0.4975375533103943, -0.18721869587898254, 8.416692733764648, 1.1607705354690552, 4.892888069152832, -0.08556436002254486, -1.3300832509994507, 0.9774648547172546, -0.963623046875, 0.0400390625, -0.203369140625, 
320, 3083344552, 0.8458781838417053, -0.042648136615753174, -0.49767017364501953, -0.1871526539325714, 8.434365272521973, 1.18190336227417, 4.9307661056518555, 0.24953389167785645, -2.6261379718780518, 0.9522861242294312, -0.965087890625, 0.0400390625, -0.204833984375, 
321, 3083352885, 0.845789909362793, -0.042667925357818604, -0.4978444278240204, -0.18708419799804688, 8.440625190734863, 1.1705386638641357, 4.982621192932129, 0.6837847828865051, -3.1982953548431396, 0.9213310480117798, -0.963134765625, 0.0400390625, -0.202880859375, 
322, 3083361218, 0.8457275629043579, -0.04263335466384888, -0.49798622727394104, -0.1869966685771942, 8.482892990112305, 1.1145696640014648, 4.998410224914551, 1.2012948989868164, -2.5530989170074463, 0.7436709403991699, -0.965087890625, 0.0400390625, -0.201904296875, 
323, 3083369551, 0.8457185626029968, -0.04257167875766754, -0.49803346395492554, -0.18692511320114136, 8.48488712310791, 1.065796971321106, 5.001605033874512, 1.2277801036834717, -0.9908098578453064, 0.5935715436935425, -0.966552734375, 0.0390625, -0.203857421875, 
324, 3083377884, 0.8457719087600708, -0.04249103367328644, -0.49797409772872925, -0.18686038255691528, 8.491318702697754, 1.0945852994918823, 4.961411952972412, 1.1329560279846191, 0.7085537314414978, 0.5798678398132324, -0.968017578125, 0.041015625, -0.202880859375, 
325, 3083386217, 0.8458463549613953, -0.04243364930152893, -0.4978718161582947, -0.18680983781814575, 8.40533447265625, 1.155863642692566, 4.932915210723877, 0.6803013682365417, 1.321297526359558, 0.670106828212738, -0.962646484375, 0.040771484375, -0.202880859375, 
326, 3083394550, 0.8459113836288452, -0.04236435890197754, -0.4977901875972748, -0.1867486834526062, 8.42292308807373, 1.2324634790420532, 4.88067102432251, 0.925685703754425, 1.0218926668167114, 0.6582474112510681, -0.963623046875, 0.042724609375, -0.201904296875, 
327, 3083402883, 0.8459467887878418, -0.04227055609226227, -0.4977673292160034, -0.18667033314704895, 8.433931350708008, 1.2161120176315308, 4.8560791015625, 1.4869446754455566, 0.20705267786979675, 0.6005385518074036, -0.964111328125, 0.041015625, -0.202880859375, 
328, 3083411216, 0.8459533452987671, -0.04219628870487213, -0.4977908134460449, -0.18659475445747375, 8.44187068939209, 1.1879298686981201, 4.863561153411865, 1.3176347017288208, -0.5969908833503723, 0.5815584063529968, -0.965576171875, 0.03955078125, -0.201416015625, 
329, 3083419549, 0.8459309339523315, -0.04216945171356201, -0.4978463351726532, -0.18655455112457275, 8.453524589538574, 1.1812138557434082, 4.857517719268799, 0.9114953875541687, -1.2105799913406372, 0.5965682864189148, -0.964111328125, 0.0419921875, -0.205810546875, 
330, 3083427882, 0.8459136486053467, -0.042144834995269775, -0.497893363237381, -0.1865127980709076, 8.469467163085938, 1.2027720212936401, 4.859148025512695, 0.5547658801078796, -1.1413190364837646, 0.45223212242126465, -0.964111328125, 0.043212890625, -0.203369140625, 
331, 3083436215, 0.845901370048523, -0.042125508189201355, -0.4979201555252075, -0.1865006387233734, 8.470280647277832, 1.255294919013977, 4.838447093963623, 0.19263184070587158, -0.8588196635246277, 0.14888273179531097, -0.965087890625, 0.041015625, -0.202392578125, 
332, 3083444548, 0.8458884358406067, -0.042102545499801636, -0.49793726205825806, -0.18651911616325378, 8.465505599975586, 1.2374988794326782, 4.827962398529053, 0.04978126659989357, -0.7327976822853088, -0.20744968950748444, -0.963134765625, 0.041259765625, -0.202880859375, 
333, 3083452881, 0.8458648920059204, -0.042076677083969116, -0.49796584248542786, -0.1865561306476593, 8.465725898742676, 1.2004401683807373, 4.825314998626709, -0.053136736154556274, -0.9100866317749023, -0.49001309275627136, -0.964111328125, 0.0400390625, -0.203369140625, 
334, 3083461214, 0.8458280563354492, -0.04209204018115997, -0.4980056881904602, -0.1866132915019989, 8.46702766418457, 1.1789602041244507, 4.805809020996094, -0.6176744699478149, -1.2367448806762695, -0.4705975353717804, -0.964111328125, 0.041748046875, -0.202880859375, 
335, 3083469547, 0.845771312713623, -0.04215553402900696, -0.4980677366256714, -0.18668997287750244, 8.450491905212402, 1.178051233291626, 4.868457317352295, -1.291456937789917, -1.731432557106018, -0.4419351816177368, -0.963134765625, 0.039794921875, -0.201416015625, 
336, 3083477880, 0.8456975221633911, -0.04226170480251312, -0.4981512427330017, -0.18677785992622375, 8.455060005187988, 1.1503430604934692, 4.894510746002197, -1.792804479598999, -2.2140049934387207, -0.32738837599754333, -0.962646484375, 0.042724609375, -0.203857421875, 
337, 3083486213, 0.8456330299377441, -0.042365700006484985, -0.49821382761001587, -0.1868794560432434, 8.473810195922852, 1.1480892896652222, 4.917319297790527, -2.0139832496643066, -1.8899080753326416, -0.519597589969635, -0.964111328125, 0.041748046875, -0.201904296875, 
338, 3083494546, 0.8455837965011597, -0.042432740330696106, -0.4982472062110901, -0.1869984269142151, 8.49822998046875, 1.126218318939209, 4.876523494720459, -1.6647586822509766, -1.3444013595581055, -0.8618293404579163, -0.963134765625, 0.042724609375, -0.202392578125, 
339, 3083502879, 0.845586359500885, -0.04238523542881012, -0.49822697043418884, -0.18705084919929504, 8.53902816772461, 1.133267879486084, 4.762119770050049, -0.09037983417510986, -0.10728523135185242, -0.7632145881652832, -0.965087890625, 0.0400390625, -0.204345703125, 
340, 3083511212, 0.8455570936203003, -0.0423894077539444, -0.4982292354106903, -0.18717652559280396, 8.485894203186035, 1.1915113925933838, 4.91497802734375, -1.047686219215393, -0.6799939274787903, -1.300088882446289, -0.963623046875, 0.0390625, -0.201904296875, 
341, 3083519545, 0.84540855884552, -0.04251939058303833, -0.4983990788459778, -0.1873655915260315, 8.42194938659668, 1.1161142587661743, 5.055774688720703, -2.4745657444000244, -3.699694871902466, -1.5073211193084717, -0.964111328125, 0.03955078125, -0.203857421875, 
342, 3083527878, 0.8453059792518616, -0.04258699715137482, -0.49851173162460327, -0.18751361966133118, 8.52789306640625, 1.0735095739364624, 4.927516937255859, -1.6999784708023071, -2.6170194149017334, -1.3811323642730713, -0.966064453125, 0.03955078125, -0.200927734375, 
343, 3083536211, 0.845311164855957, -0.04258042573928833, -0.498462975025177, -0.18762102723121643, 8.565422058105469, 1.149018406867981, 4.857781887054443, -0.6836951375007629, 0.21261097490787506, -0.9035934805870056, -0.968017578125, 0.0400390625, -0.200439453125, 
344, 3083544544, 0.8453547954559326, -0.042583197355270386, -0.4983559846878052, -0.18770790100097656, 8.431034088134766, 1.247584581375122, 4.820522785186768, -1.0069211721420288, 1.0729033946990967, -0.6077233552932739, -0.962646484375, 0.0400390625, -0.203369140625, 
345, 3083552877, 0.8453636169433594, -0.042647868394851685, -0.4982929825782776, -0.1878204345703125, 8.313654899597168, 1.1339068412780762, 4.919302463531494, -1.845774531364441, 0.18767550587654114, -0.6137810945510864, -0.965087890625, 0.03955078125, -0.202392578125, 
346, 3083561210, 0.8452883362770081, -0.04279252886772156, -0.4983603358268738, -0.1879480481147766, 8.358266830444336, 1.013689637184143, 5.02655029296875, -2.55334210395813, -2.112367630004883, -0.5188804268836975, -0.965087890625, 0.041015625, -0.201904296875, 
347, 3083569543, 0.8452656269073486, -0.04287928342819214, -0.4983689785003662, -0.18800726532936096, 8.419591903686523, 1.0189650058746338, 4.943054676055908, -1.5356885194778442, -0.945229172706604, 0.05665868893265724, -0.964599609375, 0.042236328125, -0.203369140625, 
348, 3083577876, 0.8452996015548706, -0.042918652296066284, -0.4983041286468506, -0.18801754713058472, 8.400219917297363, 1.1151139736175537, 4.909174919128418, -0.801853597164154, 0.37615785002708435, 0.48424991965293884, -0.965087890625, 0.041259765625, -0.201904296875, 
349, 3083586209, 0.8452609777450562, -0.04305291175842285, -0.4983407258987427, -0.18806353211402893, 8.360416412353516, 1.0975672006607056, 4.931820869445801, -1.974191665649414, -1.5153383016586304, 0.4536409378051758, -0.963623046875, 0.03955078125, -0.201416015625, 
350, 3083594542, 0.8451635241508484, -0.0432094931602478, -0.4984697103500366, -0.18812400102615356, 8.440972328186035, 1.0279004573822021, 4.957255840301514, -2.08685564994812, -3.051231622695923, 0.24794580042362213, -0.963623046875, 0.040283203125, -0.201904296875, 
351, 3083602875, 0.8450745940208435, -0.04326237738132477, -0.49861642718315125, -0.1881219446659088, 8.524706840515137, 1.0211488008499146, 4.977464199066162, -0.3954966068267822, -2.951925277709961, 0.2892359495162964, -0.966552734375, 0.03955078125, -0.201904296875, 
352, 3083611208, 0.84502774477005, -0.0432414710521698, -0.4987250566482544, -0.18804940581321716, 8.49292278289795, 1.0971150398254395, 4.996301651000977, 0.864006519317627, -2.0883541107177734, 0.7200033068656921, -0.966064453125, 0.03857421875, -0.199951171875, 
353, 3083619541, 0.8450226187705994, -0.04323175549507141, -0.49877262115478516, -0.1879481077194214, 8.473078727722168, 1.1736252307891846, 4.923791408538818, 0.9848033785820007, -1.096776008605957, 1.3928381204605103, -0.966552734375, 0.041015625, -0.202392578125, 
354, 3083627874, 0.8450508117675781, -0.043208733201026917, -0.4987741708755493, -0.18782272934913635, 8.501489639282227, 1.1743296384811401, 4.8583760261535645, 1.0214061737060547, -0.35439857840538025, 1.5788999795913696, -0.962646484375, 0.038818359375, -0.199951171875, 
355, 3083636207, 0.8450681567192078, -0.04318368434906006, -0.4987826347351074, -0.18772733211517334, 8.467212677001953, 1.1634881496429443, 4.8580756187438965, 0.9595860838890076, -0.455741286277771, 1.2564808130264282, -0.964111328125, 0.03955078125, -0.202392578125, 
356, 3083644540, 0.8450683355331421, -0.043142497539520264, -0.4988211691379547, -0.1876334249973297, 8.475486755371094, 1.158036708831787, 4.88839054107666, 1.0948548316955566, -0.9107781052589417, 0.9932175278663635, -0.964599609375, 0.03955078125, -0.202392578125, 
357, 3083652873, 0.8450779914855957, -0.043120890855789185, -0.4988257884979248, -0.18758270144462585, 8.489773750305176, 1.1479885578155518, 4.89858865737915, 0.8670546412467957, -0.4105449616909027, 0.9051429629325867, -0.964111328125, 0.041748046875, -0.201904296875, 
358, 3083661206, 0.8451514840126038, -0.043099939823150635, -0.49872320890426636, -0.18752926588058472, 8.537899017333984, 1.1257927417755127, 4.87630033493042, 0.2604326903820038, 1.2036768198013306, 0.9335747957229614, -0.963623046875, 0.042236328125, -0.200927734375, 
359, 3083669539, 0.845268964767456, -0.043063417077064514, -0.4985503554344177, -0.1874677836894989, 8.492328643798828, 1.1027979850769043, 4.826918601989746, 0.28356239199638367, 2.364821434020996, 1.050042748451233, -0.963623046875, 0.041259765625, -0.199462890625, 
360, 3083677872, 0.8453742265701294, -0.042989715933799744, -0.49841558933258057, -0.18736818432807922, 8.430590629577637, 1.1159056425094604, 4.793149948120117, 1.1271672248840332, 1.9048922061920166, 1.2119760513305664, -0.963623046875, 0.042724609375, -0.202880859375, 
361, 3083686205, 0.8454137444496155, -0.04288820922374725, -0.49840596318244934, -0.1872389018535614, 8.411067962646484, 1.129098892211914, 4.776035308837891, 1.8743343353271484, 0.06028309836983681, 1.0920757055282593, -0.963134765625, 0.0390625, -0.203369140625, 
362, 3083694538, 0.8453929424285889, -0.04284171760082245, -0.49848079681396484, -0.1871444582939148, 8.414448738098145, 1.1507242918014526, 4.7991485595703125, 1.2406253814697266, -1.4638407230377197, 0.888019859790802, -0.964111328125, 0.041259765625, -0.201904296875, 
363, 3083702871, 0.8453543186187744, -0.04282388091087341, -0.49856680631637573, -0.18709295988082886, 8.452702522277832, 1.141471266746521, 4.830532073974609, 0.7795179486274719, -1.727820873260498, 0.6276510953903198, -0.965576171875, 0.041015625, -0.202880859375, 
364, 3083711204, 0.8453267812728882, -0.04280447959899902, -0.4986370801925659, -0.18703439831733704, 8.455829620361328, 1.1784616708755493, 4.868675708770752, 0.6633957624435425, -1.5054253339767456, 0.6441851854324341, -0.964599609375, 0.04150390625, -0.203857421875, 
365, 3083719537, 0.8453072309494019, -0.042767420411109924, -0.49869659543037415, -0.18697232007980347, 8.469794273376465, 1.1893028020858765, 4.864182949066162, 0.7374722957611084, -1.2840158939361572, 0.5209295153617859, -0.964599609375, 0.041748046875, -0.201416015625, 
366, 3083727870, 0.8452930450439453, -0.04271689057350159, -0.4987458288669586, -0.18691685795783997, 8.476548194885254, 1.1749475002288818, 4.873854160308838, 0.958855926990509, -1.0870424509048462, 0.43860533833503723, -0.965576171875, 0.03955078125, -0.201904296875, 
367, 3083736203, 0.8452876806259155, -0.04268792271614075, -0.4987717866897583, -0.18687883019447327, 8.46820068359375, 1.1825155019760132, 4.900448799133301, 0.5080327391624451, -0.7884957790374756, 0.4170253276824951, -0.963623046875, 0.041748046875, -0.202392578125, 
368, 3083744536, 0.8453010320663452, -0.042657092213630676, -0.4987637996673584, -0.18684664368629456, 8.46134090423584, 1.1626230478286743, 4.918859958648682, 0.438233882188797, -0.26980751752853394, 0.40857264399528503, -0.966552734375, 0.041748046875, -0.198974609375, 
369, 3083752869, 0.8453196287155151, -0.042611852288246155, -0.4987449645996094, -0.18682292103767395, 8.466813087463379, 1.1483603715896606, 4.932364463806152, 0.6604373455047607, -0.033157624304294586, 0.3180263042449951, -0.965576171875, 0.041259765625, -0.199951171875, 
370, 3083761202, 0.845333456993103, -0.042571693658828735, -0.498734712600708, -0.186796635389328, 8.458694458007812, 1.1698832511901855, 4.935783386230469, 0.5005917549133301, -0.2124188393354416, 0.27925920486450195, -0.963623046875, 0.04052734375, -0.202392578125, 
371, 3083769535, 0.8453377485275269, -0.04258033633232117, -0.49872156977653503, -0.1868104338645935, 8.486906051635742, 1.203608751296997, 4.935441493988037, -0.21815642714500427, -0.3149782419204712, 0.20789793133735657, -0.965087890625, 0.039306640625, -0.199951171875, 
372, 3083777868, 0.845342218875885, -0.04259119927883148, -0.49870383739471436, -0.18683502078056335, 8.501311302185059, 1.1759202480316162, 4.939767837524414, -0.46614062786102295, -0.29042696952819824, 0.019185058772563934, -0.965087890625, 0.041259765625, -0.201904296875, 
373, 3083786201, 0.8453659415245056, -0.04258719086647034, -0.4986543357372284, -0.18686074018478394, 8.50948715209961, 1.165555715560913, 4.925890922546387, -0.3647851347923279, 0.264338880777359, -0.01899295300245285, -0.964111328125, 0.041748046875, -0.201416015625, 
374, 3083794534, 0.8454130291938782, -0.042534440755844116, -0.4985851049423218, -0.18684428930282593, 8.519872665405273, 1.1558278799057007, 4.873403549194336, 0.44824910163879395, 0.7386632561683655, 0.1977674961090088, -0.964111328125, 0.043212890625, -0.200927734375, 
375, 3083802867, 0.8454620242118835, -0.042439788579940796, -0.4985324442386627, -0.1867847442626953, 8.466054916381836, 1.15974760055542, 4.911642551422119, 1.1494132280349731, 0.6416366100311279, 0.3405156433582306, -0.964599609375, 0.041259765625, -0.202392578125, 
376, 3083811200, 0.8454899787902832, -0.04240408539772034, -0.4984995722770691, -0.18675485253334045, 8.403717994689941, 1.145298957824707, 4.995359420776367, 0.42383873462677, 0.1318620890378952, 0.40263012051582336, -0.965087890625, 0.04052734375, -0.201416015625, 
377, 3083819533, 0.8455515503883362, -0.042393893003463745, -0.4984048008918762, -0.18673041462898254, 8.480360984802246, 1.0605520009994507, 4.898982048034668, 0.016213811933994293, 1.044548511505127, 0.680288553237915, -0.964111328125, 0.043701171875, -0.202392578125, 
378, 3083827866, 0.845669150352478, -0.0423455685377121, -0.4982180893421173, -0.1867077350616455, 8.445643424987793, 1.1041759252548218, 4.798780918121338, 0.17953017354011536, 2.573052406311035, 0.5501169562339783, -0.963134765625, 0.041259765625, -0.203857421875, 
379, 3083836199, 0.8456984162330627, -0.04235990345478058, -0.4981542229652405, -0.18674108386039734, 8.371845245361328, 1.1387180089950562, 4.827954292297363, -0.6140884160995483, 0.4335465431213379, 0.07136125862598419, -0.965576171875, 0.04052734375, -0.202880859375, 
380, 3083844532, 0.8456236720085144, -0.0424705445766449, -0.4982423186302185, -0.18681979179382324, 8.39212703704834, 1.1184786558151245, 4.869065761566162, -1.7693672180175781, -2.2884652614593506, -0.19373326003551483, -0.965087890625, 0.0400390625, -0.205322265625, 
381, 3083852865, 0.8455457091331482, -0.04254890978336334, -0.49833908677101135, -0.18689632415771484, 8.490172386169434, 1.090169072151184, 4.931211948394775, -1.3364099264144897, -2.3116464614868164, -0.38076841831207275, -0.964111328125, 0.04052734375, -0.202392578125, 
382, 3083861198, 0.8455302715301514, -0.04254613816738129, -0.4983646869659424, -0.18689903616905212, 8.492053985595703, 1.0941917896270752, 4.934824466705322, -0.05694044008851051, -0.9101505875587463, 0.10295640677213669, -0.964111328125, 0.043212890625, -0.201904296875, 
383, 3083869531, 0.8455668687820435, -0.04251338541507721, -0.4983173906803131, -0.1868671178817749, 8.438179969787598, 1.1166088581085205, 4.88616418838501, 0.30027565360069275, 0.35690873861312866, 0.4402318298816681, -0.964111328125, 0.042236328125, -0.202880859375, 
384, 3083877864, 0.8455806970596313, -0.04252144694328308, -0.49830642342567444, -0.18683162331581116, 8.427836418151855, 1.1570793390274048, 4.854047775268555, 0.002407738007605076, -0.33407366275787354, 0.7184280157089233, -0.964599609375, 0.0419921875, -0.204345703125, 
385, 3083886197, 0.845541775226593, -0.04254436492919922, -0.498384565114975, -0.18679404258728027, 8.399721145629883, 1.1402451992034912, 4.886298179626465, -0.21189375221729279, -1.7890645265579224, 0.5153327584266663, -0.963623046875, 0.041259765625, -0.200927734375, 
386, 3083894530, 0.8454760313034058, -0.04257892072200775, -0.49849733710289, -0.1867828667163849, 8.422869682312012, 1.1469926834106445, 4.963045120239258, -0.20146876573562622, -2.371737003326416, 0.3387482166290283, -0.966552734375, 0.042724609375, -0.202392578125, 
387, 3083902863, 0.8454170823097229, -0.04262307286262512, -0.49859628081321716, -0.1867755949497223, 8.477079391479492, 1.1551315784454346, 4.982694149017334, -0.3071274757385254, -2.1626994609832764, 0.4358261823654175, -0.963134765625, 0.0390625, -0.203369140625, 
388, 3083911196, 0.8453738689422607, -0.042692750692367554, -0.4986592233181, -0.18678760528564453, 8.512439727783203, 1.1369938850402832, 4.985699653625488, -0.8842931389808655, -1.7158846855163574, 0.3986855745315552, -0.967041015625, 0.042236328125, -0.198486328125, 
389, 3083919529, 0.8453513383865356, -0.042790740728378296, -0.49868321418762207, -0.18680191040039062, 8.53790283203125, 1.1022953987121582, 4.984733581542969, -1.346988558769226, -1.180905818939209, 0.6288551092147827, -0.965087890625, 0.041015625, -0.201904296875, 
390, 3083927862, 0.8453457951545715, -0.042840391397476196, -0.4986863434314728, -0.18680793046951294, 8.513506889343262, 1.1587251424789429, 4.959888458251953, -0.7402257919311523, -0.713689386844635, 0.4612739384174347, -0.963134765625, 0.040771484375, -0.200439453125, 
391, 3083936195, 0.8453445434570312, -0.042862892150878906, -0.49869057536125183, -0.1867969036102295, 8.478743553161621, 1.1997748613357544, 4.933166027069092, -0.1804138571023941, -0.6039708256721497, 0.5621300339698792, -0.964599609375, 0.043212890625, -0.201904296875, 
392, 3083944528, 0.8453537821769714, -0.04285788536071777, -0.4986874461174011, -0.18676429986953735, 8.475753784179688, 1.2249815464019775, 4.9314703941345215, 0.15232785046100616, -0.4223915636539459, 0.5782157778739929, -0.963134765625, 0.041748046875, -0.200439453125, 
393, 3083952861, 0.8453826308250427, -0.04284384846687317, -0.49864572286605835, -0.18674907088279724, 8.476038932800293, 1.1989810466766357, 4.903252601623535, 0.1405453234910965, 0.22212666273117065, 0.4507081210613251, -0.964599609375, 0.040283203125, -0.201416015625, 
394, 3083961194, 0.8454179167747498, -0.04282519221305847, -0.4985898733139038, -0.18674272298812866, 8.452141761779785, 1.132724404335022, 4.8837971687316895, 0.010220078751444817, 0.41999658942222595, 0.27668496966362, -0.965576171875, 0.043212890625, -0.199462890625, 
395, 3083969527, 0.8454437851905823, -0.04281845688819885, -0.49854156374931335, -0.1867559552192688, 8.427414894104004, 1.103583574295044, 4.884805202484131, -0.17882578074932098, 0.273944228887558, 0.14961273968219757, -0.963623046875, 0.040771484375, -0.201904296875, 
396, 3083977860, 0.8454648852348328, -0.04283428192138672, -0.49849045276641846, -0.18679296970367432, 8.432572364807129, 1.110586166381836, 4.868632793426514, -0.6836823225021362, 0.204888254404068, -0.03031444363296032, -0.963134765625, 0.042236328125, -0.202392578125, 
397, 3083986193, 0.8454805016517639, -0.04285958409309387, -0.4984452426433563, -0.18683746457099915, 8.446792602539062, 1.172930359840393, 4.856358528137207, -0.8227932453155518, 0.09546424448490143, -0.0544174388051033, -0.964599609375, 0.042236328125, -0.200439453125, 
398, 3083994526, 0.8455144762992859, -0.04287722706794739, -0.49837303161621094, -0.18687212467193604, 8.459466934204102, 1.1595038175582886, 4.872044086456299, -0.7363964319229126, 0.5321869254112244, 0.05430217459797859, -0.965576171875, 0.042236328125, -0.200439453125, 
399, 3084002859, 0.8455445766448975, -0.042868971824645996, -0.49831435084342957, -0.18689391016960144, 8.444503784179688, 1.1755479574203491, 4.832911014556885, -0.31755250692367554, 0.42212262749671936, 0.016444338485598564, -0.963623046875, 0.041748046875, -0.200927734375, 
400, 3084011192, 0.845553994178772, -0.04286344349384308, -0.4982984662055969, -0.18689566850662231, 8.430469512939453, 1.2132437229156494, 4.829620838165283, -0.10947524756193161, -0.25007179379463196, 0.18294967710971832, -0.963623046875, 0.04150390625, -0.204345703125, 
401, 3084019525, 0.8455311059951782, -0.042892128229141235, -0.4983319342136383, -0.18690276145935059, 8.421643257141113, 1.195883870124817, 4.825772762298584, -0.7063636779785156, -1.150591254234314, 0.0921984389424324, -0.965087890625, 0.040771484375, -0.200927734375, 
402, 3084027858, 0.8455038666725159, -0.04295259714126587, -0.4983590543270111, -0.18693962693214417, 8.466126441955566, 1.1495330333709717, 4.873640060424805, -1.0288852453231812, -1.1486318111419678, 0.10716995596885681, -0.966064453125, 0.041015625, -0.202392578125, 
403, 3084036191, 0.8455178737640381, -0.04300491511821747, -0.49831849336624146, -0.18697240948677063, 8.502326965332031, 1.1051642894744873, 4.890455722808838, -1.122326135635376, -0.05608236417174339, 0.21918100118637085, -0.963623046875, 0.040771484375, -0.201416015625, 
404, 3084044524, 0.8455734848976135, -0.04305166006088257, -0.49820953607559204, -0.187000572681427, 8.51672649383545, 1.090071678161621, 4.877201557159424, -1.1102105379104614, 1.0307424068450928, 0.4088800251483917, -0.963134765625, 0.04052734375, -0.202880859375, 
405, 3084052857, 0.8456387519836426, -0.04309013485908508, -0.49809208512306213, -0.1870097517967224, 8.5042085647583, 1.1135116815567017, 4.8693623542785645, -0.8555282354354858, 1.2252569198608398, 0.6368722915649414, -0.965576171875, 0.04150390625, -0.202392578125, 
406, 3084061190, 0.8456946015357971, -0.04313504695892334, -0.49799293279647827, -0.18701070547103882, 8.497112274169922, 1.1594114303588867, 4.8562798500061035, -0.8787091374397278, 0.9063084721565247, 0.7079262137413025, -0.965087890625, 0.041015625, -0.203369140625, 
407, 3084069523, 0.845703661441803, -0.04318508505821228, -0.49796104431152344, -0.18704268336296082, 8.472549438476562, 1.1309503316879272, 4.850034236907959, -0.8252265453338623, -0.15346768498420715, 0.33347171545028687, -0.962646484375, 0.042236328125, -0.201904296875, 
408, 3084077856, 0.8456934094429016, -0.04321357607841492, -0.4979681372642517, -0.18706360459327698, 8.435920715332031, 1.1087982654571533, 4.907021522521973, -0.5888327360153198, -0.7288146018981934, 0.1290445178747177, -0.964111328125, 0.044189453125, -0.201904296875, 
409, 3084086189, 0.8456852436065674, -0.04323139786720276, -0.49797001481056213, -0.1870911717414856, 8.471219062805176, 1.107181429862976, 4.95081901550293, -0.5386929512023926, -0.6098237633705139, -0.01636749692261219, -0.963623046875, 0.041748046875, -0.202880859375, 
410, 3084094522, 0.8457357883453369, -0.04326625168323517, -0.4978671669960022, -0.18712878227233887, 8.485997200012207, 1.0517611503601074, 4.920633792877197, -1.0248767137527466, 0.9595476984977722, 0.19980381429195404, -0.964111328125, 0.042236328125, -0.202392578125, 
411, 3084102855, 0.8458495736122131, -0.04329344630241394, -0.4976729154586792, -0.18712455034255981, 8.470393180847168, 1.0101314783096313, 4.913137912750244, -0.8698592782020569, 2.463564395904541, 0.8484587073326111, -0.964111328125, 0.042236328125, -0.201416015625, 
412, 3084111188, 0.8460018634796143, -0.043294355273246765, -0.4974435269832611, -0.1870463788509369, 8.459477424621582, 0.9816394448280334, 4.883327484130859, -0.10382730513811111, 3.14601731300354, 1.6516315937042236, -0.96435546875, 0.044189453125, -0.205322265625, 
413, 3084119521, 0.8461773991584778, -0.04329441487789154, -0.49719804525375366, -0.18690454959869385, 8.48316478729248, 0.9799486398696899, 4.813328266143799, 0.31619495153427124, 3.471177339553833, 2.4594149589538574, -0.965087890625, 0.0419921875, -0.204345703125, 
414, 3084127854, 0.8463243842124939, -0.04330085217952728, -0.4970147907733917, -0.1867246925830841, 8.477396965026855, 1.0113182067871094, 4.781314373016357, 0.643058180809021, 2.4991166591644287, 2.8323323726654053, -0.96337890625, 0.044677734375, -0.206298828125, 
415, 3084136187, 0.8464187383651733, -0.04330506920814514, -0.49693068861961365, -0.18651935458183289, 8.488241195678711, 1.1255172491073608, 4.797435760498047, 0.7099753618240356, 0.94575434923172, 2.7165687084198, -0.965576171875, 0.043701171875, -0.204345703125, 
416, 3084144520, 0.8464453816413879, -0.04334487020969391, -0.49693429470062256, -0.18637993931770325, 8.51096248626709, 1.145011305809021, 4.806232929229736, 0.3858528435230255, -0.5596325993537903, 2.1683473587036133, -0.963623046875, 0.043701171875, -0.206298828125, 
417, 3084152853, 0.8464391231536865, -0.04335692524909973, -0.49698129296302795, -0.18628031015396118, 8.48161792755127, 1.1320163011550903, 4.911525726318359, 0.5144619345664978, -1.181520700454712, 1.4037113189697266, -0.96435546875, 0.047119140625, -0.202392578125, 
418, 3084161186, 0.8464432954788208, -0.04332730174064636, -0.49700403213500977, -0.1862075924873352, 8.484538078308105, 1.0869743824005127, 4.995309352874756, 0.7750611901283264, -0.7187995314598083, 0.8474726676940918, -0.962646484375, 0.044677734375, -0.203369140625, 
419, 3084169519, 0.8465085029602051, -0.04322624206542969, -0.49692606925964355, -0.1861431896686554, 8.451654434204102, 1.0463998317718506, 5.064903259277344, 1.343671441078186, 1.075387954711914, 0.4909224212169647, -0.962158203125, 0.044677734375, -0.204345703125, 
420, 3084177852, 0.8466318249702454, -0.043065235018730164, -0.49675342440605164, -0.18608012795448303, 8.369922637939453, 1.0216765403747559, 5.074709415435791, 1.8086085319519043, 2.71230411529541, 0.25999727845191956, -0.963134765625, 0.043212890625, -0.203369140625, 
421, 3084186185, 0.8467820882797241, -0.04287208616733551, -0.4965370297431946, -0.18601825833320618, 8.306575775146484, 1.0371309518814087, 5.034956455230713, 2.068131685256958, 3.5015299320220947, 0.12147550284862518, -0.961669921875, 0.042724609375, -0.206787109375, 
422, 3084194518, 0.8469230532646179, -0.0426906943321228, -0.4963414669036865, -0.18594038486480713, 8.268918991088867, 1.086247205734253, 4.9846720695495605, 2.098177194595337, 3.143263578414917, 0.35018500685691833, -0.964111328125, 0.04345703125, -0.205810546875, 
423, 3084202851, 0.847036600112915, -0.042552873492240906, -0.4961816668510437, -0.18588131666183472, 8.243401527404785, 1.1297531127929688, 4.920405387878418, 1.6635931730270386, 2.471748113632202, 0.42135417461395264, -0.961669921875, 0.04248046875, -0.209228515625, 
424, 3084211184, 0.8471168279647827, -0.04246318340301514, -0.49607861042022705, -0.18581148982048035, 8.302101135253906, 1.1440329551696777, 4.87628173828125, 1.1750530004501343, 1.4196945428848267, 0.6739104986190796, -0.96435546875, 0.04443359375, -0.206787109375, 
425, 3084219517, 0.8471540808677673, -0.04245556890964508, -0.49603408575057983, -0.18576166033744812, 8.397615432739258, 1.1839958429336548, 4.823341369628906, 0.20429913699626923, 0.26305821537971497, 0.859818696975708, -0.962646484375, 0.04345703125, -0.208740234375, 
426, 3084227850, 0.8471412658691406, -0.042544811964035034, -0.4960602819919586, -0.18572998046875, 8.453211784362793, 1.2532309293746948, 4.7942681312561035, -0.891695499420166, -1.1542413234710693, 1.1386808156967163, -0.96533203125, 0.045166015625, -0.205810546875, 
427, 3084236183, 0.8470539450645447, -0.042691901326179504, -0.4961991310119629, -0.18572357296943665, 8.450392723083496, 1.3292776346206665, 4.826726913452148, -1.473855972290039, -3.091343879699707, 0.9969061613082886, -0.963623046875, 0.043701171875, -0.206298828125, 
428, 3084244516, 0.8469260931015015, -0.04282262921333313, -0.49639976024627686, -0.18573996424674988, 8.499536514282227, 1.3206875324249268, 4.911323070526123, -1.32462739944458, -4.048880577087402, 0.4649239778518677, -0.963134765625, 0.0439453125, -0.208251953125, 
429, 3084252849, 0.8468149304389954, -0.04291483759880066, -0.4965694546699524, -0.18577244877815247, 8.536107063293457, 1.2179347276687622, 4.9775190353393555, -1.1855162382125854, -3.4660534858703613, 0.010220078751444817, -0.96337890625, 0.04541015625, -0.208740234375, 
430, 3084261182, 0.8467535376548767, -0.042965784668922424, -0.49663883447647095, -0.1858551800251007, 8.539681434631348, 1.0957903861999512, 5.0160956382751465, -1.143842101097107, -1.8231574296951294, -0.605763852596283, -0.9638671875, 0.045654296875, -0.207275390625, 
431, 3084269515, 0.8467755317687988, -0.04298494756221771, -0.4965571463108063, -0.18596810102462769, 8.517097473144531, 1.0164191722869873, 5.041152477264404, -1.4030452966690063, 0.6066091060638428, -0.9152222275733948, -0.96630859375, 0.044921875, -0.20556640625, 
432, 3084277848, 0.8468682169914246, -0.0429665744304657, -0.4963590204715729, -0.18607953190803528, 8.458002090454102, 1.0123533010482788, 5.002122402191162, -1.126219391822815, 2.5385501384735107, -0.8628026843070984, -0.961669921875, 0.04443359375, -0.208740234375, 
433, 3084286181, 0.8470237255096436, -0.042905405163764954, -0.4960702061653137, -0.186155766248703, 8.41669750213623, 1.0044862031936646, 4.955262184143066, -0.579919159412384, 4.1266584396362305, -0.5209551453590393, -0.964111328125, 0.0419921875, -0.204345703125, 
434, 3084294514, 0.8471987247467041, -0.04283379018306732, -0.4957733750343323, -0.18616703152656555, 8.397292137145996, 1.038375973701477, 4.880456447601318, -0.024961072951555252, 4.3271918296813965, 0.21070270240306854, -0.964599609375, 0.04345703125, -0.207275390625, 
435, 3084302847, 0.8473320007324219, -0.04281279444694519, -0.4955572783946991, -0.18614020943641663, 8.360671997070312, 1.0667883157730103, 4.856513500213623, -0.07070810347795486, 2.9790892601013184, 0.9134292602539062, -0.962890625, 0.044921875, -0.209228515625, 
436, 3084311180, 0.8474162817001343, -0.04282982647418976, -0.49544036388397217, -0.18606367707252502, 8.384236335754395, 1.0858105421066284, 4.846078395843506, -0.05464796721935272, 1.3315303325653076, 1.4994828701019287, -0.9619140625, 0.046142578125, -0.207763671875, 
437, 3084319513, 0.8474619388580322, -0.04288603365421295, -0.4954071342945099, -0.18593120574951172, 8.43226432800293, 1.0409584045410156, 4.917922496795654, -0.09645041078329086, -0.04212261363863945, 2.1850223541259766, -0.965087890625, 0.0439453125, -0.207275390625, 
438, 3084327846, 0.8474653363227844, -0.04299953579902649, -0.49543946981430054, -0.18580353260040283, 8.413229942321777, 1.0120484828948975, 5.0447678565979, -0.496365487575531, -1.2341835498809814, 2.4587106704711914, -0.963134765625, 0.04443359375, -0.207763671875, 
439, 3084336179, 0.8474664092063904, -0.043141916394233704, -0.495471328496933, -0.18568113446235657, 8.425230979919434, 1.019018530845642, 5.044525623321533, -0.7928502559661865, -1.2899713516235352, 2.641263246536255, -0.96240234375, 0.045166015625, -0.207763671875, 
440, 3084344512, 0.8475407361984253, -0.04320742189884186, -0.4953839182853699, -0.18556010723114014, 8.420578002929688, 1.0214165449142456, 5.056270599365234, -0.2452947497367859, 0.7700151801109314, 2.304973840713501, -0.96484375, 0.04541015625, -0.207275390625, 
441, 3084352845, 0.8476424813270569, -0.04313477873802185, -0.4952663779258728, -0.18542546033859253, 8.429718017578125, 0.9790192246437073, 5.032743453979492, 1.5107147693634033, 1.682253360748291, 1.687145709991455, -0.9609375, 0.046142578125, -0.208251953125, 
442, 3084361178, 0.8477609157562256, -0.042919695377349854, -0.49514472484588623, -0.18525826930999756, 8.468135833740234, 1.040629506111145, 4.8900017738342285, 3.278813362121582, 2.1597023010253906, 1.0656672716140747, -0.96337890625, 0.045166015625, -0.207763671875, 
