sep=,
PacketCounter,SampleTimeFine,Quat_W,Quat_X,Quat_Y,Quat_Z,Acc_X,Acc_Y,Acc_Z,Gyr_X,Gyr_Y,Gyr_Z,Mag_X,Mag_Y,Mag_Z,
0, 3363849998, 0.845568835735321, -0.06358949840068817, -0.49868541955947876, -0.1797446310520172, 0, 0, 0, 0, 0, 0, -0.916748046875, 0.12109375, -0.134765625, 
1, 3363858331, 0.8455854058265686, -0.06357724964618683, -0.49862584471702576, -0.17983606457710266, 8.58922004699707, 0.6843911409378052, 4.893660545349121, -0.8096275925636292, 0.4288335144519806, -0.8677461743354797, -0.916748046875, 0.122802734375, -0.1337890625, 
2, 3363866664, 0.8456296920776367, -0.06354479491710663, -0.4985348880290985, -0.17989128828048706, 8.591601371765137, 0.6966726183891296, 4.837510585784912, -0.3388634920120239, 0.990476667881012, -0.46163251996040344, -0.917236328125, 0.12158203125, -0.1328125, 
3, 3363874997, 0.8456810712814331, -0.06345082819461823, -0.4984683394432068, -0.1798674762248993, 8.60844612121582, 0.6951562166213989, 4.828798294067383, 0.9977768659591675, 0.8549007177352905, 0.03450237587094307, -0.915283203125, 0.12158203125, -0.134765625, 
4, 3363883330, 0.8457080721855164, -0.0633791983127594, -0.49843764305114746, -0.179851233959198, 8.511947631835938, 0.7499755620956421, 4.956483840942383, 0.7395597100257874, 0.20491386950016022, 0.004713018890470266, -0.916748046875, 0.12158203125, -0.13330078125, 
5, 3363891663, 0.8457533121109009, -0.06334120035171509, -0.4983515441417694, -0.17989003658294678, 8.508678436279297, 0.7240608334541321, 4.951019287109375, -0.17856962978839874, 0.9519274234771729, -0.33430418372154236, -0.916259765625, 0.1201171875, -0.1318359375, 
6, 3363899996, 0.8458274602890015, -0.06326466798782349, -0.4982200562953949, -0.17993271350860596, 8.606735229492188, 0.6761900186538696, 4.799947261810303, 0.18393582105636597, 1.764231562614441, -0.5079687237739563, -0.916748046875, 0.1201171875, -0.13427734375, 
7, 3363908329, 0.8458826541900635, -0.06322911381721497, -0.49811169505119324, -0.17998608946800232, 8.55427074432373, 0.6665806174278259, 4.793999671936035, -0.41811394691467285, 1.2808910608291626, -0.47807684540748596, -0.920166015625, 0.1220703125, -0.13427734375, 
8, 3363916662, 0.845799446105957, -0.06330010294914246, -0.4982108771800995, -0.18007779121398926, 8.490519523620605, 0.680694043636322, 4.950023174285889, -1.4330013990402222, -2.3194077014923096, -0.6595537662506104, -0.915771484375, 0.12060546875, -0.13623046875, 
9, 3363924995, 0.8457790613174438, -0.06332018971443176, -0.49821871519088745, -0.18014484643936157, 8.570937156677246, 0.676459014415741, 4.895755767822266, -0.7769438028335571, -0.701048731803894, -0.4540250897407532, -0.915771484375, 0.12158203125, -0.13671875, 
10, 3363933328, 0.845854640007019, -0.06321367621421814, -0.49809861183166504, -0.1801595389842987, 8.592294692993164, 0.6525452136993408, 4.848915100097656, 0.7553381323814392, 1.6908468008041382, -0.3953685164451599, -0.916748046875, 0.1181640625, -0.1337890625, 
11, 3363941661, 0.8459060192108154, -0.06313225626945496, -0.4980277419090271, -0.18014264106750488, 8.493121147155762, 0.6528828740119934, 4.886664867401123, 0.5331858992576599, 0.8580256104469299, -0.10510800778865814, -0.916259765625, 0.1201171875, -0.13720703125, 
12, 3363949994, 0.8458952903747559, -0.06314989924430847, -0.49803099036216736, -0.18017807602882385, 8.5172119140625, 0.6882250905036926, 4.870020389556885, -0.6001031398773193, -0.6239500045776367, -0.1090526133775711, -0.918212890625, 0.119140625, -0.13525390625, 
13, 3363958327, 0.8458684086799622, -0.06316861510276794, -0.4980611801147461, -0.180214524269104, 8.577988624572754, 0.7315858006477356, 4.919689178466797, -0.2916564345359802, -1.0123897790908813, -0.018788039684295654, -0.917236328125, 0.12158203125, -0.13671875, 
14, 3363966660, 0.8458619713783264, -0.06314504146575928, -0.49807342886924744, -0.18021875619888306, 8.567704200744629, 0.7389745116233826, 4.938315391540527, 0.1190805733203888, -0.6241548657417297, -0.02465369924902916, -0.919189453125, 0.12158203125, -0.1357421875, 
15, 3363974993, 0.845888078212738, -0.06310462951660156, -0.49803441762924194, -0.18021833896636963, 8.570700645446777, 0.7213996648788452, 4.93050479888916, 0.23746956884860992, 0.24669069051742554, 0.03048093616962433, -0.914794921875, 0.12255859375, -0.13671875, 
16, 3363983326, 0.845952033996582, -0.06306827068328857, -0.49792301654815674, -0.18023890256881714, 8.565693855285645, 0.7342250347137451, 4.8751702308654785, -0.09091773629188538, 1.341699481010437, -0.019069798290729523, -0.915283203125, 0.1201171875, -0.1357421875, 
17, 3363991659, 0.8460146188735962, -0.06306341290473938, -0.4978097379207611, -0.18025940656661987, 8.553446769714355, 0.7330232262611389, 4.83560037612915, -0.48401939868927, 1.2899584770202637, 0.18037545680999756, -0.916748046875, 0.12109375, -0.13525390625, 
18, 3363999992, 0.8460659384727478, -0.06305217742919922, -0.4977150559425354, -0.18028423190116882, 8.528334617614746, 0.716707706451416, 4.834728240966797, -0.3807940185070038, 1.0020544528961182, 0.05834922567009926, -0.917236328125, 0.12109375, -0.13671875, 
19, 3364008325, 0.8461290001869202, -0.06303997337818146, -0.4976019561290741, -0.1803046464920044, 8.531174659729004, 0.7003849148750305, 4.834113121032715, -0.3720083236694336, 1.3106802701950073, 0.1422102302312851, -0.914794921875, 0.119140625, -0.138916015625, 
20, 3364016658, 0.8461939692497253, -0.06305460631847382, -0.497477263212204, -0.1803390085697174, 8.511605262756348, 0.7024810314178467, 4.855515003204346, -0.8104472160339355, 1.3890342712402344, 0.18391020596027374, -0.916259765625, 0.119140625, -0.13525390625, 
21, 3364024991, 0.8462464809417725, -0.06310360133647919, -0.49735957384109497, -0.1803998053073883, 8.480074882507324, 0.7005494236946106, 4.868124961853027, -1.0007610321044922, 1.208146572113037, 0.28813451528549194, -0.914306640625, 0.119140625, -0.136962890625, 
22, 3364033324, 0.8463066816329956, -0.06311637163162231, -0.49725204706192017, -0.18040940165519714, 8.492005348205566, 0.6997912526130676, 4.829248905181885, -0.5801495909690857, 1.1396541595458984, 0.4325987994670868, -0.916748046875, 0.12060546875, -0.13720703125, 
23, 3364041657, 0.8463670015335083, -0.06309372186660767, -0.4971647262573242, -0.18037542700767517, 8.51384162902832, 0.697202205657959, 4.830221176147461, 0.14725622534751892, 0.9675777554512024, 0.6571587324142456, -0.916259765625, 0.11962890625, -0.13671875, 
24, 3364049990, 0.846417248249054, -0.06308357417583466, -0.49709004163742065, -0.18034899234771729, 8.504179954528809, 0.6944981217384338, 4.871701240539551, 0.005788816604763269, 0.7157129049301147, 0.6395362019538879, -0.917724609375, 0.12060546875, -0.13623046875, 
25, 3364058323, 0.8464685678482056, -0.06309154629707336, -0.4970129430294037, -0.18031761050224304, 8.519686698913574, 0.7005923390388489, 4.879676818847656, -0.1504708230495453, 0.7193245887756348, 0.8364328145980835, -0.917724609375, 0.1181640625, -0.1376953125, 
26, 3364066656, 0.846523642539978, -0.06309688091278076, -0.49693048000335693, -0.18028470873832703, 8.527541160583496, 0.6953636407852173, 4.88623571395874, -0.14509184658527374, 0.7945535182952881, 0.8409408926963806, -0.915283203125, 0.11962890625, -0.136962890625, 
27, 3364074989, 0.8465680480003357, -0.06308501958847046, -0.4968762695789337, -0.18022990226745605, 8.55321216583252, 0.7144545912742615, 4.887287139892578, 0.11749248951673508, 0.4186902940273285, 0.8376367092132568, -0.916748046875, 0.11962890625, -0.13720703125, 
28, 3364083322, 0.8466142416000366, -0.06307397782802582, -0.496817946434021, -0.18017759919166565, 8.556480407714844, 0.6856501698493958, 4.883303165435791, 0.23080986738204956, 0.47755178809165955, 0.9110214114189148, -0.914306640625, 0.11962890625, -0.136474609375, 
29, 3364091655, 0.8466778993606567, -0.06303133070468903, -0.49673640727996826, -0.18011772632598877, 8.556867599487305, 0.7015794515609741, 4.889254093170166, 0.5719146132469177, 0.9492636322975159, 0.8219351768493652, -0.915771484375, 0.11865234375, -0.137451171875, 
30, 3364099988, 0.8467532396316528, -0.06296278536319733, -0.49663910269737244, -0.1800559163093567, 8.564325332641602, 0.6825380325317383, 4.868694305419922, 0.891836404800415, 1.2645747661590576, 0.7346931099891663, -0.915771484375, 0.119140625, -0.13818359375, 
31, 3364108321, 0.8468431234359741, -0.06286659836769104, -0.4965255856513977, -0.1799803078174591, 8.56931209564209, 0.6913699507713318, 4.8887410163879395, 1.2461837530136108, 1.6202284097671509, 0.7333099246025085, -0.915283203125, 0.12158203125, -0.13671875, 
32, 3364116654, 0.8469506502151489, -0.06277051568031311, -0.49638086557388306, -0.17990756034851074, 8.508078575134277, 0.6907069087028503, 4.8970136642456055, 1.1997708082199097, 2.0945017337799072, 0.7959879636764526, -0.918212890625, 0.12109375, -0.1396484375, 
33, 3364124987, 0.8470780253410339, -0.06268666684627533, -0.49619701504707336, -0.17984387278556824, 8.512116432189941, 0.6908124685287476, 4.867208957672119, 0.8656074404716492, 2.6743052005767822, 0.8232414126396179, -0.914306640625, 0.12109375, -0.139404296875, 
34, 3364133320, 0.8472180366516113, -0.06261719763278961, -0.49598997831344604, -0.1797795593738556, 8.51705551147461, 0.7016773223876953, 4.841029644012451, 0.7045195698738098, 2.9834437370300293, 1.0119928121566772, -0.917236328125, 0.120849609375, -0.14111328125, 
35, 3364141653, 0.8473609685897827, -0.06254556775093079, -0.4957812428474426, -0.17970669269561768, 8.472245216369629, 0.7105684280395508, 4.899752140045166, 0.8655562996864319, 3.044175148010254, 1.1457760334014893, -0.915283203125, 0.12060546875, -0.14013671875, 
36, 3364149986, 0.8474860191345215, -0.062477126717567444, -0.49559953808784485, -0.17964208126068115, 8.47319507598877, 0.7020760774612427, 4.944016933441162, 0.7453486919403076, 2.582913875579834, 0.9653492569923401, -0.916748046875, 0.12109375, -0.1416015625, 
37, 3364158319, 0.8476198315620422, -0.06239558756351471, -0.4953972399234772, -0.17959675192832947, 8.476751327514648, 0.6913600564002991, 4.939924716949463, 0.6857699155807495, 2.9440746307373047, 0.6631525754928589, -0.915771484375, 0.12353515625, -0.14111328125, 
38, 3364166652, 0.8477915525436401, -0.06229250133037567, -0.4951316714286804, -0.17955505847930908, 8.509065628051758, 0.6879605054855347, 4.897834300994873, 0.8254955410957336, 3.985011100769043, 0.6489621996879578, -0.916748046875, 0.120361328125, -0.14111328125, 
39, 3364174985, 0.8479685187339783, -0.062190860509872437, -0.49484628438949585, -0.17954134941101074, 8.45358943939209, 0.7181736826896667, 4.904324054718018, 0.7632274031639099, 4.302064895629883, 0.46971386671066284, -0.913818359375, 0.1201171875, -0.141845703125, 
40, 3364183318, 0.8481419682502747, -0.06209969520568848, -0.49456775188446045, -0.17952120304107666, 8.443617820739746, 0.7400281429290771, 4.844850540161133, 0.5095183849334717, 4.136699199676514, 0.4946109354496002, -0.916748046875, 0.121826171875, -0.14501953125, 
41, 3364191651, 0.8483171463012695, -0.062027350068092346, -0.4942849278450012, -0.1794968545436859, 8.403636932373047, 0.7447031140327454, 4.8531317710876465, 0.2643645405769348, 4.159470558166504, 0.6464776992797852, -0.914306640625, 0.12353515625, -0.14453125, 
42, 3364199984, 0.8484744429588318, -0.061983734369277954, -0.4940214455127716, -0.17949426174163818, 8.413778305053711, 0.7351562976837158, 4.85961389541626, -0.14186443388462067, 3.7484381198883057, 0.5627447366714478, -0.914306640625, 0.12255859375, -0.14404296875, 
43, 3364208317, 0.8486867547035217, -0.06194211542606354, -0.49366843700408936, -0.17947587370872498, 8.428110122680664, 0.7646766901016235, 4.809595584869385, -0.2523898780345917, 5.162779331207275, 0.9510308504104614, -0.911865234375, 0.121826171875, -0.147705078125, 
44, 3364216650, 0.8488322496414185, -0.06192690134048462, -0.49342066049575806, -0.17947471141815186, 8.370660781860352, 0.7807789444923401, 4.905172348022461, -0.45435813069343567, 3.4158122539520264, 0.6939665675163269, -0.914794921875, 0.121826171875, -0.1484375, 
45, 3364224983, 0.8489031791687012, -0.06198599934577942, -0.4932699501514435, -0.1795332431793213, 8.442349433898926, 0.7328391671180725, 4.968104362487793, -1.3999332189559937, 1.6744024753570557, 0.3209207355976105, -0.914306640625, 0.120849609375, -0.146240234375, 
46, 3364233316, 0.8489856123924255, -0.06200315058231354, -0.49310749769210815, -0.1795840561389923, 8.522936820983887, 0.7172806859016418, 4.981134414672852, -1.0257091522216797, 1.955723524093628, 0.07948096841573715, -0.915771484375, 0.123291015625, -0.146484375, 
47, 3364241649, 0.8490886688232422, -0.061995550990104675, -0.4929111897945404, -0.1796380579471588, 8.524794578552246, 0.6741468906402588, 5.059677600860596, -0.8479719758033752, 2.5689280033111572, -0.06525225192308426, -0.915771484375, 0.120849609375, -0.14794921875, 
48, 3364249982, 0.8492057919502258, -0.0620105117559433, -0.4926786422729492, -0.17971691489219666, 8.504088401794434, 0.6796643733978271, 5.074103832244873, -1.335436463356018, 3.040998697280884, -0.1183505728840828, -0.916748046875, 0.120849609375, -0.1474609375, 
49, 3364258315, 0.8493529558181763, -0.062014684081077576, -0.4924015700817108, -0.1797792911529541, 8.518187522888184, 0.6689139008522034, 5.037655830383301, -1.2124881744384766, 3.788191080093384, 0.09159649908542633, -0.913818359375, 0.1220703125, -0.14453125, 
50, 3364266648, 0.8495070934295654, -0.062016576528549194, -0.4921167492866516, -0.17983102798461914, 8.488330841064453, 0.6601508855819702, 5.03425931930542, -1.0946626663208008, 3.9092955589294434, 0.24576856195926666, -0.914794921875, 0.121337890625, -0.14892578125, 
51, 3364274981, 0.8496437072753906, -0.06204213201999664, -0.49186205863952637, -0.179873526096344, 8.437731742858887, 0.6460849046707153, 5.090690612792969, -1.115999460220337, 3.3995728492736816, 0.5219925045967102, -0.912353515625, 0.121337890625, -0.153564453125, 
52, 3364283314, 0.8497823476791382, -0.06206771731376648, -0.491610586643219, -0.17989718914031982, 8.456104278564453, 0.6436073780059814, 5.028876304626465, -1.1146162748336792, 3.3334364891052246, 0.6682241559028625, -0.914306640625, 0.121337890625, -0.150390625, 
53, 3364291647, 0.8499207496643066, -0.06205865740776062, -0.49137288331985474, -0.1798950731754303, 8.439070701599121, 0.6310538053512573, 5.0140814781188965, -0.6622944474220276, 3.235179901123047, 0.6199412941932678, -0.913818359375, 0.122802734375, -0.15234375, 
54, 3364299980, 0.8500292897224426, -0.06204588711261749, -0.4911867380142212, -0.17989540100097656, 8.424178123474121, 0.6270738244056702, 5.018128395080566, -0.37259745597839355, 2.4411134719848633, 0.5500401258468628, -0.915771484375, 0.122314453125, -0.150390625, 
55, 3364308313, 0.8501082062721252, -0.06201007962226868, -0.491061806678772, -0.17987513542175293, 8.417258262634277, 0.6199440360069275, 5.011324882507324, 0.12932626903057098, 1.576300024986267, 0.4850054979324341, -0.913818359375, 0.121826171875, -0.15185546875, 
56, 3364316646, 0.8501582741737366, -0.0619654655456543, -0.4909932613372803, -0.1798410713672638, 8.384648323059082, 0.6502652764320374, 5.05633020401001, 0.4722496271133423, 0.7216042280197144, 0.49189576506614685, -0.912841796875, 0.123291015625, -0.152099609375, 
57, 3364324979, 0.8501655459403992, -0.06194140017032623, -0.4909927546977997, -0.1798158586025238, 8.38182258605957, 0.659384548664093, 5.047968864440918, 0.39456167817115784, -0.385199636220932, 0.4125172197818756, -0.914306640625, 0.124267578125, -0.1513671875, 
58, 3364333312, 0.8501501083374023, -0.06192503869533539, -0.49103298783302307, -0.17978474497795105, 8.411086082458496, 0.6785047054290771, 5.061960220336914, 0.3375187814235687, -1.0599298477172852, 0.3946384787559509, -0.914306640625, 0.121826171875, -0.15087890625, 
59, 3364341645, 0.8501337766647339, -0.06192861497402191, -0.4910770654678345, -0.17974039912223816, 8.448652267456055, 0.7237961888313293, 5.0611371994018555, 0.18903306126594543, -1.158390998840332, 0.6667898297309875, -0.914794921875, 0.122314453125, -0.15234375, 
60, 3364349978, 0.85011887550354, -0.0619485080242157, -0.4911147952079773, -0.17970097064971924, 8.483365058898926, 0.7449114918708801, 5.0783610343933105, -0.035616591572761536, -1.1233762502670288, 0.7395085096359253, -0.911376953125, 0.122802734375, -0.150146484375, 
61, 3364358311, 0.8501520752906799, -0.06198146939277649, -0.49106669425964355, -0.1796642243862152, 8.499329566955566, 0.7501901984214783, 5.0663371086120605, -0.37959012389183044, 0.18875128030776978, 0.9839964509010315, -0.912841796875, 0.121826171875, -0.149169921875, 
62, 3364366644, 0.8502112627029419, -0.06200967729091644, -0.4909670948982239, -0.17964670062065125, 8.459732055664062, 0.7538882493972778, 5.077245235443115, -0.5590946674346924, 0.980538547039032, 0.8405823111534119, -0.913330078125, 0.122314453125, -0.151123046875, 
63, 3364374977, 0.8502718806266785, -0.06207700073719025, -0.4908517897129059, -0.17965084314346313, 8.437673568725586, 0.7302238941192627, 5.115070343017578, -1.2587475776672363, 1.1048699617385864, 0.8281850218772888, -0.913818359375, 0.122802734375, -0.15087890625, 
64, 3364383310, 0.8503408432006836, -0.062161073088645935, -0.49071699380874634, -0.17966434359550476, 8.462838172912598, 0.7234894633293152, 5.095180511474609, -1.4987528324127197, 1.3451571464538574, 0.9080501794815063, -0.911376953125, 0.120849609375, -0.152587890625, 
65, 3364391643, 0.8504079580307007, -0.06226423382759094, -0.4905707538127899, -0.17970946431159973, 8.464326858520508, 0.7035775780677795, 5.085433483123779, -1.6745946407318115, 1.4863941669464111, 0.8426827192306519, -0.912353515625, 0.123779296875, -0.153076171875, 
66, 3364399976, 0.8504818677902222, -0.0622805655002594, -0.490448921918869, -0.1796869933605194, 8.42933177947998, 0.6544278860092163, 4.963071823120117, -0.4290768802165985, 1.3637787103652954, 0.8731892108917236, -0.912841796875, 0.122802734375, -0.153076171875, 
67, 3364408309, 0.8505633473396301, -0.06218716502189636, -0.49034106731414795, -0.17962798476219177, 8.376306533813477, 0.6988696455955505, 4.900144577026367, 1.2104519605636597, 1.5101383924484253, 0.6040349006652832, -0.914306640625, 0.121337890625, -0.1533203125, 
68, 3364416642, 0.8504956960678101, -0.062256619334220886, -0.490429162979126, -0.17968326807022095, 8.266952514648438, 0.6702333688735962, 5.145017147064209, -1.1774736642837524, -2.1096270084381104, -0.20807726681232452, -0.913330078125, 0.121337890625, -0.152099609375, 
69, 3364424975, 0.8503631353378296, -0.06238262355327606, -0.49061161279678345, -0.1797684133052826, 8.361292839050293, 0.6183258891105652, 5.120415210723877, -1.803920865058899, -3.746760606765747, -0.38694146275520325, -0.913818359375, 0.123291015625, -0.15234375, 
70, 3364433308, 0.8504093885421753, -0.062329694628715515, -0.4905407428741455, -0.1797615885734558, 8.524456977844238, 0.6910938024520874, 4.858217239379883, 0.37845033407211304, 0.7664035558700562, 0.11126822978258133, -0.912841796875, 0.122314453125, -0.152099609375, 
71, 3364441641, 0.8504406213760376, -0.06235261261463165, -0.490480899810791, -0.17976972460746765, 8.43853759765625, 0.7554907202720642, 4.90811014175415, -0.6482579112052917, 0.37089410424232483, 0.3638501763343811, -0.911865234375, 0.124755859375, -0.154052734375, 
72, 3364449974, 0.8503818511962891, -0.06255513429641724, -0.4905095398426056, -0.17989900708198547, 8.347354888916016, 0.7583226561546326, 4.965935230255127, -3.371511936187744, -1.6209840774536133, -0.1020343005657196, -0.913818359375, 0.121826171875, -0.1533203125, 
73, 3364458307, 0.8502945899963379, -0.06281048059463501, -0.4905690848827362, -0.1800599992275238, 8.399158477783203, 0.6531673669815063, 5.116708278656006, -4.016606330871582, -2.25347638130188, -0.1396103948354721, -0.912109375, 0.126220703125, -0.15283203125, 
74, 3364466640, 0.8502614498138428, -0.06305021047592163, -0.4905627965927124, -0.18014976382255554, 8.46792221069336, 0.6266371607780457, 5.105835437774658, -3.604243040084839, -1.1653836965560913, 0.7056978344917297, -0.914794921875, 0.121826171875, -0.15087890625, 
75, 3364474973, 0.8503175973892212, -0.06313441693782806, -0.4904647767543793, -0.1801222264766693, 8.439685821533203, 0.6695482134819031, 4.974278926849365, -1.2474771738052368, 0.7988823652267456, 1.2596311569213867, -0.916748046875, 0.122802734375, -0.15380859375, 
76, 3364483306, 0.8502910137176514, -0.06320804357528687, -0.4905107021331787, -0.1800970435142517, 8.354159355163574, 0.6850963234901428, 5.005855083465576, -0.7536091208457947, -1.4206550121307373, 0.8981375694274902, -0.913330078125, 0.124755859375, -0.15185546875, 
77, 3364491639, 0.8501701354980469, -0.06329132616519928, -0.49071112275123596, -0.1800919473171234, 8.360902786254883, 0.622925341129303, 4.989016056060791, -0.780145525932312, -3.863074779510498, 0.3084721863269806, -0.913818359375, 0.121826171875, -0.15283203125, 
78, 3364499972, 0.8500404357910156, -0.06328658759593964, -0.49094972014427185, -0.18005555868148804, 8.46646499633789, 0.5983419418334961, 4.9997968673706055, 0.6265498399734497, -4.183535099029541, 0.07615111768245697, -0.913330078125, 0.122802734375, -0.14892578125, 
79, 3364508305, 0.8499298691749573, -0.06322889029979706, -0.4911681115627289, -0.18000227212905884, 8.479331016540527, 0.6573626399040222, 5.034926891326904, 1.4479470252990723, -3.679574489593506, 0.052611637860536575, -0.913330078125, 0.121826171875, -0.152587890625, 
80, 3364516638, 0.8498413562774658, -0.06318975985050201, -0.49133968353271484, -0.1799655556678772, 8.487227439880371, 0.6796237826347351, 5.010228157043457, 0.9007757902145386, -3.0366575717926025, 0.011167808435857296, -0.915283203125, 0.124267578125, -0.15087890625, 
81, 3364524971, 0.8497704267501831, -0.06321534514427185, -0.49145281314849854, -0.17998206615447998, 8.526006698608398, 0.6722248196601868, 5.004788875579834, -0.34414008259773254, -2.337491273880005, -0.08881735801696777, -0.913330078125, 0.121826171875, -0.151123046875, 
82, 3364533304, 0.8496997356414795, -0.06326301395893097, -0.4915620684623718, -0.180000901222229, 8.528474807739258, 0.6795690655708313, 5.028695106506348, -0.6279714703559875, -2.3551650047302246, 0.04513228312134743, -0.913330078125, 0.122314453125, -0.150146484375, 
83, 3364541637, 0.8496430516242981, -0.06327687203884125, -0.49166393280029297, -0.17998579144477844, 8.502432823181152, 0.695052444934845, 5.074387550354004, 0.2007131278514862, -2.0904674530029297, 0.37665730714797974, -0.914306640625, 0.123779296875, -0.150390625, 
84, 3364549970, 0.8496307134628296, -0.06325125694274902, -0.4917057752609253, -0.1799384355545044, 8.488357543945312, 0.7052702903747559, 5.060328960418701, 0.5605931282043457, -1.048582673072815, 0.5251174569129944, -0.914306640625, 0.124755859375, -0.150390625, 
85, 3364558303, 0.8496485352516174, -0.0632217675447464, -0.4916985034942627, -0.17988410592079163, 8.467592239379883, 0.690635621547699, 5.040272235870361, 0.49251049757003784, -0.25976675748825073, 0.6552633047103882, -0.914306640625, 0.122802734375, -0.1484375, 
86, 3364566636, 0.8496840000152588, -0.063213050365448, -0.49165618419647217, -0.17983558773994446, 8.42695140838623, 0.6954851150512695, 4.986368656158447, 0.20450405776500702, 0.21323849260807037, 0.8460381627082825, -0.913330078125, 0.122802734375, -0.150390625, 
87, 3364574969, 0.8497011661529541, -0.06319916248321533, -0.4916478097438812, -0.17978188395500183, 8.416701316833496, 0.6786977052688599, 4.953929901123047, 0.5217107534408569, -0.27034541964530945, 0.885560929775238, -0.915283203125, 0.123291015625, -0.15087890625, 
88, 3364583302, 0.8496882915496826, -0.0631951242685318, -0.49169012904167175, -0.1797286868095398, 8.412208557128906, 0.6791841387748718, 4.9559831619262695, 0.3491988778114319, -1.1180229187011719, 0.7395597696304321, -0.914306640625, 0.124267578125, -0.14892578125, 
89, 3364591635, 0.8496924042701721, -0.06319844722747803, -0.4917031228542328, -0.1796727478504181, 8.40638542175293, 0.6738407015800476, 4.927364826202393, 0.197383314371109, -0.6691078543663025, 0.866042971611023, -0.91357421875, 0.125732421875, -0.14990234375, 
90, 3364599968, 0.8497034311294556, -0.06321237981319427, -0.4916982650756836, -0.17962852120399475, 8.364198684692383, 0.6929103136062622, 4.911563873291016, -0.01819891296327114, -0.4408594071865082, 0.8568729758262634, -0.914794921875, 0.124755859375, -0.1494140625, 
91, 3364608301, 0.8497360944747925, -0.0632292777299881, -0.49165666103363037, -0.1795821487903595, 8.38914680480957, 0.6966153979301453, 4.857975006103516, -0.12370393425226212, 0.1383424699306488, 0.9720601439476013, -0.9140625, 0.125732421875, -0.14990234375, 
92, 3364616634, 0.8498201966285706, -0.0631960779428482, -0.49153682589530945, -0.1795240044593811, 8.413468360900879, 0.7100996375083923, 4.786012172698975, 0.407496839761734, 1.5000720024108887, 0.9803078174591064, -0.913818359375, 0.12353515625, -0.14697265625, 
93, 3364624967, 0.8498834371566772, -0.06316930055618286, -0.49144497513771057, -0.1794852614402771, 8.412623405456543, 0.6978599429130554, 4.79495096206665, 0.407035768032074, 1.0607877969741821, 0.8115100860595703, -0.915283203125, 0.124755859375, -0.1474609375, 
94, 3364633300, 0.8499389290809631, -0.0631941705942154, -0.49133917689323425, -0.1795034110546112, 8.421249389648438, 0.6795558333396912, 4.827003002166748, -0.7781732082366943, 1.066602349281311, 0.3973023593425751, -0.914306640625, 0.124755859375, -0.1513671875, 
95, 3364641633, 0.8499658703804016, -0.06325185298919678, -0.49126842617988586, -0.17954903841018677, 8.42473316192627, 0.6587911248207092, 4.920161724090576, -1.3184542655944824, 0.4190232753753662, 0.17087256908416748, -0.914794921875, 0.124755859375, -0.15087890625, 
96, 3364649966, 0.8499851226806641, -0.0633050799369812, -0.49120309948921204, -0.179618239402771, 8.422601699829102, 0.6457300782203674, 5.046323776245117, -1.3848719596862793, 0.3232516050338745, -0.1314394474029541, -0.91552734375, 0.125732421875, -0.150390625, 
97, 3364658299, 0.8500486612319946, -0.0632958710193634, -0.49107664823532104, -0.17966604232788086, 8.456313133239746, 0.6502506732940674, 5.098160266876221, -0.6165729761123657, 1.4865219593048096, -0.14183881878852844, -0.914306640625, 0.124755859375, -0.150390625, 
98, 3364666632, 0.850149393081665, -0.06326761841773987, -0.49089473485946655, -0.17969632148742676, 8.467357635498047, 0.6526870131492615, 5.100735664367676, -0.3868646025657654, 2.402769088745117, 0.0771244615316391, -0.914306640625, 0.122802734375, -0.15087890625, 
99, 3364674965, 0.8502731919288635, -0.06323675811290741, -0.4906768798828125, -0.17971694469451904, 8.453974723815918, 0.6345665454864502, 5.066730976104736, -0.19012166559696198, 3.0052926540374756, 0.3580101728439331, -0.912353515625, 0.124267578125, -0.1533203125, 
100, 3364683298, 0.8504083752632141, -0.06315319240093231, -0.4904681146144867, -0.17967632412910461, 8.449483871459961, 0.6185096502304077, 5.023652076721191, 0.7008823156356812, 3.025092601776123, 0.6403558850288391, -0.914794921875, 0.124755859375, -0.1494140625, 
101, 3364691631, 0.8505109548568726, -0.06305171549320221, -0.49033790826797485, -0.17958220839500427, 8.428460121154785, 0.6168820261955261, 5.025586128234863, 1.6022216081619263, 1.910719394683838, 1.0940351486206055, -0.914794921875, 0.124755859375, -0.15283203125, 
102, 3364699964, 0.85052090883255, -0.0630449503660202, -0.4903472661972046, -0.1795119345188141, 8.348942756652832, 0.6370397806167603, 5.221775531768799, 0.4331367015838623, -0.5854772925376892, 1.0044363737106323, -0.913330078125, 0.125244140625, -0.1513671875, 
103, 3364708297, 0.8505575656890869, -0.06304676830768585, -0.49030643701553345, -0.17944863438606262, 8.403109550476074, 0.6244646310806274, 5.154417514801025, 0.16728655993938446, 0.17773717641830444, 1.077590823173523, -0.9140625, 0.126220703125, -0.15234375, 
104, 3364716630, 0.8506523370742798, -0.06295588612556458, -0.49019181728363037, -0.17934414744377136, 8.460465431213379, 0.6356134414672852, 5.048240661621094, 1.41559636592865, 1.6147470474243164, 1.1557143926620483, -0.912841796875, 0.125244140625, -0.1513671875, 
105, 3364724963, 0.8507270812988281, -0.06288003921508789, -0.4901062250137329, -0.17925012111663818, 8.381707191467285, 0.6378436088562012, 5.032799243927002, 1.2283819913864136, 1.1257201433181763, 1.058995008468628, -0.914794921875, 0.124755859375, -0.15283203125, 
106, 3364733296, 0.8506563901901245, -0.06290961802005768, -0.4902484118938446, -0.17918646335601807, 8.3671293258667, 0.6416955590248108, 5.169617176055908, 0.22181926667690277, -2.7679128646850586, 0.8606126308441162, -0.915283203125, 0.123779296875, -0.1533203125, 
107, 3364741629, 0.8506060838699341, -0.06291590631008148, -0.49036258459091187, -0.17911073565483093, 8.490928649902344, 0.6498104333877563, 5.123254776000977, 0.5280119180679321, -2.241617202758789, 0.9187057018280029, -0.909423828125, 0.122314453125, -0.153076171875, 
108, 3364749962, 0.8506488800048828, -0.06281168758869171, -0.4903508126735687, -0.17897635698318481, 8.499701499938965, 0.6694551110267639, 5.081714630126953, 1.9824137687683105, 0.06662262976169586, 1.1976191997528076, -0.914306640625, 0.124755859375, -0.15283203125, 
109, 3364758295, 0.8506882786750793, -0.06272779405117035, -0.49034616351127625, -0.1788308322429657, 8.430595397949219, 0.6443845629692078, 5.073687553405762, 1.8076224327087402, -0.08704998344182968, 1.4305294752120972, -0.914306640625, 0.123779296875, -0.15087890625, 
110, 3364766628, 0.8506885766983032, -0.06270165741443634, -0.49039125442504883, -0.1787146031856537, 8.416302680969238, 0.6726242899894714, 5.061898231506348, 1.0496457815170288, -1.0611850023269653, 1.3575544357299805, -0.913330078125, 0.124267578125, -0.1513671875, 
111, 3364774961, 0.850667417049408, -0.0626661628484726, -0.49048149585723877, -0.1785806119441986, 8.471795082092285, 0.664866030216217, 5.067838191986084, 1.3442094326019287, -1.7151421308517456, 1.3924922943115234, -0.912353515625, 0.125244140625, -0.1533203125, 
112, 3364783294, 0.8506366014480591, -0.06261898577213287, -0.49059274792671204, -0.17843857407569885, 8.455052375793457, 0.6848065853118896, 5.112958908081055, 1.6041938066482544, -2.014982223510742, 1.3841676712036133, -0.915771484375, 0.124267578125, -0.15478515625, 
113, 3364791627, 0.850621223449707, -0.06254059076309204, -0.4906778931617737, -0.17830437421798706, 8.39465618133545, 0.6874396800994873, 5.121708393096924, 1.952854871749878, -1.5025949478149414, 1.188987135887146, -0.9140625, 0.126220703125, -0.15283203125, 
114, 3364799960, 0.8506372570991516, -0.06247285008430481, -0.4906972646713257, -0.1781984567642212, 8.393363952636719, 0.6927750110626221, 5.079268932342529, 1.4175171852111816, -0.5431370139122009, 1.0167570114135742, -0.91357421875, 0.125732421875, -0.15185546875, 
115, 3364808293, 0.8506546020507812, -0.062414079904556274, -0.49070969223976135, -0.1781018078327179, 8.342135429382324, 0.6902535557746887, 5.044413089752197, 1.2818130254745483, -0.44969630241394043, 1.0045390129089355, -0.912353515625, 0.124755859375, -0.1513671875, 
116, 3364816626, 0.85064297914505, -0.062381401658058167, -0.4907694458961487, -0.17800447344779968, 8.303065299987793, 0.6678763031959534, 5.042139053344727, 1.0234166383743286, -1.2802635431289673, 1.0505422353744507, -0.913330078125, 0.125244140625, -0.15185546875, 
117, 3364824959, 0.8506098985671997, -0.062354832887649536, -0.49086475372314453, -0.17790836095809937, 8.270956039428711, 0.6510810852050781, 5.029195785522461, 0.958791971206665, -1.8475162982940674, 0.958740770816803, -0.9140625, 0.125732421875, -0.15185546875, 
118, 3364833292, 0.850540280342102, -0.062340185046195984, -0.49102213978767395, -0.17781326174736023, 8.285354614257812, 0.6527422070503235, 5.0988240242004395, 0.986173689365387, -2.8568196296691895, 0.9191924333572388, -0.91455078125, 0.126708984375, -0.15234375, 
119, 3364841625, 0.8504427075386047, -0.062327802181243896, -0.49122950434684753, -0.17771053314208984, 8.232192993164062, 0.6265336871147156, 5.130672454833984, 1.0476222038269043, -3.634749174118042, 0.8742393851280212, -0.91357421875, 0.128173828125, -0.15380859375, 
120, 3364849958, 0.8503693342208862, -0.06228135526180267, -0.491408109664917, -0.17758437991142273, 8.187104225158691, 0.613525390625, 5.102976322174072, 1.6170011758804321, -3.0785624980926514, 1.0420640707015991, -0.9130859375, 0.126953125, -0.150390625, 
121, 3364858291, 0.8502697348594666, -0.06222665309906006, -0.4916366934776306, -0.1774478256702423, 8.20765209197998, 0.6222372055053711, 5.083995342254639, 1.836668848991394, -3.821247100830078, 0.9694988131523132, -0.91259765625, 0.1259765625, -0.150390625, 
122, 3364866624, 0.8500886559486389, -0.06221391260623932, -0.4919966459274292, -0.1773219108581543, 8.233388900756836, 0.6310132145881653, 5.099469184875488, 1.573175072669983, -6.008011341094971, 0.8495729565620422, -0.916015625, 0.125732421875, -0.15087890625, 
123, 3364874957, 0.8498402833938599, -0.06220254302024841, -0.4924755096435547, -0.17718693614006042, 8.291433334350586, 0.6327041387557983, 5.1104888916015625, 1.825911045074463, -7.8571038246154785, 0.6790847182273865, -0.912353515625, 0.125732421875, -0.15087890625, 
124, 3364883290, 0.8495336771011353, -0.062192291021347046, -0.4930559992790222, -0.17704594135284424, 8.362923622131348, 0.6306874752044678, 5.181851863861084, 2.075495958328247, -9.454894065856934, 0.548759400844574, -0.916015625, 0.125732421875, -0.14794921875, 
125, 3364891623, 0.8492104411125183, -0.062194257974624634, -0.49366188049316406, -0.17690807580947876, 8.454834938049316, 0.6923055052757263, 5.213314056396484, 1.885719895362854, -9.887158393859863, 0.4830332100391388, -0.91455078125, 0.1259765625, -0.14697265625, 
126, 3364899956, 0.8489082455635071, -0.0621832013130188, -0.49422532320022583, -0.17678967118263245, 8.595292091369629, 0.6962311863899231, 5.203251361846924, 1.8929948806762695, -9.205667495727539, 0.302017480134964, -0.9150390625, 0.12646484375, -0.1435546875, 
127, 3364908289, 0.8486649990081787, -0.062167271971702576, -0.4946783185005188, -0.17669615149497986, 8.69804573059082, 0.7304745316505432, 5.195054054260254, 1.5489954948425293, -7.474196910858154, 0.20473460853099823, -0.915771484375, 0.1240234375, -0.14306640625, 
128, 3364916622, 0.8485218286514282, -0.06215296685695648, -0.4949454069137573, -0.17663967609405518, 8.753799438476562, 0.7427957653999329, 5.11690616607666, 0.926569402217865, -4.602609157562256, 0.19817735254764557, -0.916015625, 0.12548828125, -0.14404296875, 
129, 3364924955, 0.848464846611023, -0.06209614872932434, -0.49506497383117676, -0.1765989065170288, 8.772153854370117, 0.7223635911941528, 5.035970211029053, 1.0780261754989624, -2.165645122528076, 0.08532100915908813, -0.913818359375, 0.12548828125, -0.14208984375, 
130, 3364933288, 0.8484711050987244, -0.061993688344955444, -0.4950898289680481, -0.17653504014015198, 8.722870826721191, 0.6940332055091858, 4.953107833862305, 1.5439748764038086, -0.5527679920196533, 0.2559886574745178, -0.915283203125, 0.12353515625, -0.14404296875, 
131, 3364941621, 0.8485022783279419, -0.06194382905960083, -0.4950571656227112, -0.17649483680725098, 8.654747009277344, 0.6529830098152161, 4.959409236907959, 0.9597397446632385, 0.2160048484802246, 0.6225795745849609, -0.9130859375, 0.12646484375, -0.14306640625, 
132, 3364949954, 0.8485465049743652, -0.061906054615974426, -0.49501052498817444, -0.17642608284950256, 8.587423324584961, 0.6478618383407593, 4.91886043548584, 0.6823375821113586, 0.3784759044647217, 0.9063853025436401, -0.9150390625, 0.12744140625, -0.14404296875, 
133, 3364958287, 0.8485777378082275, -0.06186270713806152, -0.49499186873435974, -0.17634281516075134, 8.57256031036377, 0.648297905921936, 4.9231157302856445, 0.8283131718635559, -0.030083922669291496, 0.930898129940033, -0.9140625, 0.1279296875, -0.14404296875, 
134, 3364966620, 0.8485840559005737, -0.061804890632629395, -0.49502497911453247, -0.17623978853225708, 8.503849029541016, 0.657049834728241, 4.926639080047607, 1.3087080717086792, -0.7909803986549377, 1.0093032121658325, -0.91357421875, 0.12646484375, -0.1435546875, 
135, 3364974953, 0.8485524654388428, -0.0617266446352005, -0.4951285719871521, -0.17612779140472412, 8.45648193359375, 0.6643247604370117, 4.947592735290527, 1.7091865539550781, -1.8213640451431274, 0.7926580905914307, -0.914794921875, 0.125, -0.1435546875, 
136, 3364983286, 0.8484730124473572, -0.06165848672389984, -0.49530646204948425, -0.1760351061820984, 8.42031192779541, 0.6710962057113647, 4.977921485900879, 1.6382098197937012, -3.029844045639038, 0.4879767894744873, -0.91650390625, 0.12548828125, -0.14306640625, 
137, 3364991619, 0.8483591079711914, -0.061595186591148376, -0.49553942680358887, -0.17595091462135315, 8.362695693969727, 0.666050374507904, 4.999135971069336, 1.5234836339950562, -3.910486936569214, 0.22453439235687256, -0.914306640625, 0.125, -0.14453125, 
138, 3364999952, 0.8482268452644348, -0.06151820719242096, -0.495805561542511, -0.17586544156074524, 8.369978904724121, 0.6523688435554504, 4.956668853759766, 1.861642837524414, -4.390933036804199, 0.14021232724189758, -0.9150390625, 0.12548828125, -0.146484375, 
139, 3365008285, 0.848074197769165, -0.06141364574432373, -0.49611830711364746, -0.1757553517818451, 8.404561042785645, 0.6522975564002991, 4.918262004852295, 2.16353178024292, -5.042635440826416, -0.023731587454676628, -0.915771484375, 0.1240234375, -0.1435546875, 
140, 3365016618, 0.8478863835334778, -0.06132026016712189, -0.4964767098426819, -0.1756824553012848, 8.492377281188965, 0.684500515460968, 4.897889137268066, 2.141657590866089, -5.796668529510498, -0.3305132985115051, -0.9150390625, 0.12646484375, -0.14111328125, 
141, 3365024951, 0.8476997017860413, -0.06120213866233826, -0.4968312978744507, -0.17562273144721985, 8.590474128723145, 0.6711798310279846, 4.834872245788574, 2.306741237640381, -5.665445804595947, -0.6684930920600891, -0.916015625, 0.12744140625, -0.14013671875, 
142, 3365033284, 0.8475178480148315, -0.06107404828071594, -0.4971703290939331, -0.17558491230010986, 8.660700798034668, 0.6804652810096741, 4.833934783935547, 2.2658095359802246, -5.41591215133667, -0.9453573226928711, -0.915771484375, 0.1240234375, -0.14013671875, 
143, 3365041617, 0.8473806381225586, -0.060943737626075745, -0.4974284768104553, -0.17556145787239075, 8.724357604980469, 0.6854296922683716, 4.783690452575684, 1.9226558208465576, -4.15051794052124, -1.0245822668075562, -0.915771484375, 0.1240234375, -0.14013671875, 
144, 3365049950, 0.8472911715507507, -0.060850903391838074, -0.49758678674697876, -0.1755770444869995, 8.738001823425293, 0.7053813934326172, 4.807484149932861, 1.130714774131775, -2.7191429138183594, -0.9515816569328308, -0.914794921875, 0.12353515625, -0.13916015625, 
145, 3365058283, 0.847231924533844, -0.060775384306907654, -0.49768948554992676, -0.17559757828712463, 8.710041046142578, 0.7537257075309753, 4.778412818908691, 0.7421212196350098, -1.894697666168213, -0.8042229413986206, -0.912841796875, 0.125244140625, -0.13671875, 
146, 3365066616, 0.8471843004226685, -0.06073065102100372, -0.4977644979953766, -0.17563027143478394, 8.689071655273438, 0.7760436534881592, 4.767148017883301, 0.28554749488830566, -1.5636591911315918, -0.6523817181587219, -0.917724609375, 0.123046875, -0.13720703125, 
147, 3365074949, 0.8471508026123047, -0.06067679822444916, -0.4978219270706177, -0.1756475269794464, 8.652936935424805, 0.7902174592018127, 4.780158996582031, 0.32865625619888306, -1.2548028230667114, -0.5731825232505798, -0.916748046875, 0.125, -0.1376953125, 
148, 3365083282, 0.8471285700798035, -0.060634955763816833, -0.4978519678115845, -0.17568469047546387, 8.662816047668457, 0.7580581903457642, 4.795759677886963, 0.13660070300102234, -0.8702564239501953, -0.5835562944412231, -0.916259765625, 0.1240234375, -0.138671875, 
149, 3365091615, 0.847124457359314, -0.060600340366363525, -0.4978474974632263, -0.17572849988937378, 8.665375709533691, 0.7481945157051086, 4.807690620422363, -0.0616406574845314, -0.34380707144737244, -0.5447251200675964, -0.914794921875, 0.123046875, -0.14013671875, 
150, 3365099948, 0.8471394181251526, -0.060561612248420715, -0.4978126883506775, -0.17576834559440613, 8.643409729003906, 0.7357485890388489, 4.828018665313721, -0.0445815771818161, 0.13465404510498047, -0.45107951760292053, -0.915283203125, 0.125, -0.1376953125, 
151, 3365108281, 0.8471665978431702, -0.06052426993846893, -0.4977579712867737, -0.175805002450943, 8.604068756103516, 0.7640666961669922, 4.816967487335205, -0.04947389289736748, 0.4593144953250885, -0.3469063937664032, -0.915771484375, 0.12353515625, -0.1416015625, 
152, 3365116614, 0.8471987247467041, -0.060502201318740845, -0.4976913630962372, -0.17584654688835144, 8.6394624710083, 0.7842094302177429, 4.791110515594482, -0.31330054998397827, 0.5845168828964233, -0.2894792854785919, -0.915283203125, 0.12255859375, -0.13916015625, 
153, 3365124947, 0.8472043871879578, -0.060503050684928894, -0.49766427278518677, -0.17589536309242249, 8.62320327758789, 0.7541742920875549, 4.788899898529053, -0.5192133188247681, -0.09140438586473465, -0.29649755358695984, -0.915771484375, 0.12109375, -0.138671875, 
154, 3365133280, 0.8471996784210205, -0.06052446365356445, -0.49764665961265564, -0.17596060037612915, 8.579291343688965, 0.7457484006881714, 4.818376064300537, -0.8937960267066956, -0.32364869117736816, -0.3971615135669708, -0.916748046875, 0.12353515625, -0.14404296875, 
155, 3365141613, 0.8471850752830505, -0.060544177889823914, -0.4976547956466675, -0.17600107192993164, 8.571830749511719, 0.7491458654403687, 4.849942207336426, -1.0429219007492065, -0.7295061945915222, -0.39613690972328186, -0.914306640625, 0.123046875, -0.138671875, 
156, 3365149946, 0.8471382856369019, -0.06056907773017883, -0.49771010875701904, -0.1760616898536682, 8.591243743896484, 0.7693116664886475, 4.803471565246582, -0.7613703012466431, -1.4741631746292114, -0.4819702208042145, -0.914794921875, 0.11962890625, -0.139892578125, 
157, 3365158279, 0.8470800518989563, -0.06059269607067108, -0.4977755546569824, -0.17614832520484924, 8.640434265136719, 0.7683041095733643, 4.748892307281494, -0.4560999274253845, -1.5934230089187622, -0.5696734189987183, -0.916259765625, 0.1240234375, -0.140625, 
158, 3365166612, 0.8470338582992554, -0.06060287356376648, -0.4978233575820923, -0.1762317717075348, 8.648975372314453, 0.7291049957275391, 4.761069297790527, -0.7646490931510925, -1.327854871749878, -0.8414660692214966, -0.915283203125, 0.1201171875, -0.13720703125, 
159, 3365174945, 0.8469715714454651, -0.06063254177570343, -0.4978945255279541, -0.17631986737251282, 8.631020545959473, 0.7074558138847351, 4.803017616271973, -0.9271711111068726, -1.736222267150879, -0.7941052317619324, -0.914794921875, 0.1240234375, -0.14208984375, 
160, 3365183278, 0.8468939065933228, -0.06066317856311798, -0.49798905849456787, -0.17641571164131165, 8.674019813537598, 0.7272402048110962, 4.79447603225708, -1.0003511905670166, -2.1266603469848633, -0.9614174365997314, -0.914306640625, 0.12109375, -0.138427734375, 
161, 3365191611, 0.8468142151832581, -0.060659006237983704, -0.4980972111225128, -0.17649462819099426, 8.652409553527832, 0.7284388542175293, 4.796421051025391, -0.6289703845977783, -2.231243371963501, -1.126783013343811, -0.913818359375, 0.12255859375, -0.138671875, 
162, 3365199944, 0.8467423915863037, -0.06061805784702301, -0.4981982707977295, -0.17656835913658142, 8.67613410949707, 0.7406603097915649, 4.778079509735107, 0.008042870089411736, -2.008347988128662, -1.1836720705032349, -0.915771484375, 0.12353515625, -0.13818359375, 
163, 3365208277, 0.8466887474060059, -0.06058207154273987, -0.49826085567474365, -0.17666107416152954, 8.687677383422852, 0.7359572052955627, 4.805749416351318, -0.154774010181427, -1.407207727432251, -1.2362581491470337, -0.915771484375, 0.12109375, -0.13671875, 
164, 3365216610, 0.8466736078262329, -0.060533955693244934, -0.49826154112815857, -0.17674824595451355, 8.648416519165039, 0.7285170555114746, 4.791174411773682, -0.19890734553337097, -0.4218024015426636, -1.1692770719528198, -0.915283203125, 0.12060546875, -0.1396484375, 
165, 3365224943, 0.8466870188713074, -0.06048101186752319, -0.49822086095809937, -0.17681634426116943, 8.558425903320312, 0.7104774117469788, 4.8584184646606445, -0.1894044727087021, 0.25829392671585083, -0.9388000965118408, -0.917724609375, 0.12109375, -0.13671875, 
166, 3365233276, 0.8467098474502563, -0.06045462191104889, -0.4981539249420166, -0.17690491676330566, 8.483222007751465, 0.7077809572219849, 4.907594203948975, -0.5942630171775818, 0.5728879570960999, -0.8869055509567261, -0.915771484375, 0.12109375, -0.1376953125, 
167, 3365241609, 0.8467289805412292, -0.06045252084732056, -0.4980884790420532, -0.17699798941612244, 8.42788028717041, 0.7156347632408142, 4.917880058288574, -0.8938984274864197, 0.4905126690864563, -0.7781476378440857, -0.915283203125, 0.12109375, -0.13720703125, 
168, 3365249942, 0.8467479944229126, -0.06048285961151123, -0.4980214238166809, -0.1770857274532318, 8.417329788208008, 0.7262352705001831, 4.910619735717773, -1.253983497619629, 0.4103657007217407, -0.49785110354423523, -0.916259765625, 0.1201171875, -0.1376953125, 
169, 3365258275, 0.8467316627502441, -0.06045931577682495, -0.4980430603027344, -0.17711082100868225, 8.406221389770508, 0.7333952784538269, 4.863718509674072, -0.04896160587668419, -0.7753300666809082, -0.32685044407844543, -0.915771484375, 0.12060546875, -0.13720703125, 
170, 3365266608, 0.8466932773590088, -0.06035850942134857, -0.4981331527233124, -0.1770755648612976, 8.482704162597656, 0.6991304159164429, 4.712943077087402, 1.4506365060806274, -1.5946012735366821, -0.23522832989692688, -0.915771484375, 0.1201171875, -0.13525390625, 
171, 3365274941, 0.8466010093688965, -0.060347095131874084, -0.498272567987442, -0.1771286129951477, 8.479036331176758, 0.7229770421981812, 4.834012985229492, 0.21162480115890503, -2.6411736011505127, -0.6355788111686707, -0.917724609375, 0.12158203125, -0.13916015625, 
172, 3365283274, 0.8464241623878479, -0.060520678758621216, -0.49850237369537354, -0.17726805806159973, 8.48430347442627, 0.6320775151252747, 5.020991802215576, -2.714993715286255, -4.69361686706543, -0.8424650430679321, -0.917236328125, 0.12109375, -0.1396484375, 
173, 3365291607, 0.8463560342788696, -0.060626596212387085, -0.4985736012458801, -0.17735648155212402, 8.531112670898438, 0.6856412887573242, 4.875364303588867, -1.682150959968567, -1.9494867324829102, -0.207308828830719, -0.916259765625, 0.12158203125, -0.13720703125, 
174, 3365299940, 0.846443772315979, -0.06058879196643829, -0.4984174966812134, -0.17738917469978333, 8.603940963745117, 0.7701964378356934, 4.7368669509887695, -0.24232345819473267, 2.0389187335968018, -0.08179905265569687, -0.915771484375, 0.12109375, -0.13623046875, 
175, 3365308273, 0.8464761972427368, -0.06065690517425537, -0.49833038449287415, -0.177455872297287, 8.521961212158203, 0.7491680383682251, 4.791654586791992, -1.5550017356872559, 0.6410986185073853, 0.07154055684804916, -0.915771484375, 0.123046875, -0.138671875, 
176, 3365316606, 0.8464497923851013, -0.060784220695495605, -0.49831637740135193, -0.17757782340049744, 8.420042991638184, 0.6327150464057922, 4.970232963562012, -2.5242700576782227, -0.7262788414955139, -0.38586562871932983, -0.916259765625, 0.11962890625, -0.1376953125, 
177, 3365324939, 0.846427857875824, -0.06091584265232086, -0.4983024597167969, -0.17767679691314697, 8.459602355957031, 0.6072884798049927, 5.128929615020752, -2.479112148284912, -0.7190300822257996, -0.12111692130565643, -0.917236328125, 0.12060546875, -0.13818359375, 
178, 3365333272, 0.846530020236969, -0.060922786593437195, -0.49813175201416016, -0.17766627669334412, 8.538813591003418, 0.6894537210464478, 4.976457118988037, -0.4917036294937134, 2.161534070968628, 0.7759063243865967, -0.916748046875, 0.12060546875, -0.13818359375, 
179, 3365341605, 0.8466601371765137, -0.0608222633600235, -0.4979602098464966, -0.17756137251853943, 8.454978942871094, 0.6833029389381409, 4.956344127655029, 1.2570698261260986, 2.544492721557617, 1.1010792255401611, -0.917236328125, 0.12109375, -0.13623046875, 
180, 3365349938, 0.8466722369194031, -0.06079241633415222, -0.49795404076576233, -0.17753103375434875, 8.390435218811035, 0.6198510527610779, 4.995831489562988, 0.39825010299682617, -0.29788070917129517, 0.39909541606903076, -0.916748046875, 0.12255859375, -0.13720703125, 
181, 3365358271, 0.8466639518737793, -0.06071695685386658, -0.497991144657135, -0.17749309539794922, 8.488507270812988, 0.566447913646698, 4.953093528747559, 1.0543588399887085, -0.8241252303123474, 0.07184793800115585, -0.913818359375, 0.12158203125, -0.137451171875, 
182, 3365366604, 0.8467025756835938, -0.060510799288749695, -0.49798768758773804, -0.17738839983940125, 8.531438827514648, 0.6294661164283752, 4.969967365264893, 2.990692377090454, 0.221435084939003, 0.11849145591259003, -0.917236328125, 0.1201171875, -0.138671875, 
183, 3365374937, 0.8467787504196167, -0.060271963477134705, -0.49793633818626404, -0.17725029587745667, 8.52556037902832, 0.681437611579895, 4.959896087646484, 3.37429141998291, 1.0879391431808472, 0.3272474706172943, -0.915283203125, 0.123046875, -0.13916015625, 
184, 3365383270, 0.8468608260154724, -0.060093954205513, -0.49784618616104126, -0.17717167735099792, 8.50234317779541, 0.7298399209976196, 4.968311786651611, 2.3100709915161133, 1.4807333946228027, 0.18634355068206787, -0.916748046875, 0.123046875, -0.138671875, 
185, 3365391603, 0.8469489812850952, -0.05998414754867554, -0.4977197051048279, -0.17714297771453857, 8.510530471801758, 0.7606983184814453, 4.96662712097168, 1.0019519329071045, 1.825680136680603, 0.05875905230641365, -0.914794921875, 0.1220703125, -0.138671875, 
186, 3365399936, 0.847059428691864, -0.05981399118900299, -0.49756959080696106, -0.17709416151046753, 8.50417709350586, 0.7343717813491821, 4.925461769104004, 1.8895363807678223, 2.379383087158203, 0.00950288213789463, -0.913818359375, 0.12109375, -0.138916015625, 
187, 3365408269, 0.8472002744674683, -0.059576138854026794, -0.4973912537097931, -0.17700138688087463, 8.44742202758789, 0.7345800399780273, 4.937208652496338, 2.996225357055664, 3.0620028972625732, 0.18562637269496918, -0.917236328125, 0.12109375, -0.1416015625, 
188, 3365416602, 0.8473324775695801, -0.059329599142074585, -0.4972279667854309, -0.17691031098365784, 8.380149841308594, 0.7101140022277832, 4.891390323638916, 3.0554707050323486, 2.832806348800659, 0.0452091246843338, -0.914306640625, 0.1220703125, -0.142578125, 
189, 3365424935, 0.8474278450012207, -0.05911813676357269, -0.49711495637893677, -0.17684191465377808, 8.369282722473145, 0.7161216139793396, 4.911069393157959, 2.6073243618011475, 1.9425069093704224, -0.10364799946546555, -0.916259765625, 0.121337890625, -0.1455078125, 
190, 3365433268, 0.8474971652030945, -0.0589531809091568, -0.4970356523990631, -0.17678767442703247, 8.341919898986816, 0.7055026888847351, 4.841507911682129, 2.0045957565307617, 1.2553790807724, -0.04875669255852699, -0.915283203125, 0.12060546875, -0.14208984375, 
191, 3365441601, 0.8475093245506287, -0.05875684320926666, -0.4970724880695343, -0.17669159173965454, 8.381881713867188, 0.6919611096382141, 4.832798957824707, 2.930473804473877, -0.431023508310318, 0.0058144317008554935, -0.915283203125, 0.12158203125, -0.14306640625, 
192, 3365449934, 0.8474699258804321, -0.0585736483335495, -0.49719151854515076, -0.17660602927207947, 8.378338813781738, 0.7139977812767029, 4.8134765625, 2.8247122764587402, -1.7794594764709473, -0.23282060027122498, -0.916259765625, 0.118896484375, -0.14306640625, 
193, 3365458267, 0.8473992943763733, -0.05844314396381378, -0.49734607338905334, -0.17655354738235474, 8.415390968322754, 0.7441683411598206, 4.795677661895752, 2.073779821395874, -2.494454860687256, -0.3544369637966156, -0.915771484375, 0.12158203125, -0.1416015625, 
194, 3365466600, 0.847348153591156, -0.05831556022167206, -0.4974639117717743, -0.1765093207359314, 8.449776649475098, 0.7530627846717834, 4.847589015960693, 1.8824925422668457, -1.9476935863494873, -0.36358124017715454, -0.917724609375, 0.121826171875, -0.142578125, 
195, 3365474933, 0.8473106026649475, -0.05820232629776001, -0.4975537359714508, -0.17647337913513184, 8.478898048400879, 0.7746429443359375, 4.85945987701416, 1.864203929901123, -1.5229071378707886, -0.1617923080921173, -0.917236328125, 0.118896484375, -0.1416015625, 
196, 3365483266, 0.8472985029220581, -0.05805642902851105, -0.4976194500923157, -0.17639467120170593, 8.521623611450195, 0.7640116214752197, 4.88604736328125, 2.235943555831909, -1.0570354461669922, 0.0500246025621891, -0.915771484375, 0.118408203125, -0.139892578125, 
197, 3365491599, 0.8472901582717896, -0.057949066162109375, -0.49766695499420166, -0.17633548378944397, 8.540056228637695, 0.7815197706222534, 4.9094038009643555, 1.78426194190979, -0.8694111704826355, 0.20347946882247925, -0.916748046875, 0.12060546875, -0.1396484375, 
198, 3365499932, 0.8472729921340942, -0.05788247287273407, -0.49771836400032043, -0.17629504203796387, 8.522619247436523, 0.7921845316886902, 4.930798053741455, 1.0119415521621704, -1.0869016647338867, 0.14669272303581238, -0.914306640625, 0.1201171875, -0.140380859375, 
199, 3365508265, 0.8472409248352051, -0.057848408818244934, -0.49778857827186584, -0.17626222968101501, 8.539156913757324, 0.7710979580879211, 4.9374284744262695, 0.6049056649208069, -1.4688866138458252, 0.21779780089855194, -0.917236328125, 0.1201171875, -0.13916015625, 
200, 3365516598, 0.847222089767456, -0.05778832733631134, -0.4978444576263428, -0.17621445655822754, 8.542490005493164, 0.754975438117981, 4.967592239379883, 0.9956252574920654, -1.1715565919876099, 0.2682066559791565, -0.917236328125, 0.12255859375, -0.14208984375, 
201, 3365524931, 0.8472602963447571, -0.0576741099357605, -0.497816264629364, -0.1761482059955597, 8.563455581665039, 0.7741808295249939, 4.906800270080566, 1.5602399110794067, 0.3231235444545746, 0.2911313772201538, -0.917236328125, 0.117919921875, -0.1396484375, 
202, 3365533264, 0.8473612666130066, -0.05752776563167572, -0.4976876378059387, -0.17607459425926208, 8.584257125854492, 0.7742670774459839, 4.805166721343994, 1.8266535997390747, 1.9869987964630127, 0.41507869958877563, -0.917236328125, 0.11962890625, -0.13916015625, 
203, 3365541597, 0.8474726676940918, -0.05739195644855499, -0.4975340962409973, -0.17601576447486877, 8.543952941894531, 0.7657438516616821, 4.701207637786865, 1.6718155145645142, 2.357227087020874, 0.4275784194469452, -0.917236328125, 0.12109375, -0.140625, 
204, 3365549930, 0.8476200103759766, -0.057311296463012695, -0.49731314182281494, -0.17595723271369934, 8.586203575134277, 0.7560043931007385, 4.527418613433838, 0.7695797681808472, 3.2319276332855225, 0.8753409385681152, -0.916748046875, 0.120849609375, -0.142578125, 
205, 3365558263, 0.8478575348854065, -0.05714140832424164, -0.4969854950904846, -0.17579385638237, 8.615984916687012, 0.7560542821884155, 4.3171868324279785, 2.325465440750122, 5.2372660636901855, 1.7738113403320312, -0.917236328125, 0.117919921875, -0.1416015625, 
206, 3365566596, 0.8482099771499634, -0.05696319043636322, -0.49647456407546997, -0.17559558153152466, 8.556514739990234, 0.7341620326042175, 4.191450595855713, 2.3241076469421387, 8.140409469604492, 2.559528112411499, -0.915283203125, 0.120361328125, -0.14404296875, 
207, 3365574929, 0.8486537933349609, -0.05678367614746094, -0.49583756923675537, -0.17530855536460876, 8.580085754394531, 0.6724175214767456, 3.9849908351898193, 2.6664931774139404, 10.178253173828125, 3.874640464782715, -0.914306640625, 0.12255859375, -0.14404296875, 
208, 3365583262, 0.8491680026054382, -0.05665624141693115, -0.49510374665260315, -0.17493358254432678, 8.641181945800781, 0.5815829634666443, 3.7977194786071777, 2.5259482860565186, 11.585165977478027, 5.5345964431762695, -0.912841796875, 0.118896484375, -0.147216796875, 
209, 3365591595, 0.8496182560920715, -0.05667044222354889, -0.4944722652435303, -0.17452815175056458, 8.528986930847168, 0.6416240930557251, 3.9743030071258545, 1.1596332788467407, 9.5947847366333, 6.544565200805664, -0.914794921875, 0.123779296875, -0.14794921875, 
210, 3365599928, 0.849787175655365, -0.05704934895038605, -0.4942309856414795, -0.1742657721042633, 8.144230842590332, 0.7144504189491272, 4.516153812408447, -3.242032289505005, 2.354383707046509, 6.448819637298584, -0.913330078125, 0.122802734375, -0.1484375, 
211, 3365608261, 0.8499044179916382, -0.057546645402908325, -0.4940530061721802, -0.1740349531173706, 7.993095874786377, 0.8113357424736023, 4.739779949188232, -4.714389324188232, 1.0231605768203735, 6.714207649230957, -0.915771484375, 0.124267578125, -0.14892578125, 
212, 3365616594, 0.850229024887085, -0.057796940207481384, -0.49360695481300354, -0.1736321747303009, 8.114668846130371, 0.7838802337646484, 4.789079189300537, -1.1522436141967773, 6.0020294189453125, 7.751303672790527, -0.91552734375, 0.126220703125, -0.14990234375, 
213, 3365624927, 0.8506374359130859, -0.058044955134391785, -0.4929956793785095, -0.17328539490699768, 8.227241516113281, 0.6785629987716675, 4.850437641143799, -1.8238489627838135, 8.568704605102539, 7.409865856170654, -0.91455078125, 0.125732421875, -0.150390625, 
214, 3365633260, 0.8510355353355408, -0.05862261354923248, -0.49230363965034485, -0.17310398817062378, 8.319835662841797, 0.6551470160484314, 4.631875514984131, -7.009733200073242, 8.773311614990234, 7.754120826721191, -0.91455078125, 0.12890625, -0.14892578125, 
215, 3365641593, 0.8511149287223816, -0.05944743752479553, -0.49205631017684937, -0.17313477396965027, 8.240657806396484, 0.6817033886909485, 4.483274459838867, -10.465119361877441, 1.0179353952407837, 5.8610758781433105, -0.91455078125, 0.127685546875, -0.1552734375, 
216, 3365649926, 0.850885272026062, -0.060731664299964905, -0.4922420382499695, -0.17329034209251404, 8.161300659179688, 0.9649677276611328, 4.239892959594727, -15.979509353637695, -7.157323837280273, 6.385860443115234, -0.9140625, 0.1298828125, -0.15234375, 
217, 3365658259, 0.8507677912712097, -0.06233234703540802, -0.4921885132789612, -0.1734503209590912, 8.496338844299316, 1.0925275087356567, 4.064937114715576, -20.3240966796875, -4.34162712097168, 8.853513717651367, -0.9140625, 0.1328125, -0.15087890625, 
218, 3365666592, 0.8508758544921875, -0.06338785588741302, -0.4918617308139801, -0.17346510291099548, 8.495521545410156, 0.6994998455047607, 3.672086715698242, -13.286323547363281, 1.5506348609924316, 7.721976280212402, -0.91357421875, 0.130859375, -0.15234375, 
219, 3365674925, 0.8510239124298096, -0.0640605241060257, -0.49160900712013245, -0.17320817708969116, 8.57170295715332, 0.5911232233047485, 4.0774993896484375, -6.509256839752197, 1.6708424091339111, 8.488200187683105, -0.913330078125, 0.135009765625, -0.15087890625, 
220, 3365683258, 0.8510051965713501, -0.06503604352474213, -0.4915539026260376, -0.17309299111366272, 8.261414527893066, 0.5657749176025391, 4.424932956695557, -10.936193466186523, -2.405933141708374, 8.162182807922363, -0.912353515625, 0.13525390625, -0.1533203125, 
221, 3365691591, 0.8508291244506836, -0.0661187469959259, -0.49179744720458984, -0.1728561520576477, 7.998623371124268, 0.6033620238304138, 4.660781383514404, -10.952994346618652, -7.317513942718506, 9.570196151733398, -0.911865234375, 0.134521484375, -0.15087890625, 
222, 3365699924, 0.8507322072982788, -0.0669189840555191, -0.4920158088207245, -0.17240357398986816, 7.949313640594482, 0.5157234072685242, 4.916204452514648, -6.021536827087402, -6.0234832763671875, 10.491772651672363, -0.912353515625, 0.136962890625, -0.14794921875, 
223, 3365708257, 0.8508241176605225, -0.06735338270664215, -0.49200883507728577, -0.17179957032203674, 8.170140266418457, 0.4312945604324341, 5.096155643463135, -1.0328046083450317, -1.3556464910507202, 10.465670585632324, -0.913818359375, 0.139892578125, -0.147705078125, 
224, 3365716590, 0.8512240052223206, -0.06795470416545868, -0.4913632869720459, -0.1714293360710144, 8.463688850402832, 0.38882678747177124, 5.293386936187744, -5.837498188018799, 7.996124744415283, 10.155584335327148, -0.913818359375, 0.139404296875, -0.151123046875, 
225, 3365724923, 0.8520373702049255, -0.06889066100120544, -0.48975229263305664, -0.17162486910820007, 8.498318672180176, 0.22912192344665527, 5.1529221534729, -15.259343147277832, 21.86473274230957, 7.795697212219238, -0.9130859375, 0.143310546875, -0.152099609375, 
226, 3365733256, 0.8531199097633362, -0.0699523389339447, -0.48762911558151245, -0.17186382412910461, 8.864295959472656, 0.10266409069299698, 4.894121170043945, -18.18332290649414, 29.387527465820312, 9.129974365234375, -0.91162109375, 0.1455078125, -0.151611328125, 
227, 3365741589, 0.8543155789375305, -0.07109399139881134, -0.48522016406059265, -0.17227333784103394, 8.72538948059082, 0.12613829970359802, 4.542263984680176, -20.480314254760742, 33.5159912109375, 8.418129920959473, -0.90966796875, 0.145263671875, -0.156982421875, 
228, 3365749922, 0.8554999232292175, -0.0726168155670166, -0.48273974657058716, -0.17272841930389404, 8.991506576538086, 0.4436679482460022, 4.699622631072998, -25.794971466064453, 33.37993240356445, 10.259259223937988, -0.9091796875, 0.149169921875, -0.160888671875, 
229, 3365758255, 0.8563377857208252, -0.07443733513355255, -0.48080405592918396, -0.1732005476951599, 9.113308906555176, 0.5872917771339417, 4.842787265777588, -28.516836166381836, 24.002412796020508, 10.629382133483887, -0.9091796875, 0.150146484375, -0.167236328125, 
230, 3365766588, 0.8570460081100464, -0.07637731730937958, -0.479017436504364, -0.17380207777023315, 9.231234550476074, 0.5763956904411316, 5.066507339477539, -30.502532958984375, 21.217857360839844, 9.470541954040527, -0.907958984375, 0.151123046875, -0.167236328125, 
231, 3365774921, 0.8577245473861694, -0.07816898822784424, -0.4772629141807556, -0.17448434233665466, 9.265420913696289, 0.5881755352020264, 5.433433532714844, -29.20624351501465, 21.107666015625, 7.455774784088135, -0.904541015625, 0.15625, -0.169189453125, 
232, 3365783254, 0.8581823706626892, -0.08007992804050446, -0.4758678674697876, -0.17517521977424622, 8.92260456085205, 0.6031887531280518, 5.860986232757568, -30.079551696777344, 15.116535186767578, 7.205137729644775, -0.906005859375, 0.156005859375, -0.172607421875, 
233, 3365791587, 0.8586390614509583, -0.08213980495929718, -0.47434288263320923, -0.1761164367198944, 8.451627731323242, 0.5032908320426941, 6.012685775756836, -34.01813888549805, 16.57645034790039, 5.210274696350098, -0.904541015625, 0.15771484375, -0.173095703125, 
234, 3365799920, 0.8592224717140198, -0.08411309123039246, -0.47257286310195923, -0.17709633708000183, 8.067569732666016, 0.40480920672416687, 5.931807518005371, -33.47023391723633, 20.532655715942383, 4.927084445953369, -0.905517578125, 0.1591796875, -0.173583984375, 
235, 3365808253, 0.8599927425384521, -0.08563569188117981, -0.4704994261264801, -0.17814454436302185, 7.925701141357422, 0.4041350781917572, 5.7424845695495605, -29.14712905883789, 26.530412673950195, 1.9693270921707153, -0.90380859375, 0.162109375, -0.179443359375, 
236, 3365816586, 0.86080402135849, -0.08690942823886871, -0.468371719121933, -0.17921319603919983, 8.182733535766602, 0.48503032326698303, 5.713922500610352, -26.384424209594727, 28.049747467041016, 0.3103168308734894, -0.90283203125, 0.160888671875, -0.180419921875, 
237, 3365824919, 0.8615564107894897, -0.0882284939289093, -0.4662718176841736, -0.1804240643978119, 8.641010284423828, 0.3934423327445984, 5.401009559631348, -27.936416625976562, 27.419893264770508, -1.3260377645492554, -0.9033203125, 0.1630859375, -0.180419921875, 
238, 3365833252, 0.8625136017799377, -0.08939734101295471, -0.4638139605522156, -0.1816067397594452, 8.93403434753418, 0.1510516107082367, 5.1990485191345215, -26.519702911376953, 33.292640686035156, -0.946101725101471, -0.89990234375, 0.162353515625, -0.186767578125, 
239, 3365841585, 0.8633327484130859, -0.09031331539154053, -0.46175065636634827, -0.18251720070838928, 8.980876922607422, 0.020442567765712738, 5.483725070953369, -20.994922637939453, 28.051870346069336, -0.1819509118795395, -0.89990234375, 0.162353515625, -0.191162109375, 
240, 3365849918, 0.8636122345924377, -0.09133695065975189, -0.4606836140155792, -0.18338003754615784, 8.695643424987793, 0.16744062304496765, 5.842232704162598, -20.112985610961914, 12.444989204406738, -1.5049266815185547, -0.89990234375, 0.163818359375, -0.194091796875, 
241, 3365858251, 0.8634935617446899, -0.09243763983249664, -0.46041712164878845, -0.1840553879737854, 8.467616081237793, 0.382572740316391, 6.096699237823486, -18.387683868408203, 0.00904182717204094, -0.8468196988105774, -0.8984375, 0.164306640625, -0.193603515625, 
242, 3365866584, 0.8632901906967163, -0.09332713484764099, -0.4604828953742981, -0.18439528346061707, 8.228492736816406, 0.29931679368019104, 6.274450778961182, -12.957409858703613, -4.387167930603027, 1.2114765644073486, -0.90185546875, 0.166259765625, -0.19287109375, 
243, 3365874917, 0.8633754849433899, -0.09352719783782959, -0.4601849913597107, -0.18463754653930664, 8.100205421447754, 0.19873583316802979, 6.269773483276367, -5.110462665557861, 3.3978309631347656, -1.0766304731369019, -0.8994140625, 0.164794921875, -0.192626953125, 
244, 3365883250, 0.8638323545455933, -0.09330445528030396, -0.4592103362083435, -0.18503975868225098, 8.091451644897461, 0.24010081589221954, 6.363125324249268, -1.9386265277862549, 15.045804023742676, -3.557523250579834, -0.900390625, 0.165771484375, -0.196533203125, 
245, 3365891583, 0.864274263381958, -0.09322752058506012, -0.4581533372402191, -0.18563395738601685, 8.123282432556152, 0.1842038780450821, 6.543582439422607, -5.524568557739258, 15.819890975952148, -5.133618354797363, -0.89892578125, 0.168212890625, -0.196533203125, 
246, 3365899916, 0.8647146224975586, -0.09356145560741425, -0.45685482025146484, -0.1866135597229004, 8.050400733947754, 0.15549665689468384, 6.2994065284729, -13.041097640991211, 18.111143112182617, -6.538177967071533, -0.8974609375, 0.16455078125, -0.199951171875, 
247, 3365908249, 0.8653352856636047, -0.09385734796524048, -0.45518332719802856, -0.18766900897026062, 8.324734687805176, 0.05405503138899803, 5.790072917938232, -13.939827919006348, 23.8911075592041, -6.838455677032471, -0.8984375, 0.16455078125, -0.200439453125, 
248, 3365916582, 0.8659768104553223, -0.09426167607307434, -0.4533979296684265, -0.18882548809051514, 8.60368824005127, -0.014917022548615932, 5.600028991699219, -15.981770515441895, 25.21075439453125, -7.058045864105225, -0.89892578125, 0.16357421875, -0.205322265625, 
249, 3365924915, 0.866249144077301, -0.09531310200691223, -0.4519180953502655, -0.19058826565742493, 8.46963119506836, 0.08373775333166122, 5.8720316886901855, -27.105615615844727, 18.395294189453125, -11.566442489624023, -0.89697265625, 0.163818359375, -0.209716796875, 
250, 3365933248, 0.8659394979476929, -0.0973292738199234, -0.45126673579216003, -0.19250980019569397, 8.069385528564453, 0.36617401242256165, 6.22049617767334, -38.221858978271484, 2.5705199241638184, -10.105021476745605, -0.89599609375, 0.1640625, -0.205810546875, 
251, 3365941581, 0.8652607202529907, -0.1000460535287857, -0.4511566162109375, -0.19441810250282288, 7.539976119995117, 0.31124141812324524, 6.397222995758057, -45.59541320800781, -8.019512176513672, -7.338095664978027, -0.89697265625, 0.166015625, -0.205322265625, 
252, 3365949914, 0.8648178577423096, -0.1025557816028595, -0.4508073329925537, -0.19588586688041687, 7.672370433807373, 0.15961119532585144, 6.118839740753174, -40.66107940673828, -3.7813704013824463, -2.3841123580932617, -0.8974609375, 0.1640625, -0.203369140625, 
253, 3365958247, 0.8650864958763123, -0.10431255400180817, -0.4496077299118042, -0.19652685523033142, 7.922077178955078, -0.07557597011327744, 5.758791923522949, -28.055156707763672, 11.620497703552246, 5.7669477462768555, -0.8984375, 0.16796875, -0.206298828125, 
254, 3365966580, 0.8657845854759216, -0.10526585578918457, -0.4479060769081116, -0.19682997465133667, 7.916680812835693, -0.20132282376289368, 5.634873867034912, -16.963973999023438, 21.91727066040039, 6.828325271606445, -0.897705078125, 0.1689453125, -0.208740234375, 
255, 3365974913, 0.8662441968917847, -0.10592401027679443, -0.4467009902000427, -0.1971929669380188, 7.853808403015137, -0.15944889187812805, 5.707614898681641, -12.818968772888184, 15.439523696899414, 2.932856559753418, -0.896240234375, 0.16845703125, -0.208740234375, 
256, 3365983246, 0.8662737607955933, -0.10653290152549744, -0.4462178945541382, -0.19782745838165283, 7.382555961608887, -0.016413142904639244, 5.652510643005371, -12.570226669311523, 4.709588050842285, -2.8196794986724854, -0.89453125, 0.16748046875, -0.209228515625, 
257, 3365991579, 0.8660097718238831, -0.10702605545520782, -0.44630634784698486, -0.19851624965667725, 7.08762264251709, 0.03295327350497246, 5.589842796325684, -10.398215293884277, -3.489082098007202, -5.814470291137695, -0.895263671875, 0.171875, -0.208740234375, 
258, 3365999912, 0.8657990097999573, -0.10730837285518646, -0.44625741243362427, -0.19939148426055908, 7.003708839416504, -0.02298104390501976, 5.81644344329834, -9.329000473022461, -0.6922632455825806, -8.979289054870605, -0.89501953125, 0.16845703125, -0.209716796875, 
259, 3366008245, 0.8656044006347656, -0.10816280543804169, -0.445778489112854, -0.20084092020988464, 7.235483169555664, -0.13087746500968933, 6.079734802246094, -20.819530487060547, 3.817829132080078, -11.626063346862793, -0.896484375, 0.1669921875, -0.208740234375, 
260, 3366016578, 0.8655571937561035, -0.1094461977481842, -0.4447186589241028, -0.20269030332565308, 7.684656620025635, -0.24583138525485992, 5.612215995788574, -29.760862350463867, 11.03357219696045, -12.48819351196289, -0.89453125, 0.16552734375, -0.211669921875, 
261, 3366024911, 0.8656896948814392, -0.11067268252372742, -0.443469762802124, -0.20418879389762878, 7.949824810028076, -0.20656748116016388, 5.518428802490234, -27.196767807006836, 14.025956153869629, -7.872604846954346, -0.8935546875, 0.1650390625, -0.211181640625, 
262, 3366033244, 0.8655314445495605, -0.11204825341701508, -0.4425685405731201, -0.20605656504631042, 7.507425308227539, -0.33670908212661743, 5.946567058563232, -30.687074661254883, 8.244179725646973, -12.703431129455566, -0.89306640625, 0.16650390625, -0.212158203125, 
263, 3366041577, 0.8649799227714539, -0.11402489244937897, -0.4418848752975464, -0.20873776078224182, 7.621671676635742, -0.24222618341445923, 6.213194370269775, -42.781532287597656, 2.824282169342041, -20.177690505981445, -0.89404296875, 0.16552734375, -0.211669921875, 
264, 3366049910, 0.8643165826797485, -0.11635339260101318, -0.4412180483341217, -0.2115916907787323, 7.806769371032715, -0.029840514063835144, 6.32867431640625, -48.144309997558594, 1.1923197507858276, -20.442705154418945, -0.8974609375, 0.164306640625, -0.211181640625, 
265, 3366058243, 0.8639095425605774, -0.11882226169109344, -0.4400189518928528, -0.21436050534248352, 7.896803379058838, 0.2683793604373932, 6.482390403747559, -50.434913635253906, 8.540935516357422, -16.980323791503906, -0.89501953125, 0.16455078125, -0.208740234375, 
266, 3366066576, 0.8636705279350281, -0.12137657403945923, -0.4383012056350708, -0.21739056706428528, 7.86455774307251, 0.22545292973518372, 6.661162853240967, -54.284732818603516, 15.881589889526367, -18.227155685424805, -0.8955078125, 0.162353515625, -0.210205078125, 
267, 3366074909, 0.8633061647415161, -0.12416514754295349, -0.4365464448928833, -0.22076711058616638, 7.958725929260254, -0.10079383850097656, 6.464084148406982, -59.47468566894531, 15.453227996826172, -21.23872184753418, -0.8955078125, 0.164306640625, -0.214111328125, 
268, 3366083242, 0.8628653287887573, -0.12693345546722412, -0.434750497341156, -0.22443026304244995, 7.969616889953613, -0.7426435351371765, 5.989706993103027, -61.211219787597656, 16.025869369506836, -24.928144454956055, -0.89404296875, 0.162841796875, -0.21435546875, 
269, 3366091575, 0.8624448776245117, -0.1296483278274536, -0.43296825885772705, -0.22791239619255066, 8.003728866577148, -0.8844087719917297, 5.728294849395752, -59.41537094116211, 15.841489791870117, -23.05828857421875, -0.897216796875, 0.159423828125, -0.210693359375, 
270, 3366099908, 0.8619033694267273, -0.13201111555099487, -0.4316905438899994, -0.23100712895393372, 7.599327564239502, -0.5878504514694214, 5.541569232940674, -51.568634033203125, 9.54263687133789, -21.840181350708008, -0.8955078125, 0.159912109375, -0.21435546875, 
271, 3366108241, 0.8612657785415649, -0.13378728926181793, -0.43101489543914795, -0.2336098849773407, 7.339563846588135, -0.1163337379693985, 5.549413204193115, -39.95749282836914, 2.8150603771209717, -20.888429641723633, -0.897216796875, 0.1591796875, -0.21484375, 
272, 3366116574, 0.8603843450546265, -0.13458187878131866, -0.4313284754753113, -0.23581260442733765, 7.206030368804932, 0.1637740135192871, 5.689014911651611, -23.231611251831055, -7.9373602867126465, -24.57415771484375, -0.896728515625, 0.1572265625, -0.2138671875, 
273, 3366124907, 0.8591320514678955, -0.1348588913679123, -0.4322827458381653, -0.23845776915550232, 6.933974266052246, -0.4835245609283447, 6.130134105682373, -18.342729568481445, -15.212255477905273, -35.26472473144531, -0.895751953125, 0.15478515625, -0.2119140625, 
274, 3366133240, 0.8575340509414673, -0.1352236419916153, -0.4336385130882263, -0.2415216565132141, 7.127212047576904, -1.4769861698150635, 6.387699604034424, -21.19033432006836, -21.529645919799805, -41.569915771484375, -0.89697265625, 0.150390625, -0.208984375, 
275, 3366141573, 0.8562583923339844, -0.13592158257961273, -0.43444663286209106, -0.2441888451576233, 7.48777961730957, -1.8645023107528687, 6.2323455810546875, -23.973281860351562, -14.987589836120605, -32.81599426269531, -0.8994140625, 0.145263671875, -0.20556640625, 
276, 3366149906, 0.8557356595993042, -0.13616187870502472, -0.4345431327819824, -0.2457112967967987, 7.600748538970947, -1.2643921375274658, 5.749466419219971, -12.729574203491211, -2.7200405597686768, -18.21245765686035, -0.90185546875, 0.143798828125, -0.2021484375, 
277, 3366158239, 0.8556951284408569, -0.13605931401252747, -0.4342845678329468, -0.24636536836624146, 7.8328938484191895, -0.19126734137535095, 5.725367069244385, -3.799628734588623, 3.878072500228882, -7.753519058227539, -0.9013671875, 0.142333984375, -0.205078125, 
278, 3366166572, 0.8554182052612305, -0.1360524743795395, -0.43442440032958984, -0.2470833659172058, 7.728237152099609, 0.5252553820610046, 5.450529098510742, -4.403100490570068, -2.432161569595337, -9.47543716430664, -0.901123046875, 0.138427734375, -0.205810546875, 
279, 3366174905, 0.8547635078430176, -0.13562294840812683, -0.4353705048561096, -0.24791860580444336, 7.790951728820801, 0.6186591386795044, 5.048163890838623, 1.9035224914550781, -12.513237953186035, -16.17276954650879, -0.900634765625, 0.136962890625, -0.203369140625, 
280, 3366183238, 0.8540330529212952, -0.13442297279834747, -0.4366694390773773, -0.2488035261631012, 7.636287212371826, 0.023519905284047127, 5.193073749542236, 11.720954895019531, -14.399142265319824, -22.2855167388916, -0.904052734375, 0.1357421875, -0.203125, 
281, 3366191571, 0.8533718585968018, -0.13293062150478363, -0.4380280673503876, -0.2494848370552063, 7.565040588378906, -0.6456637382507324, 5.844583511352539, 16.70994758605957, -14.054579734802246, -21.523365020751953, -0.90478515625, 0.1318359375, -0.202392578125, 
282, 3366199904, 0.852866530418396, -0.13162833452224731, -0.4393395781517029, -0.24959692358970642, 7.668052673339844, -0.7492289543151855, 6.021114349365234, 18.03133201599121, -14.26095199584961, -13.07739543914795, -0.90234375, 0.12939453125, -0.198974609375, 
283, 3366208237, 0.8523961305618286, -0.13063056766986847, -0.4407307505607605, -0.24927502870559692, 7.870725631713867, -0.26613909006118774, 6.06559944152832, 17.420381546020508, -16.810314178466797, -6.1744303703308105, -0.90478515625, 0.12744140625, -0.197021484375, 
284, 3366216570, 0.8517674207687378, -0.1300135850906372, -0.44231218099594116, -0.24894559383392334, 8.172432899475098, 0.2666837275028229, 5.878528118133545, 13.367486953735352, -21.32282257080078, -4.66044807434082, -0.9052734375, 0.12646484375, -0.195068359375, 
285, 3366224903, 0.851197361946106, -0.12932787835597992, -0.44367748498916626, -0.24882259964942932, 8.31411075592041, 0.39862167835235596, 5.319254398345947, 12.285205841064453, -17.826631546020508, -6.91306734085083, -0.905517578125, 0.123046875, -0.192138671875, 
286, 3366233236, 0.8506183624267578, -0.12863877415657043, -0.444914311170578, -0.24895188212394714, 8.559011459350586, 0.22946390509605408, 5.354668140411377, 10.328303337097168, -15.921314239501953, -9.682965278625488, -0.907470703125, 0.12158203125, -0.190185546875, 
287, 3366241569, 0.8499431014060974, -0.12851566076278687, -0.4461095333099365, -0.2491823136806488, 8.861117362976074, -0.013027576729655266, 5.90287446975708, 2.7771477699279785, -17.77652931213379, -7.6645379066467285, -0.905517578125, 0.12158203125, -0.190185546875, 
288, 3366249902, 0.8492966294288635, -0.12878020107746124, -0.4471467137336731, -0.24939092993736267, 8.858756065368652, 0.014958816580474377, 6.227993965148926, -2.111240863800049, -17.125898361206055, -4.649637699127197, -0.907470703125, 0.118408203125, -0.188720703125, 
289, 3366258235, 0.8488652110099792, -0.12899109721183777, -0.4478985667228699, -0.24940162897109985, 8.781390190124512, 0.07126913964748383, 6.493943691253662, -0.8642372488975525, -12.632237434387207, -1.4276480674743652, -0.907958984375, 0.1201171875, -0.186279296875, 
290, 3366266568, 0.8486685156822205, -0.12924160063266754, -0.44831904768943787, -0.24918562173843384, 8.668854713439941, 0.06389431655406952, 6.667865753173828, -0.6519719362258911, -7.861097812652588, 2.8561408519744873, -0.910400390625, 0.12060546875, -0.183837890625, 
291, 3366274901, 0.848598062992096, -0.12939198315143585, -0.4487276077270508, -0.24861162900924683, 8.473285675048828, -0.13454195857048035, 6.275776386260986, 2.9086251258850098, -7.233423233032227, 6.868637561798096, -0.909423828125, 0.12109375, -0.184326171875, 
292, 3366283234, 0.8486342430114746, -0.12930314242839813, -0.44922059774398804, -0.24764180183410645, 8.322638511657715, -0.43161171674728394, 5.957849979400635, 8.618987083435059, -7.451143741607666, 10.229353904724121, -0.909423828125, 0.12109375, -0.181396484375, 
293, 3366291567, 0.8487355709075928, -0.12920355796813965, -0.44979119300842285, -0.24630695581436157, 8.207969665527344, -0.42694807052612305, 5.660364627838135, 11.381355285644531, -8.562238693237305, 14.503244400024414, -0.909423828125, 0.123046875, -0.180908203125, 
294, 3366299900, 0.849004864692688, -0.12892402708530426, -0.45025426149368286, -0.2446737289428711, 8.021740913391113, -0.24563641846179962, 5.419509410858154, 15.259583473205566, -6.193896293640137, 17.636459350585938, -0.911376953125, 0.12353515625, -0.180419921875, 
295, 3366308233, 0.8494172692298889, -0.12828709185123444, -0.45067888498306274, -0.24278810620307922, 7.892845153808594, -0.0982336550951004, 5.340298652648926, 21.121538162231445, -4.099522590637207, 18.91507339477539, -0.91015625, 0.126220703125, -0.179931640625, 
296, 3366316566, 0.8499366044998169, -0.12749697268009186, -0.4510480761528015, -0.24069222807884216, 7.927859783172607, 0.17699025571346283, 5.208354949951172, 24.216968536376953, -2.6527016162872314, 20.88189125061035, -0.908203125, 0.128662109375, -0.180419921875, 
297, 3366324899, 0.8505317568778992, -0.12659940123558044, -0.4513542056083679, -0.23848006129264832, 8.106884002685547, 0.5256611704826355, 5.1272735595703125, 26.117938995361328, -1.2899725437164307, 21.929521560668945, -0.90869140625, 0.127685546875, -0.180419921875, 
298, 3366333232, 0.8510074019432068, -0.12572936713695526, -0.4518182873725891, -0.2363552749156952, 8.094071388244629, 0.6085621118545532, 5.303070545196533, 25.562108993530273, -3.8217368125915527, 20.417152404785156, -0.9091796875, 0.131103515625, -0.18017578125, 
299, 3366341565, 0.8512852787971497, -0.12501777708530426, -0.4525189995765686, -0.2343830168247223, 7.908751487731934, 0.41438692808151245, 5.795177936553955, 23.188507080078125, -8.064942359924316, 18.561368942260742, -0.90771484375, 0.13330078125, -0.17724609375, 
300, 3366349898, 0.8515461087226868, -0.12467281520366669, -0.4531044363975525, -0.2324807047843933, 8.000740051269531, 0.06473834812641144, 6.1754841804504395, 18.060558319091797, -7.88907527923584, 20.171226501464844, -0.907470703125, 0.13427734375, -0.181640625, 
301, 3366358231, 0.8520017862319946, -0.12442325055599213, -0.45345383882522583, -0.23025241494178772, 8.202706336975098, -0.21521809697151184, 6.3720598220825195, 18.553613662719727, -4.771564960479736, 25.607112884521484, -0.907470703125, 0.138916015625, -0.17822265625, 
302, 3366366564, 0.8524852991104126, -0.12415421009063721, -0.4537986218929291, -0.22791722416877747, 8.274741172790527, -0.4601185619831085, 6.864401340484619, 19.479949951171875, -4.667571067810059, 26.835906982421875, -0.909423828125, 0.140869140625, -0.1787109375, 
303, 3366374897, 0.8528034687042236, -0.12376414239406586, -0.4545327425003052, -0.22546282410621643, 8.154173851013184, -0.5481165051460266, 7.280028343200684, 22.583662033081055, -10.086833953857422, 26.29255485534668, -0.90966796875, 0.144775390625, -0.177001953125, 
304, 3366383230, 0.853087306022644, -0.12310391664505005, -0.45555153489112854, -0.22267764806747437, 7.835774898529053, -0.8290858268737793, 8.02592658996582, 28.641727447509766, -13.367487907409668, 27.89474105834961, -0.90771484375, 0.14404296875, -0.175537109375, 
305, 3366391563, 0.8535804152488708, -0.12216287851333618, -0.45643550157546997, -0.21947255730628967, 7.530755519866943, -1.047739863395691, 8.359044075012207, 34.61840057373047, -10.328231811523438, 32.00023651123047, -0.9052734375, 0.1494140625, -0.174560546875, 
306, 3366399896, 0.8545167446136475, -0.12059122323989868, -0.4568846821784973, -0.2157318890094757, 7.234564781188965, -1.372986078262329, 8.15035343170166, 44.702293395996094, -1.435131311416626, 36.3261604309082, -0.904541015625, 0.153076171875, -0.175537109375, 
307, 3366408229, 0.8559697866439819, -0.11798831820487976, -0.4569041132926941, -0.21132445335388184, 7.294120788574219, -1.6519705057144165, 7.269415378570557, 60.46931076049805, 8.805266380310059, 39.83795166015625, -0.905029296875, 0.155517578125, -0.175537109375, 
308, 3366416562, 0.8578438758850098, -0.11419673264026642, -0.45673424005508423, -0.20611107349395752, 7.368116855621338, -1.7280772924423218, 6.5665154457092285, 79.78099060058594, 15.835225105285645, 43.47724533081055, -0.905029296875, 0.158447265625, -0.179443359375, 
309, 3366424895, 0.8595083951950073, -0.10964952409267426, -0.45710641145706177, -0.20075103640556335, 7.484225749969482, -1.7584925889968872, 6.167974472045898, 90.79898834228516, 10.020888328552246, 38.98564147949219, -0.90234375, 0.160888671875, -0.183349609375, 
310, 3366433228, 0.8607618808746338, -0.10477139055728912, -0.4581666588783264, -0.1954994797706604, 7.6750311851501465, -1.3264803886413574, 5.782986640930176, 95.33226776123047, 0.3959484100341797, 33.48366928100586, -0.9013671875, 0.164306640625, -0.187255859375, 
311, 3366441561, 0.8616452217102051, -0.09948669373989105, -0.45979857444763184, -0.19047391414642334, 7.955593585968018, -0.8302693963050842, 5.402334213256836, 99.66301727294922, -7.300983905792236, 26.368925094604492, -0.900390625, 0.165283203125, -0.188720703125, 
312, 3366449894, 0.862248420715332, -0.09353423118591309, -0.46181827783584595, -0.1858164668083191, 8.150677680969238, -0.19704924523830414, 5.292041778564453, 105.94241333007812, -11.396132469177246, 16.5782413482666, -0.8994140625, 0.163818359375, -0.190185546875, 
313, 3366458227, 0.8623889684677124, -0.08711035549640656, -0.4644167423248291, -0.1817660629749298, 8.16217041015625, 0.40090256929397583, 5.528439044952393, 108.55084228515625, -19.23038673400879, 4.438021183013916, -0.90283203125, 0.162353515625, -0.189697265625, 
314, 3366466560, 0.8621113896369934, -0.08076982200145721, -0.46737271547317505, -0.1784035563468933, 8.165505409240723, 1.1561522483825684, 5.647428035736084, 103.56903076171875, -25.50543975830078, -4.639617443084717, -0.901123046875, 0.15771484375, -0.188232421875, 
315, 3366474893, 0.861506998538971, -0.07468977570533752, -0.4704166650772095, -0.17595478892326355, 8.309845924377441, 1.9244529008865356, 5.436662197113037, 94.4302749633789, -28.294126510620117, -14.73285961151123, -0.901611328125, 0.1533203125, -0.188720703125, 
316, 3366483226, 0.8607651591300964, -0.06917230784893036, -0.4732183814048767, -0.17432165145874023, 8.582450866699219, 2.290679693222046, 5.057310104370117, 81.79340362548828, -26.817354202270508, -20.803808212280273, -0.9033203125, 0.1484375, -0.18408203125, 
317, 3366491559, 0.8599820137023926, -0.06439116597175598, -0.47568655014038086, -0.1732974648475647, 8.696001052856445, 2.066114902496338, 4.821284294128418, 68.22281646728516, -24.34360122680664, -23.04705238342285, -0.906494140625, 0.1416015625, -0.185546875, 
318, 3366499892, 0.8593852519989014, -0.06016913056373596, -0.47741687297821045, -0.17301613092422485, 8.24035930633545, 2.055959939956665, 4.790892124176025, 55.21288299560547, -15.053962707519531, -27.03014373779297, -0.905517578125, 0.13818359375, -0.18408203125, 
319, 3366508225, 0.8594658374786377, -0.05662398040294647, -0.4778675436973572, -0.17256790399551392, 8.908873558044434, 1.5232775211334229, 4.859302520751953, 45.849021911621094, 2.7532036304473877, -17.93616485595703, -0.90380859375, 0.13427734375, -0.182861328125, 
320, 3366516558, 0.8593709468841553, -0.054094091057777405, -0.47897088527679443, -0.1707848310470581, 8.808205604553223, 0.7951055765151978, 4.608008861541748, 44.0096549987793, -9.54840087890625, 3.5786731243133545, -0.9091796875, 0.132080078125, -0.1845703125, 
321, 3366524891, 0.8583674430847168, -0.0523291677236557, -0.4816042184829712, -0.16896551847457886, 8.51748275756836, 0.10966219007968903, 4.2179741859436035, 38.26727294921875, -35.43815994262695, 5.860372066497803, -0.90673828125, 0.128662109375, -0.181884765625, 
322, 3366533224, 0.8561139106750488, -0.050052106380462646, -0.48665639758110046, -0.16659677028656006, 8.657689094543457, -0.14522479474544525, 4.162996292114258, 52.53093338012695, -71.4726791381836, 4.221127510070801, -0.9072265625, 0.1298828125, -0.175537109375, 
323, 3366541557, 0.8524851202964783, -0.047416046261787415, -0.4942833185195923, -0.16349318623542786, 8.972289085388184, -0.11214645951986313, 4.337799549102783, 66.97347259521484, -110.65082550048828, 5.753170013427734, -0.91015625, 0.128173828125, -0.16357421875, 
324, 3366549890, 0.8478114008903503, -0.044197484850883484, -0.5035154819488525, -0.16049808263778687, 8.62928581237793, -0.30766811966896057, 4.706831932067871, 75.64777374267578, -135.21221923828125, -3.078601360321045, -0.916015625, 0.125244140625, -0.14990234375, 
325, 3366558223, 0.8436098098754883, -0.04462474584579468, -0.5104559659957886, -0.16059496998786926, 8.82056713104248, -0.19310374557971954, 5.266629695892334, 7.738326072692871, -111.322509765625, -11.022377014160156, -0.917724609375, 0.124267578125, -0.13427734375, 
326, 3366566556, 0.8401309251785278, -0.04373154044151306, -0.516401469707489, -0.16006925702095032, 9.015061378479004, 0.31105944514274597, 3.5272443294525146, 24.896263122558594, -92.24093627929688, -11.2884521484375, -0.919677734375, 0.12109375, -0.11865234375, 
327, 3366574889, 0.8376010060310364, -0.041873663663864136, -0.5208845138549805, -0.15929701924324036, 9.569820404052734, 0.952448844909668, 3.2041797637939453, 35.23596954345703, -66.63179779052734, -12.283586502075195, -0.922119140625, 0.1181640625, -0.10693359375, 
328, 3366583222, 0.8359193801879883, -0.039675816893577576, -0.5239602327346802, -0.15860411524772644, 10.143939971923828, 1.296618938446045, 2.7706284523010254, 35.895179748535156, -43.555179595947266, -13.004476547241211, -0.921875, 0.11328125, -0.10302734375, 
329, 3366591555, 0.8340927362442017, -0.03786514699459076, -0.5274220705032349, -0.15718260407447815, 9.649585723876953, 1.290074348449707, 2.586958885192871, 37.36832809448242, -50.297142028808594, -2.4182868003845215, -0.92431640625, 0.114013671875, -0.09521484375, 
330, 3366599888, 0.8321306109428406, -0.035319000482559204, -0.5312963724136353, -0.15511369705200195, 9.611987113952637, 1.679427981376648, 2.876664638519287, 51.41019821166992, -54.74164581298828, -0.781583845615387, -0.92529296875, 0.110595703125, -0.08984375, 
331, 3366608221, 0.8308227062225342, -0.03314903378486633, -0.5340003371238708, -0.15330815315246582, 9.113860130310059, 1.4736101627349854, 3.4506025314331055, 43.259124755859375, -37.21539306640625, 1.0338189601898193, -0.92822265625, 0.114013671875, -0.08447265625, 
332, 3366616554, 0.8299857974052429, -0.031471237540245056, -0.5356118679046631, -0.1525709629058838, 9.730436325073242, 1.7477350234985352, 3.661623954772949, 27.44721794128418, -21.854433059692383, -6.18406343460083, -0.92626953125, 0.11083984375, -0.080078125, 
333, 3366624887, 0.8293552398681641, -0.02995392680168152, -0.5368525981903076, -0.1519431471824646, 9.362269401550293, 1.6281710863113403, 3.3088583946228027, 24.121301651000977, -16.39213752746582, -5.659097671508789, -0.92822265625, 0.10986328125, -0.0771484375, 
334, 3366633220, 0.8289209604263306, -0.028804823756217957, -0.5377119779586792, -0.15149596333503723, 8.744038581848145, 1.768294095993042, 3.6967015266418457, 17.872413635253906, -11.289131164550781, -4.431507587432861, -0.928466796875, 0.10791015625, -0.076171875, 
335, 3366641553, 0.8285545110702515, -0.028340205550193787, -0.5383814573287964, -0.1512107253074646, 8.440184593200684, 1.934809923171997, 3.8100922107696533, 8.503695487976074, -9.982161521911621, -1.0051922798156738, -0.926025390625, 0.106689453125, -0.07666015625, 
336, 3366649886, 0.8282225131988525, -0.028254643082618713, -0.5390329360961914, -0.15072354674339294, 8.480124473571777, 1.9178766012191772, 3.841456651687622, 5.655239582061768, -10.39173412322998, 4.187594413757324, -0.930419921875, 0.10791015625, -0.07470703125, 
337, 3366658219, 0.8279996514320374, -0.028505191206932068, -0.5394315719604492, -0.15047454833984375, 8.389055252075195, 1.7857543230056763, 4.380774974822998, -0.41916409134864807, -7.304654121398926, 4.287233829498291, -0.930908203125, 0.1083984375, -0.07275390625, 
338, 3366666552, 0.8277645111083984, -0.02921558916568756, -0.5397688150405884, -0.15042269229888916, 8.503419876098633, 1.6611769199371338, 4.601263523101807, -7.249892234802246, -7.572939872741699, 5.4549360275268555, -0.93212890625, 0.10986328125, -0.069580078125, 
339, 3366674885, 0.8275195956230164, -0.029741525650024414, -0.5401488542556763, -0.15030387043952942, 8.436830520629883, 1.3742355108261108, 4.369435787200928, -4.567415237426758, -7.778672218322754, 4.809610366821289, -0.927001953125, 0.10888671875, -0.07275390625, 
340, 3366683218, 0.8272412419319153, -0.029802948236465454, -0.5406537055969238, -0.15000778436660767, 8.691428184509277, 1.3756309747695923, 4.547128200531006, 2.278796434402466, -8.558754920959473, 3.256901741027832, -0.92626953125, 0.1103515625, -0.07177734375, 
341, 3366691551, 0.8267844915390015, -0.029949486255645752, -0.5413922667503357, -0.14983263611793518, 8.622396469116211, 1.159180998802185, 4.287288665771484, 0.8192458152770996, -12.670942306518555, 2.050675868988037, -0.927734375, 0.110107421875, -0.06640625, 
342, 3366699884, 0.8261898159980774, -0.029925063252449036, -0.5423621535301208, -0.14961063861846924, 8.76768970489502, 0.9338942766189575, 4.288824081420898, 3.532075881958008, -15.994904518127441, 0.9308472275733948, -0.9267578125, 0.110107421875, -0.06591796875, 
343, 3366708217, 0.8254396319389343, -0.02957293391227722, -0.5436098575592041, -0.1492922306060791, 8.730953216552734, 0.7898930311203003, 4.661281585693359, 8.482107162475586, -19.676620483398438, -0.8519683480262756, -0.928955078125, 0.109130859375, -0.06396484375, 
344, 3366716550, 0.8247053623199463, -0.028598234057426453, -0.5449008345603943, -0.14883357286453247, 8.51630687713623, 0.6920737028121948, 4.552933216094971, 16.694087982177734, -18.827585220336914, -3.8987061977386475, -0.9296875, 0.110107421875, -0.06005859375, 
345, 3366724883, 0.8240751624107361, -0.02718953788280487, -0.5460997223854065, -0.14819225668907166, 8.529641151428223, 0.7839267253875732, 4.089974880218506, 22.834747314453125, -16.189218521118164, -4.83216667175293, -0.927978515625, 0.106201171875, -0.05859375, 
346, 3366733216, 0.8235036730766296, -0.025614991784095764, -0.5471683144569397, -0.14770671725273132, 8.43680191040039, 1.0709062814712524, 3.5520284175872803, 23.302513122558594, -13.873664855957031, -7.672453880310059, -0.931396484375, 0.107177734375, -0.05615234375, 
347, 3366741549, 0.8224809169769287, -0.023877620697021484, -0.5489497780799866, -0.14708566665649414, 8.752030372619629, 1.2780040502548218, 3.2964632511138916, 27.454421997070312, -25.059934616088867, -8.532073974609375, -0.928955078125, 0.107666015625, -0.05517578125, 
348, 3366749882, 0.821080207824707, -0.022536501288414, -0.5512034296989441, -0.1466936469078064, 8.961721420288086, 1.0412031412124634, 3.509239912033081, 22.075355529785156, -33.978782653808594, -9.050202369689941, -0.929443359375, 0.105224609375, -0.0546875, 
349, 3366758215, 0.8195821642875671, -0.02136625349521637, -0.5535910725593567, -0.14625373482704163, 9.04952621459961, 0.7574318647384644, 4.128241539001465, 20.748252868652344, -36.59000015258789, -7.45284366607666, -0.933837890625, 0.103759765625, -0.0498046875, 
350, 3366766548, 0.8180302381515503, -0.01983599364757538, -0.5560367703437805, -0.1458798050880432, 9.066723823547363, 0.9010862708091736, 3.870333433151245, 24.40485191345215, -36.90914535522461, -11.062719345092773, -0.9296875, 0.1015625, -0.04296875, 
351, 3366774881, 0.8167082667350769, -0.018235981464385986, -0.5581557154655457, -0.14540281891822815, 9.362395286560059, 1.1358025074005127, 3.8684446811676025, 25.384794235229492, -31.364791870117188, -9.885995864868164, -0.93310546875, 0.1005859375, -0.0380859375, 
352, 3366783214, 0.8149855136871338, -0.01674550771713257, -0.5608038902282715, -0.1450590193271637, 9.74959945678711, 1.354154348373413, 3.7280914783477783, 24.08823585510254, -40.569095611572266, -11.474444389343262, -0.931640625, 0.09619140625, -0.034423828125, 
353, 3366791547, 0.8130115866661072, -0.015378788113594055, -0.5638102293014526, -0.14463165402412415, 10.436756134033203, 1.4316251277923584, 4.083230018615723, 24.005952835083008, -46.78842544555664, -10.17029857635498, -0.9296875, 0.096435546875, -0.029541015625, 
354, 3366799880, 0.8113451600074768, -0.013785526156425476, -0.5663443803787231, -0.14425021409988403, 10.179036140441895, 1.4816545248031616, 4.122091293334961, 25.304964065551758, -38.66218566894531, -11.724847793579102, -0.93310546875, 0.093994140625, -0.025634765625, 
355, 3366808213, 0.8098927736282349, -0.012326210737228394, -0.5685440897941589, -0.14389029145240784, 9.834590911865234, 1.6733766794204712, 4.181197643280029, 23.021650314331055, -33.52897262573242, -10.436652183532715, -0.931884765625, 0.093505859375, -0.018310546875, 
356, 3366816546, 0.8086045980453491, -0.01111513376235962, -0.5705065727233887, -0.1434648334980011, 9.850852012634277, 1.4492896795272827, 4.14847469329834, 20.327632904052734, -30.10192108154297, -7.397642135620117, -0.93505859375, 0.09423828125, -0.01171875, 
357, 3366824879, 0.8075242042541504, -0.01008063554763794, -0.5720324516296387, -0.1435498595237732, 9.217700004577637, 1.610129714012146, 3.8025436401367188, 13.531780242919922, -23.8913516998291, -11.215471267700195, -0.933349609375, 0.088623046875, -0.011474609375, 
358, 3366833212, 0.8066362142562866, -0.009072616696357727, -0.573255181312561, -0.14373242855072021, 9.380332946777344, 1.7984288930892944, 3.79479718208313, 11.895513534545898, -19.04656219482422, -11.66612434387207, -0.936767578125, 0.089599609375, -0.007568359375, 
359, 3366841545, 0.8054013848304749, -0.008116647601127625, -0.5749091506004333, -0.14410772919654846, 9.216475486755371, 1.7936660051345825, 3.5626277923583984, 10.609554290771484, -26.64598846435547, -14.133833885192871, -0.933837890625, 0.08642578125, -0.005126953125, 
360, 3366849878, 0.804394006729126, -0.007012173533439636, -0.5762180685997009, -0.1445629894733429, 8.938750267028809, 1.7309144735336304, 3.7536585330963135, 10.963310241699219, -20.720712661743164, -15.703238487243652, -0.93505859375, 0.083740234375, -0.004638671875, 
361, 3366858211, 0.8032727241516113, -0.005585089325904846, -0.5776585340499878, -0.14511024951934814, 8.905217170715332, 1.6151150465011597, 3.4453277587890625, 14.053030014038086, -22.430570602416992, -19.518125534057617, -0.93359375, 0.08154296875, 0.001220703125, 
362, 3366866544, 0.8019803762435913, -0.0041904449462890625, -0.5793167352676392, -0.14569416642189026, 9.088092803955078, 1.513777732849121, 3.705122709274292, 13.826374053955078, -26.255146026611328, -20.020837783813477, -0.935791015625, 0.076904296875, 0.00390625, 
363, 3366874877, 0.8006443977355957, -0.0025436580181121826, -0.5809915661811829, -0.14640936255455017, 8.992692947387695, 1.4789122343063354, 3.4424707889556885, 15.591559410095215, -26.2760009765625, -23.5670108795166, -0.935302734375, 0.07666015625, 0.00634765625, 
364, 3366883210, 0.7996403574943542, -0.0005539208650588989, -0.5821948051452637, -0.1471358835697174, 8.691411018371582, 1.3403557538986206, 3.1486124992370605, 18.338790893554688, -17.73784065246582, -25.746063232421875, -0.934326171875, 0.070068359375, 0.01123046875, 
365, 3366891543, 0.7983725070953369, 0.0014617443084716797, -0.5837481617927551, -0.14785844087600708, 9.087186813354492, 1.2658588886260986, 2.635108470916748, 19.363082885742188, -23.653383255004883, -26.449464797973633, -0.93212890625, 0.069091796875, 0.012451171875, 
366, 3366899876, 0.7969913482666016, 0.003153383731842041, -0.5854188203811646, -0.14867651462554932, 9.01950740814209, 1.6586161851882935, 2.0609872341156006, 15.277477264404297, -26.503942489624023, -25.120182037353516, -0.93359375, 0.064697265625, 0.013427734375, 
367, 3366908209, 0.7960294485092163, 0.004534125328063965, -0.5865147709846497, -0.14947110414505005, 8.919055938720703, 1.858668565750122, 2.1830337047576904, 10.868767738342285, -17.46939468383789, -21.5331974029541, -0.939453125, 0.063232421875, 0.02001953125, 
368, 3366916542, 0.7954784035682678, 0.005678832530975342, -0.5870615243911743, -0.1502181589603424, 8.882025718688965, 1.8208281993865967, 2.507553815841675, 7.512145042419434, -8.622228622436523, -18.294525146484375, -0.938232421875, 0.0576171875, 0.019287109375, 
369, 3366924875, 0.794675350189209, 0.006704449653625488, -0.5879652500152588, -0.1508897840976715, 9.054823875427246, 1.743958830833435, 2.3762753009796143, 7.57633638381958, -14.803434371948242, -17.00313377380371, -0.937255859375, 0.0546875, 0.022216796875, 
370, 3366933208, 0.7939810752868652, 0.007631942629814148, -0.588710606098175, -0.15159335732460022, 8.678595542907715, 1.7362353801727295, 2.557931423187256, 5.905082702636719, -12.398561477661133, -16.345537185668945, -0.9375, 0.05126953125, 0.023193359375, 
371, 3366941541, 0.7936621308326721, 0.008524835109710693, -0.5889523029327393, -0.1522746980190277, 9.23453426361084, 1.7576361894607544, 2.3428235054016113, 4.620347499847412, -3.931567907333374, -15.096866607666016, -0.9384765625, 0.0517578125, 0.026611328125, 
372, 3366949874, 0.7929903268814087, 0.009401783347129822, -0.5896806120872498, -0.15290328860282898, 9.391995429992676, 1.594390869140625, 1.9714539051055908, 5.932079792022705, -12.125797271728516, -15.070768356323242, -0.9365234375, 0.04833984375, 0.0244140625, 
373, 3366958207, 0.792372465133667, 0.010051503777503967, -0.5903406143188477, -0.1535162329673767, 9.474161148071289, 1.6145100593566895, 2.318723678588867, 3.4319751262664795, -11.417816162109375, -12.954285621643066, -0.9365234375, 0.04736328125, 0.029296875, 
374, 3366966540, 0.7919774055480957, 0.010656803846359253, -0.5906969308853149, -0.15414324402809143, 9.837080001831055, 1.858568549156189, 2.4122297763824463, 2.1592037677764893, -6.399347305297852, -12.317928314208984, -0.9404296875, 0.04443359375, 0.030029296875, 
375, 3366974873, 0.7918362021446228, 0.011248260736465454, -0.5907145142555237, -0.1547580063343048, 9.896383285522461, 1.9944407939910889, 2.405372142791748, 1.3552749156951904, -0.6709777116775513, -11.585896492004395, -0.937744140625, 0.04345703125, 0.02880859375, 
376, 3366983206, 0.7918694615364075, 0.011682868003845215, -0.590487003326416, -0.15542277693748474, 9.662415504455566, 2.1452341079711914, 2.404813766479492, -1.3081320524215698, 3.0694055557250977, -10.520780563354492, -0.936767578125, 0.0419921875, 0.02783203125, 
377, 3366991539, 0.7920293807983398, 0.012087762355804443, -0.5900611281394958, -0.1561921238899231, 9.144746780395508, 2.1157455444335938, 2.166033983230591, -2.9260811805725098, 6.182586193084717, -11.182857513427734, -0.938720703125, 0.040283203125, 0.03076171875, 
378, 3366999872, 0.7921774387359619, 0.012545943260192871, -0.5896660089492798, -0.15689587593078613, 8.677639961242676, 2.132530450820923, 1.9366388320922852, -1.7446242570877075, 5.873115062713623, -10.915546417236328, -0.936767578125, 0.037353515625, 0.02685546875, 
379, 3367008205, 0.7922508716583252, 0.012818962335586548, -0.5893616080284119, -0.1576443910598755, 8.629976272583008, 2.2029523849487305, 2.299818515777588, -3.916865110397339, 3.8781232833862305, -10.051321029663086, -0.93603515625, 0.036376953125, 0.025146484375, 
380, 3367016538, 0.7923612594604492, 0.013138160109519958, -0.5890000462532043, -0.15841317176818848, 8.412772178649902, 1.9799602031707764, 2.5127272605895996, -3.708083391189575, 4.890807628631592, -10.574671745300293, -0.9375, 0.035888671875, 0.0263671875, 
381, 3367024871, 0.7924463748931885, 0.013526946306228638, -0.5886909365653992, -0.15910151600837708, 8.638853073120117, 1.7572189569473267, 2.5155277252197266, -2.179656505584717, 4.287926197052002, -10.308719635009766, -0.9365234375, 0.034912109375, 0.027099609375, 
382, 3367033204, 0.7923188209533691, 0.013996392488479614, -0.5886672735214233, -0.15978220105171204, 8.868950843811035, 1.659564733505249, 2.382723808288574, -0.5734387636184692, -0.37398070096969604, -11.287208557128906, -0.93701171875, 0.0322265625, 0.022216796875, 
383, 3367041537, 0.7922876477241516, 0.01442939043045044, -0.588524580001831, -0.1604236364364624, 8.960868835449219, 1.6619278192520142, 2.463754415512085, -0.9343433976173401, 1.6377232074737549, -10.379825592041016, -0.93994140625, 0.02978515625, 0.025146484375, 
384, 3367049870, 0.7921732068061829, 0.014816030859947205, -0.5885220766067505, -0.16096198558807373, 8.987489700317383, 1.8957087993621826, 2.4576821327209473, -0.27756866812705994, -0.6524330377578735, -9.033821105957031, -0.9365234375, 0.029296875, 0.021728515625, 
385, 3367058203, 0.7920089960098267, 0.01515340805053711, -0.5886185169219971, -0.16138505935668945, 9.104466438293457, 2.117050886154175, 2.675943613052368, 0.3455616533756256, -2.2100090980529785, -7.473350524902344, -0.93994140625, 0.02978515625, 0.025146484375, 
386, 3367066536, 0.7919537425041199, 0.015403345227241516, -0.5885853171348572, -0.16175314784049988, 9.071581840515137, 2.3042948246002197, 2.6378982067108154, -0.47059759497642517, -0.10623503476381302, -5.947997093200684, -0.93896484375, 0.0283203125, 0.025634765625, 
387, 3367074869, 0.7919773459434509, 0.015506833791732788, -0.5884579420089722, -0.16209080815315247, 9.102763175964355, 2.3113794326782227, 2.7075743675231934, -2.046846389770508, 1.2471314668655396, -4.278563499450684, -0.939453125, 0.028564453125, 0.022705078125, 
388, 3367083202, 0.7919938564300537, 0.015473887324333191, -0.5883537530899048, -0.16239109635353088, 8.93829345703125, 2.525031805038452, 2.4828243255615234, -3.1765878200531006, 0.6322874426841736, -2.776211738586426, -0.937744140625, 0.027587890625, 0.023681640625, 
389, 3367091535, 0.792110025882721, 0.015428975224494934, -0.5881268382072449, -0.16265088319778442, 8.924294471740723, 2.35109543800354, 2.359659433364868, -3.275202751159668, 2.7669265270233154, -2.0431580543518066, -0.938232421875, 0.026611328125, 0.023193359375, 
390, 3367099868, 0.7922232151031494, 0.015355899930000305, -0.5879120826721191, -0.16288289427757263, 8.816282272338867, 2.1645286083221436, 2.7208282947540283, -3.32773756980896, 2.543058156967163, -1.516298770904541, -0.936767578125, 0.027099609375, 0.020751953125, 
391, 3367108201, 0.7923767566680908, 0.015255555510520935, -0.5876424908638, -0.16311728954315186, 8.864673614501953, 2.0105855464935303, 2.643796682357788, -3.776473045349121, 3.4160168170928955, -1.2450695037841797, -0.939697265625, 0.026123046875, 0.021728515625, 
392, 3367116534, 0.7923182845115662, 0.015071943402290344, -0.58768230676651, -0.1632758378982544, 8.874582290649414, 1.9952995777130127, 2.998361110687256, -3.332321882247925, -1.851256012916565, -0.15275047719478607, -0.94091796875, 0.029052734375, 0.023193359375, 
393, 3367124867, 0.79233318567276, 0.014951467514038086, -0.5876339077949524, -0.16338881850242615, 8.99748420715332, 2.1885600090026855, 3.0154905319213867, -2.4912023544311523, -0.13177242875099182, -0.021528765559196472, -0.938720703125, 0.025146484375, 0.022216796875, 
394, 3367133200, 0.7924215793609619, 0.014765918254852295, -0.5874922871589661, -0.1634860634803772, 9.290583610534668, 2.435110569000244, 2.933561086654663, -3.293952465057373, 1.3196711540222168, 0.8225499391555786, -0.938720703125, 0.026611328125, 0.022705078125, 
395, 3367141533, 0.7925230264663696, 0.014554917812347412, -0.5873502492904663, -0.16352388262748718, 9.4405517578125, 2.501859426498413, 2.939998149871826, -3.0972342491149902, 1.3973331451416016, 1.7037049531936646, -0.938232421875, 0.024658203125, 0.021728515625, 
396, 3367149866, 0.7926181554794312, 0.014327913522720337, -0.5872076153755188, -0.16359469294548035, 9.305581092834473, 2.4229166507720947, 3.0468852519989014, -3.5385935306549072, 1.298974633216858, 1.459729552268982, -0.936767578125, 0.025634765625, 0.020751953125, 
397, 3367158199, 0.7926968932151794, 0.014046698808670044, -0.5870755314826965, -0.1637117564678192, 9.16251277923584, 2.4608938694000244, 3.0715317726135254, -4.475895404815674, 0.932332456111908, 1.3580411672592163, -0.936767578125, 0.025146484375, 0.023193359375, 
398, 3367166532, 0.792815625667572, 0.013897493481636047, -0.5868769884109497, -0.1638614535331726, 9.183361053466797, 2.4446558952331543, 3.1498708724975586, -3.4571659564971924, 2.259354591369629, 0.01493309810757637, -0.939697265625, 0.027099609375, 0.021240234375, 
399, 3367174865, 0.7930053472518921, 0.01386067271232605, -0.5865774750709534, -0.16401904821395874, 9.511871337890625, 2.4227216243743896, 2.867300271987915, -2.53751277923584, 4.195509433746338, -0.8378033638000488, -0.935791015625, 0.025634765625, 0.020263671875, 
400, 3367183198, 0.7932063341140747, 0.013798445463180542, -0.5862560272216797, -0.16420185565948486, 9.62794017791748, 2.3488402366638184, 2.971468687057495, -3.0677783489227295, 4.452880859375, -0.8869826197624207, -0.937744140625, 0.024658203125, 0.019287109375, 
401, 3367191531, 0.7935011386871338, 0.013813257217407227, -0.5858021974563599, -0.1643962860107422, 9.34916877746582, 2.2476396560668945, 2.8669052124023438, -2.6400721073150635, 6.8348259925842285, -1.44675612449646, -0.938232421875, 0.025146484375, 0.018310546875, 
402, 3367199864, 0.7938641905784607, 0.01383364200592041, -0.5852519273757935, -0.16460120677947998, 9.134394645690918, 1.9551925659179688, 2.6094155311584473, -2.893346071243286, 8.43681812286377, -1.4699372053146362, -0.9384765625, 0.028076171875, 0.020751953125, 
403, 3367208197, 0.794283390045166, 0.013876020908355713, -0.5846333503723145, -0.16477307677268982, 9.01868724822998, 1.7245858907699585, 2.718437910079956, -2.554699659347534, 9.703338623046875, -1.1738876104354858, -0.940185546875, 0.02490234375, 0.019287109375, 
404, 3367216530, 0.7946732044219971, 0.013921663165092468, -0.5840686559677124, -0.16489246487617493, 8.856141090393066, 1.688942551612854, 2.8875787258148193, -1.9655725955963135, 8.884222030639648, -0.6815565228462219, -0.937255859375, 0.026611328125, 0.015869140625, 
405, 3367224863, 0.7949615716934204, 0.013892456889152527, -0.5836684703826904, -0.1649216115474701, 8.722175598144531, 1.8132236003875732, 3.0926570892333984, -2.2708170413970947, 5.991451263427734, 0.49502068758010864, -0.943115234375, 0.025390625, 0.012451171875, 
406, 3367233196, 0.795166015625, 0.013787999749183655, -0.5833980441093445, -0.1649014949798584, 8.760488510131836, 1.9426186084747314, 3.1650352478027344, -1.7837625741958618, 3.864394187927246, 1.6836750507354736, -0.938232421875, 0.025390625, 0.012451171875, 
407, 3367241529, 0.7953300476074219, 0.013675317168235779, -0.5832104682922363, -0.1647830307483673, 8.93773365020752, 1.884774923324585, 3.1631247997283936, -1.134544014930725, 2.591494560241699, 2.661677598953247, -0.939208984375, 0.02685546875, 0.013427734375, 
408, 3367249862, 0.7954726815223694, 0.013415545225143433, -0.5830621719360352, -0.16464069485664368, 9.046918869018555, 1.724246859550476, 3.3379337787628174, -2.214491605758667, 1.7052677869796753, 4.1486101150512695, -0.936767578125, 0.0263671875, 0.013427734375, 
409, 3367258195, 0.7955780625343323, 0.013023823499679565, -0.5829678773880005, -0.16449716687202454, 8.948348045349121, 1.9858020544052124, 3.4316048622131348, -3.5180258750915527, 0.5156145691871643, 5.145234107971191, -0.93701171875, 0.029541015625, 0.012451171875, 
410, 3367266528, 0.7956135272979736, 0.012600064277648926, -0.5829776525497437, -0.16432487964630127, 8.754007339477539, 2.302649974822998, 3.2488207817077637, -3.790919303894043, -1.3279316425323486, 5.435186862945557, -0.939453125, 0.02783203125, 0.011474609375, 
411, 3367274861, 0.7956490516662598, 0.012240216135978699, -0.5829736590385437, -0.16419360041618347, 8.647515296936035, 2.246427297592163, 2.9927663803100586, -3.5168728828430176, -1.0554472208023071, 4.4478349685668945, -0.93896484375, 0.031005859375, 0.013427734375, 
412, 3367283194, 0.795703649520874, 0.011877074837684631, -0.5829123854637146, -0.1641731858253479, 8.519289016723633, 2.020733594894409, 2.921118974685669, -4.108459949493408, -0.20841024816036224, 3.4607396125793457, -0.93994140625, 0.029541015625, 0.014892578125, 
413, 3367291527, 0.7957842350006104, 0.011607140302658081, -0.5828102231025696, -0.1641642451286316, 8.440417289733887, 1.8018848896026611, 2.8425073623657227, -3.7844648361206055, 0.5538821816444397, 2.460554599761963, -0.9384765625, 0.0302734375, 0.011962890625, 
414, 3367299860, 0.7958953380584717, 0.011377483606338501, -0.582654595375061, -0.16419410705566406, 8.505328178405762, 1.695099115371704, 2.7031545639038086, -3.2730765342712402, 1.5711771249771118, 1.9525986909866333, -0.93603515625, 0.029541015625, 0.013427734375, 
415, 3367308193, 0.7959814071655273, 0.011216163635253906, -0.582568883895874, -0.16409236192703247, 8.651124000549316, 1.7512946128845215, 2.5337486267089844, -1.7510020732879639, 0.6921222805976868, 2.6427488327026367, -0.9375, 0.03125, 0.009033203125, 
416, 3367316526, 0.7960304021835327, 0.010993316769599915, -0.5825577974319458, -0.16390877962112427, 8.792105674743652, 1.791603922843933, 2.5328755378723145, -1.1507067680358887, -0.46094098687171936, 4.117642402648926, -0.93994140625, 0.031494140625, 0.0126953125, 
417, 3367324859, 0.7961117625236511, 0.010651618242263794, -0.582539975643158, -0.1635986864566803, 8.856461524963379, 1.846858263015747, 2.5111770629882812, -1.981529712677002, -0.4795880913734436, 6.338728427886963, -0.93994140625, 0.03076171875, 0.010986328125, 
418, 3367333192, 0.7961843013763428, 0.01010274887084961, -0.5825595855712891, -0.16321060061454773, 8.843957901000977, 1.8432669639587402, 2.506765842437744, -3.0191121101379395, -1.3114874362945557, 9.025280952453613, -0.93896484375, 0.031494140625, 0.011474609375, 
419, 3367341525, 0.7962759733200073, 0.009264111518859863, -0.5825760960578918, -0.16275352239608765, 8.702719688415527, 1.8252589702606201, 2.5501554012298584, -6.055192947387695, -1.8400628566741943, 11.998528480529785, -0.942138671875, 0.035888671875, 0.01318359375, 
420, 3367349858, 0.7964141964912415, 0.008043736219406128, -0.5825231075286865, -0.16233235597610474, 8.520917892456055, 1.7720030546188354, 2.583951950073242, -10.276497840881348, -1.490249514579773, 14.903416633605957, -0.939697265625, 0.036865234375, 0.01171875, 
421, 3367358191, 0.7966482639312744, 0.006527051329612732, -0.5823386907577515, -0.16191241145133972, 8.328067779541016, 1.6839556694030762, 2.577108383178711, -14.326906204223633, -0.03333693742752075, 17.288768768310547, -0.940185546875, 0.038818359375, 0.01171875, 
422, 3367366524, 0.7969778776168823, 0.004644334316253662, -0.5820193886756897, -0.16150274872779846, 8.258091926574707, 1.697791576385498, 2.4675211906433105, -18.236618041992188, 1.4823737144470215, 20.48143768310547, -0.938720703125, 0.04150390625, 0.0126953125, 
423, 3367374857, 0.7973760962486267, 0.0024430453777313232, -0.5816045999526978, -0.16107866168022156, 8.35535717010498, 1.7148292064666748, 2.3463454246520996, -22.233827590942383, 2.3047451972961426, 23.19214630126953, -0.9404296875, 0.04443359375, 0.014404296875, 
424, 3367383190, 0.7976880073547363, 0.000007405877113342285, -0.581318736076355, -0.16058409214019775, 8.34233283996582, 1.6026941537857056, 2.4738454818725586, -23.546945571899414, -0.25003358721733093, 25.797224044799805, -0.94091796875, 0.0478515625, 0.013427734375, 
425, 3367391523, 0.7979133725166321, -0.002750784158706665, -0.5811567306518555, -0.1600257158279419, 8.355908393859863, 1.7126199007034302, 2.750404119491577, -26.784523010253906, -3.0891451835632324, 28.709856033325195, -0.9384765625, 0.050048828125, 0.012939453125, 
426, 3367399856, 0.7982467412948608, -0.005763575434684753, -0.580847442150116, -0.1594049036502838, 8.368379592895508, 1.8643128871917725, 2.921203851699829, -28.91553497314453, -1.0956121683120728, 31.846921920776367, -0.937744140625, 0.054931640625, 0.012451171875, 
427, 3367408189, 0.7988817095756531, -0.008975967764854431, -0.5801254510879517, -0.15870401263237, 8.459845542907715, 1.9169243574142456, 3.0018012523651123, -31.740053176879883, 5.346418380737305, 34.872459411621094, -0.938720703125, 0.05712890625, 0.011962890625, 
428, 3367416522, 0.7995684146881104, -0.01204313337802887, -0.5793542265892029, -0.15785694122314453, 8.365086555480957, 1.8071902990341187, 3.0101699829101562, -28.68593406677246, 6.652106285095215, 35.582237243652344, -0.939453125, 0.064208984375, 0.015625, 
429, 3367424855, 0.8003101348876953, -0.01500391960144043, -0.5785341858863831, -0.15684989094734192, 8.323673248291016, 1.706878662109375, 2.945727586746216, -26.761838912963867, 7.777392387390137, 36.46548843383789, -0.9365234375, 0.067138671875, 0.0107421875, 
430, 3367433188, 0.800879955291748, -0.01786603033542633, -0.5779789686203003, -0.15568381547927856, 8.394561767578125, 1.6948570013046265, 2.83027720451355, -23.454212188720703, 3.7307705879211426, 37.16099166870117, -0.938232421875, 0.074462890625, 0.010498046875, 
431, 3367441521, 0.8011041879653931, -0.020519375801086426, -0.5779508948326111, -0.15430137515068054, 8.47567081451416, 1.6191929578781128, 2.723289966583252, -18.389806747436523, -4.42928409576416, 37.0128059387207, -0.935302734375, 0.07666015625, 0.0107421875, 
432, 3367449854, 0.8012204766273499, -0.023250281810760498, -0.5780692100524902, -0.15286028385162354, 8.880213737487793, 1.7128326892852783, 2.798262596130371, -19.1042423248291, -7.155104637145996, 37.7867431640625, -0.9365234375, 0.083251953125, 0.013427734375, 
433, 3367458187, 0.8012303709983826, -0.025849685072898865, -0.578281044960022, -0.15158343315124512, 8.953645706176758, 1.7143831253051758, 2.8868589401245117, -18.728296279907227, -8.6867094039917, 34.704444885253906, -0.937255859375, 0.087646484375, 0.011474609375, 
434, 3367466520, 0.8007007241249084, -0.028624624013900757, -0.5791621804237366, -0.15051573514938354, 9.068004608154297, 1.6836848258972168, 3.11775279045105, -20.588205337524414, -20.582365036010742, 32.6267204284668, -0.933349609375, 0.09326171875, 0.014892578125, 
435, 3367474853, 0.8003654479980469, -0.03211311995983124, -0.579604983329773, -0.14988967776298523, 9.399378776550293, 1.5211570262908936, 3.6044957637786865, -33.10184097290039, -15.535357475280762, 33.911624908447266, -0.9365234375, 0.100341796875, 0.01904296875, 
436, 3367483186, 0.7999776601791382, -0.03499826788902283, -0.5800980925559998, -0.14940568804740906, 9.515658378601074, 1.2177670001983643, 3.5109188556671143, -27.205188751220703, -15.177597045898438, 27.518924713134766, -0.93505859375, 0.103515625, 0.0205078125, 
437, 3367491519, 0.7993621230125427, -0.037159696221351624, -0.5809473991394043, -0.14887735247612, 9.53982925415039, 0.9912347197532654, 3.7236275672912598, -18.691608428955078, -19.481037139892578, 21.448020935058594, -0.934326171875, 0.10595703125, 0.021484375, 
438, 3367499852, 0.7989246249198914, -0.0388883501291275, -0.5815819501876831, -0.1483067274093628, 9.724187850952148, 1.1980195045471191, 3.645190954208374, -13.519573211669922, -14.79964542388916, 19.074138641357422, -0.935302734375, 0.107666015625, 0.025146484375, 
439, 3367508185, 0.7988619804382324, -0.04041939973831177, -0.58169025182724, -0.14780816435813904, 9.52541446685791, 1.0719654560089111, 3.3220973014831543, -13.197318077087402, -5.607253074645996, 17.61353302001953, -0.935302734375, 0.11181640625, 0.027587890625, 
440, 3367516518, 0.7990840673446655, -0.04123808443546295, -0.5815097689628601, -0.14708998799324036, 9.536600112915039, 1.004499912261963, 3.1486659049987793, -3.6450726985931396, 1.1970046758651733, 15.202666282653809, -0.934326171875, 0.111328125, 0.029541015625, 
441, 3367524851, 0.7996366620063782, -0.04212509095668793, -0.5808898210525513, -0.14628282189369202, 9.982983589172363, 1.0053452253341675, 3.174459934234619, -4.703888893127441, 8.461409568786621, 17.5356388092041, -0.9345703125, 0.11279296875, 0.027587890625, 
442, 3367533184, 0.7999444603919983, -0.04313705861568451, -0.5805157423019409, -0.1457897424697876, 10.152792930603027, 1.0318015813827515, 2.8618462085723877, -7.915786266326904, 3.7521274089813232, 14.555164337158203, -0.93359375, 0.118896484375, 0.027587890625, 
443, 3367541517, 0.7999439239501953, -0.044687896966934204, -0.5805172920227051, -0.14531809091567993, 10.570462226867676, 1.202134609222412, 3.03266978263855, -14.156904220581055, -3.966609001159668, 17.531848907470703, -0.93310546875, 0.120849609375, 0.029541015625, 
444, 3367549850, 0.8000626564025879, -0.046291157603263855, -0.5802501440048218, -0.14522913098335266, 10.77924919128418, 1.1289255619049072, 3.1345715522766113, -17.53721809387207, 0.12740527093410492, 14.392465591430664, -0.934814453125, 0.12109375, 0.02587890625, 
445, 3367558183, 0.799892783164978, -0.047396719455718994, -0.5805242657661438, -0.14471185207366943, 11.03903865814209, 1.0085495710372925, 3.3809547424316406, -8.082176208496094, -7.421969890594482, 14.096747398376465, -0.931396484375, 0.122314453125, 0.026123046875, 
446, 3367566516, 0.8001834154129028, -0.04857267439365387, -0.5800843834877014, -0.14448031783103943, 11.004469871520996, 0.8289219737052917, 3.71470308303833, -11.926054000854492, 4.167872428894043, 13.012981414794922, -0.935302734375, 0.126708984375, 0.02783203125, 
