sep=,
PacketCounter,SampleTimeFine,Quat_W,Quat_X,Quat_Y,Quat_Z,Acc_X,Acc_Y,Acc_Z,Gyr_X,Gyr_Y,Gyr_Z,Mag_X,Mag_Y,Mag_Z,
0, 3922077668, 0.8838329315185547, -0.028496727347373962, -0.45759302377700806, -0.09306570887565613, 0, 0, 0, 0, 0, 0, -0.977294921875, 0.150634765625, -0.230224609375, 
1, 3922086001, 0.8838154077529907, -0.028399869799613953, -0.45758527517318726, -0.09330031275749207, 8.018329620361328, 0.44571009278297424, 5.723021984100342, -0.5194054841995239, -0.2877759337425232, -3.2679665088653564, -0.978271484375, 0.152587890625, -0.231689453125, 
2, 3922094334, 0.8838214874267578, -0.028260424733161926, -0.45754069089889526, -0.09350350499153137, 8.02029800415039, 0.4635181128978729, 5.761195659637451, 0.16745306551456451, 0.3470856845378876, -3.1239633560180664, -0.984619140625, 0.1494140625, -0.230712890625, 
3, 3922102667, 0.8838478922843933, -0.028063252568244934, -0.457465261220932, -0.09368330240249634, 8.005792617797852, 0.4638645648956299, 5.797985076904297, 1.002963900566101, 0.9200762510299683, -3.1335690021514893, -0.982666015625, 0.150634765625, -0.230712890625, 
4, 3922111000, 0.8838890790939331, -0.027822867035865784, -0.45736876130104065, -0.09383639693260193, 7.98710298538208, 0.4524950087070465, 5.7961106300354, 1.654948115348816, 1.3091049194335938, -3.0841071605682373, -0.982177734375, 0.150390625, -0.234130859375, 
5, 3922119333, 0.8839503526687622, -0.027553245425224304, -0.4572398066520691, -0.09396827220916748, 7.98109245300293, 0.4614310562610626, 5.820865631103516, 2.1277873516082764, 1.8640117645263672, -2.9408726692199707, -0.982177734375, 0.1494140625, -0.233154296875, 
6, 3922127666, 0.8840226531028748, -0.027289971709251404, -0.4570922255516052, -0.09408307075500488, 7.9560933113098145, 0.511063277721405, 5.8148417472839355, 2.1203079223632812, 2.1404404640197754, -2.7033517360687256, -0.979248046875, 0.150634765625, -0.232177734375, 
7, 3922135999, 0.8841012716293335, -0.02702009677886963, -0.4569353759288788, -0.09418219327926636, 7.9445085525512695, 0.5410729646682739, 5.793392181396484, 2.3455593585968018, 2.30252742767334, -2.483043909072876, -0.981689453125, 0.1494140625, -0.233642578125, 
8, 3922144332, 0.884178638458252, -0.02674815058708191, -0.4567831754684448, -0.09427297115325928, 7.945082664489746, 0.535481870174408, 5.766364574432373, 2.373786449432373, 2.23152494430542, -2.457096815109253, -0.981689453125, 0.14794921875, -0.233642578125, 
9, 3922152665, 0.884245753288269, -0.02648162841796875, -0.45665037631988525, -0.09436094760894775, 7.936856746673584, 0.5011187791824341, 5.762582778930664, 2.3597495555877686, 1.926433801651001, -2.3798694610595703, -0.982421875, 0.146484375, -0.233642578125, 
10, 3922160998, 0.884295642375946, -0.02622164785861969, -0.4565524756908417, -0.09444060921669006, 7.938584804534912, 0.44461822509765625, 5.782671928405762, 2.3571624755859375, 1.3779816627502441, -2.3021817207336426, -0.98193359375, 0.146484375, -0.234130859375, 
11, 3922169331, 0.8843291997909546, -0.026030898094177246, -0.4564765393733978, -0.09454607963562012, 7.956015110015869, 0.40784552693367004, 5.829444885253906, 1.355799913406372, 0.9312952160835266, -2.2049505710601807, -0.98046875, 0.14599609375, -0.235107421875, 
12, 3922177664, 0.8843382596969604, -0.02591383457183838, -0.45644447207450867, -0.09464961290359497, 7.929887294769287, 0.4304562509059906, 5.879251956939697, 0.5408061146736145, 0.1447332352399826, -1.772863507270813, -0.97998046875, 0.14404296875, -0.234375, 
13, 3922185997, 0.8843597769737244, -0.025804072618484497, -0.456397145986557, -0.0947045385837555, 7.9367594718933105, 0.40854889154434204, 5.872305393218994, 0.7315809726715088, 0.38327860832214355, -1.1025903224945068, -0.9814453125, 0.14697265625, -0.234130859375, 
14, 3922194330, 0.8844076991081238, -0.02564099431037903, -0.4563155472278595, -0.09469527006149292, 7.926100254058838, 0.40495720505714417, 5.813558578491211, 1.7576103210449219, 1.0116469860076904, -0.6209914684295654, -0.9833984375, 0.144287109375, -0.235107421875, 
15, 3922202663, 0.8844852447509766, -0.025325775146484375, -0.4562084674835205, -0.0945701003074646, 7.939620494842529, 0.39121633768081665, 5.6063947677612305, 4.281278610229492, 1.6667567491531372, -0.1208735778927803, -0.9755859375, 0.14697265625, -0.2373046875, 
16, 3922210996, 0.8845023512840271, -0.025015786290168762, -0.45621639490127563, -0.09445452690124512, 7.924277305603027, 0.3888498842716217, 5.699943542480469, 4.316626071929932, -0.11874759942293167, -0.322534441947937, -0.9814453125, 0.14501953125, -0.234130859375, 
17, 3922219329, 0.8843473792076111, -0.024914637207984924, -0.4565236270427704, -0.09444791078567505, 7.930250644683838, 0.3189174234867096, 5.855195999145508, 1.3718342781066895, -5.0701584815979, -0.6798529624938965, -0.9794921875, 0.14501953125, -0.23779296875, 
18, 3922227662, 0.884252667427063, -0.02483344078063965, -0.45672744512557983, -0.094371497631073, 8.06082534790039, 0.3038426339626312, 5.692617416381836, 1.5047720670700073, -3.486173629760742, 0.42469677329063416, -0.982421875, 0.14404296875, -0.234130859375, 
19, 3922235995, 0.8843623995780945, -0.024675041437149048, -0.4565572440624237, -0.09420809149742126, 8.182353973388672, 0.39679452776908875, 5.5744309425354, 2.559591770172119, 2.4186625480651855, 1.4002916812896729, -0.9794921875, 0.14404296875, -0.2353515625, 
20, 3922244328, 0.8845378160476685, -0.024609893560409546, -0.4562523066997528, -0.09405604004859924, 8.052505493164062, 0.5073137879371643, 5.526057243347168, 1.2167145013809204, 4.351948261260986, 1.9687997102737427, -0.982421875, 0.145751953125, -0.237548828125, 
21, 3922252661, 0.8846603035926819, -0.024609848856925964, -0.4560375213623047, -0.09394600987434387, 7.988207817077637, 0.46013814210891724, 5.621237754821777, 0.20648913085460663, 2.852567195892334, 1.7475180625915527, -0.9794921875, 0.14501953125, -0.23388671875, 
22, 3922260994, 0.8846938610076904, -0.024681463837623596, -0.4559909999370575, -0.09383782744407654, 8.004522323608398, 0.34318915009498596, 5.717572212219238, -0.4352114498615265, 0.155619278550148, 2.0227432250976562, -0.9775390625, 0.14599609375, -0.2373046875, 
23, 3922269327, 0.8847447633743286, -0.024670347571372986, -0.45594072341918945, -0.09360477328300476, 8.03965950012207, 0.3065589666366577, 5.598735332489014, 1.3285720348358154, 0.37679821252822876, 3.0484397411346436, -0.98046875, 0.14697265625, -0.234619140625, 
24, 3922277660, 0.8848075866699219, -0.02452196180820465, -0.45589566230773926, -0.09326842427253723, 7.94719123840332, 0.3549593687057495, 5.6205620765686035, 3.6834163665771484, 0.5285881161689758, 3.455014228820801, -0.9814453125, 0.146484375, -0.237060546875, 
25, 3922285993, 0.8847759962081909, -0.024430125951766968, -0.45602306723594666, -0.09296825528144836, 7.840500354766846, 0.3438059985637665, 5.7186198234558105, 2.9445741176605225, -2.220139503479004, 3.201894760131836, -0.978515625, 0.14501953125, -0.23828125, 
26, 3922294326, 0.8846836090087891, -0.024314209818840027, -0.45626863837242126, -0.09267324209213257, 7.920194625854492, 0.341409832239151, 5.733005046844482, 3.349560499191284, -4.009806156158447, 2.860635995864868, -0.9814453125, 0.14697265625, -0.232666015625, 
27, 3922302659, 0.8846107125282288, -0.024082258343696594, -0.4564940929412842, -0.09231671690940857, 7.994465351104736, 0.39410433173179626, 5.754277229309082, 5.154545307159424, -3.5101239681243896, 2.950209617614746, -0.980712890625, 0.1484375, -0.233642578125, 
28, 3922310992, 0.8845880031585693, -0.023807689547538757, -0.45663249492645264, -0.09192019701004028, 7.992308139801025, 0.45878350734710693, 5.832458019256592, 5.80240535736084, -2.1001622676849365, 3.2232565879821777, -0.98095703125, 0.146484375, -0.232666015625, 
29, 3922319325, 0.8846038579940796, -0.02361828088760376, -0.45668166875839233, -0.0915716290473938, 8.020842552185059, 0.4973334074020386, 5.804413318634033, 4.3278961181640625, -0.8623545169830322, 3.243723154067993, -0.9794921875, 0.1474609375, -0.236083984375, 
30, 3922327658, 0.8846341967582703, -0.023525044322013855, -0.4566863775253296, -0.09127786755561829, 8.01145076751709, 0.532848060131073, 5.773458480834961, 2.8008527755737305, -0.3358282744884491, 3.223461866378784, -0.98095703125, 0.14599609375, -0.234130859375, 
31, 3922335991, 0.8846479058265686, -0.02348470687866211, -0.4567165672779083, -0.09100523591041565, 8.024110794067383, 0.5441142320632935, 5.773489952087402, 2.0413904190063477, -0.8085389137268066, 3.282400131225586, -0.980712890625, 0.14892578125, -0.235595703125, 
32, 3922344324, 0.884657084941864, -0.023453742265701294, -0.4567565321922302, -0.090721994638443, 8.029735565185547, 0.5480567812919617, 5.7854790687561035, 2.013880491256714, -0.9718807339668274, 3.4473297595977783, -0.980712890625, 0.1494140625, -0.234130859375, 
33, 3922352657, 0.8847032785415649, -0.023410171270370483, -0.45672184228897095, -0.0904574990272522, 8.039848327636719, 0.5092518329620361, 5.804872512817383, 1.9111932516098022, 0.190147265791893, 3.19006085395813, -0.981201171875, 0.14794921875, -0.236083984375, 
34, 3922360990, 0.8847940564155579, -0.023347720503807068, -0.4565980136394501, -0.09021124243736267, 7.9957475662231445, 0.5162025690078735, 5.820839881896973, 1.9866527318954468, 1.584073781967163, 2.9537179470062256, -0.978515625, 0.14794921875, -0.236328125, 
35, 3922369323, 0.8849070072174072, -0.02325911819934845, -0.45643025636672974, -0.08997401595115662, 7.971552848815918, 0.47211748361587524, 5.781247615814209, 2.1843690872192383, 2.2939724922180176, 2.729106903076172, -0.981201171875, 0.14990234375, -0.235107421875, 
36, 3922377656, 0.8850057125091553, -0.023134201765060425, -0.4562940001487732, -0.08972629904747009, 7.94898796081543, 0.4484441578388214, 5.734302997589111, 2.743015766143799, 1.862782597541809, 2.594069242477417, -0.977294921875, 0.14990234375, -0.2373046875, 
37, 3922385989, 0.8850752115249634, -0.022974640130996704, -0.45621609687805176, -0.089478999376297, 7.936452388763428, 0.4402240514755249, 5.733545303344727, 3.2143940925598145, 1.0121337175369263, 2.3302934169769287, -0.977294921875, 0.151611328125, -0.235107421875, 
38, 3922394322, 0.8851141929626465, -0.02285178005695343, -0.45618611574172974, -0.08927759528160095, 7.911515712738037, 0.46538662910461426, 5.720850944519043, 2.539510488510132, 0.2057207226753235, 1.936141848564148, -0.96875, 0.149169921875, -0.237548828125, 
39, 3922402655, 0.885146975517273, -0.02274163067340851, -0.4561625123023987, -0.08910030126571655, 7.929525375366211, 0.47535282373428345, 5.726657867431641, 2.0810155868530273, 0.07662498205900192, 1.6179102659225464, -0.979248046875, 0.1484375, -0.237548828125, 
40, 3922410988, 0.8851670026779175, -0.022615760564804077, -0.4561629593372345, -0.08893066644668579, 7.9600749015808105, 0.4409043788909912, 5.737570285797119, 2.409620523452759, -0.2700252830982208, 1.4973186254501343, -0.979248046875, 0.1494140625, -0.239990234375, 
41, 3922419321, 0.8851832151412964, -0.02246949076652527, -0.4561721086502075, -0.08875912427902222, 7.979316711425781, 0.4496762454509735, 5.74813175201416, 2.6931190490722656, -0.3725590109825134, 1.418016791343689, -0.980224609375, 0.15185546875, -0.236083984375, 
42, 3922427654, 0.8852090239524841, -0.02233150601387024, -0.45615944266319275, -0.08860182762145996, 8.001152992248535, 0.4380982518196106, 5.752364635467529, 2.4643325805664062, -0.05532674491405487, 1.2812879085540771, -0.979736328125, 0.14892578125, -0.238525390625, 
43, 3922435987, 0.8852429986000061, -0.02219828963279724, -0.45612436532974243, -0.08847728371620178, 7.998187065124512, 0.4329511821269989, 5.772958755493164, 2.158140182495117, 0.2756476104259491, 0.9385440945625305, -0.979248046875, 0.14892578125, -0.237060546875, 
44, 3922444320, 0.8852869868278503, -0.022088482975959778, -0.4560663402080536, -0.08836367726325989, 8.025251388549805, 0.4409477114677429, 5.809025287628174, 1.7977478504180908, 0.5896781086921692, 0.9629799723625183, -0.972412109375, 0.149658203125, -0.23828125, 
45, 3922452653, 0.8853579163551331, -0.021982386708259583, -0.4559537172317505, -0.08825904130935669, 8.01749038696289, 0.46933263540267944, 5.813732147216797, 1.6340216398239136, 1.4239850044250488, 0.943589985370636, -0.978271484375, 0.14990234375, -0.239990234375, 
46, 3922460986, 0.8854560852050781, -0.021896332502365112, -0.4557824730873108, -0.08818081021308899, 7.985357761383057, 0.49520793557167053, 5.81930685043335, 1.165306806564331, 2.2905654907226562, 0.7817079424858093, -0.978271484375, 0.150390625, -0.239990234375, 
47, 3922469319, 0.8855795860290527, -0.021851152181625366, -0.4555487334728241, -0.08816030621528625, 7.973915100097656, 0.4830045700073242, 5.770106315612793, 0.23351216316223145, 3.179431200027466, 0.4034369885921478, -0.974853515625, 0.1513671875, -0.24072265625, 
48, 3922477652, 0.8857033252716064, -0.02178134024143219, -0.4553185701370239, -0.08812442421913147, 7.971935272216797, 0.44963911175727844, 5.725387096405029, 0.6378328800201416, 3.159451723098755, 0.4161672592163086, -0.979248046875, 0.14892578125, -0.239990234375, 
49, 3922485985, 0.8858341574668884, -0.02161441743373871, -0.4550914764404297, -0.08802101016044617, 7.962579250335693, 0.41467422246932983, 5.681559085845947, 2.2377493381500244, 3.2677998542785645, 0.6500764489173889, -0.978271484375, 0.1494140625, -0.240478515625, 
50, 3922494318, 0.8859009742736816, -0.0214320570230484, -0.4549924433231354, -0.08790576457977295, 7.8676533699035645, 0.4517953395843506, 5.858922004699707, 2.6483452320098877, 1.320477843284607, 0.5712102055549622, -0.973876953125, 0.1494140625, -0.24169921875, 
51, 3922502651, 0.885929524898529, -0.021259769797325134, -0.45495784282684326, -0.08783906698226929, 7.89022159576416, 0.42546626925468445, 5.834561824798584, 2.2694597244262695, 0.29936641454696655, -0.015547841787338257, -0.980224609375, 0.15185546875, -0.240966796875, 
52, 3922510984, 0.8859865665435791, -0.02103281021118164, -0.45487338304519653, -0.08775576949119568, 7.9878973960876465, 0.3910068869590759, 5.702583312988281, 3.0065348148345947, 1.1438422203063965, -0.11247210204601288, -0.977294921875, 0.14892578125, -0.24072265625, 
53, 3922519317, 0.8860596418380737, -0.020818039774894714, -0.4547481834888458, -0.08771771192550659, 7.904966831207275, 0.39787930250167847, 5.690444469451904, 2.523834466934204, 1.742165207862854, -0.5427400469779968, -0.979248046875, 0.15185546875, -0.243896484375, 
54, 3922527650, 0.8860334157943726, -0.02068285644054413, -0.4548046290874481, -0.08772307634353638, 7.880222320556641, 0.415772944688797, 5.802948474884033, 1.4800289869308472, -1.1784085035324097, -0.7598206400871277, -0.979248046875, 0.14990234375, -0.241455078125, 
55, 3922535983, 0.8859644532203674, -0.020593300461769104, -0.4549373984336853, -0.08775287866592407, 7.927615165710449, 0.3760889768600464, 5.861262798309326, 0.8351393342018127, -2.422184705734253, -0.8372524976730347, -0.97705078125, 0.1474609375, -0.24365234375, 
56, 3922544316, 0.8860118389129639, -0.020421847701072693, -0.45485788583755493, -0.08772647380828857, 7.973464012145996, 0.37313202023506165, 5.788597583770752, 1.977687954902649, 0.9724315404891968, -0.4719679057598114, -0.977294921875, 0.14892578125, -0.24169921875, 
57, 3922552649, 0.8861139416694641, -0.02019442617893219, -0.4546809792518616, -0.08766251802444458, 7.866931915283203, 0.38851770758628845, 5.78867769241333, 2.788301467895508, 2.5620765686035156, -0.2545798718929291, -0.96337890625, 0.148193359375, -0.243896484375, 
58, 3922560982, 0.8861513137817383, -0.020066067576408386, -0.45461398363113403, -0.0876626968383789, 7.762401103973389, 0.38918617367744446, 5.805325984954834, 1.2972456216812134, 0.7131130695343018, -0.5432010293006897, -0.979736328125, 0.1484375, -0.241455078125, 
59, 3922569315, 0.8861070871353149, -0.019963577389717102, -0.4546979069709778, -0.087697833776474, 7.8068766593933105, 0.4114839434623718, 5.8187150955200195, 0.9268383383750916, -1.6547820568084717, -0.9258008599281311, -0.976806640625, 0.14892578125, -0.24267578125, 
60, 3922577648, 0.8860092759132385, -0.019795268774032593, -0.4548954665660858, -0.08770132064819336, 7.833669185638428, 0.42604491114616394, 5.847428798675537, 2.0460522174835205, -3.306823253631592, -1.0695480108261108, -0.97900390625, 0.147216796875, -0.2421875, 
61, 3922585981, 0.8858806490898132, -0.019619062542915344, -0.45515233278274536, -0.08770599961280823, 7.862199783325195, 0.42556771636009216, 5.892086029052734, 2.1843435764312744, -4.209725379943848, -1.1761544942855835, -0.96923828125, 0.1484375, -0.242919921875, 
62, 3922594314, 0.8857473134994507, -0.01949256658554077, -0.45540961623191833, -0.08774599432945251, 7.950136661529541, 0.4338068664073944, 5.892791748046875, 1.3700158596038818, -4.297274589538574, -1.3115514516830444, -0.976806640625, 0.14892578125, -0.24267578125, 
63, 3922602647, 0.8856350183486938, -0.019425973296165466, -0.4556170701980591, -0.08781808614730835, 7.976335048675537, 0.43382811546325684, 5.881463527679443, 0.38243329524993896, -3.6206743717193604, -1.270798921585083, -0.9755859375, 0.1474609375, -0.2412109375, 
64, 3922610980, 0.8855794072151184, -0.01936344802379608, -0.45571646094322205, -0.08787640929222107, 7.998631000518799, 0.5123277902603149, 5.871524333953857, 0.3067176342010498, -1.9579776525497437, -0.9959326386451721, -0.979248046875, 0.14794921875, -0.241455078125, 
65, 3922619313, 0.8855924606323242, -0.019268766045570374, -0.45568767189979553, -0.08791351318359375, 7.973639011383057, 0.5469993352890015, 5.844895362854004, 0.68260657787323, 0.06558524817228317, -0.8138154745101929, -0.9765625, 0.1474609375, -0.24169921875, 
66, 3922627646, 0.885649561882019, -0.01919238269329071, -0.45557183027267456, -0.08795619010925293, 7.919484615325928, 0.5454757809638977, 5.81586217880249, 0.3422189950942993, 1.380799412727356, -0.7005237340927124, -0.97705078125, 0.146484375, -0.24072265625, 
67, 3922635979, 0.8856903910636902, -0.019168347120285034, -0.45548027753829956, -0.08802413940429688, 7.849157810211182, 0.4895620346069336, 5.816892147064209, -0.42826998233795166, 0.9285544157028198, -0.6871530413627625, -0.97802734375, 0.14599609375, -0.23974609375, 
68, 3922644312, 0.8856649398803711, -0.019162073731422424, -0.4555169641971588, -0.08809149265289307, 7.759669303894043, 0.4916074573993683, 5.827414035797119, -0.5027306079864502, -1.0721349716186523, -0.7017787098884583, -0.96875, 0.14794921875, -0.242431640625, 
69, 3922652645, 0.885538637638092, -0.019148319959640503, -0.45574888586997986, -0.08816555142402649, 7.700751304626465, 0.43741893768310547, 5.850785732269287, -0.15324994921684265, -4.065619468688965, -0.920857310295105, -0.97265625, 0.146484375, -0.24169921875, 
70, 3922660978, 0.8853275179862976, -0.019107311964035034, -0.4561495780944824, -0.08822232484817505, 7.760560512542725, 0.43155771493911743, 5.8837361335754395, 0.37761783599853516, -6.6286821365356445, -1.1118115186691284, -0.96630859375, 0.146484375, -0.241455078125, 
71, 3922669311, 0.8850701451301575, -0.01904582977294922, -0.4566403329372406, -0.08827969431877136, 7.911288738250732, 0.4099268615245819, 5.881752014160156, 0.6822993159294128, -7.992231369018555, -1.3363717794418335, -0.9775390625, 0.1484375, -0.2392578125, 
72, 3922677644, 0.8848168253898621, -0.01897771656513214, -0.4571228325366974, -0.08833587169647217, 8.0004301071167, 0.42748379707336426, 5.894898891448975, 0.8009700775146484, -7.856886386871338, -1.34702730178833, -0.978515625, 0.1455078125, -0.23828125, 
73, 3922685977, 0.88463294506073, -0.018879055976867676, -0.457479864358902, -0.08835062384605408, 8.046106338500977, 0.4772723317146301, 5.896427631378174, 1.293454885482788, -5.8673505783081055, -0.9032604098320007, -0.97900390625, 0.14697265625, -0.23779296875, 
74, 3922694310, 0.8845260143280029, -0.0187588632106781, -0.45769375562667847, -0.08833760023117065, 8.096662521362305, 0.5365719795227051, 5.886999130249023, 1.5819991827011108, -3.623671054840088, -0.5849778652191162, -0.97314453125, 0.1455078125, -0.2373046875, 
75, 3922702643, 0.8844714164733887, -0.01865518093109131, -0.45780980587005615, -0.08830559253692627, 8.09798526763916, 0.5749495625495911, 5.821000099182129, 1.4026740789413452, -2.1278772354125977, -0.13680563867092133, -0.9794921875, 0.14501953125, -0.23583984375, 
76, 3922710976, 0.8844462633132935, -0.018610194325447083, -0.45786529779434204, -0.08827868103981018, 8.014474868774414, 0.6004239320755005, 5.800798416137695, 0.5811229348182678, -1.2763316631317139, 0.1973704695701599, -0.97900390625, 0.14453125, -0.23583984375, 
77, 3922719309, 0.8843953609466553, -0.01864147186279297, -0.4579606354236603, -0.08828896284103394, 7.982805252075195, 0.594678521156311, 5.775683879852295, -0.5213777422904968, -2.007080078125, 0.21412219107151031, -0.97705078125, 0.14501953125, -0.236328125, 
78, 3922727642, 0.8842942714691162, -0.018695175647735596, -0.4581477642059326, -0.08831945061683655, 7.988174915313721, 0.5645716190338135, 5.762805461883545, -0.8385589122772217, -3.4608676433563232, -0.004943547770380974, -0.978515625, 0.14404296875, -0.2353515625, 
79, 3922735975, 0.8841665983200073, -0.01874643564224243, -0.4583846628665924, -0.08835765719413757, 8.009888648986816, 0.5195372700691223, 5.761220932006836, -0.8512123227119446, -4.230958938598633, -0.17450979351997375, -0.98046875, 0.14453125, -0.23486328125, 
80, 3922744308, 0.8840486407279968, -0.018733695149421692, -0.4586052894592285, -0.08839592337608337, 8.020995140075684, 0.47631630301475525, 5.735663890838623, -0.04303190857172012, -3.8916728496551514, -0.5483750700950623, -0.97900390625, 0.14501953125, -0.23583984375, 
81, 3922752641, 0.8839568495750427, -0.018658772110939026, -0.4587799906730652, -0.08842366933822632, 8.087874412536621, 0.4482516348361969, 5.72221565246582, 0.720976710319519, -3.097221851348877, -0.7529816627502441, -0.97900390625, 0.1455078125, -0.23486328125, 
82, 3922760974, 0.8838989734649658, -0.01855561137199402, -0.4588923454284668, -0.08844110369682312, 8.112553596496582, 0.46453508734703064, 5.666533946990967, 1.0721477270126343, -2.0917351245880127, -0.7640470266342163, -0.9794921875, 0.14501953125, -0.23583984375, 
83, 3922769307, 0.8838682174682617, -0.018434107303619385, -0.45895421504974365, -0.0884513258934021, 8.089369773864746, 0.5198665261268616, 5.626791000366211, 1.3115639686584473, -1.285988211631775, -0.7066967487335205, -0.978515625, 0.1435546875, -0.23388671875, 
84, 3922777640, 0.8838636875152588, -0.018300503492355347, -0.4589686989784241, -0.08844926953315735, 8.045732498168945, 0.5160418748855591, 5.625389099121094, 1.4591789245605469, -0.534159243106842, -0.6290342807769775, -0.9765625, 0.14599609375, -0.23486328125, 
85, 3922785973, 0.8838663101196289, -0.01819281280040741, -0.4589671492576599, -0.0884532630443573, 8.0400390625, 0.5606541633605957, 5.573159217834473, 1.0417691469192505, -0.3262997269630432, -0.5392308235168457, -0.98046875, 0.142578125, -0.23388671875, 
86, 3922794306, 0.8838483095169067, -0.018118739128112793, -0.45899948477745056, -0.08848002552986145, 8.04515266418457, 0.5822628736495972, 5.547186851501465, 0.5707235932350159, -0.9005196690559387, -0.6256276965141296, -0.978515625, 0.142578125, -0.23486328125, 
87, 3922802639, 0.8838126063346863, -0.018061786890029907, -0.45906147360801697, -0.08852699398994446, 8.044759750366211, 0.5626283288002014, 5.56770133972168, 0.240786612033844, -1.3913395404815674, -0.7901734709739685, -0.974609375, 0.1435546875, -0.23388671875, 
88, 3922810972, 0.8837742209434509, -0.018041133880615234, -0.45911747217178345, -0.08862358331680298, 8.07632064819336, 0.5701465010643005, 5.554116249084473, -0.49573785066604614, -1.3654435873031616, -1.1672918796539307, -0.97705078125, 0.14404296875, -0.23388671875, 
89, 3922819305, 0.88374924659729, -0.01804366707801819, -0.4591430723667145, -0.08873838186264038, 8.068306922912598, 0.5579274892807007, 5.534559726715088, -0.9307188391685486, -0.9335108995437622, -1.201256275177002, -0.978515625, 0.142578125, -0.23291015625, 
90, 3922827638, 0.8837525844573975, -0.018019646406173706, -0.4591178297996521, -0.08884203433990479, 8.079107284545898, 0.5444100499153137, 5.517195224761963, -0.5869758129119873, -0.10980822145938873, -1.2040481567382812, -0.97265625, 0.14306640625, -0.236083984375, 
91, 3922835971, 0.8837724328041077, -0.01799546182155609, -0.4590604305267334, -0.08894726634025574, 8.099586486816406, 0.5398608446121216, 5.53127908706665, -0.6253970861434937, 0.38724878430366516, -1.171236515045166, -0.97802734375, 0.14453125, -0.23486328125, 
92, 3922844304, 0.8838005661964417, -0.017998456954956055, -0.4589821696281433, -0.08907073736190796, 8.013716697692871, 0.5422707200050354, 5.5594048500061035, -1.0996192693710327, 0.6642924547195435, -1.2311482429504395, -0.9775390625, 0.14306640625, -0.23486328125, 
93, 3922852637, 0.8838126063346863, -0.01809719204902649, -0.45892149209976196, -0.08924230933189392, 7.998619556427002, 0.5464257597923279, 5.620096683502197, -2.543980360031128, 0.24501295387744904, -1.2084795236587524, -0.9755859375, 0.14111328125, -0.2353515625, 
94, 3922860970, 0.8838068842887878, -0.018268540501594543, -0.4588896632194519, -0.08942762017250061, 8.017401695251465, 0.5489672422409058, 5.669289588928223, -3.4861741065979004, -0.30437394976615906, -0.973315417766571, -0.9794921875, 0.1435546875, -0.23388671875, 
95, 3922869303, 0.8838002681732178, -0.01847049593925476, -0.45885926485061646, -0.08960813283920288, 8.035881996154785, 0.5521949529647827, 5.686115741729736, -3.8364741802215576, -0.3659761846065521, -0.7070040702819824, -0.9794921875, 0.1416015625, -0.234375, 
96, 3922877636, 0.8837751746177673, -0.018634259700775146, -0.45887279510498047, -0.08975270390510559, 8.013833999633789, 0.5344835519790649, 5.628294467926025, -3.085439920425415, -0.9796164631843567, -0.5595942139625549, -0.97802734375, 0.14111328125, -0.234375, 
97, 3922885969, 0.8837276697158813, -0.018673062324523926, -0.45894765853881836, -0.08982792496681213, 8.011540412902832, 0.4967709481716156, 5.506348609924316, -1.0481857061386108, -1.7268093824386597, -0.5193798542022705, -0.971923828125, 0.1416015625, -0.233154296875, 
98, 3922894302, 0.8835997581481934, -0.018732652068138123, -0.4591671824455261, -0.08995246887207031, 7.981140613555908, 0.5123112797737122, 5.700145244598389, -1.465672254562378, -4.007961750030518, -1.1527431011199951, -0.97900390625, 0.142578125, -0.23193359375, 
99, 3922902635, 0.8833159804344177, -0.018977954983711243, -0.45965659618377686, -0.090189129114151, 7.988982677459717, 0.4669910669326782, 5.892293930053711, -4.145331382751465, -8.470962524414062, -1.5914127826690674, -0.98095703125, 0.1416015625, -0.2314453125, 
100, 3922910968, 0.8831509351730347, -0.019168034195899963, -0.4599265158176422, -0.09038922190666199, 8.12788200378418, 0.45662152767181396, 5.723907470703125, -3.4775424003601074, -4.997849464416504, -1.3055063486099243, -0.98046875, 0.1435546875, -0.23046875, 
101, 3922919301, 0.883223295211792, -0.01925194263458252, -0.45976099371910095, -0.09050530195236206, 8.179542541503906, 0.5444857478141785, 5.628026485443115, -2.1986746788024902, 1.900435447692871, -0.5728880167007446, -0.9755859375, 0.1435546875, -0.23095703125, 
102, 3922927634, 0.8833448886871338, -0.01942881941795349, -0.4594896137714386, -0.09065848588943481, 7.987691402435303, 0.6079751253128052, 5.608807563781738, -3.617882490158081, 3.393745183944702, -0.32174038887023926, -0.98046875, 0.141357421875, -0.23388671875, 
103, 3922935967, 0.88337641954422, -0.019705966114997864, -0.4593731462955475, -0.09088155627250671, 7.9305219650268555, 0.5410196781158447, 5.671849727630615, -5.09600305557251, 0.8377007246017456, -0.6616669297218323, -0.97900390625, 0.142578125, -0.23486328125, 
104, 3922944300, 0.8833081126213074, -0.020014464855194092, -0.4594487249851227, -0.09109559655189514, 8.017180442810059, 0.44496625661849976, 5.708344459533691, -5.218362808227539, -2.167835235595703, -0.5609004497528076, -0.97900390625, 0.14306640625, -0.2314453125, 
105, 3922952633, 0.8832396268844604, -0.020229235291481018, -0.45954808592796326, -0.09121185541152954, 8.132009506225586, 0.4369698464870453, 5.636776924133301, -3.4543871879577637, -2.368522882461548, 0.035795893520116806, -0.9765625, 0.1435546875, -0.23095703125, 
106, 3922960966, 0.883171558380127, -0.02033601701259613, -0.45966291427612305, -0.09126874804496765, 8.02885913848877, 0.42853671312332153, 5.675315856933594, -1.7255284786224365, -2.434299945831299, 0.06458628922700882, -0.96826171875, 0.144287109375, -0.230712890625, 
107, 3922969299, 0.8830429911613464, -0.02038140594959259, -0.4598936140537262, -0.09134072065353394, 7.9572319984436035, 0.36747631430625916, 5.678039073944092, -0.9324606657028198, -4.140233993530273, -0.5837996602058411, -0.97998046875, 0.1435546875, -0.22998046875, 
108, 3922977632, 0.8829269409179688, -0.020326942205429077, -0.46010929346084595, -0.09138920903205872, 8.064800262451172, 0.30369725823402405, 5.636651515960693, 0.39813485741615295, -3.7620136737823486, -0.9415280222892761, -0.98046875, 0.14404296875, -0.2294921875, 
109, 3922985965, 0.882855236530304, -0.02014322578907013, -0.4602597951889038, -0.09136396646499634, 8.1478910446167, 0.3281947672367096, 5.6566619873046875, 2.415947914123535, -2.5455172061920166, -0.7337966561317444, -0.978515625, 0.14306640625, -0.2294921875, 
110, 3922994298, 0.8828397989273071, -0.019964605569839478, -0.460305392742157, -0.09132188558578491, 8.122191429138184, 0.3775521218776703, 5.693004131317139, 2.293870210647583, -0.9291820526123047, -0.45321834087371826, -0.97900390625, 0.14208984375, -0.2294921875, 
111, 3923002631, 0.8828903436660767, -0.019848912954330444, -0.46021682024002075, -0.09130483865737915, 8.10336971282959, 0.4319673478603363, 5.679321765899658, 1.212257742881775, 1.0462262630462646, -0.22581510245800018, -0.9794921875, 0.14208984375, -0.23291015625, 
112, 3923010964, 0.8829683065414429, -0.019786536693572998, -0.4600704610347748, -0.09130272269248962, 8.037141799926758, 0.46341460943222046, 5.673958778381348, 0.41445112228393555, 1.8558409214019775, -0.033144816756248474, -0.97705078125, 0.142578125, -0.23046875, 
113, 3923019297, 0.883037805557251, -0.01971776783466339, -0.45994457602500916, -0.09127968549728394, 8.003212928771973, 0.45527756214141846, 5.653061866760254, 0.6295850872993469, 1.5564360618591309, 0.1721404641866684, -0.9775390625, 0.14111328125, -0.2314453125, 
114, 3923027630, 0.8830850720405579, -0.019599005579948425, -0.4598711431026459, -0.09121876955032349, 7.9818925857543945, 0.4620671272277832, 5.680722713470459, 1.5531830787658691, 0.8312458992004395, 0.2651457190513611, -0.978515625, 0.14208984375, -0.2314453125, 
115, 3923035963, 0.8830927610397339, -0.019465923309326172, -0.4598710536956787, -0.09117189049720764, 7.96488094329834, 0.4498532712459564, 5.710616111755371, 1.7120683193206787, -0.285675585269928, -0.05130531266331673, -0.9765625, 0.1416015625, -0.23095703125, 
116, 3923044296, 0.8830710649490356, -0.019336462020874023, -0.4599200487136841, -0.09116232395172119, 7.968275547027588, 0.40890002250671387, 5.744246482849121, 1.4945263862609863, -1.0650142431259155, -0.5446354746818542, -0.97900390625, 0.14111328125, -0.23388671875, 
117, 3923052629, 0.8830258846282959, -0.0191926509141922, -0.460014283657074, -0.09115523099899292, 7.9762701988220215, 0.4140993058681488, 5.764793395996094, 1.7439581155776978, -1.7385919094085693, -0.6595665812492371, -0.98046875, 0.1416015625, -0.23095703125, 
118, 3923060962, 0.8829633593559265, -0.019032001495361328, -0.4601436257362366, -0.09114250540733337, 8.002178192138672, 0.39260634779930115, 5.787707328796387, 1.9822982549667358, -2.2597644329071045, -0.7741389870643616, -0.98046875, 0.140625, -0.23046875, 
119, 3923069295, 0.8828834295272827, -0.018890976905822754, -0.4603031873703003, -0.09113875031471252, 8.059828758239746, 0.3797023892402649, 5.779002666473389, 1.7151931524276733, -2.758064031600952, -0.775829553604126, -0.98095703125, 0.140625, -0.23046875, 
120, 3923077628, 0.8827970027923584, -0.018813252449035645, -0.4604659080505371, -0.09117135405540466, 8.127680778503418, 0.4232601821422577, 5.8128790855407715, 0.7241528630256653, -2.9080355167388916, -0.8418374061584473, -0.977294921875, 0.1396484375, -0.228515625, 
121, 3923085961, 0.8827475905418396, -0.018778234720230103, -0.46055012941360474, -0.0912320613861084, 8.142829895019531, 0.47582849860191345, 5.791625499725342, -0.0328630656003952, -1.7646160125732422, -0.8056190013885498, -0.978515625, 0.1416015625, -0.23095703125, 
122, 3923094294, 0.8827663064002991, -0.018734827637672424, -0.4605063199996948, -0.09128075838088989, 8.188361167907715, 0.5731860995292664, 5.771435737609863, -0.025204405188560486, 0.22569981217384338, -0.6329020857810974, -0.97900390625, 0.140625, -0.22998046875, 
123, 3923102627, 0.8828768134117126, -0.018693044781684875, -0.46028515696525574, -0.09133508801460266, 8.105935096740723, 0.6269749999046326, 5.705627918243408, -0.2987644672393799, 2.9589436054229736, -0.5240672826766968, -0.97802734375, 0.14208984375, -0.2314453125, 
124, 3923110960, 0.8830687999725342, -0.018627628684043884, -0.45990559458732605, -0.09140512347221375, 8.041327476501465, 0.6205467581748962, 5.606858253479004, -0.2707168459892273, 5.431716442108154, -0.7279309630393982, -0.97802734375, 0.1416015625, -0.232421875, 
125, 3923119293, 0.8832713961601257, -0.01857602596282959, -0.4594970941543579, -0.09151116013526917, 7.954553127288818, 0.5753044486045837, 5.531993865966797, -0.6775990128517151, 5.8449506759643555, -1.0210859775543213, -0.966064453125, 0.138916015625, -0.2314453125, 
126, 3923127626, 0.8834137320518494, -0.018550947308540344, -0.45919835567474365, -0.09164190292358398, 7.862723350524902, 0.5142481923103333, 5.501097202301025, -1.0559214353561401, 4.101902008056641, -1.293160319328308, -0.977783203125, 0.138671875, -0.232421875, 
127, 3923135959, 0.8834669589996338, -0.018538355827331543, -0.459067165851593, -0.09178963303565979, 7.82921028137207, 0.4734765887260437, 5.518424987792969, -1.0950086116790771, 1.494091272354126, -1.5356760025024414, -0.977294921875, 0.13818359375, -0.23193359375, 
128, 3923144292, 0.883431613445282, -0.018528372049331665, -0.4591001570224762, -0.09196668863296509, 7.819112300872803, 0.5077032446861267, 5.512394905090332, -1.1596845388412476, -1.0561773777008057, -2.0696301460266113, -0.976806640625, 0.1396484375, -0.234375, 
129, 3923152625, 0.8833305835723877, -0.01849968731403351, -0.4592588245868683, -0.09214943647384644, 7.901237964630127, 0.5358186364173889, 5.546177387237549, -0.8251624703407288, -2.9731717109680176, -2.351975440979004, -0.973388671875, 0.14111328125, -0.231689453125, 
130, 3923160958, 0.8832067847251892, -0.018428415060043335, -0.4594712555408478, -0.09229272603988647, 7.986405372619629, 0.5427393913269043, 5.521444797515869, 0.003521957667544484, -3.7280240058898926, -2.203310966491699, -0.979248046875, 0.139892578125, -0.2333984375, 
131, 3923169291, 0.8830946683883667, -0.018319055438041687, -0.4596763849258423, -0.0923650860786438, 7.993857383728027, 0.6071394681930542, 5.6103739738464355, 0.8687450289726257, -3.5347893238067627, -1.5756338834762573, -0.971435546875, 0.13916015625, -0.233642578125, 
132, 3923177624, 0.8830098509788513, -0.0182696133852005, -0.4598178565502167, -0.09248030185699463, 8.013008117675781, 0.6334561109542847, 5.7517499923706055, -0.1627272516489029, -2.6537628173828125, -1.6560370922088623, -0.977783203125, 0.13818359375, -0.2314453125, 
133, 3923185957, 0.8830022811889648, -0.018182381987571716, -0.4598132073879242, -0.09259286522865295, 8.08824634552002, 0.6064249873161316, 5.645437717437744, 0.13430823385715485, -0.3430514335632324, -1.7178442478179932, -0.976806640625, 0.136962890625, -0.232666015625, 
134, 3923194290, 0.8830701112747192, -0.0180988609790802, -0.4596587121486664, -0.09273013472557068, 8.091014862060547, 0.5506384968757629, 5.5518999099731445, -0.2296060174703598, 1.9537643194198608, -1.8711198568344116, -0.976806640625, 0.13720703125, -0.232177734375, 
135, 3923202623, 0.8831116557121277, -0.018095701932907104, -0.45954254269599915, -0.09291121363639832, 8.00092887878418, 0.5425004959106445, 5.589459419250488, -1.4536848068237305, 1.231135368347168, -1.930903434753418, -0.971435546875, 0.13916015625, -0.232666015625, 
136, 3923210956, 0.8830268383026123, -0.01814410090446472, -0.45966118574142456, -0.09312164783477783, 7.935584545135498, 0.5142389535903931, 5.716699123382568, -1.9819523096084595, -2.477792978286743, -2.190964698791504, -0.973388671875, 0.1357421875, -0.231201171875, 
137, 3923219289, 0.8829323649406433, -0.018176421523094177, -0.45980802178382874, -0.09328469634056091, 8.015607833862305, 0.4581908583641052, 5.6992292404174805, -1.450329065322876, -2.870049476623535, -1.7129262685775757, -0.977294921875, 0.135986328125, -0.232666015625, 
138, 3923227622, 0.882938802242279, -0.018063649535179138, -0.4597856402397156, -0.09335556626319885, 8.07044506072998, 0.508374035358429, 5.637556076049805, 0.7002291083335876, -0.016290653496980667, -1.3608843088150024, -0.974853515625, 0.13818359375, -0.232177734375, 
139, 3923235955, 0.8829503059387207, -0.01791541278362274, -0.45975929498672485, -0.09340614080429077, 8.025272369384766, 0.4900875389575958, 5.677268028259277, 1.2728099822998047, 0.10585083067417145, -1.3017412424087524, -0.968505859375, 0.13720703125, -0.231689453125, 
140, 3923244288, 0.8829085230827332, -0.017824411392211914, -0.45982447266578674, -0.09349754452705383, 8.017489433288574, 0.5162657499313354, 5.6289567947387695, 0.4069461524486542, -1.4068872928619385, -1.5553475618362427, -0.971923828125, 0.13427734375, -0.230712890625, 
141, 3923252621, 0.8828494548797607, -0.017714381217956543, -0.45992839336395264, -0.09356561303138733, 8.104194641113281, 0.5669617652893066, 5.644196033477783, 0.8211795687675476, -1.967993140220642, -1.4124715328216553, -0.975341796875, 0.138671875, -0.230224609375, 
142, 3923260954, 0.8828139305114746, -0.01759345829486847, -0.45999056100845337, -0.09361764788627625, 8.099791526794434, 0.58805912733078, 5.696444988250732, 1.0156171321868896, -1.3024324178695679, -1.258965253829956, -0.977783203125, 0.135498046875, -0.229248046875, 
143, 3923269287, 0.8828206658363342, -0.01750989258289337, -0.4599652886390686, -0.09369421005249023, 8.09643268585205, 0.5874845385551453, 5.736186504364014, 0.3075372874736786, -0.014343971386551857, -1.2251543998718262, -0.977783203125, 0.137451171875, -0.23388671875, 
144, 3923277620, 0.8828725814819336, -0.017471134662628174, -0.45984870195388794, -0.09378373622894287, 8.112027168273926, 0.5664191246032715, 5.6627326011657715, -0.428423672914505, 1.3239357471466064, -1.038170576095581, -0.969482421875, 0.13623046875, -0.231201171875, 
145, 3923285953, 0.8829627633094788, -0.017438262701034546, -0.4596601128578186, -0.09386533498764038, 8.088316917419434, 0.5607771873474121, 5.647175312042236, -0.5271666049957275, 2.432955503463745, -0.8153011798858643, -0.976806640625, 0.135498046875, -0.232177734375, 
146, 3923294286, 0.8830670118331909, -0.01738414168357849, -0.4594515562057495, -0.09391599893569946, 8.005355834960938, 0.5398218035697937, 5.670025825500488, -0.10166289657354355, 2.782435894012451, -0.5747835040092468, -0.976806640625, 0.1357421875, -0.229736328125, 
147, 3923302619, 0.8831605315208435, -0.017297551035881042, -0.45926737785339355, -0.0939536988735199, 7.975893020629883, 0.5301412343978882, 5.708760738372803, 0.3739806115627289, 2.4564690589904785, -0.642763614654541, -0.976806640625, 0.135986328125, -0.235107421875, 
148, 3923310952, 0.8832411170005798, -0.017202824354171753, -0.4591037333011627, -0.09401357173919678, 7.8860297203063965, 0.5318588614463806, 5.72389554977417, 0.38589125871658325, 2.1412603855133057, -0.9864299297332764, -0.975341796875, 0.134033203125, -0.234130859375, 
149, 3923319285, 0.8832796812057495, -0.017082899808883667, -0.4590248167514801, -0.09405755996704102, 7.7254638671875, 0.4682823121547699, 5.780913352966309, 0.841261088848114, 0.8725618124008179, -1.041346788406372, -0.976318359375, 0.135498046875, -0.235595703125, 
150, 3923327618, 0.8832120895385742, -0.016967251896858215, -0.4591546058654785, -0.09407982230186462, 7.767409801483154, 0.5017286539077759, 5.7498860359191895, 1.2219399213790894, -2.3391432762145996, -0.9194998145103455, -0.971923828125, 0.13623046875, -0.235107421875, 
151, 3923335951, 0.8830376863479614, -0.016894355416297913, -0.4594891667366028, -0.09409701824188232, 7.975074768066406, 0.6568859815597534, 5.684322834014893, 1.0595712661743164, -5.550655841827393, -0.6947861313819885, -0.975341796875, 0.133056640625, -0.230712890625, 
152, 3923344284, 0.8828334808349609, -0.016909196972846985, -0.45986589789390564, -0.09417134523391724, 8.097698211669922, 0.7958673238754272, 5.736408233642578, -0.40506353974342346, -6.358964443206787, -0.9633513689041138, -0.969970703125, 0.13623046875, -0.235107421875, 
153, 3923352617, 0.8826884627342224, -0.017069712281227112, -0.46010369062423706, -0.09433868527412415, 8.166412353515625, 0.8895336389541626, 5.792655944824219, -2.9539101123809814, -4.4645094871521, -1.0620685815811157, -0.97314453125, 0.132080078125, -0.231689453125, 
154, 3923360950, 0.8826560378074646, -0.017266198992729187, -0.4601195454597473, -0.09452885389328003, 8.145822525024414, 0.8426765203475952, 5.784983158111572, -3.769774913787842, -1.0984920263290405, -0.9132242798805237, -0.97314453125, 0.133056640625, -0.231689453125, 
155, 3923369283, 0.8826853036880493, -0.017403170466423035, -0.4600219130516052, -0.09470421075820923, 8.028230667114258, 0.7280595898628235, 5.779306888580322, -3.1202750205993652, 0.7398288249969482, -1.0060503482818604, -0.968017578125, 0.13427734375, -0.232421875, 
156, 3923377616, 0.8827390670776367, -0.01751047372817993, -0.45988497138023376, -0.09484881162643433, 7.819135665893555, 0.5277073979377747, 5.795458793640137, -2.57743239402771, 1.406080722808838, -0.7764699459075928, -0.976318359375, 0.135009765625, -0.231689453125, 
157, 3923385949, 0.882773756980896, -0.017644360661506653, -0.459786057472229, -0.0949811339378357, 7.791386127471924, 0.4634065628051758, 5.717637538909912, -2.7842161655426025, 0.7853452563285828, -0.47711634635925293, -0.9736328125, 0.132080078125, -0.232177734375, 
158, 3923394282, 0.8826919794082642, -0.01784062385559082, -0.45990702509880066, -0.09511908888816833, 7.917522430419922, 0.5915301442146301, 5.652351379394531, -3.3093082904815674, -2.70038104057312, -0.37222611904144287, -0.976318359375, 0.134033203125, -0.231201171875, 
159, 3923402615, 0.8824906945228577, -0.018122568726539612, -0.4602506756782532, -0.09527018666267395, 7.939378261566162, 0.7187953591346741, 5.694721221923828, -4.160980701446533, -6.265933036804199, -0.17210203409194946, -0.974365234375, 0.134521484375, -0.231201171875, 
160, 3923410948, 0.8822565674781799, -0.01847735047340393, -0.4606562852859497, -0.09540954232215881, 8.022933006286621, 0.7678964138031006, 5.757450580596924, -4.908738136291504, -7.325441360473633, 0.343576580286026, -0.975830078125, 0.13525390625, -0.228759765625, 
161, 3923419281, 0.8820918798446655, -0.018893375992774963, -0.4609260857105255, -0.09554818272590637, 8.14035701751709, 0.7367632389068604, 5.767289161682129, -5.816404342651367, -5.318309783935547, 0.881270706653595, -0.969970703125, 0.1357421875, -0.229248046875, 
162, 3923427614, 0.8820331692695618, -0.019336581230163574, -0.4609944522380829, -0.09567111730575562, 8.223636627197266, 0.6818646788597107, 5.742267608642578, -6.274129867553711, -2.2435762882232666, 1.421730875968933, -0.96240234375, 0.135009765625, -0.2294921875, 
163, 3923435947, 0.8820374011993408, -0.01979568600654602, -0.4609399139881134, -0.0958007276058197, 8.184239387512207, 0.6041853427886963, 5.693561553955078, -6.539902687072754, -0.3641831874847412, 1.6589187383651733, -0.976318359375, 0.13525390625, -0.227783203125, 
164, 3923444280, 0.8820558786392212, -0.02023439109325409, -0.4608692228794098, -0.09587961435317993, 8.126443862915039, 0.5385190844535828, 5.621469020843506, -6.1026434898376465, -0.0748191848397255, 2.0654423236846924, -0.972412109375, 0.13671875, -0.227783203125, 
165, 3923452613, 0.8820644617080688, -0.02064429223537445, -0.4608289301395416, -0.09590837359428406, 8.09947681427002, 0.4528971016407013, 5.588632583618164, -5.423405170440674, -0.4815988838672638, 2.4735283851623535, -0.976318359375, 0.13623046875, -0.227783203125, 
166, 3923460946, 0.8820714354515076, -0.02102448046207428, -0.4608003497123718, -0.09589868783950806, 8.098150253295898, 0.4207724928855896, 5.591186046600342, -4.780206203460693, -0.6047008633613586, 2.7430672645568848, -0.975830078125, 0.13720703125, -0.227294921875, 
167, 3923469279, 0.8820894360542297, -0.02136284112930298, -0.460763543844223, -0.09583547711372375, 8.095187187194824, 0.4092329740524292, 5.538599014282227, -3.9072465896606445, -0.39381882548332214, 3.185962438583374, -0.968994140625, 0.136962890625, -0.226806640625, 
168, 3923477612, 0.8821083903312683, -0.021631181240081787, -0.4607398509979248, -0.09571489691734314, 8.092212677001953, 0.37772098183631897, 5.515092372894287, -2.7120864391326904, -0.4718654453754425, 3.3930022716522217, -0.973388671875, 0.138671875, -0.227783203125, 
169, 3923485945, 0.8821254372596741, -0.02185387909412384, -0.46072983741760254, -0.09555387496948242, 8.133916854858398, 0.3517179787158966, 5.489735126495361, -1.8921748399734497, -0.6031895875930786, 3.6016299724578857, -0.966552734375, 0.140869140625, -0.226806640625, 
170, 3923494278, 0.8821516036987305, -0.02201630175113678, -0.46071383357048035, -0.09535306692123413, 8.12533950805664, 0.3581812083721161, 5.454645156860352, -0.9054374098777771, -0.4060367941856384, 3.703190326690674, -0.972900390625, 0.13916015625, -0.228759765625, 
171, 3923502611, 0.8821980953216553, -0.02210848033428192, -0.4606652557849884, -0.09513521194458008, 8.110357284545898, 0.3476299047470093, 5.485239505767822, 0.004341613035649061, 0.2045937180519104, 3.5087532997131348, -0.9736328125, 0.141845703125, -0.227294921875, 
172, 3923510944, 0.8822741508483887, -0.022141054272651672, -0.4605688452720642, -0.09488940238952637, 8.114235877990723, 0.33591005206108093, 5.482790470123291, 0.8626233339309692, 1.0433573722839355, 3.5151822566986084, -0.975341796875, 0.14013671875, -0.2275390625, 
173, 3923519277, 0.8823719620704651, -0.022115394473075867, -0.46044111251831055, -0.09460559487342834, 8.102507591247559, 0.3403854966163635, 5.49459171295166, 1.747211217880249, 1.6246981620788574, 3.64335560798645, -0.972900390625, 0.13916015625, -0.230224609375, 
174, 3923527610, 0.8824710845947266, -0.022079408168792725, -0.46030929684638977, -0.09432995319366455, 8.089881896972656, 0.35193297266960144, 5.500265121459961, 1.845928430557251, 1.6994149684906006, 3.4838309288024902, -0.968017578125, 0.140380859375, -0.228759765625, 
175, 3923535943, 0.8825644850730896, -0.02202276885509491, -0.4601925015449524, -0.09403911232948303, 8.051339149475098, 0.3496139943599701, 5.509455680847168, 2.185573101043701, 1.502876877784729, 3.526350498199463, -0.958251953125, 0.138916015625, -0.23046875, 
176, 3923544276, 0.8826745748519897, -0.02191673219203949, -0.46004676818847656, -0.09374275803565979, 8.060609817504883, 0.3584904968738556, 5.5514116287231445, 2.81424880027771, 2.021385908126831, 3.3107810020446777, -0.973876953125, 0.140625, -0.230712890625, 
177, 3923552609, 0.8828176856040955, -0.021739423274993896, -0.45984533429145813, -0.09342393279075623, 8.032954216003418, 0.30681487917900085, 5.604816436767578, 3.7449679374694824, 2.9930620193481445, 3.2006399631500244, -0.9697265625, 0.142333984375, -0.230224609375, 
178, 3923560942, 0.8829900622367859, -0.021531954407691956, -0.4595911204814911, -0.09309270977973938, 7.99670934677124, 0.2963358163833618, 5.679919719696045, 4.142858505249023, 3.8519582748413086, 3.204148530960083, -0.971435546875, 0.14111328125, -0.231689453125, 
179, 3923569275, 0.8831717371940613, -0.02133871614933014, -0.4593202471733093, -0.09275034070014954, 8.019078254699707, 0.3051340878009796, 5.696599960327148, 4.018194198608398, 4.093295574188232, 3.4618277549743652, -0.968505859375, 0.137939453125, -0.229736328125, 
180, 3923577608, 0.8833519220352173, -0.021148309111595154, -0.45905405282974243, -0.09239691495895386, 7.992668151855469, 0.30430448055267334, 5.681299686431885, 4.0632758140563965, 4.018937587738037, 3.5948169231414795, -0.964599609375, 0.141357421875, -0.23193359375, 
181, 3923585941, 0.8835031986236572, -0.020846232771873474, -0.4588618874549866, -0.09197211265563965, 7.942164421081543, 0.30239924788475037, 5.590612411499023, 5.950559139251709, 3.0589168071746826, 3.71402645111084, -0.97314453125, 0.143798828125, -0.2314453125, 
182, 3923594274, 0.8836347460746765, -0.02044375240802765, -0.4587180018424988, -0.0915154218673706, 7.952461242675781, 0.42569273710250854, 5.510227203369141, 7.433365821838379, 2.464998722076416, 3.4146718978881836, -0.970458984375, 0.141845703125, -0.231201171875, 
183, 3923602607, 0.8835957050323486, -0.020199596881866455, -0.4588635265827179, -0.09121623635292053, 7.9116530418396, 0.45490753650665283, 5.746217727661133, 4.846072673797607, -2.2791800498962402, 2.231806516647339, -0.971435546875, 0.1416015625, -0.233154296875, 
184, 3923610940, 0.883450448513031, -0.02010674774646759, -0.45918938517570496, -0.09100329875946045, 7.980404376983643, 0.4513627886772156, 5.826798915863037, 2.6475260257720947, -5.309062480926514, 1.9266644716262817, -0.97216796875, 0.142333984375, -0.231689453125, 
185, 3923619273, 0.8835130333900452, -0.01991419494152069, -0.4591214060783386, -0.09078013896942139, 8.163768768310547, 0.5437968373298645, 5.687234878540039, 3.467642307281494, 0.9100353121757507, 1.7940081357955933, -0.97509765625, 0.14208984375, -0.2314453125, 
186, 3923627606, 0.8837196826934814, -0.01971861720085144, -0.45877331495285034, -0.09057238698005676, 8.09350872039795, 0.670935332775116, 5.688178062438965, 3.114319324493408, 5.229670524597168, 1.8416249752044678, -0.9677734375, 0.143310546875, -0.229736328125, 
187, 3923635939, 0.8839184641838074, -0.019649028778076172, -0.45841121673583984, -0.09048062562942505, 7.939370632171631, 0.6496501564979553, 5.723653316497803, 0.8427724242210388, 5.226572036743164, 1.243686318397522, -0.9697265625, 0.143310546875, -0.233642578125, 
188, 3923644272, 0.8839957118034363, -0.01971106231212616, -0.4582630693912506, -0.09046271443367004, 7.93861198425293, 0.5614520907402039, 5.859553813934326, -0.9988526105880737, 1.7136050462722778, 0.9428215026855469, -0.967529296875, 0.142333984375, -0.234130859375, 
189, 3923652605, 0.884022057056427, -0.0198056697845459, -0.4582219123840332, -0.09039381146430969, 8.040386199951172, 0.552317202091217, 5.852749824523926, -0.9662201404571533, 0.04017592594027519, 1.6847378015518188, -0.9677734375, 0.143798828125, -0.232177734375, 
190, 3923660938, 0.8841221332550049, -0.01973956823348999, -0.45806649327278137, -0.0902174711227417, 8.045884132385254, 0.632621705532074, 5.776821613311768, 1.5536186695098877, 2.0619585514068604, 2.0922861099243164, -0.968017578125, 0.142333984375, -0.234130859375, 
191, 3923669271, 0.8841890692710876, -0.01959531009197235, -0.4579761028289795, -0.09004968404769897, 7.929436683654785, 0.6285201907157898, 5.829427719116211, 2.5176103115081787, 1.1637187004089355, 1.4516737461090088, -0.970703125, 0.14306640625, -0.234130859375, 
192, 3923677604, 0.8841730952262878, -0.019481360912322998, -0.45803308486938477, -0.08994144201278687, 7.93684720993042, 0.586117684841156, 5.781861305236816, 1.9404191970825195, -1.1722098588943481, 0.7615496516227722, -0.96923828125, 0.144287109375, -0.233642578125, 
193, 3923685937, 0.884162962436676, -0.019317910075187683, -0.45808103680610657, -0.08983170986175537, 8.043619155883789, 0.6079280376434326, 5.724665641784668, 2.5430963039398193, -0.9635051488876343, 0.49797913432121277, -0.952392578125, 0.142578125, -0.236083984375, 
194, 3923694270, 0.884198784828186, -0.019136086106300354, -0.45803964138031006, -0.08972889184951782, 8.062661170959473, 0.6450590491294861, 5.796680927276611, 2.6213736534118652, 0.4347120225429535, 0.3567678928375244, -0.970703125, 0.14501953125, -0.237060546875, 
195, 3923702603, 0.8842930197715759, -0.019074290990829468, -0.45786982774734497, -0.08968082070350647, 8.040410995483398, 0.6487218141555786, 5.816516399383545, 0.6827345490455627, 2.2315759658813477, 0.5784333944320679, -0.9697265625, 0.144287109375, -0.233154296875, 
196, 3923710936, 0.8844377398490906, -0.019111111760139465, -0.457592248916626, -0.08966150879859924, 8.009478569030762, 0.6713016033172607, 5.780132293701172, -0.82539302110672, 3.745018720626831, 0.9175915122032166, -0.96923828125, 0.144287109375, -0.236572265625, 
197, 3923719269, 0.8845662474632263, -0.019199714064598083, -0.45734262466430664, -0.08964970707893372, 7.95797872543335, 0.6530717015266418, 5.736389636993408, -1.4776337146759033, 3.2411351203918457, 1.1360808610916138, -0.96826171875, 0.144287109375, -0.236572265625, 
198, 3923727602, 0.8846547603607178, -0.019285306334495544, -0.45717307925224304, -0.08962249755859375, 7.931603908538818, 0.6070581674575806, 5.715091228485107, -1.2505125999450684, 2.0155458450317383, 1.2219910621643066, -0.957763671875, 0.142333984375, -0.236328125, 
199, 3923735935, 0.884716272354126, -0.019368484616279602, -0.45705878734588623, -0.08958002924919128, 7.915762901306152, 0.555885910987854, 5.7324371337890625, -1.0667816400527954, 1.17340087890625, 1.3596162796020508, -0.9677734375, 0.145751953125, -0.236083984375, 
200, 3923744268, 0.8847885131835938, -0.019428670406341553, -0.4569275379180908, -0.08952412009239197, 7.9640212059021, 0.5073586702346802, 5.734162330627441, -0.7189659476280212, 1.4701930284500122, 1.3798260688781738, -0.96875, 0.1435546875, -0.237548828125, 
201, 3923752601, 0.884880781173706, -0.01946920156478882, -0.45675981044769287, -0.08945885300636292, 7.939044952392578, 0.4908048212528229, 5.744424343109131, -0.4652825891971588, 2.061753749847412, 1.4207319021224976, -0.961181640625, 0.143310546875, -0.23876953125, 
202, 3923760934, 0.8849775195121765, -0.01947234570980072, -0.4565883278846741, -0.0893755555152893, 7.939273357391357, 0.4853086471557617, 5.710689067840576, 0.1060045138001442, 2.1768898963928223, 1.396782636642456, -0.96923828125, 0.14306640625, -0.236572265625, 
203, 3923769267, 0.8850538730621338, -0.019482538104057312, -0.4564548134803772, -0.08929935097694397, 7.937612056732178, 0.45745643973350525, 5.700804710388184, 0.0034963430371135473, 1.5805647373199463, 1.3296220302581787, -0.96875, 0.14599609375, -0.240478515625, 
204, 3923777600, 0.8851135969161987, -0.01954011619091034, -0.4563466012477875, -0.08924826979637146, 7.931632995605469, 0.4363090693950653, 5.7036590576171875, -0.6922759413719177, 1.1162811517715454, 1.2837214469909668, -0.9658203125, 0.145263671875, -0.235595703125, 
205, 3923785933, 0.88517826795578, -0.01962125301361084, -0.4562269449234009, -0.08920177817344666, 7.933402061462402, 0.42927518486976624, 5.71502161026001, -1.0106865167617798, 1.260284423828125, 1.4095641374588013, -0.96630859375, 0.14453125, -0.239990234375, 
206, 3923794266, 0.8852552771568298, -0.019684627652168274, -0.45609259605407715, -0.0891103446483612, 7.900576591491699, 0.42341873049736023, 5.704015731811523, -0.5363876819610596, 1.524520754814148, 1.8394734859466553, -0.96875, 0.14404296875, -0.239501953125, 
207, 3923802599, 0.8853242993354797, -0.019704505801200867, -0.4559846520423889, -0.0889730155467987, 7.86352014541626, 0.4490843713283539, 5.692198753356934, 0.31837213039398193, 1.1958646774291992, 2.1326799392700195, -0.96630859375, 0.1455078125, -0.241943359375, 
208, 3923810932, 0.8853644728660583, -0.01971171796321869, -0.45593637228012085, -0.08881917595863342, 7.886586666107178, 0.42776426672935486, 5.695355415344238, 0.6327868103981018, 0.29639509320259094, 2.1788108348846436, -0.956298828125, 0.144287109375, -0.23828125, 
209, 3923819265, 0.8853682279586792, -0.019732072949409485, -0.45595717430114746, -0.08866938948631287, 7.891006946563721, 0.4428824782371521, 5.728619575500488, 0.482764333486557, -0.7873815894126892, 2.1374950408935547, -0.96728515625, 0.147705078125, -0.238037109375, 
210, 3923827598, 0.8853539824485779, -0.019746392965316772, -0.45601046085357666, -0.08853420615196228, 7.937795162200928, 0.4363900125026703, 5.756546974182129, 0.539448618888855, -1.2831451892852783, 1.9010502099990845, -0.96630859375, 0.146240234375, -0.238037109375, 
211, 3923835931, 0.8853411674499512, -0.019762486219406128, -0.456060528755188, -0.08840090036392212, 7.976899147033691, 0.4379344582557678, 5.770767688751221, 0.47326135635375977, -1.2375516891479492, 1.889497995376587, -0.96728515625, 0.146240234375, -0.237060546875, 
212, 3923844264, 0.8853379487991333, -0.01979328691959381, -0.45608797669410706, -0.08828526735305786, 8.005227088928223, 0.4557780921459198, 5.794859409332275, 0.18799565732479095, -0.9149660468101501, 1.7887572050094604, -0.95654296875, 0.147216796875, -0.24072265625, 
213, 3923852597, 0.885357677936554, -0.01983913779258728, -0.45606377720832825, -0.088202565908432, 8.029144287109375, 0.4492270350456238, 5.776528835296631, -0.197793111205101, -0.14666710793972015, 1.584406852722168, -0.96875, 0.146728515625, -0.238037109375, 
214, 3923860930, 0.8853916525840759, -0.01985013484954834, -0.4560154974460602, -0.08810767531394958, 8.061890602111816, 0.43329060077667236, 5.7203216552734375, 0.21681168675422668, 0.270908921957016, 1.4776467084884644, -0.9658203125, 0.147705078125, -0.239013671875, 
215, 3923869263, 0.8854620456695557, -0.01980094611644745, -0.45590850710868835, -0.08796492218971252, 8.066007614135742, 0.42977598309516907, 5.704582214355469, 1.2404590845108032, 1.2770617008209229, 1.7969282865524292, -0.96337890625, 0.148681640625, -0.241455078125, 
216, 3923877596, 0.885534942150116, -0.019754737615585327, -0.45579588413238525, -0.08782610297203064, 7.947353839874268, 0.4434666931629181, 5.848260402679443, 1.1207892894744873, 1.3543142080307007, 1.7170629501342773, -0.9658203125, 0.147705078125, -0.240478515625, 
217, 3923885929, 0.8856013417243958, -0.019719824194908142, -0.45569169521331787, -0.08770427107810974, 7.931507110595703, 0.4103528559207916, 5.863509654998779, 0.86723393201828, 1.202396273612976, 1.5763641595840454, -0.96728515625, 0.149169921875, -0.240966796875, 
218, 3923894262, 0.8856693506240845, -0.01967388391494751, -0.45558711886405945, -0.08757197856903076, 7.96036434173584, 0.33074039220809937, 5.762485504150391, 1.0874394178390503, 1.2277030944824219, 1.632279872894287, -0.958984375, 0.145751953125, -0.240234375, 
219, 3923902595, 0.8857269287109375, -0.01965835690498352, -0.4554998278617859, -0.0874444842338562, 7.8837175369262695, 0.40446287393569946, 5.703132629394531, 0.6968992352485657, 0.9164644479751587, 1.7605559825897217, -0.96533203125, 0.147705078125, -0.240966796875, 
220, 3923910928, 0.8856703042984009, -0.019679531455039978, -0.45562684535980225, -0.08735349774360657, 7.831868648529053, 0.42020219564437866, 5.794554233551025, 0.25541236996650696, -2.4436492919921875, 1.3364611864089966, -0.9638671875, 0.150146484375, -0.241455078125, 
221, 3923919261, 0.8855209350585938, -0.01975060999393463, -0.4559246003627777, -0.08729583024978638, 7.908368110656738, 0.35902759432792664, 5.7992987632751465, -0.3921283185482025, -5.154480457305908, 1.0968142747879028, -0.9560546875, 0.14892578125, -0.2412109375, 
222, 3923927594, 0.885402262210846, -0.019733771681785583, -0.45617562532424927, -0.08719280362129211, 8.011307716369629, 0.3377569317817688, 5.728477954864502, 0.9258137941360474, -4.300271987915039, 1.135927438735962, -0.9638671875, 0.146728515625, -0.238525390625, 
223, 3923935927, 0.8852745294570923, -0.01963116228580475, -0.4564547836780548, -0.08705249428749084, 7.971647262573242, 0.3054150342941284, 5.7746052742004395, 2.2504794597625732, -4.604773044586182, 1.0622862577438354, -0.96240234375, 0.149169921875, -0.239990234375, 
224, 3923944260, 0.8850525617599487, -0.019601941108703613, -0.4569114148616791, -0.08692118525505066, 7.8549981117248535, 0.23837101459503174, 5.85144567489624, 1.4716020822525024, -7.4442925453186035, 1.223784327507019, -0.96484375, 0.148681640625, -0.238525390625, 
225, 3923952593, 0.8847339749336243, -0.01956753432750702, -0.45755690336227417, -0.08677709102630615, 7.787771701812744, 0.2543143033981323, 5.8580241203308105, 1.810606598854065, -10.346768379211426, 1.1967098712921143, -0.96630859375, 0.148681640625, -0.236572265625, 
226, 3923960926, 0.8843536972999573, -0.01944369077682495, -0.45832690596580505, -0.08661717176437378, 7.7735819816589355, 0.4554983079433441, 5.779543399810791, 3.1360154151916504, -12.147143363952637, 0.703764021396637, -0.966796875, 0.148681640625, -0.235595703125, 
227, 3923969259, 0.883933961391449, -0.01929265260696411, -0.4591612219810486, -0.08651691675186157, 7.83425760269165, 0.6273882985115051, 5.536947727203369, 3.147285223007202, -13.131342887878418, -0.2468700110912323, -0.96728515625, 0.145751953125, -0.236083984375, 
228, 3923977592, 0.8833427429199219, -0.019252687692642212, -0.4602922201156616, -0.08655408024787903, 7.883190631866455, 0.717730700969696, 5.360830783843994, 1.2457871437072754, -17.913576126098633, -1.5079617500305176, -0.96875, 0.149658203125, -0.23486328125, 
229, 3923985925, 0.8824740648269653, -0.019486263394355774, -0.46191346645355225, -0.08672481775283813, 7.93361234664917, 0.6307141780853271, 5.366535186767578, -2.3598151206970215, -25.91352653503418, -1.8072900772094727, -0.96630859375, 0.146484375, -0.230224609375, 
230, 3923994258, 0.8814367055892944, -0.019893169403076172, -0.4638519883155823, -0.08683463931083679, 8.075822830200195, 0.5316776037216187, 5.475512981414795, -3.7976980209350586, -31.060131072998047, -0.30596229434013367, -0.96728515625, 0.146484375, -0.226318359375, 
231, 3924002591, 0.8805117607116699, -0.02014303207397461, -0.46560877561569214, -0.08675840497016907, 8.200881004333496, 0.47243496775627136, 5.653857707977295, -0.857078492641449, -28.00126838684082, 1.171787977218628, -0.950439453125, 0.145263671875, -0.223388671875, 
232, 3924010924, 0.8798501491546631, -0.02005048096179962, -0.4668958783149719, -0.08657500147819519, 8.200196266174316, 0.506279706954956, 5.7417192459106445, 3.4523003101348877, -20.252849578857422, 0.6799172759056091, -0.970703125, 0.147705078125, -0.2177734375, 
233, 3924019257, 0.8794068694114685, -0.019509553909301758, -0.4677893817424774, -0.08638066053390503, 8.139430046081543, 0.5204774141311646, 5.643787384033203, 8.523637771606445, -13.558463096618652, -1.6907447576522827, -0.9697265625, 0.148193359375, -0.21728515625, 
234, 3924027590, 0.8790486454963684, -0.01858159899711609, -0.46852850914001465, -0.08622422814369202, 8.092254638671875, 0.43210846185684204, 5.42515754699707, 12.814689636230469, -10.67253303527832, -4.501703262329102, -0.97216796875, 0.147216796875, -0.21630859375, 
235, 3924035923, 0.8786817193031311, -0.01743367314338684, -0.46929246187210083, -0.08605039119720459, 8.187228202819824, 0.2954975366592407, 5.186187744140625, 15.612712860107422, -10.773529052734375, -5.710337162017822, -0.96337890625, 0.146240234375, -0.214599609375, 
236, 3924044256, 0.8782631158828735, -0.0162336528301239, -0.4701597988605499, -0.08582311868667603, 8.251585006713867, 0.2027570903301239, 5.092767715454102, 16.69765853881836, -12.307926177978516, -5.503297328948975, -0.97314453125, 0.1455078125, -0.21533203125, 
237, 3924052589, 0.8777920007705688, -0.015219718217849731, -0.4711226224899292, -0.08554869890213013, 8.331993103027344, 0.19814519584178925, 5.097509384155273, 14.8372163772583, -14.029716491699219, -3.8096063137054443, -0.96826171875, 0.143798828125, -0.210693359375, 
238, 3924060922, 0.8772928714752197, -0.014520511031150818, -0.472133606672287, -0.0852157473564148, 8.416046142578125, 0.262536883354187, 5.150091171264648, 11.487539291381836, -15.175618171691895, -1.1104542016983032, -0.97216796875, 0.143310546875, -0.208740234375, 
239, 3924069255, 0.8768162131309509, -0.014041870832443237, -0.47310250997543335, -0.08482733368873596, 8.555112838745117, 0.3416193723678589, 5.2661919593811035, 9.10369873046875, -14.791687965393066, 1.015028476715088, -0.973876953125, 0.140625, -0.210693359375, 
240, 3924077588, 0.8764739036560059, -0.01367303729057312, -0.47382625937461853, -0.0843849778175354, 8.639429092407227, 0.3799332082271576, 5.331244945526123, 7.90712833404541, -11.099879264831543, 2.5927374362945557, -0.9755859375, 0.142578125, -0.208984375, 
241, 3924085921, 0.8763443231582642, -0.01335933804512024, -0.47416672110557556, -0.0838664174079895, 8.627086639404297, 0.3974151313304901, 5.343026161193848, 7.3104939460754395, -5.172718048095703, 4.1876325607299805, -0.973388671875, 0.141357421875, -0.208251953125, 
242, 3924094254, 0.8764256238937378, -0.01307748258113861, -0.47412556409835815, -0.08329111337661743, 8.545066833496094, 0.4885442554950714, 5.2742743492126465, 6.920108795166016, 0.7541983723640442, 5.3944993019104, -0.965087890625, 0.138427734375, -0.2060546875, 
243, 3924102587, 0.8766279220581055, -0.012866288423538208, -0.4738592505455017, -0.0827089250087738, 8.472043991088867, 0.6399472951889038, 5.175007343292236, 5.8782243728637695, 4.177669525146484, 6.133111476898193, -0.973876953125, 0.142333984375, -0.20654296875, 
244, 3924110920, 0.8768161535263062, -0.012781322002410889, -0.47360169887542725, -0.08220028877258301, 8.414538383483887, 0.7818243503570557, 5.121907711029053, 3.8844635486602783, 3.8456318378448486, 6.036315441131592, -0.968017578125, 0.141357421875, -0.206787109375, 
245, 3924119253, 0.8769400119781494, -0.012865737080574036, -0.4734376072883606, -0.08181050419807434, 8.44806957244873, 0.7885997295379639, 5.098983287811279, 1.1704809665679932, 2.1341655254364014, 5.636246204376221, -0.97265625, 0.143310546875, -0.209228515625, 
246, 3924127586, 0.8770341873168945, -0.013080418109893799, -0.4733058512210846, -0.08152922987937927, 8.549348831176758, 0.7661755084991455, 5.162940502166748, -1.083072304725647, 1.4201940298080444, 5.117147445678711, -0.973876953125, 0.141845703125, -0.207275390625, 
247, 3924135919, 0.877158522605896, -0.013382703065872192, -0.47310182452201843, -0.08132380247116089, 8.622488975524902, 0.7787609696388245, 5.274006366729736, -2.697793960571289, 2.4086732864379883, 4.8451762199401855, -0.97314453125, 0.144775390625, -0.2099609375, 
248, 3924144252, 0.8773691654205322, -0.01369437575340271, -0.47273123264312744, -0.0811552107334137, 8.69961929321289, 0.7567001581192017, 5.3900957107543945, -3.2315688133239746, 4.968636512756348, 4.561856269836426, -0.9677734375, 0.145263671875, -0.210205078125, 
249, 3924152585, 0.8777449131011963, -0.013973742723464966, -0.47205227613449097, -0.08099707961082458, 8.831812858581543, 0.7157257795333862, 5.492939472198486, -3.1950433254241943, 9.808959007263184, 4.504507064819336, -0.9716796875, 0.146240234375, -0.208984375, 
250, 3924160918, 0.8783180713653564, -0.014185726642608643, -0.47100716829299927, -0.0808311402797699, 8.847289085388184, 0.6806542873382568, 5.484590530395508, -2.7303755283355713, 15.574932098388672, 4.4160614013671875, -0.970703125, 0.147216796875, -0.21240234375, 
251, 3924169251, 0.8791074752807617, -0.014320552349090576, -0.4695604741573334, -0.08064314723014832, 8.80677604675293, 0.679114043712616, 5.477397918701172, -2.080773115158081, 21.91207504272461, 4.504585266113281, -0.97119140625, 0.146240234375, -0.21533203125, 
252, 3924177584, 0.8800591826438904, -0.014456689357757568, -0.4678015112876892, -0.08046099543571472, 8.771488189697266, 0.6913025379180908, 5.435337543487549, -2.428666591644287, 26.730764389038086, 4.67999267578125, -0.970703125, 0.147705078125, -0.21630859375, 
253, 3924185917, 0.8810549974441528, -0.014636695384979248, -0.46595507860183716, -0.08024409413337708, 8.664520263671875, 0.7225134372711182, 5.3662800788879395, -2.770411729812622, 28.027847290039062, 5.502185344696045, -0.9677734375, 0.148193359375, -0.221435546875, 
254, 3924194250, 0.8820328116416931, -0.014818698167800903, -0.4641416668891907, -0.07997786998748779, 8.566099166870117, 0.8118172883987427, 5.277735233306885, -2.4984397888183594, 27.490535736083984, 6.03419303894043, -0.9580078125, 0.149658203125, -0.2265625, 
255, 3924202583, 0.882941484451294, -0.01498955488204956, -0.46244919300079346, -0.07972481846809387, 8.44006061553955, 0.8212589621543884, 5.315657138824463, -2.348134994506836, 25.60283851623535, 5.705663681030273, -0.966796875, 0.14990234375, -0.228271484375, 
256, 3924210916, 0.8837602138519287, -0.015291199088096619, -0.4609059691429138, -0.07953131198883057, 8.136494636535645, 0.8099578022956848, 5.532159328460693, -4.150557994842529, 23.082033157348633, 5.682251453399658, -0.96630859375, 0.15087890625, -0.231201171875, 
257, 3924219249, 0.8845534920692444, -0.015679940581321716, -0.45939138531684875, -0.07939976453781128, 7.727906227111816, 0.7460225224494934, 5.728948593139648, -5.610877990722656, 22.496931076049805, 5.438891410827637, -0.964111328125, 0.15185546875, -0.234130859375, 
258, 3924227582, 0.8854392766952515, -0.01604534685611725, -0.45769304037094116, -0.07926309108734131, 7.559120178222656, 0.764262318611145, 5.748926639556885, -5.43923807144165, 25.333356857299805, 5.502262115478516, -0.962646484375, 0.154296875, -0.239501953125, 
259, 3924235915, 0.8864368200302124, -0.016192391514778137, -0.4558010697364807, -0.0789840817451477, 7.572144508361816, 0.7439302206039429, 5.575621128082275, -2.0677618980407715, 28.609853744506836, 6.048152923583984, -0.962646484375, 0.15478515625, -0.242919921875, 
260, 3924244248, 0.88740074634552, -0.016261503100395203, -0.4539733827114105, -0.07867121696472168, 7.740405559539795, 0.6542031168937683, 5.451723098754883, -0.8461410403251648, 27.684200286865234, 5.899665832519531, -0.959228515625, 0.15478515625, -0.243408203125, 
261, 3924252581, 0.8881989121437073, -0.01627078652381897, -0.4524761438369751, -0.07828626036643982, 7.715316295623779, 0.6069280505180359, 5.370507717132568, 0.6377307176589966, 22.67317771911621, 6.160520553588867, -0.956787109375, 0.15478515625, -0.247802734375, 
262, 3924260914, 0.8888067007064819, -0.016395792365074158, -0.4513227343559265, -0.07801929116249084, 7.682376861572266, 0.5865632891654968, 5.502015113830566, -1.1664727926254272, 17.183712005615234, 5.149116039276123, -0.958740234375, 0.156982421875, -0.251220703125, 
263, 3924269247, 0.8892204165458679, -0.01669970154762268, -0.4505384862422943, -0.07777318358421326, 7.607924461364746, 0.6250471472740173, 5.707871913909912, -3.146043300628662, 11.287849426269531, 5.7215166091918945, -0.955810546875, 0.157470703125, -0.254638671875, 
264, 3924277580, 0.8894727230072021, -0.017188698053359985, -0.45004400610923767, -0.07764393091201782, 7.514504432678223, 0.6112733483314514, 6.019124507904053, -5.843683242797852, 6.564736843109131, 5.192914962768555, -0.955810546875, 0.159423828125, -0.255615234375, 
265, 3924285913, 0.8897547721862793, -0.017750263214111328, -0.4494696259498596, -0.07761293649673462, 7.5353593826293945, 0.6089341640472412, 6.112424373626709, -7.4296135902404785, 7.680645942687988, 4.502713680267334, -0.955322265625, 0.159912109375, -0.256591796875, 
266, 3924294246, 0.890168309211731, -0.018226131796836853, -0.4486599564552307, -0.07744550704956055, 7.704829216003418, 0.5188305377960205, 6.155649662017822, -5.745326042175293, 11.422531127929688, 5.826048851013184, -0.95654296875, 0.162109375, -0.253662109375, 
267, 3924302579, 0.8906904458999634, -0.01842959225177765, -0.4476803243160248, -0.07706102728843689, 7.730574607849121, 0.34381231665611267, 6.163287162780762, -1.2185205221176147, 14.416833877563477, 6.989447116851807, -0.937744140625, 0.160400390625, -0.256103515625, 
268, 3924310912, 0.8912249207496643, -0.01854732632637024, -0.44667017459869385, -0.07671549916267395, 7.554980278015137, 0.2821754217147827, 6.431701183319092, -0.44517549872398376, 14.957602500915527, 5.975866794586182, -0.9521484375, 0.1640625, -0.258544921875, 
269, 3924319245, 0.8917316794395447, -0.018657371401786804, -0.4457024037837982, -0.07642710208892822, 7.419816017150879, 0.3040195405483246, 6.3618950843811035, -0.6722457408905029, 14.29854679107666, 5.2069010734558105, -0.953125, 0.16552734375, -0.260498046875, 
270, 3924327578, 0.8924325108528137, -0.01856255531311035, -0.444366455078125, -0.07604971528053284, 7.611847400665283, 0.18227608501911163, 5.934911727905273, 2.057809591293335, 20.187902450561523, 5.324291706085205, -0.94580078125, 0.16552734375, -0.2646484375, 
271, 3924335911, 0.8932311534881592, -0.01829400658607483, -0.4428699016571045, -0.0754651427268982, 7.778981685638428, 0.039854563772678375, 5.832341194152832, 5.303877830505371, 22.890670776367188, 6.964731216430664, -0.95166015625, 0.165771484375, -0.266357421875, 
272, 3924344244, 0.8937026858329773, -0.018344789743423462, -0.4419911205768585, -0.0750226378440857, 7.645230293273926, -0.00577803049236536, 6.1191582679748535, 1.0840585231781006, 13.010583877563477, 6.65297794342041, -0.951171875, 0.165283203125, -0.270263671875, 
273, 3924352577, 0.8938466310501099, -0.019039228558540344, -0.4417138695716858, -0.07476496696472168, 7.407823085784912, 0.10354755818843842, 6.303414821624756, -7.400798797607422, 3.0156795978546143, 7.834563255310059, -0.947265625, 0.167236328125, -0.271240234375, 
274, 3924360910, 0.8939971923828125, -0.01997363567352295, -0.4414079487323761, -0.07452964782714844, 7.468413829803467, 0.22912713885307312, 6.207906723022461, -10.524916648864746, 3.160630702972412, 9.001471519470215, -0.9462890625, 0.16796875, -0.27197265625, 
275, 3924369243, 0.8942680954933167, -0.02091878652572632, -0.4408644437789917, -0.07423582673072815, 7.6310601234436035, 0.3233656883239746, 6.2274932861328125, -10.523149490356445, 6.788324356079102, 9.987927436828613, -0.947998046875, 0.17138671875, -0.271728515625, 
276, 3924377576, 0.8946106433868408, -0.021712318062782288, -0.4401535987854004, -0.07409882545471191, 7.61552095413208, 0.30794790387153625, 6.245096683502197, -9.748165130615234, 9.477998733520508, 7.247663974761963, -0.946533203125, 0.17333984375, -0.273193359375, 
277, 3924385909, 0.894827663898468, -0.02233162522315979, -0.4397011697292328, -0.07398128509521484, 7.499538898468018, 0.3140452802181244, 6.2811055183410645, -7.508865833282471, 5.7241034507751465, 5.761321544647217, -0.938720703125, 0.172607421875, -0.27392578125, 
278, 3924394242, 0.895125150680542, -0.022812113165855408, -0.439078688621521, -0.07393279671669006, 7.317752838134766, 0.28367650508880615, 6.234213829040527, -6.3564043045043945, 8.463879585266113, 4.194395542144775, -0.944580078125, 0.1728515625, -0.275146484375, 
279, 3924402575, 0.8954813480377197, -0.023074984550476074, -0.43837353587150574, -0.07371991872787476, 7.2977190017700195, 0.18317340314388275, 6.104528903961182, -2.758730173110962, 10.007136344909668, 5.002370834350586, -0.943603515625, 0.175048828125, -0.273193359375, 
280, 3924410908, 0.8959100842475891, -0.023056238889694214, -0.43755921721458435, -0.07335290312767029, 7.427069664001465, 0.16183587908744812, 6.05818510055542, 1.5595356225967407, 12.023259162902832, 5.297139644622803, -0.941162109375, 0.17529296875, -0.27734375, 
281, 3924419241, 0.8963589668273926, -0.02314886450767517, -0.4366838335990906, -0.07305687665939331, 7.579923629760742, 0.23528069257736206, 6.014463424682617, -0.30701228976249695, 12.807568550109863, 5.145990371704102, -0.943115234375, 0.1748046875, -0.280029296875, 
282, 3924427574, 0.8966687321662903, -0.023649275302886963, -0.4360414147377014, -0.07293286919593811, 7.688640594482422, 0.30414265394210815, 5.994050979614258, -6.164271354675293, 8.745738983154297, 5.2458600997924805, -0.942626953125, 0.17578125, -0.280029296875, 
283, 3924435907, 0.8969940543174744, -0.02444666624069214, -0.4353178143501282, -0.07299232482910156, 7.778423309326172, 0.24948608875274658, 6.001728057861328, -11.014610290527344, 9.60286808013916, 4.820510387420654, -0.943115234375, 0.17724609375, -0.281982421875, 
284, 3924444240, 0.8972298502922058, -0.02540382742881775, -0.4347672462463379, -0.07304933667182922, 7.708924293518066, 0.06755804270505905, 6.046779155731201, -12.816084861755371, 6.769523620605469, 5.6456475257873535, -0.94189453125, 0.18017578125, -0.281005859375, 
285, 3924452573, 0.8976935744285583, -0.02628752589225769, -0.43374699354171753, -0.07310426235198975, 7.73384952545166, -0.08491674810647964, 6.23427677154541, -12.296552658081055, 14.001884460449219, 5.6413960456848145, -0.9404296875, 0.180908203125, -0.281005859375, 
286, 3924460906, 0.8981214761734009, -0.02699659764766693, -0.43282201886177063, -0.07307183742523193, 7.773770332336426, -0.1880735456943512, 6.31633996963501, -9.528651237487793, 12.754571914672852, 5.592753887176514, -0.9375, 0.182373046875, -0.284423828125, 
287, 3924469239, 0.8986008167266846, -0.02718786895275116, -0.43185949325561523, -0.07280290126800537, 7.6063714027404785, -0.323562353849411, 6.099862575531006, -1.7556512355804443, 13.958672523498535, 5.507330417633057, -0.9375, 0.182373046875, -0.284423828125, 
288, 3924477572, 0.8990434408187866, -0.027328699827194214, -0.43103495240211487, -0.0721692442893982, 7.524382591247559, -0.2878577709197998, 6.695785999298096, 1.1682015657424927, 11.94790267944336, 9.615470886230469, -0.93701171875, 0.18115234375, -0.28955078125, 
289, 3924485905, 0.8991217017173767, -0.027876615524291992, -0.4309525489807129, -0.07147356867790222, 7.466684341430664, -0.19049793481826782, 7.021007537841797, -2.9086761474609375, 0.18707360327243805, 12.166341781616211, -0.93505859375, 0.185302734375, -0.289306640625, 
290, 3924494238, 0.8992513418197632, -0.028585955500602722, -0.43076133728027344, -0.07071247696876526, 7.5606770515441895, -0.057527415454387665, 6.760998249053955, -4.594119548797607, 1.6523364782333374, 14.010798454284668, -0.93115234375, 0.186279296875, -0.28759765625, 
291, 3924502571, 0.8997053503990173, -0.028872668743133545, -0.42992448806762695, -0.06990775465965271, 7.418944835662842, 0.13505670428276062, 6.497583866119385, 0.3838166296482086, 11.950645446777344, 12.629755973815918, -0.93359375, 0.188720703125, -0.288330078125, 
292, 3924510904, 0.9004656672477722, -0.02872733771800995, -0.4284329116344452, -0.06933295726776123, 7.398150444030762, 0.34016188979148865, 6.560437202453613, 3.8700687885284424, 22.367881774902344, 7.7725019454956055, -0.92822265625, 0.188232421875, -0.29150390625, 
293, 3924519237, 0.9009792804718018, -0.0288027822971344, -0.4274170994758606, -0.06889808177947998, 7.480381011962891, 0.42192158102989197, 6.528563499450684, 0.6582732796669006, 14.868133544921875, 6.928895950317383, -0.932373046875, 0.190673828125, -0.295166015625, 
294, 3924527570, 0.9015518426895142, -0.02887912094593048, -0.42625880241394043, -0.06855130195617676, 7.136872291564941, 0.2294798493385315, 6.094959259033203, 0.026958990842103958, 17.015092849731445, 5.945436954498291, -0.931884765625, 0.193115234375, -0.294677734375, 
295, 3924535903, 0.9023671746253967, -0.028500452637672424, -0.42461252212524414, -0.06819698214530945, 6.981465816497803, -0.05507075786590576, 5.977973461151123, 5.338483810424805, 24.912689208984375, 3.8035497665405273, -0.931396484375, 0.193603515625, -0.299072265625, 
296, 3924544236, 0.9030999541282654, -0.027761399745941162, -0.42315804958343506, -0.0678415298461914, 7.0410685539245605, -0.20199334621429443, 6.060680389404297, 9.973098754882812, 22.38899040222168, 1.5516213178634644, -0.929443359375, 0.193115234375, -0.301513671875, 
297, 3924552569, 0.9036705493927002, -0.027145758271217346, -0.42203131318092346, -0.06751120090484619, 7.162823677062988, -0.28344422578811646, 6.308475017547607, 8.53209114074707, 17.268802642822266, 1.6925251483917236, -0.929443359375, 0.1904296875, -0.30517578125, 
298, 3924560902, 0.9038270115852356, -0.027148917317390442, -0.42172521352767944, -0.06732705235481262, 7.278583526611328, -0.2091909795999527, 6.5204572677612305, 0.608709454536438, 4.148033618927002, 2.76460862159729, -0.926025390625, 0.19091796875, -0.30859375, 
299, 3924569235, 0.9038729071617126, -0.027218714356422424, -0.42164891958236694, -0.06716126203536987, 7.2165093421936035, -0.054292984306812286, 6.27318000793457, -0.16877220571041107, 0.5938020348548889, 2.738046646118164, -0.917236328125, 0.192626953125, -0.308837890625, 
300, 3924577568, 0.9041245579719543, -0.026899725198745728, -0.4211795926094055, -0.06684598326683044, 7.554447174072266, 0.12164296209812164, 6.326775550842285, 5.258794784545898, 6.978688716888428, 2.6759066581726074, -0.9189453125, 0.191650390625, -0.311279296875, 
301, 3924585901, 0.9043488502502441, -0.026491284370422363, -0.4207633137702942, -0.06659767031669617, 7.649752140045166, 0.1425209641456604, 6.438596248626709, 6.012468338012695, 6.2632832527160645, 1.2908679246902466, -0.926513671875, 0.193359375, -0.31005859375, 
302, 3924594234, 0.9043927192687988, -0.026306167244911194, -0.4207107126712799, -0.06640625, 7.690500259399414, 0.09580060094594955, 6.373446464538574, 3.182837963104248, 0.5172666907310486, 1.5676296949386597, -0.926513671875, 0.193115234375, -0.30859375, 
303, 3924602567, 0.9043479561805725, -0.02615247666835785, -0.4208633303642273, -0.06610849499702454, 7.561973571777344, 0.010188242420554161, 6.120875835418701, 3.5529890060424805, -2.618389368057251, 2.923877716064453, -0.925048828125, 0.193115234375, -0.30859375, 
304, 3924610900, 0.9042458534240723, -0.026014387607574463, -0.42114144563674927, -0.06578981876373291, 7.431455612182617, -0.0913182869553566, 6.236527442932129, 3.5818562507629395, -4.529877662658691, 3.169492721557617, -0.923095703125, 0.191162109375, -0.30859375, 
305, 3924619233, 0.9039707779884338, -0.02614167332649231, -0.421769380569458, -0.0654965341091156, 7.159313678741455, -0.032103803008794785, 6.421992301940918, 0.38115260004997253, -10.114420890808105, 4.117936611175537, -0.920654296875, 0.191650390625, -0.30908203125, 
306, 3924627566, 0.9035168886184692, -0.02643023431301117, -0.42274171113967896, -0.06537577509880066, 7.101406574249268, 0.1394304633140564, 6.462902069091797, -2.36765193939209, -15.514723777770996, 2.6150729656219482, -0.926025390625, 0.191162109375, -0.3056640625, 
307, 3924635899, 0.9030594825744629, -0.026653170585632324, -0.4237164258956909, -0.06529182195663452, 7.397483825683594, 0.23317433893680573, 6.4570746421813965, -1.7755022048950195, -15.493874549865723, 1.7816112041473389, -0.926025390625, 0.193115234375, -0.30810546875, 
308, 3924644232, 0.9027359485626221, -0.02682533860206604, -0.4244041442871094, -0.06523016095161438, 7.648321628570557, 0.2650289833545685, 6.484830856323242, -1.4739713668823242, -11.094218254089355, 1.4241389036178589, -0.925537109375, 0.193603515625, -0.30224609375, 
309, 3924652565, 0.9026193022727966, -0.026975437998771667, -0.42463061213493347, -0.06530749797821045, 7.687470436096191, 0.2229694128036499, 6.480970859527588, -2.3567404747009277, -4.0931549072265625, -0.0636257603764534, -0.928466796875, 0.195556640625, -0.300048828125, 
310, 3924660898, 0.9027348160743713, -0.027163401246070862, -0.42434319853782654, -0.06550061702728271, 7.80640172958374, 0.1952688992023468, 6.588248252868652, -3.8703622817993164, 3.652756690979004, -0.889761745929718, -0.927978515625, 0.194580078125, -0.3017578125, 
311, 3924669231, 0.9027169942855835, -0.027440905570983887, -0.4243200421333313, -0.0657799243927002, 7.747978210449219, 0.08009269833564758, 6.539111614227295, -5.305835247039795, -0.4568042755126953, -1.647072196006775, -0.924560546875, 0.19287109375, -0.29833984375, 
312, 3924677564, 0.9027605056762695, -0.027578204870224, -0.42418068647384644, -0.06602531671524048, 7.73386812210083, -0.030648287385702133, 6.492722988128662, -3.4405553340911865, 1.461766004562378, -1.9541101455688477, -0.929443359375, 0.192138671875, -0.302734375, 
313, 3924685897, 0.9027624130249023, -0.027438074350357056, -0.4241684675216675, -0.06613445281982422, 7.622794151306152, -0.047647710889577866, 6.466098785400391, 0.8890572190284729, -0.16472512483596802, -1.9582850933074951, -0.921630859375, 0.191650390625, -0.302734375, 
314, 3924694230, 0.9028319120407104, -0.02722848951816559, -0.4240294396877289, -0.06616437435150146, 7.6359124183654785, 0.057692013680934906, 6.2982635498046875, 2.1323978900909424, 1.8417532444000244, -1.2796615362167358, -0.927001953125, 0.193115234375, -0.30322265625, 
315, 3924702563, 0.9029052257537842, -0.026993855834007263, -0.4238874912261963, -0.06617018580436707, 7.664796829223633, 0.1598387211561203, 6.1442742347717285, 2.575575351715088, 1.9111934900283813, -1.1124519109725952, -0.927490234375, 0.192138671875, -0.30419921875, 
316, 3924710896, 0.9027979373931885, -0.02691580355167389, -0.42410796880722046, -0.0662541389465332, 7.57153844833374, 0.1693846732378006, 6.203665733337402, 0.44618716835975647, -3.7522289752960205, -1.478376865386963, -0.925048828125, 0.190673828125, -0.30419921875, 
317, 3924719229, 0.902566134929657, -0.02687835693359375, -0.42459097504615784, -0.06633317470550537, 7.546398162841797, 0.14053116738796234, 6.236875057220459, 0.15451788902282715, -7.780734539031982, -1.381683349609375, -0.925537109375, 0.193115234375, -0.30322265625, 
318, 3924727562, 0.9023470282554626, -0.026686981320381165, -0.4250664710998535, -0.06634631752967834, 7.704100131988525, 0.11095993220806122, 6.21512508392334, 2.4555985927581787, -7.492779731750488, -1.457450270652771, -0.923095703125, 0.194091796875, -0.30322265625, 
319, 3924735895, 0.9021744728088379, -0.02637745440006256, -0.4254612326622009, -0.06628480553627014, 7.8948445320129395, 0.05356176942586899, 6.243062496185303, 4.292113780975342, -6.142728805541992, -1.1412935256958008, -0.926025390625, 0.190673828125, -0.30224609375, 
320, 3924744228, 0.9020372629165649, -0.02624763548374176, -0.42575666308403015, -0.06630709767341614, 7.932486534118652, 0.05394633859395981, 6.267220497131348, 1.5062065124511719, -4.831920623779297, -1.070188283920288, -0.929931640625, 0.190673828125, -0.30029296875, 
321, 3924752561, 0.9019405245780945, -0.026211202144622803, -0.42594507336616516, -0.0664275586605072, 7.845815658569336, 0.10851982235908508, 6.271262168884277, -0.3215354382991791, -3.320859432220459, -1.6544231176376343, -0.930908203125, 0.189697265625, -0.29931640625, 
322, 3924760894, 0.9019249677658081, -0.026162192225456238, -0.4259522557258606, -0.06661158800125122, 7.675929069519043, 0.21870139241218567, 6.322556495666504, -0.6630499958992004, -0.5599271059036255, -2.389167547225952, -0.927001953125, 0.192138671875, -0.2978515625, 
323, 3924769227, 0.9019595980644226, -0.02609361708164215, -0.4258529245853424, -0.06680533289909363, 7.51664924621582, 0.26460155844688416, 6.300037384033203, -0.565920889377594, 1.0733516216278076, -2.5266647338867188, -0.91845703125, 0.18896484375, -0.300537109375, 
324, 3924777560, 0.9020019173622131, -0.025994256138801575, -0.42574360966682434, -0.06696867942810059, 7.492933750152588, 0.3448481559753418, 6.141310214996338, -0.0030480942223221064, 1.2612833976745605, -2.3302040100097656, -0.9208984375, 0.190673828125, -0.303466796875, 
325, 3924785893, 0.9020010828971863, -0.025902658700942993, -0.42571401596069336, -0.06720098853111267, 7.585285663604736, 0.3424068093299866, 6.055795192718506, -0.28270432353019714, 0.03792187571525574, -3.0574944019317627, -0.92919921875, 0.189697265625, -0.298828125, 
326, 3924794226, 0.901932418346405, -0.02590736746788025, -0.4258166253566742, -0.0674709677696228, 7.642233371734619, 0.19773851335048676, 6.047995090484619, -1.7643342018127441, -2.074061632156372, -3.222757577896118, -0.92236328125, 0.187255859375, -0.300048828125, 
327, 3924802559, 0.9018343687057495, -0.025942116975784302, -0.4259800910949707, -0.06773567199707031, 7.695775032043457, 0.10672574490308762, 6.00433349609375, -1.9242438077926636, -3.0318546295166016, -2.9002745151519775, -0.9287109375, 0.189697265625, -0.298828125, 
328, 3924810892, 0.9017585515975952, -0.025864645838737488, -0.42612242698669434, -0.06787833571434021, 7.75138521194458, 0.06151944398880005, 6.065714359283447, 0.03633379563689232, -2.5772788524627686, -2.1460375785827637, -0.92822265625, 0.18798828125, -0.30126953125, 
329, 3924819225, 0.9016572833061218, -0.025762155652046204, -0.4263424277305603, -0.06788146495819092, 7.823415279388428, 0.11078799515962601, 6.123753547668457, 1.2187381982803345, -3.718059539794922, -0.6036762595176697, -0.92138671875, 0.188720703125, -0.300537109375, 
330, 3924827558, 0.9014886021614075, -0.025714069604873657, -0.42669737339019775, -0.06791076064109802, 7.799622058868408, 0.24676646292209625, 6.162016868591309, 0.5024360418319702, -5.82544469833374, -0.7306204438209534, -0.9287109375, 0.187255859375, -0.298828125, 
331, 3924835891, 0.9011827111244202, -0.025738030672073364, -0.4272995889186859, -0.06817349791526794, 7.766477108001709, 0.42692285776138306, 6.293108940124512, -1.5885440111160278, -9.682003021240234, -3.404107093811035, -0.9267578125, 0.187255859375, -0.2978515625, 
332, 3924844224, 0.9008052349090576, -0.025871992111206055, -0.42801809310913086, -0.06860589981079102, 7.847596168518066, 0.48977071046829224, 6.390158176422119, -3.856274366378784, -11.58736801147461, -4.9815592765808105, -0.9306640625, 0.18408203125, -0.2978515625, 
333, 3924852557, 0.900461733341217, -0.0260331928730011, -0.42865800857543945, -0.06905615329742432, 7.978726863861084, 0.387838214635849, 6.526831150054932, -4.367815971374512, -10.432089805603027, -4.969110012054443, -0.9326171875, 0.188232421875, -0.297119140625, 
334, 3924860890, 0.900282621383667, -0.02617853879928589, -0.42895132303237915, -0.06951257586479187, 7.896085739135742, 0.2703705430030823, 6.630906581878662, -4.47086238861084, -5.153737545013428, -4.871519565582275, -0.9296875, 0.186767578125, -0.29541015625, 
335, 3924869223, 0.9003158211708069, -0.02618636190891266, -0.4287869334220886, -0.07009145617485046, 7.696925163269043, 0.2612244188785553, 6.615665435791016, -3.861320734024048, 1.9385240077972412, -6.820303916931152, -0.92236328125, 0.18798828125, -0.295654296875, 
336, 3924877556, 0.9003803133964539, -0.026225730776786804, -0.42850929498672485, -0.0709419846534729, 7.60679817199707, 0.2776862382888794, 6.701147079467773, -5.941529273986816, 3.595303535461426, -9.936990737915039, -0.923828125, 0.183349609375, -0.295166015625, 
337, 3924885889, 0.9002686738967896, -0.026589900255203247, -0.4285304546356201, -0.07208526134490967, 7.471653938293457, 0.25162893533706665, 6.755520820617676, -11.322467803955078, -1.354532241821289, -11.795357704162598, -0.9296875, 0.1826171875, -0.29443359375, 
338, 3924894222, 0.9000715613365173, -0.0271151065826416, -0.4286898374557495, -0.07339295744895935, 7.454370021820068, 0.26309826970100403, 6.601057052612305, -14.315544128417969, -3.6690099239349365, -13.149993896484375, -0.931640625, 0.183349609375, -0.291015625, 
339, 3924902555, 0.8999474048614502, -0.027525290846824646, -0.4287030100822449, -0.07467237114906311, 7.5500640869140625, 0.24914248287677765, 6.5470757484436035, -12.856504440307617, -1.32566499710083, -13.335465431213379, -0.93017578125, 0.1826171875, -0.29443359375, 
340, 3924910888, 0.8998969793319702, -0.027776256203651428, -0.42857635021209717, -0.07590371370315552, 7.692249298095703, 0.28350576758384705, 6.479033470153809, -10.70910930633545, 0.9861610531806946, -13.565073013305664, -0.93115234375, 0.1826171875, -0.2939453125, 
341, 3924919221, 0.9000269174575806, -0.02777053415775299, -0.4281134605407715, -0.07697349786758423, 7.824267864227295, 0.393187016248703, 6.24979305267334, -6.871326923370361, 6.4128193855285645, -12.749078750610352, -0.933349609375, 0.1796875, -0.294921875, 
342, 3924927554, 0.9002526998519897, -0.027591586112976074, -0.4275028109550476, -0.07778581976890564, 7.739305019378662, 0.41588887572288513, 6.179930686950684, -3.3217062950134277, 8.896581649780273, -10.436702728271484, -0.931884765625, 0.17724609375, -0.29248046875, 
343, 3924935887, 0.9004963636398315, -0.027544662356376648, -0.42684805393218994, -0.07857424020767212, 7.4679999351501465, 0.43164026737213135, 6.216988563537598, -4.866322040557861, 9.391244888305664, -9.31525993347168, -0.929443359375, 0.17626953125, -0.294677734375, 
344, 3924944220, 0.9009979367256165, -0.02794809639453888, -0.42551136016845703, -0.07992005348205566, 7.1952104568481445, 0.44930148124694824, 5.957493782043457, -14.344263076782227, 19.07819938659668, -13.04969310760498, -0.930419921875, 0.175537109375, -0.298095703125, 
345, 3924952553, 0.9016584753990173, -0.027937859296798706, -0.42393922805786133, -0.08082279562950134, 7.191558837890625, 0.4113619923591614, 5.362214088439941, -6.8358540534973145, 23.207109451293945, -9.704648971557617, -0.928955078125, 0.175537109375, -0.299560546875, 
346, 3924960886, 0.9020169377326965, -0.026893630623817444, -0.4231986403465271, -0.08105909824371338, 6.562992095947266, 0.14263783395290375, 5.172357559204102, 10.689937591552734, 12.031509399414062, -8.13564682006836, -0.919921875, 0.174560546875, -0.3037109375, 
347, 3924969219, 0.9019367694854736, -0.025981426239013672, -0.4233745038509369, -0.08132892847061157, 6.150694847106934, 0.007871429435908794, 5.607616424560547, 9.885263442993164, -2.0210657119750977, -8.44931697845459, -0.927734375, 0.171630859375, -0.302978515625, 
348, 3924977552, 0.9015212655067444, -0.025858327746391296, -0.4242500364780426, -0.08141246438026428, 6.145269393920898, -0.08556310832500458, 5.769099712371826, 1.6750049591064453, -13.601598739624023, -2.3326122760772705, -0.92724609375, 0.171875, -0.304443359375, 
349, 3924985885, 0.9008034467697144, -0.02569432556629181, -0.42584308981895447, -0.08109253644943237, 6.731161117553711, -0.3758125901222229, 5.90269136428833, 5.222911834716797, -24.362070083618164, 1.8513851165771484, -0.92919921875, 0.170166015625, -0.299072265625, 
350, 3924994218, 0.9000366926193237, -0.025489524006843567, -0.4275742173194885, -0.0805598795413971, 7.581069469451904, -0.4966106414794922, 6.484731674194336, 7.120159149169922, -26.384313583374023, 4.130976676940918, -0.93017578125, 0.171630859375, -0.297607421875, 
351, 3925002551, 0.8991692066192627, -0.02597852051258087, -0.42943984270095825, -0.08016529679298401, 7.944084644317627, -0.19015629589557648, 7.382303237915039, -2.173267364501953, -29.366003036499023, 6.353116989135742, -0.93310546875, 0.169677734375, -0.294189453125, 
352, 3925010884, 0.8982017636299133, -0.026876389980316162, -0.4314350187778473, -0.08000263571739197, 8.04903507232666, 0.14415979385375977, 7.765841960906982, -8.482316017150879, -31.922517776489258, 5.732893943786621, -0.93359375, 0.171142578125, -0.290283203125, 
353, 3925019217, 0.897638738155365, -0.02736082673072815, -0.4325938820838928, -0.07989880442619324, 8.163416862487793, 0.3283519744873047, 7.580409526824951, -4.502933502197266, -18.721759796142578, 3.318902015686035, -0.935302734375, 0.173828125, -0.28466796875, 
354, 3925027550, 0.8976848721504211, -0.026848971843719482, -0.4325646162033081, -0.0797128677368164, 8.08560562133789, 0.45660343766212463, 7.286574363708496, 7.214646816253662, 0.6367570757865906, -0.49074316024780273, -0.93310546875, 0.17236328125, -0.286865234375, 
355, 3925035883, 0.8981002569198608, -0.025763943791389465, -0.4317741096019745, -0.07967916131019592, 7.799566745758057, 0.4333948493003845, 7.1451921463012695, 12.678269386291504, 12.906951904296875, -5.078766345977783, -0.934814453125, 0.17431640625, -0.2841796875, 
356, 3925044216, 0.8986741900444031, -0.024849310517311096, -0.4305954575538635, -0.07987600564956665, 7.568348407745361, 0.29829034209251404, 6.793514728546143, 8.84373950958252, 18.543956756591797, -6.617849349975586, -0.93505859375, 0.171142578125, -0.2880859375, 
357, 3925052549, 0.8992567658424377, -0.024285510182380676, -0.4293563961982727, -0.08016133308410645, 7.2494659423828125, 0.10052821785211563, 6.304563999176025, 3.9131264686584473, 18.97850227355957, -5.590206146240234, -0.93310546875, 0.167724609375, -0.292236328125, 
358, 3925060882, 0.8998152017593384, -0.023996874690055847, -0.4281295835971832, -0.08054298162460327, 6.911654472351074, 0.1428704708814621, 5.800328254699707, -0.045132290571928024, 18.42182731628418, -5.200177192687988, -0.931640625, 0.167724609375, -0.294189453125, 
359, 3925069215, 0.9002789258956909, -0.023991629481315613, -0.4270842969417572, -0.08091121912002563, 6.737797260284424, 0.4085824489593506, 5.291540622711182, -3.311485528945923, 15.289894104003906, -3.518141508102417, -0.92529296875, 0.167236328125, -0.296875, 
360, 3925077548, 0.9004096984863281, -0.024465471506118774, -0.4267154037952423, -0.08126002550125122, 6.485621452331543, 0.5815776586532593, 5.324086666107178, -8.475879669189453, 4.431532382965088, -1.0700604915618896, -0.92724609375, 0.169189453125, -0.298095703125, 
361, 3925085881, 0.9000388383865356, -0.025537461042404175, -0.4273829460144043, -0.08152937889099121, 6.474786758422852, 0.45295432209968567, 5.520477294921875, -14.437235832214355, -12.048247337341309, 2.5267550945281982, -0.92919921875, 0.169189453125, -0.297119140625, 
362, 3925094214, 0.8994482755661011, -0.026682615280151367, -0.42854803800582886, -0.08156341314315796, 6.834408283233643, 0.09778425097465515, 5.5406999588012695, -13.467178344726562, -19.654376983642578, 5.438071250915527, -0.931640625, 0.170654296875, -0.295166015625, 
363, 3925102547, 0.898833692073822, -0.02736160159111023, -0.4298444092273712, -0.08129093050956726, 7.263606071472168, -0.3692637085914612, 5.835716724395752, -5.767585754394531, -21.017770767211914, 6.417176246643066, -0.93212890625, 0.171142578125, -0.292724609375, 
364, 3925110880, 0.8979766368865967, -0.02790786325931549, -0.4316762089729309, -0.08087053894996643, 7.507871150970459, -0.48675984144210815, 6.271990776062012, -2.736165761947632, -28.966569900512695, 6.974697113037109, -0.93212890625, 0.1728515625, -0.289306640625, 
365, 3925119213, 0.8967174887657166, -0.0285823792219162, -0.4342862665653229, -0.08063194155693054, 7.518038749694824, -0.15556955337524414, 6.372493267059326, -4.695173263549805, -41.0466423034668, 4.759734153747559, -0.93212890625, 0.1728515625, -0.284423828125, 
366, 3925127546, 0.8951281309127808, -0.029186829924583435, -0.43752849102020264, -0.08054685592651367, 7.562030792236328, 0.4222085773944855, 6.393256664276123, -4.170775413513184, -50.666507720947266, 1.819703459739685, -0.937744140625, 0.1728515625, -0.27783203125, 
367, 3925135879, 0.8935560584068298, -0.02948930859565735, -0.44072768092155457, -0.0804523229598999, 7.752155303955078, 0.5562268495559692, 6.556535720825195, -0.4437420070171356, -49.711605072021484, 0.1684267818927765, -0.92578125, 0.1728515625, -0.272216796875, 
368, 3925144212, 0.8921371698379517, -0.0295620858669281, -0.4436109960079193, -0.08032512664794922, 7.908844947814941, 0.3663055896759033, 6.834874153137207, 2.296896457672119, -44.65178680419922, -0.5363630652427673, -0.941162109375, 0.173095703125, -0.265625, 
369, 3925152545, 0.8910813331604004, -0.029328197240829468, -0.4457499384880066, -0.08028990030288696, 8.059545516967773, 0.34366753697395325, 6.865025043487549, 4.814520359039307, -32.93937301635742, -2.8201043605804443, -0.9326171875, 0.1708984375, -0.261474609375, 
370, 3925160878, 0.8905370235443115, -0.02895846962928772, -0.4468737542629242, -0.08021566271781921, 8.230833053588867, 0.3466672897338867, 6.646961212158203, 5.812908172607422, -17.219120025634766, -2.212609052658081, -0.943359375, 0.171875, -0.25732421875, 
371, 3925169211, 0.8904002904891968, -0.028642117977142334, -0.4471750855445862, -0.08016717433929443, 8.258406639099121, 0.23638105392456055, 6.319965362548828, 4.246545314788818, -4.704617500305176, -1.40962815284729, -0.945068359375, 0.1728515625, -0.254150390625, 
372, 3925177544, 0.8904778957366943, -0.02837066352367401, -0.44702452421188354, -0.08024179935455322, 8.078502655029297, 0.015206214040517807, 5.788765907287598, 2.5341055393218994, 2.157627582550049, -2.2406818866729736, -0.94580078125, 0.17041015625, -0.252685546875, 
373, 3925185877, 0.8906631469726562, -0.027981609106063843, -0.4466685652732849, -0.08030498027801514, 7.9085564613342285, -0.17172567546367645, 5.545280933380127, 3.8519842624664307, 5.448160648345947, -2.6124985218048096, -0.9423828125, 0.168212890625, -0.2568359375, 
374, 3925194210, 0.8906292915344238, -0.027540966868400574, -0.44676923751831055, -0.08027178049087524, 7.87322998046875, -0.18538473546504974, 5.713570594787598, 5.504538536071777, -1.4584746360778809, -2.1772358417510986, -0.94384765625, 0.17041015625, -0.25537109375, 
375, 3925202543, 0.8903220891952515, -0.027419552206993103, -0.4473839998245239, -0.0802987813949585, 7.934970855712891, -0.17107246816158295, 5.848508358001709, 1.6820740699768066, -9.775263786315918, -1.439520001411438, -0.9443359375, 0.16943359375, -0.255859375, 
376, 3925210876, 0.8898880481719971, -0.027334794402122498, -0.44828686118125916, -0.0801035463809967, 7.735604286193848, 0.15267719328403473, 5.560725688934326, 2.8775928020477295, -14.195000648498535, 1.2470675706863403, -0.9462890625, 0.167724609375, -0.25537109375, 
377, 3925219209, 0.8891060948371887, -0.02709585428237915, -0.4499293565750122, -0.07965612411499023, 7.691038131713867, 0.619508683681488, 5.675214767456055, 6.995981216430664, -25.327600479125977, 2.7325663566589355, -0.94482421875, 0.16943359375, -0.25, 
378, 3925227542, 0.8878082036972046, -0.02708183228969574, -0.4525725245475769, -0.07916185259819031, 7.8043437004089355, 0.7450398206710815, 5.746654987335205, 5.444735527038574, -41.00686264038086, 3.7490968704223633, -0.9482421875, 0.16796875, -0.250244140625, 
379, 3925235875, 0.8865154981613159, -0.027069568634033203, -0.4551790952682495, -0.07870689034461975, 7.794740200042725, 0.7040457129478455, 5.609737396240234, 5.134418964385986, -40.52457046508789, 3.3088645935058594, -0.94921875, 0.16845703125, -0.242431640625, 
380, 3925244208, 0.8854389190673828, -0.026645436882972717, -0.4573766589164734, -0.0782305896282196, 8.02996826171875, 0.6235036253929138, 5.805447578430176, 9.935989379882812, -33.738460540771484, 1.3679167032241821, -0.94921875, 0.167724609375, -0.237548828125, 
381, 3925252541, 0.8845806121826172, -0.0260913223028183, -0.4591251313686371, -0.07788550853729248, 8.224445343017578, 0.5232637524604797, 5.822403430938721, 10.27780818939209, -26.719892501831055, -0.6390243768692017, -0.94873046875, 0.167236328125, -0.233154296875, 
382, 3925260874, 0.8840484023094177, -0.025546327233314514, -0.46019577980041504, -0.07778990268707275, 8.08098316192627, 0.40238267183303833, 5.702618598937988, 7.993295192718506, -16.326107025146484, -3.0343141555786133, -0.94384765625, 0.16748046875, -0.23046875, 
383, 3925269207, 0.8838948607444763, -0.024772047996520996, -0.4605579972267151, -0.07764226198196411, 8.06120777130127, 0.19408078491687775, 5.4044189453125, 10.643572807312012, -5.095695495605469, -3.0668437480926514, -0.9501953125, 0.167724609375, -0.230224609375, 
384, 3925277540, 0.8838433623313904, -0.023695454001426697, -0.4607560634613037, -0.0773884654045105, 8.182448387145996, -0.06836481392383575, 5.373826026916504, 14.692596435546875, -2.161841869354248, -3.659276008605957, -0.95263671875, 0.166259765625, -0.231689453125, 
385, 3925285873, 0.8837767839431763, -0.02252061665058136, -0.4609808921813965, -0.07715940475463867, 8.286782264709473, -0.25025200843811035, 5.248302459716797, 15.744882583618164, -2.4794583320617676, -4.592991828918457, -0.949951171875, 0.163330078125, -0.22998046875, 
386, 3925294206, 0.8835451006889343, -0.021393343806266785, -0.4615338146686554, -0.07682880759239197, 8.288267135620117, -0.2718902826309204, 5.2474045753479, 16.1149845123291, -7.587296962738037, -3.345885992050171, -0.941162109375, 0.163330078125, -0.23583984375, 
387, 3925302539, 0.8830665349960327, -0.02033655345439911, -0.46258214116096497, -0.07630857825279236, 8.322068214416504, -0.08147070556879044, 5.220082759857178, 17.092323303222656, -15.303336143493652, -0.861458420753479, -0.950927734375, 0.162353515625, -0.228759765625, 
388, 3925310872, 0.8822789192199707, -0.019437149167060852, -0.4642169773578644, -0.07572326064109802, 8.274301528930664, 0.3223607540130615, 5.235513687133789, 15.945884704589844, -24.574495315551758, 0.3012876808643341, -0.952392578125, 0.160400390625, -0.226806640625, 
389, 3925319205, 0.8810762166976929, -0.018864735960960388, -0.46657297015190125, -0.0753919780254364, 8.102088928222656, 0.6320381760597229, 5.419068336486816, 10.990760803222656, -36.253173828125, -1.3064554929733276, -0.954345703125, 0.160888671875, -0.223388671875, 
390, 3925327538, 0.8797804117202759, -0.018516570329666138, -0.46905386447906494, -0.07521706819534302, 7.941656112670898, 0.6345176100730896, 5.447383403778076, 7.38020133972168, -38.548553466796875, -1.9041905403137207, -0.951904296875, 0.157958984375, -0.2197265625, 
391, 3925335871, 0.8787670731544495, -0.018902599811553955, -0.47089269757270813, -0.07547497749328613, 8.029304504394531, 0.549505352973938, 5.84376859664917, -4.889786720275879, -29.614276885986328, -1.9353362321853638, -0.956298828125, 0.158447265625, -0.216064453125, 
392, 3925344204, 0.8780204057693481, -0.01914292573928833, -0.4722694754600525, -0.07550227642059326, 8.042216300964355, 0.6163967251777649, 5.409707069396973, -2.041557550430298, -22.20667839050293, 0.2922457158565521, -0.9462890625, 0.15625, -0.2099609375, 
393, 3925352537, 0.8775004744529724, -0.01887430250644684, -0.4732247591018677, -0.0756348967552185, 7.818634033203125, 0.7025007009506226, 5.4459686279296875, 3.192110776901245, -15.090423583984375, -3.8240010738372803, -0.958740234375, 0.16064453125, -0.209716796875, 
394, 3925360870, 0.877074122428894, -0.018587112426757812, -0.47397950291633606, -0.07592421770095825, 7.90167236328125, 0.7391658425331116, 5.376699924468994, 2.062983512878418, -11.9986572265625, -5.799550533294678, -0.957763671875, 0.1552734375, -0.205810546875, 
395, 3925369203, 0.8765794038772583, -0.018081486225128174, -0.4748644530773163, -0.07622867822647095, 8.025317192077637, 0.5860600471496582, 5.07528829574585, 4.710318088531494, -13.792013168334961, -7.498363494873047, -0.960693359375, 0.15576171875, -0.205322265625, 
396, 3925377536, 0.8759011030197144, -0.017043501138687134, -0.4760967791080475, -0.07657843828201294, 8.269102096557617, 0.5272470116615295, 5.029483318328857, 11.155324935913086, -18.60024642944336, -11.813291549682617, -0.961669921875, 0.15576171875, -0.204345703125, 
397, 3925385869, 0.87497878074646, -0.016226425766944885, -0.47772735357284546, -0.07714405655860901, 8.261631965637207, 0.6216554641723633, 5.351031303405762, 7.436086654663086, -25.184959411621094, -13.304299354553223, -0.96142578125, 0.1533203125, -0.200439453125, 
398, 3925394202, 0.8738881349563599, -0.015692904591560364, -0.47963833808898926, -0.07775518298149109, 8.198589324951172, 0.5520552396774292, 5.168564319610596, 3.9936342239379883, -29.945575714111328, -12.242231369018555, -0.96044921875, 0.1484375, -0.197021484375, 
399, 3925402535, 0.872909665107727, -0.015023663640022278, -0.48135906457901, -0.07824316620826721, 8.18581771850586, 0.4815429747104645, 4.946166038513184, 6.25283670425415, -26.811338424682617, -11.482333183288574, -0.9609375, 0.14794921875, -0.195068359375, 
400, 3925410868, 0.871972918510437, -0.014483526349067688, -0.4830200970172882, -0.07855236530303955, 8.428659439086914, 0.4721415042877197, 4.949940204620361, 5.8368096351623535, -25.98366355895996, -8.440024375915527, -0.96630859375, 0.1474609375, -0.191650390625, 
401, 3925419201, 0.870884120464325, -0.014333024621009827, -0.4849315881729126, -0.07888287305831909, 8.57669734954834, 0.5111834406852722, 4.8995280265808105, 1.2561873197555542, -30.42430877685547, -6.307639122009277, -0.9638671875, 0.146484375, -0.186767578125, 
402, 3925427534, 0.8697361350059509, -0.014566391706466675, -0.4869365394115448, -0.07915365695953369, 8.61868667602539, 0.5835214853286743, 4.9956560134887695, -2.847870349884033, -32.356544494628906, -3.1292426586151123, -0.968994140625, 0.14306640625, -0.182861328125, 
403, 3925435867, 0.8686349391937256, -0.014739945530891418, -0.48887455463409424, -0.07926610112190247, 8.806890487670898, 0.6121507287025452, 5.160166263580322, -1.1409357786178589, -31.216093063354492, -1.5567833185195923, -0.969970703125, 0.1435546875, -0.177978515625, 
404, 3925444200, 0.867766261100769, -0.014928802847862244, -0.4903889000415802, -0.07939198613166809, 8.952451705932617, 0.7616363763809204, 5.178072929382324, -1.821993112564087, -24.600669860839844, -1.2906253337860107, -0.968017578125, 0.144775390625, -0.175048828125, 
405, 3925452533, 0.8672330379486084, -0.015139594674110413, -0.491286039352417, -0.07963013648986816, 8.783587455749512, 0.8142188191413879, 4.856961250305176, -3.456974506378174, -14.982025146484375, -1.9755494594573975, -0.951904296875, 0.14306640625, -0.172607421875, 
406, 3925460866, 0.8669161796569824, -0.015103310346603394, -0.49181705713272095, -0.07981047034263611, 8.691970825195312, 0.6701710224151611, 4.316451549530029, -0.4653083086013794, -8.887166976928711, -2.6558632850646973, -0.968994140625, 0.141845703125, -0.169189453125, 
407, 3925469199, 0.8667080402374268, -0.014547467231750488, -0.49217766523361206, -0.07995131611824036, 8.38239574432373, 0.6633908152580261, 3.936830520629883, 5.824843883514404, -5.562746047973633, -5.528756618499756, -0.967041015625, 0.141845703125, -0.170166015625, 
408, 3925477532, 0.8663105368614197, -0.013696208596229553, -0.4928912818431854, -0.0800146758556366, 8.100817680358887, 0.5300052762031555, 3.8688457012176514, 10.226394653320312, -10.739486694335938, -6.897197723388672, -0.969970703125, 0.141357421875, -0.167236328125, 
409, 3925485865, 0.8655107021331787, -0.012970134615898132, -0.49430954456329346, -0.08004012703895569, 8.252654075622559, 0.2548394799232483, 4.0206217765808105, 9.684887886047363, -22.006711959838867, -6.15938138961792, -0.969970703125, 0.141357421875, -0.164306640625, 
410, 3925494198, 0.8643965721130371, -0.012802153825759888, -0.4962373375892639, -0.08017852902412415, 8.596994400024414, 0.1817445456981659, 4.530200481414795, 2.786510705947876, -30.799837112426758, -4.160651206970215, -0.970458984375, 0.139404296875, -0.161865234375, 
411, 3925502531, 0.8631570935249329, -0.01310025155544281, -0.49833810329437256, -0.0804542601108551, 8.875940322875977, 0.4190744459629059, 4.947867393493652, -3.5272374153137207, -34.20161819458008, -2.7675952911376953, -0.965576171875, 0.1396484375, -0.1611328125, 
412, 3925510864, 0.862060010433197, -0.013539910316467285, -0.5001804828643799, -0.0807102620601654, 8.943614959716797, 0.8130000233650208, 5.473258018493652, -5.325920581817627, -30.317468643188477, -1.3725143671035767, -0.970947265625, 0.1376953125, -0.155517578125, 
413, 3925519197, 0.8613094687461853, -0.014021292328834534, -0.5013989806175232, -0.08107972145080566, 8.862722396850586, 0.9466912150382996, 5.683746814727783, -7.237280368804932, -20.566139221191406, -1.9166885614395142, -0.972412109375, 0.13916015625, -0.151611328125, 
414, 3925527530, 0.8610246181488037, -0.014212369918823242, -0.5018342733383179, -0.08137848973274231, 8.744766235351562, 0.8135362863540649, 5.630287170410156, -4.088263034820557, -7.767261981964111, -2.4249768257141113, -0.974609375, 0.1357421875, -0.148681640625, 
415, 3925535863, 0.8610912561416626, -0.014205753803253174, -0.5016730427742004, -0.08166807889938354, 8.575237274169922, 0.6391372680664062, 5.445101737976074, -2.2900664806365967, 1.9393947124481201, -3.1554176807403564, -0.97509765625, 0.13623046875, -0.147705078125, 
416, 3925544196, 0.8612622618675232, -0.014106377959251404, -0.5013359189033508, -0.08195197582244873, 8.425331115722656, 0.48914235830307007, 5.102896690368652, -1.3216177225112915, 4.8474812507629395, -3.5921146869659424, -0.966796875, 0.13818359375, -0.150390625, 
417, 3925552529, 0.8612236976623535, -0.013919532299041748, -0.5013698935508728, -0.08218264579772949, 8.430801391601562, 0.32903924584388733, 4.847027778625488, 0.45894303917884827, -0.9044642448425293, -3.8708996772766113, -0.96875, 0.13671875, -0.14990234375, 
418, 3925560862, 0.8608145713806152, -0.013765424489974976, -0.5020403265953064, -0.0824018120765686, 8.483732223510742, 0.31540942192077637, 4.698834419250488, 0.964388906955719, -11.029491424560547, -3.9364988803863525, -0.97412109375, 0.134033203125, -0.150634765625, 
419, 3925569195, 0.8601172566413879, -0.013499200344085693, -0.5032135248184204, -0.08256980776786804, 8.574420928955078, 0.34066617488861084, 4.688007354736328, 2.9855828285217285, -18.86296844482422, -4.628774642944336, -0.97021484375, 0.1337890625, -0.14794921875, 
420, 3925577528, 0.8593312501907349, -0.013131484389305115, -0.5045419931411743, -0.08270707726478577, 8.679323196411133, 0.4149852395057678, 4.771260738372803, 4.567084312438965, -21.200345993041992, -5.108248710632324, -0.9755859375, 0.1318359375, -0.145263671875, 
421, 3925585861, 0.8586667776107788, -0.012617334723472595, -0.5056615471839905, -0.08284959197044373, 8.681985855102539, 0.4772743582725525, 4.800179481506348, 6.039312839508057, -17.72543716430664, -5.998342990875244, -0.974609375, 0.1337890625, -0.142822265625, 
422, 3925594194, 0.8581334948539734, -0.011960163712501526, -0.5065600275993347, -0.08298316597938538, 8.743696212768555, 0.5600711107254028, 4.778625965118408, 7.567074298858643, -14.036297798156738, -6.712109565734863, -0.97021484375, 0.13134765625, -0.13916015625, 
423, 3925602527, 0.8576784133911133, -0.011261433362960815, -0.5073138475418091, -0.08318042755126953, 8.740545272827148, 0.6533833146095276, 4.746312141418457, 7.456344127655029, -11.730375289916992, -7.626102447509766, -0.9755859375, 0.13037109375, -0.138916015625, 
424, 3925610860, 0.857306957244873, -0.010634303092956543, -0.5079194903373718, -0.0833970308303833, 8.618579864501953, 0.6069210171699524, 4.716240406036377, 6.325986385345459, -9.475065231323242, -7.250468730926514, -0.975830078125, 0.12841796875, -0.135986328125, 
425, 3925619193, 0.8570332527160645, -0.010175228118896484, -0.5083504915237427, -0.08364027738571167, 8.728594779968262, 0.5695685148239136, 4.590373992919922, 3.967453718185425, -6.925833702087402, -6.239602565765381, -0.975830078125, 0.126953125, -0.137451171875, 
426, 3925627526, 0.8568172454833984, -0.009903401136398315, -0.5086846351623535, -0.08385446667671204, 8.809477806091309, 0.5812413096427917, 4.444386959075928, 1.8654204607009888, -5.5956854820251465, -4.521424293518066, -0.974853515625, 0.12744140625, -0.1357421875, 
427, 3925635859, 0.8566301465034485, -0.009725123643875122, -0.5089713931083679, -0.08404532074928284, 8.74104118347168, 0.582095742225647, 4.263425827026367, 0.868412435054779, -4.950284481048584, -3.5383763313293457, -0.976806640625, 0.1240234375, -0.13427734375, 
428, 3925644192, 0.8564590215682983, -0.009567230939865112, -0.5092300176620483, -0.08424201607704163, 8.644426345825195, 0.6548427939414978, 4.291223526000977, 0.5647298693656921, -4.526394367218018, -3.4564874172210693, -0.965576171875, 0.125732421875, -0.133544921875, 
429, 3925652525, 0.8561663031578064, -0.009549498558044434, -0.5096755027770996, -0.08452433347702026, 8.675597190856934, 0.6721854209899902, 4.4080328941345215, -1.3381388187408447, -7.720258712768555, -3.550901174545288, -0.977783203125, 0.1240234375, -0.132080078125, 
430, 3925660858, 0.855846643447876, -0.009480983018875122, -0.5101694464683533, -0.08478966355323792, 8.911666870117188, 0.6645438075065613, 4.39362096786499, -0.715072751045227, -8.432899475097656, -3.8417773246765137, -0.976806640625, 0.125, -0.134765625, 
431, 3925669191, 0.855642557144165, -0.009298816323280334, -0.5104767084121704, -0.08501803874969482, 9.052523612976074, 0.6515932679176331, 4.511396884918213, 0.6728219389915466, -5.297869682312012, -4.033371448516846, -0.975830078125, 0.1259765625, -0.1318359375, 
432, 3925677524, 0.8556062579154968, -0.00908324122428894, -0.510521650314331, -0.08513766527175903, 9.035690307617188, 0.7385326623916626, 4.65840482711792, 1.550519347190857, -1.007407784461975, -2.7698721885681152, -0.977783203125, 0.125, -0.130615234375, 
433, 3925685857, 0.8557357788085938, -0.008855938911437988, -0.5103101134300232, -0.0851275622844696, 9.019143104553223, 0.7248882055282593, 4.793944358825684, 2.3095459938049316, 3.171464681625366, -1.090269923210144, -0.976318359375, 0.12353515625, -0.12841796875, 
434, 3925694190, 0.8560359477996826, -0.008631631731987, -0.5098228454589844, -0.08505383133888245, 9.012662887573242, 0.6933296322822571, 4.832213401794434, 2.4281656742095947, 7.602370262145996, -0.09654006361961365, -0.975830078125, 0.1220703125, -0.13330078125, 
435, 3925702523, 0.8564890623092651, -0.008577078580856323, -0.5090761780738831, -0.08496895432472229, 9.021627426147461, 0.7561826705932617, 4.798361301422119, 0.21763134002685547, 11.528082847595215, 1.4458082914352417, -0.970458984375, 0.123046875, -0.134765625, 
436, 3925710856, 0.8570942878723145, -0.008784368634223938, -0.5080571174621582, -0.08494371175765991, 8.926234245300293, 0.8474370837211609, 4.767123222351074, -3.577847719192505, 15.503132820129395, 2.7749056816101074, -0.972900390625, 0.121826171875, -0.13671875, 
437, 3925719189, 0.8578052520751953, -0.009212896227836609, -0.5068464875221252, -0.08495533466339111, 8.737430572509766, 0.7821341156959534, 4.750791549682617, -6.662827968597412, 18.245756149291992, 4.043374538421631, -0.974365234375, 0.125, -0.13818359375, 
438, 3925727522, 0.8585554957389832, -0.0098724365234375, -0.5055529475212097, -0.08500975370407104, 8.477832794189453, 0.7472528219223022, 4.845651149749756, -9.769682884216309, 19.23257064819336, 5.195145130157471, -0.973876953125, 0.122314453125, -0.140625, 
439, 3925735855, 0.8593297004699707, -0.01074954867362976, -0.5042014718055725, -0.08510631322860718, 8.379150390625, 0.810908317565918, 4.734048366546631, -12.702386856079102, 19.834793090820312, 6.256473064422607, -0.972412109375, 0.1279296875, -0.1435546875, 
440, 3925744188, 0.8600823879241943, -0.011559471487998962, -0.502880871295929, -0.08521294593811035, 8.33983325958252, 0.825211763381958, 4.628553867340088, -11.93864631652832, 19.399883270263672, 5.63063907623291, -0.973388671875, 0.126708984375, -0.14501953125, 
441, 3925752521, 0.8606739044189453, -0.012298211455345154, -0.5018166303634644, -0.08540835976600647, 8.32942008972168, 0.8223069906234741, 4.624067783355713, -11.441550254821777, 15.352217674255371, 3.8706579208374023, -0.971435546875, 0.127197265625, -0.146484375, 
442, 3925760854, 0.8610786199569702, -0.013050198554992676, -0.5010426044464111, -0.08576056361198425, 8.435272216796875, 0.820612907409668, 4.728939533233643, -12.365558624267578, 10.637736320495605, 1.825668215751648, -0.968505859375, 0.129638671875, -0.15087890625, 
443, 3925769187, 0.8612651228904724, -0.01357300579547882, -0.5006351470947266, -0.08618652820587158, 8.625433921813965, 0.808680534362793, 4.934072017669678, -9.773087501525879, 5.078701496124268, -0.9373787045478821, -0.97265625, 0.129150390625, -0.14990234375, 
444, 3925777520, 0.8613681793212891, -0.013861969113349915, -0.5003650784492493, -0.08667856454849243, 8.896201133728027, 0.866353452205658, 5.30285120010376, -7.305180072784424, 3.165778636932373, -3.4671685695648193, -0.972412109375, 0.128662109375, -0.14990234375, 
445, 3925785853, 0.8615311980247498, -0.013975486159324646, -0.49997439980506897, -0.08729091286659241, 9.164238929748535, 0.9558511972427368, 5.550113677978516, -6.1943159103393555, 5.2394561767578125, -5.989683628082275, -0.97314453125, 0.130615234375, -0.151123046875, 
