sep=,
PacketCounter,SampleTimeFine,Quat_W,Quat_X,Quat_Y,Quat_Z,Acc_X,Acc_Y,Acc_Z,Gyr_X,Gyr_Y,Gyr_Z,Mag_X,Mag_Y,Mag_Z,
0, 4015532263, 0.8652833700180054, 0.010568991303443909, -0.4950803518295288, -0.07807916402816772, 0, 0, 0, 0, 0, 0, -0.940185546875, 0.0498046875, -0.196044921875, 
1, 4015540596, 0.865156352519989, 0.010647416114807129, -0.4952857494354248, -0.07817408442497253, 8.401354789733887, 1.0155786275863647, 5.164196491241455, 0.3507741391658783, -3.730149507522583, -1.557268500328064, -0.941162109375, 0.04931640625, -0.196044921875, 
2, 4015548929, 0.8650216460227966, 0.010720029473304749, -0.4955040514469147, -0.07827183604240417, 8.42204475402832, 1.0416433811187744, 5.146638870239258, 0.29455089569091797, -3.9369595050811768, -1.5547329187393188, -0.94287109375, 0.05126953125, -0.193603515625, 
3, 4015557262, 0.8648924827575684, 0.010786861181259155, -0.4957108199596405, -0.07838094234466553, 8.484025001525879, 1.0579320192337036, 5.123207092285156, 0.11817126721143723, -3.7753076553344727, -1.649479866027832, -0.942138671875, 0.04931640625, -0.193115234375, 
4, 4015565595, 0.864800214767456, 0.010864973068237305, -0.4958541691303253, -0.07848107814788818, 8.482934951782227, 1.0446290969848633, 5.088235378265381, 0.23802030086517334, -2.754119396209717, -1.5962536334991455, -0.941650390625, 0.04931640625, -0.195068359375, 
5, 4015573928, 0.8647504448890686, 0.010936945676803589, -0.49592334032058716, -0.0785820484161377, 8.438215255737305, 1.0653026103973389, 5.057314872741699, 0.07437092810869217, -1.5898244380950928, -1.5219978094100952, -0.941162109375, 0.048828125, -0.194580078125, 
6, 4015582261, 0.8647249937057495, 0.010984718799591064, -0.49595335125923157, -0.07866612076759338, 8.450346946716309, 1.0831693410873413, 5.008913993835449, -0.12947994470596313, -0.9793346524238586, -1.132533311843872, -0.940673828125, 0.048828125, -0.192138671875, 
7, 4015590594, 0.864712119102478, 0.010999247431755066, -0.49596214294433594, -0.07874995470046997, 8.384196281433105, 1.0806089639663696, 4.915076732635498, -0.5629752278327942, -0.6794943809509277, -0.8968824148178101, -0.941650390625, 0.04638671875, -0.193603515625, 
8, 4015598927, 0.86466383934021, 0.010991334915161133, -0.4960370659828186, -0.0788092315196991, 8.34946060180664, 1.056656837463379, 4.890603065490723, -0.5594661235809326, -1.7245807647705078, -0.47045665979385376, -0.93994140625, 0.05078125, -0.193603515625, 
9, 4015607260, 0.8645944595336914, 0.010864287614822388, -0.49615001678466797, -0.07887771725654602, 8.34337329864502, 1.061530590057373, 4.902315139770508, -2.019528865814209, -2.4549708366394043, 0.20592565834522247, -0.947021484375, 0.046875, -0.193359375, 
10, 4015615593, 0.8645097017288208, 0.010707944631576538, -0.49629008769989014, -0.07894626259803772, 8.305517196655273, 1.0398077964782715, 4.876060962677002, -2.2323570251464844, -2.900683879852295, 0.4500548243522644, -0.942138671875, 0.046875, -0.194091796875, 
11, 4015623926, 0.8644294142723083, 0.010567113757133484, -0.4964246153831482, -0.07899889349937439, 8.30010986328125, 1.0222671031951904, 4.916646957397461, -2.0496511459350586, -2.7987136840820312, 0.48048466444015503, -0.940673828125, 0.04931640625, -0.194091796875, 
12, 4015632259, 0.8643404841423035, 0.0103854238986969, -0.4965727925300598, -0.07906478643417358, 8.309876441955566, 1.0274585485458374, 4.900710582733154, -2.5469000339508057, -3.0563673973083496, 0.6284324526786804, -0.941650390625, 0.04638671875, -0.193603515625, 
13, 4015640592, 0.8642489314079285, 0.010216012597084045, -0.49672770500183105, -0.07911506295204163, 8.352182388305664, 1.002185344696045, 4.902390480041504, -2.349644899368286, -3.149449348449707, 0.6936206817626953, -0.941162109375, 0.04833984375, -0.190673828125, 
14, 4015648925, 0.8641520142555237, 0.010045409202575684, -0.49689117074012756, -0.0791676938533783, 8.365839004516602, 0.9617750644683838, 4.940234661102295, -2.387195348739624, -3.2880992889404297, 0.6568129658699036, -0.940673828125, 0.046875, -0.190185546875, 
15, 4015657258, 0.864062488079071, 0.009891346096992493, -0.4970455765724182, -0.07919561862945557, 8.430388450622559, 0.9272308349609375, 4.929651737213135, -2.015814781188965, -3.1092095375061035, 0.8567320704460144, -0.942626953125, 0.0478515625, -0.190673828125, 
16, 4015665591, 0.8639906644821167, 0.00977364182472229, -0.49717265367507935, -0.07919561862945557, 8.468313217163086, 0.8889374732971191, 4.892071723937988, -1.4333213567733765, -2.619029998779297, 0.9454085230827332, -0.941162109375, 0.049560546875, -0.191162109375, 
17, 4015673924, 0.8639280200004578, 0.009631320834159851, -0.497287780046463, -0.0791742205619812, 8.516589164733887, 0.8115745186805725, 4.851831436157227, -1.5866737365722656, -2.438961982727051, 1.3872798681259155, -0.941162109375, 0.049072265625, -0.190185546875, 
18, 4015682257, 0.8638699650764465, 0.009506598114967346, -0.49740010499954224, -0.07911762595176697, 8.463762283325195, 0.7534307837486267, 4.845293998718262, -1.1317906379699707, -2.348005771636963, 1.688503384590149, -0.943115234375, 0.04931640625, -0.191650390625, 
19, 4015690590, 0.8638335466384888, 0.009342044591903687, -0.4974796772003174, -0.07903331518173218, 8.413804054260254, 0.7161213755607605, 4.866231918334961, -1.462905764579773, -1.8520628213882446, 2.3109545707702637, -0.943603515625, 0.049560546875, -0.186767578125, 
20, 4015698923, 0.8637803792953491, 0.009210050106048584, -0.49759140610694885, -0.0789262056350708, 8.352789878845215, 0.7402983903884888, 4.903777599334717, -0.7298777103424072, -2.29370379447937, 2.4270386695861816, -0.942138671875, 0.050048828125, -0.188232421875, 
21, 4015707256, 0.863680362701416, 0.009088754653930664, -0.49778515100479126, -0.07881265878677368, 8.33666706085205, 0.7381475567817688, 4.94550085067749, -0.6161249279975891, -3.594010591506958, 2.305396556854248, -0.940673828125, 0.049072265625, -0.190673828125, 
22, 4015715589, 0.8635247945785522, 0.0089663565158844, -0.4980754852294922, -0.07869690656661987, 8.426836013793945, 0.7506523132324219, 4.947887897491455, -0.6194289922714233, -5.132272720336914, 2.2189226150512695, -0.943603515625, 0.049560546875, -0.188232421875, 
23, 4015723922, 0.8633387684822083, 0.008876711130142212, -0.49841946363449097, -0.07857081294059753, 8.548198699951172, 0.7344169616699219, 4.990451812744141, 0.01842944696545601, -5.930926322937012, 2.1641597747802734, -0.942138671875, 0.048583984375, -0.187255859375, 
24, 4015732255, 0.8631707429885864, 0.008830040693283081, -0.4987373948097229, -0.07840567827224731, 8.690447807312012, 0.7011722326278687, 5.010079383850098, 0.6975652575492859, -5.452861309051514, 2.3050377368927, -0.939208984375, 0.049072265625, -0.186279296875, 
25, 4015740588, 0.8630251884460449, 0.008792251348495483, -0.49901992082595825, -0.07821300625801086, 8.768088340759277, 0.7876459360122681, 5.026107311248779, 1.0200483798980713, -4.858328819274902, 2.6340527534484863, -0.942626953125, 0.048583984375, -0.186279296875, 
26, 4015748921, 0.8629041910171509, 0.00875137746334076, -0.49926042556762695, -0.07801738381385803, 8.716802597045898, 0.8662741184234619, 5.102030277252197, 0.9495580792427063, -4.1935882568359375, 2.7043380737304688, -0.942626953125, 0.048095703125, -0.185791015625, 
27, 4015757254, 0.8628284335136414, 0.008725777268409729, -0.4994145333766937, -0.07787209749221802, 8.560148239135742, 0.9145587682723999, 5.085291385650635, 0.6924681067466736, -2.8491997718811035, 2.048537015914917, -0.9423828125, 0.051025390625, -0.184814453125, 
28, 4015765587, 0.8627826571464539, 0.00875866413116455, -0.4995086193084717, -0.07777172327041626, 8.41524600982666, 0.9299211502075195, 5.046689510345459, 1.0078561305999756, -1.8728872537612915, 1.1314703226089478, -0.94091796875, 0.051025390625, -0.185302734375, 
29, 4015773920, 0.862702488899231, 0.008742004632949829, -0.49965232610702515, -0.07774016261100769, 8.400616645812988, 0.916217029094696, 5.024445533752441, 0.006774964742362499, -2.7599592208862305, 0.6319928765296936, -0.943359375, 0.050048828125, -0.185791015625, 
30, 4015782253, 0.8625406622886658, 0.008642047643661499, -0.4999288022518158, -0.07776817679405212, 8.424277305603027, 0.8671999573707581, 5.002083778381348, -1.180047869682312, -4.983659744262695, 0.45484477281570435, -0.94189453125, 0.051025390625, -0.185302734375, 
31, 4015790586, 0.8623037338256836, 0.008553609251976013, -0.5003374218940735, -0.07777911424636841, 8.534506797790527, 0.8640837073326111, 4.984034538269043, -0.8335129022598267, -7.0619988441467285, 0.4847366511821747, -0.942626953125, 0.049560546875, -0.184326171875, 
32, 4015798919, 0.8620582818984985, 0.008418366312980652, -0.5007587671279907, -0.07780259847640991, 8.731301307678223, 0.9107841849327087, 5.001399040222168, -1.5463058948516846, -7.331741809844971, 0.5960817337036133, -0.940185546875, 0.050048828125, -0.184326171875, 
33, 4015807252, 0.8618865013122559, 0.008240580558776855, -0.5010496973991394, -0.07785162329673767, 8.891002655029297, 0.9498547315597534, 5.0395660400390625, -2.2900149822235107, -5.317643165588379, 0.704455554485321, -0.942138671875, 0.05029296875, -0.180908203125, 
34, 4015815585, 0.8618229031562805, 0.00819067656993866, -0.5011575818061829, -0.07786625623703003, 8.917017936706543, 0.886412501335144, 5.0038909912109375, -0.7889441251754761, -2.2655534744262695, 0.29473021626472473, -0.941650390625, 0.0498046875, -0.180908203125, 
35, 4015823918, 0.8618634939193726, 0.008191242814064026, -0.5010868310928345, -0.07787138223648071, 8.870771408081055, 0.8458811044692993, 4.943580627441406, -0.28457415103912354, 0.6279457807540894, 0.18236054480075836, -0.94482421875, 0.051513671875, -0.1806640625, 
36, 4015832251, 0.8619633913040161, 0.008202850818634033, -0.5009154081344604, -0.07786881923675537, 8.757543563842773, 0.8224230408668518, 4.838375091552734, -0.19500118494033813, 2.244818925857544, 0.2562576234340668, -0.942626953125, 0.048828125, -0.178955078125, 
37, 4015840584, 0.8620430827140808, 0.008231714367866516, -0.5007764101028442, -0.07787758111953735, 8.617265701293945, 0.8121902942657471, 4.786116123199463, -0.050946712493896484, 1.7366067171096802, -0.021490341052412987, -0.943359375, 0.05126953125, -0.17822265625, 
38, 4015848917, 0.8620834350585938, 0.008190155029296875, -0.5006961226463318, -0.07795017957687378, 8.54726791381836, 0.8131638169288635, 4.772434234619141, -1.1378355026245117, 0.70186847448349, -0.26577329635620117, -0.943115234375, 0.049560546875, -0.181396484375, 
39, 4015857250, 0.8620836734771729, 0.008162140846252441, -0.5006835460662842, -0.0780329704284668, 8.512383460998535, 0.8125128746032715, 4.774816036224365, -1.0916531085968018, -0.3804994523525238, -0.5781388878822327, -0.943603515625, 0.049072265625, -0.181884765625, 
40, 4015865583, 0.862055242061615, 0.00813409686088562, -0.500718355178833, -0.0781266987323761, 8.48436164855957, 0.7702962756156921, 4.783638000488281, -1.2173932790756226, -1.148158073425293, -0.7990103960037231, -0.943359375, 0.05029296875, -0.179443359375, 
41, 4015873916, 0.8620398044586182, 0.008056119084358215, -0.5007244348526001, -0.07826617360115051, 8.524412155151367, 0.7981287837028503, 4.744181156158447, -2.050752639770508, -0.7684783339500427, -0.921728253364563, -0.940185546875, 0.050537109375, -0.184814453125, 
42, 4015882249, 0.8620603680610657, 0.007969081401824951, -0.5006694793701172, -0.07839962840080261, 8.601147651672363, 0.8520131707191467, 4.642128944396973, -2.4106838703155518, 0.17406155169010162, -0.8881736397743225, -0.942626953125, 0.050048828125, -0.182373046875, 
43, 4015890582, 0.8620792627334595, 0.007862284779548645, -0.5006157755851746, -0.07854601740837097, 8.61547565460205, 0.9217764735221863, 4.605290412902832, -2.508683681488037, 0.14506621658802032, -0.7744207978248596, -0.941162109375, 0.050048828125, -0.183349609375, 
44, 4015898915, 0.8620609045028687, 0.007758677005767822, -0.5006220936775208, -0.0787171721458435, 8.601335525512695, 0.9275891780853271, 4.639053821563721, -2.5752806663513184, -0.8190664052963257, -1.1295108795166016, -0.940185546875, 0.047607421875, -0.182373046875, 
45, 4015907248, 0.8620176315307617, 0.007634595036506653, -0.5006701350212097, -0.07889866828918457, 8.496925354003906, 0.8287939429283142, 4.76124382019043, -2.8385443687438965, -1.5114705562591553, -1.1273337602615356, -0.944091796875, 0.048583984375, -0.182373046875, 
46, 4015915581, 0.8619776368141174, 0.007504895329475403, -0.500709056854248, -0.07909995317459106, 8.4609956741333, 0.8078632354736328, 4.77871561050415, -3.029165029525757, -1.3840652704238892, -1.31365168094635, -0.940185546875, 0.048583984375, -0.181396484375, 
47, 4015923914, 0.861912727355957, 0.00735415518283844, -0.5007843375205994, -0.0793447494506836, 8.478230476379395, 0.8448864817619324, 4.756703853607178, -3.5586371421813965, -2.0185811519622803, -1.71310555934906, -0.942138671875, 0.049560546875, -0.181396484375, 
48, 4015932247, 0.8618200421333313, 0.007286205887794495, -0.5009089112281799, -0.0795707106590271, 8.516358375549316, 0.8665581941604614, 4.618402481079102, -2.4055097103118896, -2.6999964714050293, -2.103440761566162, -0.941162109375, 0.048583984375, -0.180908203125, 
49, 4015940580, 0.861693799495697, 0.007278189063072205, -0.501092255115509, -0.07978388667106628, 8.55909252166748, 0.8261610865592957, 4.579029083251953, -1.5270183086395264, -3.563632011413574, -2.3784611225128174, -0.94287109375, 0.05126953125, -0.180419921875, 
50, 4015948913, 0.8614676594734192, 0.007123097777366638, -0.5014380216598511, -0.08006691932678223, 8.42999267578125, 0.8259782195091248, 4.781213283538818, -3.6150147914886475, -6.345620632171631, -2.325542688369751, -0.941162109375, 0.047607421875, -0.180908203125, 
51, 4015957246, 0.8612866401672363, 0.0068643540143966675, -0.5016975998878479, -0.08040842413902283, 8.543600082397461, 0.9436420798301697, 4.716240406036377, -5.291209697723389, -5.13255500793457, -2.222726583480835, -0.943603515625, 0.047607421875, -0.179443359375, 
52, 4015965579, 0.8612855672836304, 0.006693810224533081, -0.5016558766365051, -0.08069571852684021, 8.72193431854248, 1.0377752780914307, 4.53159236907959, -4.217076778411865, -0.21408379077911377, -2.0231149196624756, -0.939208984375, 0.04833984375, -0.179443359375, 
53, 4015973912, 0.861282467842102, 0.006507813930511475, -0.5016128420829773, -0.08101144433021545, 8.610090255737305, 0.9758214354515076, 4.546874046325684, -4.603902339935303, -0.23736710846424103, -2.2525668144226074, -0.942138671875, 0.047119140625, -0.178955078125, 
54, 4015982245, 0.861150324344635, 0.006175711750984192, -0.5017721652984619, -0.0814523994922638, 8.468720436096191, 0.8482184410095215, 4.775465965270996, -6.837540626525879, -3.6803812980651855, -2.7902355194091797, -0.941650390625, 0.047119140625, -0.178466796875, 
55, 4015990578, 0.8609864711761475, 0.005809515714645386, -0.5019837617874146, -0.08190813660621643, 8.595132827758789, 0.8360403776168823, 4.80973482131958, -7.404769420623779, -4.576111793518066, -2.8217413425445557, -0.943603515625, 0.046630859375, -0.178466796875, 
56, 4015998911, 0.8609464764595032, 0.005590170621871948, -0.5019991397857666, -0.0822468101978302, 8.838093757629395, 0.858404278755188, 4.696726322174072, -5.03383731842041, -1.2111436128616333, -2.303462505340576, -0.942626953125, 0.047607421875, -0.177490234375, 
57, 4016007244, 0.8609684705734253, 0.005467340350151062, -0.5019263029098511, -0.08246868848800659, 8.799741744995117, 0.7943164110183716, 4.718966484069824, -3.2460665702819824, 0.36760273575782776, -1.5469461679458618, -0.942138671875, 0.0458984375, -0.176025390625, 
58, 4016015577, 0.8609672784805298, 0.00534956157207489, -0.501902163028717, -0.08263581991195679, 8.642155647277832, 0.6944039463996887, 4.780522346496582, -2.745999574661255, -0.35263118147850037, -0.9623013138771057, -0.944580078125, 0.046142578125, -0.177490234375, 
59, 4016023910, 0.8609862327575684, 0.005328729748725891, -0.5018550753593445, -0.08272615075111389, 8.607280731201172, 0.7209421992301941, 4.74815034866333, -1.1016169786453247, 0.16747866570949554, -0.696527898311615, -0.942138671875, 0.046630859375, -0.178466796875, 
60, 4016032243, 0.8609978556632996, 0.005390048027038574, -0.5018289089202881, -0.08275952935218811, 8.625441551208496, 0.8127274513244629, 4.801589012145996, 0.24526910483837128, -0.030993225052952766, -0.6278561353683472, -0.942626953125, 0.046142578125, -0.177978515625, 
61, 4016040576, 0.8609799742698669, 0.005498513579368591, -0.5018570423126221, -0.08276799321174622, 8.563862800598145, 0.8111894130706787, 4.903702259063721, 1.083622932434082, -0.8239843249320984, -0.6550840139389038, -0.941162109375, 0.047119140625, -0.179443359375, 
62, 4016048909, 0.8609919548034668, 0.005655303597450256, -0.5018348693847656, -0.08276638388633728, 8.543992042541504, 0.7998514175415039, 4.9679856300354, 1.6804858446121216, 0.04137979447841644, -0.8380464911460876, -0.942138671875, 0.043212890625, -0.177978515625, 
63, 4016057242, 0.8610502481460571, 0.005827218294143677, -0.5017281770706177, -0.08279609680175781, 8.542227745056152, 0.8533532023429871, 4.985725402832031, 1.5304889678955078, 1.3685812950134277, -1.2691854238510132, -0.941162109375, 0.047607421875, -0.178955078125, 
64, 4016065575, 0.8611174821853638, 0.006056144833564758, -0.5016089677810669, -0.08280238509178162, 8.526205062866211, 0.8842353224754333, 5.024952411651611, 2.3151302337646484, 1.6485706567764282, -1.401841640472412, -0.940185546875, 0.04736328125, -0.177490234375, 
65, 4016073908, 0.8611948490142822, 0.006330028176307678, -0.5014765858650208, -0.08278018236160278, 8.547516822814941, 0.8354482054710388, 5.014639854431152, 3.064960241317749, 1.9240771532058716, -1.3375495672225952, -0.941650390625, 0.046142578125, -0.179931640625, 
66, 4016082241, 0.8613309264183044, 0.0066275447607040405, -0.5012450814247131, -0.08274170756340027, 8.61160945892334, 0.7886984348297119, 4.997833728790283, 3.3552985191345215, 3.5405657291412354, -1.247259497642517, -0.941650390625, 0.047607421875, -0.178466796875, 
67, 4016090574, 0.8615199327468872, 0.0069197118282318115, -0.5009273886680603, -0.08267518877983093, 8.630494117736816, 0.7618730068206787, 4.914968490600586, 3.3650062084198, 4.912490367889404, -0.8289278745651245, -0.940673828125, 0.045654296875, -0.178955078125, 
68, 4016098907, 0.8617225885391235, 0.007150977849960327, -0.5005918145179749, -0.08257567882537842, 8.607654571533203, 0.7793110013008118, 4.861462116241455, 2.838454246520996, 5.158847332000732, -0.01734083890914917, -0.939697265625, 0.047119140625, -0.181396484375, 
69, 4016107240, 0.8618938326835632, 0.007348790764808655, -0.5003126859664917, -0.08246314525604248, 8.542276382446289, 0.8581907749176025, 4.835456371307373, 2.6103851795196533, 4.231663703918457, 0.3486994206905365, -0.942138671875, 0.045654296875, -0.180419921875, 
70, 4016115573, 0.8620202541351318, 0.007521048188209534, -0.5001113414764404, -0.08234643936157227, 8.478763580322266, 0.9139307737350464, 4.879284858703613, 2.418790578842163, 2.9782824516296387, 0.520545244216919, -0.940185546875, 0.047119140625, -0.181396484375, 
71, 4016123906, 0.8621312379837036, 0.007682681083679199, -0.4999343454837799, -0.08224526047706604, 8.436814308166504, 0.8941017389297485, 4.953949451446533, 2.2241225242614746, 2.5636136531829834, 0.4058191776275635, -0.942138671875, 0.045654296875, -0.183349609375, 
72, 4016132239, 0.8622725009918213, 0.007828399538993835, -0.4997076094150543, -0.0821276307106018, 8.382305145263672, 0.833525538444519, 4.973067760467529, 2.1324234008789062, 3.3562204837799072, 0.7567853927612305, -0.941162109375, 0.043701171875, -0.181884765625, 
73, 4016140572, 0.8624267578125, 0.007961466908454895, -0.4994632601737976, -0.08198085427284241, 8.371025085449219, 0.9016528725624084, 4.958148002624512, 2.118643283843994, 3.63305926322937, 1.184952974319458, -0.940673828125, 0.046142578125, -0.183349609375, 
74, 4016148905, 0.8625410199165344, 0.008101046085357666, -0.4992958903312683, -0.08178466558456421, 8.388961791992188, 0.942162811756134, 4.924234867095947, 2.570528984069824, 2.4576215744018555, 1.6507731676101685, -0.944091796875, 0.045166015625, -0.183349609375, 
75, 4016157238, 0.8626492619514465, 0.008242905139923096, -0.49914613366127014, -0.08154144883155823, 8.427732467651367, 0.9225424528121948, 4.969088077545166, 2.9967758655548096, 2.216233253479004, 2.2272729873657227, -0.940185546875, 0.045654296875, -0.185302734375, 
76, 4016165571, 0.8627693057060242, 0.008411630988121033, -0.49898287653923035, -0.08125367760658264, 8.491644859313965, 0.8902902603149414, 5.014403343200684, 3.5814459323883057, 2.4954540729522705, 2.560462713241577, -0.943603515625, 0.046630859375, -0.181884765625, 
77, 4016173904, 0.8629229664802551, 0.008568480610847473, -0.4987642168998718, -0.08094766736030579, 8.529239654541016, 0.9149431586265564, 5.116119861602783, 3.5234298706054688, 3.3691298961639404, 2.9124538898468018, -0.943115234375, 0.046630859375, -0.184326171875, 
78, 4016182237, 0.8631054162979126, 0.008711621165275574, -0.49849677085876465, -0.08063369989395142, 8.516024589538574, 0.9734213352203369, 5.179392337799072, 3.36531400680542, 4.138121128082275, 3.1226959228515625, -0.943603515625, 0.04541015625, -0.188232421875, 
79, 4016190570, 0.8633509874343872, 0.008856520056724548, -0.4981251358985901, -0.08028438687324524, 8.479567527770996, 1.0104637145996094, 5.169809341430664, 3.4988155364990234, 5.805685043334961, 3.5925633907318115, -0.940673828125, 0.046142578125, -0.187255859375, 
80, 4016198903, 0.8636351823806763, 0.008995607495307922, -0.4976864755153656, -0.07993221282958984, 8.455754280090332, 1.0565825700759888, 5.144941329956055, 3.3557848930358887, 6.863577365875244, 3.6845433712005615, -0.939697265625, 0.048095703125, -0.188720703125, 
81, 4016207236, 0.8639163970947266, 0.009115785360336304, -0.497250497341156, -0.07959190011024475, 8.430923461914062, 1.0932153463363647, 5.044311046600342, 3.066215753555298, 6.786786079406738, 3.685030221939087, -0.940185546875, 0.046630859375, -0.187744140625, 
82, 4016215569, 0.8641871809959412, 0.009219929575920105, -0.4968279004096985, -0.07927954196929932, 8.467277526855469, 1.157060980796814, 4.989144802093506, 2.7818214893341064, 6.548165321350098, 3.4929497241973877, -0.938232421875, 0.047607421875, -0.191162109375, 
83, 4016223902, 0.864435076713562, 0.009299874305725098, -0.49643799662590027, -0.07900932431221008, 8.467504501342773, 1.199283480644226, 4.9565749168396, 2.164902448654175, 5.957602500915527, 3.098900079727173, -0.938720703125, 0.048583984375, -0.191650390625, 
84, 4016232235, 0.8647124767303467, 0.009318128228187561, -0.4959840476512909, -0.0788232684135437, 8.510723114013672, 1.2155208587646484, 4.8740034103393555, 0.7738445401191711, 6.847338676452637, 2.527036428451538, -0.939697265625, 0.049560546875, -0.189697265625, 
85, 4016240568, 0.8650286197662354, 0.009229421615600586, -0.49544626474380493, -0.07874757051467896, 8.517884254455566, 1.1824595928192139, 4.7921223640441895, -1.336166501045227, 7.972955226898193, 1.9921598434448242, -0.938232421875, 0.049560546875, -0.192138671875, 
86, 4016248901, 0.8653457164764404, 0.008937105536460876, -0.49490007758140564, -0.07873004674911499, 8.40923023223877, 1.101610779762268, 4.819395542144775, -4.237414836883545, 7.850033760070801, 2.634795904159546, -0.939697265625, 0.049560546875, -0.192138671875, 
87, 4016257234, 0.865690290927887, 0.00853036344051361, -0.4943138360977173, -0.0786706805229187, 8.41038990020752, 1.0159577131271362, 4.769097328186035, -5.288597106933594, 8.39848518371582, 3.988431453704834, -0.93798828125, 0.051025390625, -0.195068359375, 
88, 4016265567, 0.8660368919372559, 0.008133694529533386, -0.49373945593833923, -0.07850402593612671, 8.451375961303711, 0.9368645548820496, 4.721132755279541, -4.413948059082031, 8.300922393798828, 5.199574947357178, -0.93994140625, 0.05078125, -0.196533203125, 
89, 4016273900, 0.866254985332489, 0.007699817419052124, -0.4933966100215912, -0.07829689979553223, 8.427786827087402, 0.9268553853034973, 4.86748743057251, -4.330932140350342, 4.627788543701172, 5.82038688659668, -0.9375, 0.0537109375, -0.201416015625, 
90, 4016282233, 0.8663474321365356, 0.007262587547302246, -0.493280827999115, -0.07804441452026367, 8.403974533081055, 0.89498370885849, 5.055094242095947, -3.817417860031128, 1.0771939754486084, 6.259209632873535, -0.9384765625, 0.052978515625, -0.196533203125, 
91, 4016290566, 0.8664632439613342, 0.006954699754714966, -0.4931354224681854, -0.07770556211471558, 8.425432205200195, 0.8344830870628357, 5.224954605102539, -1.7120554447174072, 1.7304335832595825, 6.448857307434082, -0.935546875, 0.053466796875, -0.197998046875, 
92, 4016298899, 0.8667103052139282, 0.006852269172668457, -0.4927724301815033, -0.07726073265075684, 8.43595027923584, 0.7733851075172424, 5.245757579803467, 1.1963510513305664, 5.447648048400879, 6.420450687408447, -0.9384765625, 0.056396484375, -0.199462890625, 
93, 4016307232, 0.8670336008071899, 0.006912544369697571, -0.49228349328041077, -0.07674464583396912, 8.295628547668457, 0.6526060700416565, 5.264662265777588, 3.491028308868408, 7.640483856201172, 6.251935958862305, -0.9375, 0.057861328125, -0.198486328125, 
94, 4016315565, 0.8673534989356995, 0.007123082876205444, -0.49180710315704346, -0.07616099715232849, 8.122879028320312, 0.5167281031608582, 5.257643699645996, 5.547082901000977, 7.618300914764404, 5.9072699546813965, -0.93798828125, 0.055908203125, -0.198974609375, 
95, 4016323898, 0.8676477670669556, 0.007421329617500305, -0.49137982726097107, -0.0755363404750824, 8.056984901428223, 0.46225810050964355, 5.254757404327393, 7.130683422088623, 6.96941614151001, 5.911190032958984, -0.9345703125, 0.056396484375, -0.202880859375, 
96, 4016332231, 0.8679129481315613, 0.007807344198226929, -0.4910111427307129, -0.07484537363052368, 8.035198211669922, 0.4771331548690796, 5.239350318908691, 8.644330024719238, 6.1722493171691895, 6.049070358276367, -0.9345703125, 0.056884765625, -0.202880859375, 
97, 4016340564, 0.8681303262710571, 0.008239656686782837, -0.49073177576065063, -0.07410648465156555, 8.0435791015625, 0.540638267993927, 5.187236785888672, 9.662599563598633, 4.835468769073486, 6.305008888244629, -0.935302734375, 0.060302734375, -0.202880859375, 
98, 4016348897, 0.8683488965034485, 0.008667603135108948, -0.4904477298259735, -0.07337382435798645, 8.149531364440918, 0.554333508014679, 5.115181922912598, 9.709577560424805, 4.91387414932251, 6.342022895812988, -0.9326171875, 0.059814453125, -0.203857421875, 
99, 4016357230, 0.8686115741729736, 0.009048447012901306, -0.49009227752685547, -0.07258972525596619, 8.214544296264648, 0.5845891237258911, 5.0248122215271, 9.269830703735352, 6.004399299621582, 7.228914260864258, -0.93603515625, 0.0576171875, -0.206298828125, 
100, 4016365563, 0.8688867092132568, 0.009330227971076965, -0.4897192120552063, -0.07177489995956421, 8.24968147277832, 0.6327191591262817, 4.969970226287842, 8.307043075561523, 6.2095441818237305, 8.28365707397461, -0.934326171875, 0.061767578125, -0.203857421875, 
101, 4016373896, 0.869103193283081, 0.009568214416503906, -0.489457368850708, -0.07090523838996887, 8.158114433288574, 0.6893613934516907, 4.928427696228027, 8.238039016723633, 4.442546367645264, 9.180487632751465, -0.931396484375, 0.060302734375, -0.204833984375, 
102, 4016382229, 0.8692218661308289, 0.009825646877288818, -0.4893777072429657, -0.06995663046836853, 8.111456871032715, 0.737119734287262, 5.033675193786621, 9.168782234191895, 1.6372748613357544, 9.895561218261719, -0.933837890625, 0.063232421875, -0.207763671875, 
103, 4016390562, 0.8692250847816467, 0.010035216808319092, -0.48950085043907166, -0.06901988387107849, 8.074172019958496, 0.8293654322624207, 5.090970039367676, 8.749759674072266, -1.6125954389572144, 10.017176628112793, -0.932373046875, 0.063232421875, -0.206298828125, 
104, 4016398895, 0.8691423535346985, 0.010264426469802856, -0.4897696375846863, -0.06811556220054626, 8.088180541992188, 0.9242609739303589, 5.193306922912598, 8.91089916229248, -3.913881540298462, 9.422185897827148, -0.932861328125, 0.064697265625, -0.207763671875, 
105, 4016407228, 0.8690427541732788, 0.010513901710510254, -0.4900582432746887, -0.06726586818695068, 8.149219512939453, 0.941116213798523, 5.328677177429199, 8.814871788024902, -4.256958484649658, 8.634726524353027, -0.935791015625, 0.064208984375, -0.20849609375, 
106, 4016415561, 0.8689699172973633, 0.010832294821739197, -0.49028730392456055, -0.06648328900337219, 8.181167602539062, 0.9369455575942993, 5.341704845428467, 9.100239753723145, -3.30976939201355, 7.36210823059082, -0.934326171875, 0.06689453125, -0.205078125, 
107, 4016423894, 0.8689444065093994, 0.011142536997795105, -0.4904201328754425, -0.06578236818313599, 8.20096492767334, 0.9372761249542236, 5.37765645980835, 8.382579803466797, -1.8614890575408936, 6.490787982940674, -0.934326171875, 0.066162109375, -0.20654296875, 
108, 4016432227, 0.8689262866973877, 0.01153680682182312, -0.49053144454956055, -0.06511920690536499, 8.17404842376709, 0.9874288439750671, 5.311490058898926, 9.104490280151367, -1.4815787076950073, 5.462863445281982, -0.934814453125, 0.064697265625, -0.20458984375, 
109, 4016440560, 0.8689113259315491, 0.011855274438858032, -0.49062010645866394, -0.06459358334541321, 8.24630069732666, 1.0830035209655762, 5.246469497680664, 7.257063388824463, -1.2833499908447266, 4.345826148986816, -0.936279296875, 0.066650390625, -0.20556640625, 
110, 4016448893, 0.8688507676124573, 0.012117266654968262, -0.49077364802360535, -0.06419184803962708, 8.2860107421875, 1.127497911453247, 5.1552581787109375, 5.887931823730469, -2.42451548576355, 3.2537124156951904, -0.937744140625, 0.066162109375, -0.2060546875, 
111, 4016457226, 0.8687732815742493, 0.012289240956306458, -0.4909435212612152, -0.06390851736068726, 8.36452579498291, 1.129080057144165, 5.187073230743408, 3.95487642288208, -2.8442301750183105, 2.397453784942627, -0.9345703125, 0.06787109375, -0.20556640625, 
112, 4016465559, 0.8686940670013428, 0.012387007474899292, -0.49110567569732666, -0.06372112035751343, 8.399741172790527, 1.1144249439239502, 5.120489120483398, 2.35652232170105, -2.847585678100586, 1.704614520072937, -0.93310546875, 0.06884765625, -0.2060546875, 
113, 4016473892, 0.8686177730560303, 0.012379154562950134, -0.4912535548210144, -0.06362444162368774, 8.472847938537598, 1.1009173393249512, 5.138500213623047, 0.5261804461479187, -2.7629311084747314, 1.3775465488433838, -0.934326171875, 0.06689453125, -0.20556640625, 
114, 4016482225, 0.8685643076896667, 0.01224401593208313, -0.49135178327560425, -0.06361967325210571, 8.466197967529297, 1.0952776670455933, 5.065898418426514, -1.6864670515060425, -2.1423490047454834, 1.1290627717971802, -0.93603515625, 0.068359375, -0.20263671875, 
115, 4016490558, 0.8685153722763062, 0.012044310569763184, -0.49143415689468384, -0.06369009613990784, 8.456221580505371, 1.0857975482940674, 5.010047912597656, -2.955549955368042, -1.9922752380371094, 0.6918532848358154, -0.933349609375, 0.06787109375, -0.2041015625, 
116, 4016498891, 0.8684836626052856, 0.011698722839355469, -0.4914800524711609, -0.063831627368927, 8.468756675720215, 0.9951454401016235, 5.008403778076172, -5.199587345123291, -1.5753521919250488, 0.8374958038330078, -0.936279296875, 0.06689453125, -0.20458984375, 
117, 4016507224, 0.8684505224227905, 0.011236250400543213, -0.49152249097824097, -0.06404057145118713, 8.43431282043457, 0.952892541885376, 4.973686218261719, -7.068633079528809, -1.6608015298843384, 0.819284200668335, -0.93505859375, 0.06787109375, -0.20263671875, 
118, 4016515557, 0.8684408068656921, 0.010707244277000427, -0.4915194809436798, -0.06428420543670654, 8.427512168884277, 0.9114245176315308, 4.972051620483398, -8.191740036010742, -1.0265417098999023, 0.8314508199691772, -0.93798828125, 0.06982421875, -0.20263671875, 
119, 4016523890, 0.8684505224227905, 0.010125696659088135, -0.4914737939834595, -0.06459653377532959, 8.390263557434082, 0.8591226935386658, 4.901184558868408, -9.273711204528809, -0.43905362486839294, 0.41281187534332275, -0.93701171875, 0.0693359375, -0.20361328125, 
120, 4016532223, 0.8684561848640442, 0.009542852640151978, -0.4914298951625824, -0.06494161486625671, 8.39344310760498, 0.8244042992591858, 4.856266498565674, -9.47309398651123, -0.48723411560058594, 0.04491456598043442, -0.93359375, 0.0693359375, -0.20263671875, 
121, 4016540556, 0.8684294819831848, 0.008969441056251526, -0.4914385676383972, -0.06531655788421631, 8.418649673461914, 0.7762360572814941, 4.856794834136963, -9.546272277832031, -1.3356798887252808, -0.4142078161239624, -0.93603515625, 0.0693359375, -0.20361328125, 
122, 4016548889, 0.8683671355247498, 0.008451402187347412, -0.49150457978248596, -0.06571504473686218, 8.469524383544922, 0.77076256275177, 4.8479108810424805, -9.010627746582031, -2.2137105464935303, -1.1163709163665771, -0.93505859375, 0.06787109375, -0.205078125, 
123, 4016557222, 0.8682839870452881, 0.008025601506233215, -0.491608589887619, -0.06608542799949646, 8.514071464538574, 0.7615914344787598, 4.895884037017822, -7.658580303192139, -2.7221016883850098, -1.3953098058700562, -0.93408203125, 0.0693359375, -0.20361328125, 
124, 4016565555, 0.8681871891021729, 0.007657870650291443, -0.49173587560653687, -0.06645464897155762, 8.572839736938477, 0.7399157881736755, 4.936542987823486, -6.963435173034668, -3.0366194248199463, -1.8056501150131226, -0.93359375, 0.06982421875, -0.20361328125, 
125, 4016573888, 0.8681045770645142, 0.007337898015975952, -0.49183860421180725, -0.06680813431739807, 8.582544326782227, 0.676796555519104, 4.977426528930664, -6.281404495239258, -2.6060688495635986, -1.909822940826416, -0.93798828125, 0.06787109375, -0.20263671875, 
126, 4016582221, 0.8680500984191895, 0.007077246904373169, -0.49189671874046326, -0.06711718440055847, 8.629656791687012, 0.6500662565231323, 5.000779151916504, -5.336188316345215, -1.8196607828140259, -1.776244878768921, -0.9345703125, 0.0693359375, -0.20263671875, 
127, 4016590554, 0.8680270910263062, 0.006877437233924866, -0.49190640449523926, -0.06736254692077637, 8.596272468566895, 0.6083682179450989, 5.012351989746094, -4.208521366119385, -0.9706771373748779, -1.3850642442703247, -0.9365234375, 0.06982421875, -0.19970703125, 
128, 4016598887, 0.8680360317230225, 0.006744876503944397, -0.4918687343597412, -0.06753680109977722, 8.561991691589355, 0.5638713240623474, 5.056630611419678, -2.991102457046509, -0.11590441316366196, -0.984944224357605, -0.9365234375, 0.0693359375, -0.203125, 
129, 4016607220, 0.8680667281150818, 0.006679430603981018, -0.49180087447166443, -0.06764340400695801, 8.52159595489502, 0.5784696340560913, 5.05374002456665, -1.7434072494506836, 0.4554082453250885, -0.5960944294929504, -0.93359375, 0.06982421875, -0.20166015625, 
130, 4016615553, 0.8681156635284424, 0.006645038723945618, -0.49171197414398193, -0.067664235830307, 8.48303508758545, 0.588578462600708, 5.086851119995117, -0.8375086784362793, 0.8721006512641907, 0.21189375221729279, -0.934326171875, 0.06689453125, -0.201171875, 
131, 4016623886, 0.8681825399398804, 0.006652653217315674, -0.4915993809700012, -0.06762462854385376, 8.430619239807129, 0.6163318753242493, 5.075500011444092, 0.07270600646734238, 1.3158159255981445, 0.6843482851982117, -0.93701171875, 0.06982421875, -0.2021484375, 
132, 4016632219, 0.8682694435119629, 0.006680473685264587, -0.4914575517177582, -0.06753692030906677, 8.403042793273926, 0.6389409303665161, 5.064482688903809, 0.6208506226539612, 1.8291765451431274, 1.1377201080322266, -0.931640625, 0.06982421875, -0.20458984375, 
133, 4016640552, 0.8683643341064453, 0.006733119487762451, -0.49130979180336, -0.06738662719726562, 8.374574661254883, 0.6307763457298279, 5.065348148345947, 1.323910117149353, 1.9777135848999023, 1.7241581678390503, -0.93408203125, 0.06982421875, -0.20166015625, 
134, 4016648885, 0.8684548139572144, 0.006822049617767334, -0.49117565155029297, -0.06719061732292175, 8.328268051147461, 0.6430058479309082, 5.01076602935791, 2.0891354084014893, 1.8285876512527466, 2.021411657333374, -0.9345703125, 0.0703125, -0.20361328125, 
135, 4016657218, 0.8685274720191956, 0.006942659616470337, -0.49107813835144043, -0.06695055961608887, 8.310848236083984, 0.6632239818572998, 5.019761085510254, 2.789198398590088, 1.2992948293685913, 2.3217384815216064, -0.935546875, 0.07177734375, -0.205078125, 
136, 4016665551, 0.8685903549194336, 0.007107004523277283, -0.4910031855106354, -0.06666681170463562, 8.287381172180176, 0.6686400771141052, 5.043772220611572, 3.49648380279541, 1.0008379220962524, 2.4530627727508545, -0.93408203125, 0.06982421875, -0.2060546875, 
137, 4016673884, 0.8686179518699646, 0.007279738783836365, -0.49099093675613403, -0.06637805700302124, 8.263578414916992, 0.6737831234931946, 5.083277702331543, 3.8239877223968506, 0.028009168803691864, 2.519249677658081, -0.93603515625, 0.07080078125, -0.20458984375, 
138, 4016682217, 0.868600070476532, 0.007456377148628235, -0.4910576343536377, -0.06609773635864258, 8.285687446594238, 0.731820285320282, 5.124838352203369, 3.928980588912964, -1.210913062095642, 2.3731462955474854, -0.9345703125, 0.0693359375, -0.20263671875, 
139, 4016690550, 0.8685526251792908, 0.007645890116691589, -0.4911767542362213, -0.06581467390060425, 8.2843656539917, 0.7556156516075134, 5.139277458190918, 4.113479137420654, -2.0329506397247314, 2.280857801437378, -0.93603515625, 0.0693359375, -0.205078125, 
140, 4016698883, 0.8685017824172974, 0.007838845252990723, -0.49129825830459595, -0.0655539333820343, 8.318072319030762, 0.8020225167274475, 5.135289192199707, 4.099725246429443, -2.070065498352051, 2.0367801189422607, -0.94091796875, 0.06982421875, -0.201904296875, 
141, 4016707216, 0.8684602379798889, 0.0080508291721344, -0.4914012551307678, -0.06530588865280151, 8.347758293151855, 0.8221135139465332, 5.139240741729736, 4.129207134246826, -1.7836729288101196, 1.7164227962493896, -0.935302734375, 0.06689453125, -0.201171875, 
142, 4016715549, 0.8684314489364624, 0.008236691355705261, -0.49147871136665344, -0.06508442759513855, 8.407251358032227, 0.8300741314888, 5.128616809844971, 3.4935126304626465, -1.4244588613510132, 1.5026973485946655, -0.93505859375, 0.0712890625, -0.203125, 
143, 4016723882, 0.8684180974960327, 0.008319377899169922, -0.4915185570716858, -0.06495097279548645, 8.42824935913086, 0.8507844805717468, 5.16308069229126, 1.7509249448776245, -0.9669373035430908, 1.2383073568344116, -0.93798828125, 0.0712890625, -0.205078125, 
144, 4016732215, 0.8684239983558655, 0.008393794298171997, -0.49151915311813354, -0.06485682725906372, 8.405598640441895, 0.834021806716919, 5.107230186462402, 1.375010371208191, -0.37319934368133545, 0.847459614276886, -0.9345703125, 0.07080078125, -0.203125, 
145, 4016740548, 0.868438720703125, 0.008423194289207458, -0.4915006756782532, -0.06479692459106445, 8.39213752746582, 0.8326553106307983, 5.0925092697143555, 0.5628600120544434, -0.1380351036787033, 0.739367663860321, -0.93603515625, 0.0693359375, -0.203125, 
146, 4016748881, 0.8684310913085938, 0.008403226733207703, -0.49151962995529175, -0.0647573173046112, 8.361838340759277, 0.8280274271965027, 5.085485458374023, -0.12079674005508423, -0.7762394547462463, 0.8126500844955444, -0.935546875, 0.0712890625, -0.20166015625, 
147, 4016757214, 0.8684048652648926, 0.008376002311706543, -0.49156826734542847, -0.06474211812019348, 8.389391899108887, 0.8043157458305359, 5.0903143882751465, -0.35122236609458923, -1.271080732345581, 0.5592995882034302, -0.935546875, 0.07080078125, -0.20263671875, 
148, 4016765547, 0.8683844804763794, 0.008299455046653748, -0.49160516262054443, -0.06474766135215759, 8.430343627929688, 0.7808467745780945, 5.113749980926514, -1.060096263885498, -1.1294596195220947, 0.6604758501052856, -0.93603515625, 0.07177734375, -0.2041015625, 
149, 4016773880, 0.8683732748031616, 0.008227616548538208, -0.49162495136260986, -0.06475606560707092, 8.448860168457031, 0.7700896263122559, 5.126077651977539, -1.0702909231185913, -0.86752849817276, 0.5893195867538452, -0.93603515625, 0.06982421875, -0.201171875, 
150, 4016782213, 0.8683923482894897, 0.00813344120979309, -0.4915887713432312, -0.06478726863861084, 8.49166202545166, 0.7541385293006897, 5.101800918579102, -1.3911346197128296, 0.001805803389288485, 0.5751292705535889, -0.93505859375, 0.0703125, -0.2041015625, 
151, 4016790546, 0.8684360980987549, 0.008038505911827087, -0.4915107786655426, -0.06480467319488525, 8.471292495727539, 0.7588910460472107, 5.054461479187012, -1.5001487731933594, 0.6498458981513977, 0.6747685670852661, -0.93603515625, 0.07080078125, -0.20166015625, 
152, 4016798879, 0.868468165397644, 0.00791807472705841, -0.49145203828811646, -0.06483450531959534, 8.420511245727539, 0.7504972219467163, 5.075107097625732, -1.9151251316070557, 0.31693771481513977, 0.6570690870285034, -0.93408203125, 0.0693359375, -0.20166015625, 
153, 4016807212, 0.8684914708137512, 0.007783249020576477, -0.4914052486419678, -0.06489390134811401, 8.390413284301758, 0.7532969117164612, 5.0909929275512695, -2.231947422027588, 0.09954971820116043, 0.42964035272598267, -0.9345703125, 0.071533203125, -0.20166015625, 
154, 4016815545, 0.8685386180877686, 0.007682695984840393, -0.4913148880004883, -0.06495797634124756, 8.4360990524292, 0.7400225400924683, 5.053718090057373, -1.8853868246078491, 0.8149296641349792, 0.15689998865127563, -0.93701171875, 0.07080078125, -0.2041015625, 
155, 4016823878, 0.8685877323150635, 0.007614985108375549, -0.49122026562690735, -0.06502476334571838, 8.417031288146973, 0.6967321634292603, 5.024311065673828, -1.5254814624786377, 0.9049124717712402, -0.09541302919387817, -0.9345703125, 0.0693359375, -0.20556640625, 
156, 4016832211, 0.8686057329177856, 0.007553115487098694, -0.491183876991272, -0.06506654620170593, 8.375642776489258, 0.6583262085914612, 5.019814968109131, -1.1127080917358398, 0.020529812201857567, 0.20656602084636688, -0.9345703125, 0.071533203125, -0.20068359375, 
157, 4016840544, 0.8686131238937378, 0.007502749562263489, -0.4911704659461975, -0.06507450342178345, 8.410226821899414, 0.6766946911811829, 4.990159511566162, -0.8422216176986694, -0.32581308484077454, 0.4623240828514099, -0.93896484375, 0.07080078125, -0.2041015625, 
158, 4016848877, 0.8685885071754456, 0.007406681776046753, -0.4912075996398926, -0.06513619422912598, 8.353480339050293, 0.7293401956558228, 5.074485778808594, -1.7385406494140625, -1.1908315420150757, 0.07657376676797867, -0.93701171875, 0.07080078125, -0.2021484375, 
159, 4016857210, 0.8685725331306458, 0.007318735122680664, -0.4912243187427521, -0.06523320078849792, 8.418350219726562, 0.7320928573608398, 5.0239105224609375, -1.8646905422210693, -0.8866879343986511, -0.3645417392253876, -0.93359375, 0.072265625, -0.2060546875, 
160, 4016865543, 0.8686226010322571, 0.007284402847290039, -0.4911273419857025, -0.06530016660690308, 8.517569541931152, 0.7452546954154968, 4.895412921905518, -1.0839687585830688, 0.9781948328018188, -0.30278587341308594, -0.93212890625, 0.0703125, -0.2041015625, 
161, 4016873876, 0.8686457276344299, 0.007141366600990295, -0.4910721778869629, -0.06542381644248962, 8.393881797790527, 0.7288597226142883, 4.985226154327393, -2.7698464393615723, 0.1832314282655716, -0.28334468603134155, -0.93603515625, 0.06982421875, -0.20556640625, 
162, 4016882209, 0.8685616254806519, 0.00688035786151886, -0.4912019371986389, -0.06559467315673828, 8.237372398376465, 0.7041780948638916, 5.119195938110352, -4.26179838180542, -2.8501980304718018, -0.10074078291654587, -0.93505859375, 0.07177734375, -0.2041015625, 
163, 4016890542, 0.8685266971588135, 0.006716445088386536, -0.4912547171115875, -0.0656791627407074, 8.340067863464355, 0.7167086005210876, 5.043838024139404, -2.6532249450683594, -1.5126488208770752, 0.28397223353385925, -0.9345703125, 0.0703125, -0.20166015625, 
164, 4016898875, 0.8685745596885681, 0.006679564714431763, -0.4911711513996124, -0.06567442417144775, 8.414484024047852, 0.7521859407424927, 4.91778039932251, -0.6541619896888733, 0.8042485117912292, 0.5499759912490845, -0.93505859375, 0.07177734375, -0.20263671875, 
165, 4016907208, 0.8685415387153625, 0.006671816110610962, -0.49123409390449524, -0.06564059853553772, 8.296918869018555, 0.713274359703064, 4.923079967498779, 0.022220347076654434, -1.4696422815322876, 0.6427764296531677, -0.93408203125, 0.0703125, -0.2021484375, 
166, 4016915541, 0.8683853149414062, 0.006639033555984497, -0.4915107488632202, -0.0656399130821228, 8.347360610961914, 0.6876906156539917, 4.945506572723389, -0.2798099219799042, -4.872057914733887, 0.3311024308204651, -0.93359375, 0.072021484375, -0.203125, 
167, 4016923874, 0.86818528175354, 0.0066308677196502686, -0.49186626076698303, -0.06562450528144836, 8.436882019042969, 0.7034738063812256, 5.017263412475586, 0.17188434302806854, -6.093268394470215, 0.30218398571014404, -0.93212890625, 0.06982421875, -0.20361328125, 
168, 4016932207, 0.8680234551429749, 0.006663575768470764, -0.49215784668922424, -0.06557527184486389, 8.43007755279541, 0.7338281273841858, 5.098446369171143, 0.8991236686706543, -5.020517826080322, 0.49459806084632874, -0.9345703125, 0.072265625, -0.203125, 
169, 4016940540, 0.8679363131523132, 0.006731703877449036, -0.49232006072998047, -0.0655045211315155, 8.442415237426758, 0.7403520941734314, 5.103021621704102, 1.2703508138656616, -2.9488131999969482, 0.5324814915657043, -0.935546875, 0.07080078125, -0.2021484375, 
170, 4016948873, 0.867875874042511, 0.006729975342750549, -0.4924299120903015, -0.06548011302947998, 8.407733917236328, 0.7639683485031128, 5.115253448486328, 0.023987729102373123, -2.2087409496307373, 0.43253475427627563, -0.935546875, 0.0712890625, -0.20068359375, 
171, 4016957206, 0.8677905797958374, 0.006654456257820129, -0.4925772547721863, -0.06551152467727661, 8.292305946350098, 0.7464098334312439, 5.203292369842529, -1.1478252410888672, -2.897507905960083, 0.28440767526626587, -0.93603515625, 0.072021484375, -0.2001953125, 
172, 4016965539, 0.8676870465278625, 0.006594225764274597, -0.4927568733692169, -0.06553691625595093, 8.256494522094727, 0.7112119793891907, 5.228760242462158, -0.8860220909118652, -3.385817766189575, 0.23635536432266235, -0.9326171875, 0.071533203125, -0.19970703125, 
173, 4016973872, 0.8675864934921265, 0.006610006093978882, -0.4929408133029938, -0.06548294425010681, 8.299751281738281, 0.6831748485565186, 5.233473777770996, 0.5530496835708618, -3.347728967666626, 0.6765359044075012, -0.9375, 0.06982421875, -0.20263671875, 
174, 4016982205, 0.8675013780593872, 0.006602004170417786, -0.4931015968322754, -0.06540080904960632, 8.32374095916748, 0.7002015709877014, 5.219264507293701, 0.5789968967437744, -2.968740701675415, 1.259695053100586, -0.9326171875, 0.071533203125, -0.20166015625, 
175, 4016990538, 0.8674532771110535, 0.006573021411895752, -0.4931981861591339, -0.06531432271003723, 8.314800262451172, 0.6720608472824097, 5.172462463378906, 0.15638771653175354, -1.986896276473999, 1.4059525728225708, -0.93603515625, 0.071533203125, -0.1982421875, 
176, 4016998871, 0.8674390316009521, 0.006589382886886597, -0.49324145913124084, -0.06517559289932251, 8.341248512268066, 0.631012499332428, 5.112253189086914, 0.9928461313247681, -1.0721606016159058, 1.732610821723938, -0.9345703125, 0.072021484375, -0.19775390625, 
177, 4017007204, 0.8674325942993164, 0.0066386014223098755, -0.4932756721973419, -0.06499743461608887, 8.375052452087402, 0.6340160965919495, 5.018646717071533, 1.6511318683624268, -0.8816931843757629, 2.001432180404663, -0.93505859375, 0.070556640625, -0.197265625, 
178, 4017015537, 0.8674018383026123, 0.00663718581199646, -0.4933512806892395, -0.06483465433120728, 8.438517570495605, 0.6541404128074646, 4.9911723136901855, 1.051323413848877, -1.5776063203811646, 2.1738927364349365, -0.9365234375, 0.072021484375, -0.19873046875, 
179, 4017023870, 0.8673722743988037, 0.006566464900970459, -0.49342024326324463, -0.06471243500709534, 8.423039436340332, 0.5463642477989197, 4.965108394622803, -0.12448518723249435, -1.5657984018325806, 2.1309635639190674, -0.93359375, 0.071533203125, -0.19921875, 
180, 4017032203, 0.8673451542854309, 0.006566673517227173, -0.4934896230697632, -0.06454625725746155, 8.356834411621094, 0.5294223427772522, 4.9520158767700195, 1.017820119857788, -1.4828338623046875, 2.1626996994018555, -0.9365234375, 0.073486328125, -0.2001953125, 
181, 4017040536, 0.867279589176178, 0.006462007761001587, -0.4936220049858093, -0.06442657113075256, 8.376195907592773, 0.5484273433685303, 4.9296369552612305, -0.4883609414100647, -2.5971298217773438, 2.3037314414978027, -0.93359375, 0.072509765625, -0.19970703125, 
182, 4017048869, 0.867074728012085, 0.006369441747665405, -0.4940005838871002, -0.06428995728492737, 8.377310752868652, 0.5615326762199402, 4.910647392272949, 0.03238919749855995, -6.459576606750488, 2.330242156982422, -0.93701171875, 0.072021484375, -0.2001953125, 
183, 4017057202, 0.8667482137680054, 0.006244570016860962, -0.4945903420448303, -0.06417161226272583, 8.408770561218262, 0.5928795337677002, 5.01487922668457, -0.30982980132102966, -9.840707778930664, 2.234086275100708, -0.9365234375, 0.072998046875, -0.19677734375, 
184, 4017065535, 0.8663845062255859, 0.0060339272022247314, -0.49523472785949707, -0.06413322687149048, 8.434199333190918, 0.6455091834068298, 5.064630031585693, -1.8440968990325928, -10.823450088500977, 1.8147302865982056, -0.9375, 0.072021484375, -0.1943359375, 
185, 4017073868, 0.8660265207290649, 0.005849435925483704, -0.4958634674549103, -0.06412795186042786, 8.451427459716797, 0.5934798121452332, 5.0454630851745605, -1.7538325786590576, -10.58119010925293, 1.2675590515136719, -0.93603515625, 0.072998046875, -0.19580078125, 
186, 4017082201, 0.8656790256500244, 0.005569517612457275, -0.49647170305252075, -0.06413793563842773, 8.49828052520752, 0.5987383723258972, 5.087846279144287, -3.0976061820983887, -10.353658676147461, 1.6854294538497925, -0.9384765625, 0.072998046875, -0.191162109375, 
187, 4017090534, 0.8653479814529419, 0.005109637975692749, -0.4970436692237854, -0.06421342492103577, 8.457353591918945, 0.6595804691314697, 5.073200702667236, -5.635464668273926, -9.970648765563965, 2.2048349380493164, -0.93408203125, 0.0732421875, -0.18994140625, 
188, 4017098867, 0.8650602102279663, 0.004603296518325806, -0.4975322484970093, -0.06434661149978638, 8.409934043884277, 0.6894087195396423, 5.029605388641357, -6.589415550231934, -8.716728210449219, 1.9003071784973145, -0.9375, 0.071533203125, -0.18994140625, 
189, 4017107200, 0.864825963973999, 0.004241228103637695, -0.49792706966400146, -0.06446754932403564, 8.322613716125488, 0.6473116874694824, 4.910338878631592, -4.9443159103393555, -7.118118762969971, 1.0666921138763428, -0.9384765625, 0.073974609375, -0.193115234375, 
190, 4017115533, 0.8645991683006287, 0.004035785794258118, -0.49830931425094604, -0.06456813216209412, 8.312724113464355, 0.6108106970787048, 4.778865814208984, -2.8863143920898438, -6.768484592437744, 0.2739570438861847, -0.9365234375, 0.07470703125, -0.189453125, 
191, 4017123866, 0.8643065690994263, 0.0038938820362091064, -0.4988083243370056, -0.06464186310768127, 8.304903030395508, 0.5864479541778564, 4.684571266174316, -1.9078505039215088, -8.55720329284668, 0.07585655897855759, -0.9375, 0.07568359375, -0.190673828125, 
192, 4017132199, 0.8639189600944519, 0.0037599653005599976, -0.4994746744632721, -0.06468600034713745, 8.299539566040039, 0.5828166007995605, 4.681023597717285, -1.6129028797149658, -11.197468757629395, 0.19680699706077576, -0.94091796875, 0.07470703125, -0.185302734375, 
193, 4017140532, 0.8634579181671143, 0.0035468637943267822, -0.5002554059028625, -0.06482115387916565, 8.214271545410156, 0.6407559514045715, 4.810205936431885, -2.9167444705963135, -13.1282958984375, -0.2993023693561554, -0.93798828125, 0.07421875, -0.184326171875, 
194, 4017148865, 0.8629657030105591, 0.003286033868789673, -0.5010755062103271, -0.06505396962165833, 8.157434463500977, 0.6929580569267273, 4.90568733215332, -4.031066417694092, -13.84682559967041, -1.1170880794525146, -0.939453125, 0.07373046875, -0.181884765625, 
195, 4017157198, 0.8625066876411438, 0.003040224313735962, -0.5018375515937805, -0.06527897715568542, 8.28914737701416, 0.6724789142608643, 4.850808143615723, -3.9404940605163574, -12.925814628601074, -1.1424975395202637, -0.93896484375, 0.07470703125, -0.182373046875, 
196, 4017165531, 0.8620750904083252, 0.0028478801250457764, -0.5025612115859985, -0.06542214751243591, 8.448962211608887, 0.4793509244918823, 4.7790446281433105, -2.6694390773773193, -12.218376159667969, -0.46502649784088135, -0.939453125, 0.074462890625, -0.178955078125, 
197, 4017173864, 0.8615329265594482, 0.0026854127645492554, -0.503483772277832, -0.06547734141349792, 8.514181137084961, 0.33339953422546387, 4.859785556793213, -1.6304233074188232, -15.321951866149902, 0.22997745871543884, -0.9423828125, 0.074951171875, -0.177490234375, 
198, 4017182197, 0.8609272241592407, 0.0024989545345306396, -0.5045216679573059, -0.06546378135681152, 8.65700626373291, 0.4131946265697479, 4.830382823944092, -1.2524596452713013, -17.136720657348633, 1.191023826599121, -0.94140625, 0.074462890625, -0.174560546875, 
199, 4017190530, 0.8603531718254089, 0.002445399761199951, -0.5055193901062012, -0.0653161108493805, 8.85157299041748, 0.5151785612106323, 4.797415733337402, 1.1330842971801758, -16.32756805419922, 1.8494890928268433, -0.943359375, 0.074462890625, -0.170654296875, 
200, 4017198863, 0.8597997426986694, 0.002591922879219055, -0.5064979195594788, -0.06501591205596924, 9.020533561706543, 0.491454541683197, 4.789348125457764, 4.563650608062744, -15.766897201538086, 2.2802951335906982, -0.93994140625, 0.0751953125, -0.169677734375, 
201, 4017207196, 0.8592941761016846, 0.002859652042388916, -0.5074036121368408, -0.06462478637695312, 9.08903980255127, 0.5072568655014038, 4.794241905212402, 6.543247222900391, -14.46792221069336, 2.552292585372925, -0.943359375, 0.073486328125, -0.169189453125, 
202, 4017215529, 0.8588096499443054, 0.0031781792640686035, -0.5082783102989197, -0.06417471170425415, 8.983949661254883, 0.5788447260856628, 4.8962016105651855, 7.6042399406433105, -13.894137382507324, 2.9432168006896973, -0.94384765625, 0.07421875, -0.166259765625, 
203, 4017223862, 0.8583536744117737, 0.0035285204648971558, -0.5091055035591125, -0.06369826197624207, 8.924729347229004, 0.7151908874511719, 5.010016441345215, 8.041040420532227, -13.115694999694824, 3.023799180984497, -0.943359375, 0.07421875, -0.162353515625, 
204, 4017232195, 0.857931911945343, 0.003941833972930908, -0.5098690390586853, -0.06325030326843262, 8.901710510253906, 0.8936471939086914, 4.946062088012695, 8.566926002502441, -12.063385963439941, 2.2828052043914795, -0.9423828125, 0.07080078125, -0.160888671875, 
205, 4017240528, 0.8575201034545898, 0.0044936686754226685, -0.5106047987937927, -0.06286132335662842, 8.911417961120605, 0.941767156124115, 4.900933265686035, 9.725379943847656, -11.55711841583252, 0.6130383610725403, -0.9462890625, 0.07421875, -0.162841796875, 
206, 4017248861, 0.8571941256523132, 0.005103215575218201, -0.5111798048019409, -0.06258711218833923, 8.866398811340332, 0.8606970906257629, 4.9008049964904785, 9.495698928833008, -9.008092880249023, -1.069496989250183, -0.9462890625, 0.0732421875, -0.158447265625, 
207, 4017257194, 0.8570129871368408, 0.005775004625320435, -0.5115025043487549, -0.06236949563026428, 8.870842933654785, 0.7651268243789673, 4.848153591156006, 9.564139366149902, -4.972952842712402, -2.078339099884033, -0.9453125, 0.07421875, -0.159912109375, 
208, 4017265527, 0.8569598197937012, 0.0064541250467300415, -0.5116069316864014, -0.06217622756958008, 8.896244049072266, 0.7552167177200317, 4.772442817687988, 9.29808235168457, -1.4911326169967651, -2.327104330062866, -0.9453125, 0.0703125, -0.156982421875, 
209, 4017273860, 0.8569318056106567, 0.007074043154716492, -0.5116662979125977, -0.06200703978538513, 8.910861015319824, 0.8294854760169983, 4.649081230163574, 8.372897148132324, -0.8424777388572693, -2.173367977142334, -0.94384765625, 0.07275390625, -0.158447265625, 
210, 4017282193, 0.8569018244743347, 0.0075780898332595825, -0.5117255449295044, -0.061871856451034546, 8.883706092834473, 0.8940940499305725, 4.598260879516602, 6.6415276527404785, -0.9629158973693848, -1.8416378498077393, -0.9462890625, 0.0703125, -0.156494140625, 
211, 4017290526, 0.856870710849762, 0.0079745352268219, -0.5117878317832947, -0.061738431453704834, 8.840648651123047, 0.9756726622581482, 4.621429443359375, 5.492729663848877, -1.0920116901397705, -1.026541829109192, -0.94482421875, 0.07080078125, -0.158935546875, 
212, 4017298859, 0.856884241104126, 0.008310005068778992, -0.5117769837379456, -0.061594367027282715, 8.874176979064941, 0.9884771108627319, 4.643183708190918, 4.898581504821777, 0.0481419563293457, -0.38869601488113403, -0.9453125, 0.07080078125, -0.157470703125, 
213, 4017307192, 0.8570005893707275, 0.008721858263015747, -0.5116046071052551, -0.06135120987892151, 8.930952072143555, 0.8663957715034485, 4.640629768371582, 6.230035305023193, 2.7346909046173096, 0.25761517882347107, -0.9462890625, 0.07177734375, -0.160888671875, 
214, 4017315525, 0.8571870923042297, 0.0092315673828125, -0.5113242268562317, -0.06100761890411377, 8.929033279418945, 0.6970252990722656, 4.750660419464111, 8.000672340393066, 4.604172229766846, 0.7946944832801819, -0.9443359375, 0.06982421875, -0.159912109375, 
215, 4017323858, 0.8574164509773254, 0.009782865643501282, -0.5109720826148987, -0.06064796447753906, 8.964851379394531, 0.5624057054519653, 4.884648323059082, 8.528427124023438, 5.78076171875, 0.7220525145530701, -0.9453125, 0.07177734375, -0.158935546875, 
216, 4017332191, 0.8577193021774292, 0.010426938533782959, -0.5104978084564209, -0.06025230884552002, 9.168534278869629, 0.5115922093391418, 4.83250617980957, 9.873045921325684, 7.835254192352295, 0.5895501375198364, -0.94775390625, 0.071533203125, -0.160888671875, 
217, 4017340524, 0.8581098318099976, 0.0111885666847229, -0.5098837614059448, -0.059753596782684326, 9.272826194763184, 0.3865782916545868, 4.737253665924072, 11.744680404663086, 10.19588851928711, 0.9829080104827881, -0.94775390625, 0.070556640625, -0.162841796875, 
218, 4017348857, 0.8585482239723206, 0.011997655034065247, -0.5091984272003174, -0.0591391921043396, 9.195823669433594, 0.4002520442008972, 4.669994831085205, 13.27515697479248, 11.455238342285156, 2.1560657024383545, -0.94580078125, 0.071533203125, -0.165283203125, 
219, 4017357190, 0.8590683341026306, 0.012815237045288086, -0.5083861351013184, -0.05839818716049194, 9.098692893981934, 0.6016495227813721, 4.625091552734375, 13.919790267944336, 13.528685569763184, 3.5242247581481934, -0.9443359375, 0.070068359375, -0.165283203125, 
220, 4017365523, 0.8596609234809875, 0.01364782452583313, -0.5074551701545715, -0.05757918953895569, 8.972235679626465, 0.8107365965843201, 4.545024394989014, 14.567138671875, 15.472042083740234, 4.383915901184082, -0.947265625, 0.071533203125, -0.168212890625, 
221, 4017373856, 0.8603240251541138, 0.014574885368347168, -0.5064069032669067, -0.0566706657409668, 8.807319641113281, 0.9553160071372986, 4.500269889831543, 16.168981552124023, 17.43378448486328, 4.8108038902282715, -0.94384765625, 0.072021484375, -0.169677734375, 
222, 4017382189, 0.8610403537750244, 0.015539705753326416, -0.5052601099014282, -0.05576273798942566, 8.716440200805664, 0.8771625757217407, 4.55958890914917, 16.5750675201416, 19.01026725769043, 4.579840183258057, -0.94384765625, 0.072021484375, -0.173583984375, 
223, 4017390522, 0.8618183135986328, 0.0165814608335495, -0.5040060877799988, -0.05478516221046448, 8.654874801635742, 0.6893272995948792, 4.560368061065674, 17.82320213317871, 20.77001953125, 4.877504348754883, -0.9423828125, 0.0703125, -0.178955078125, 
224, 4017398855, 0.862672746181488, 0.017686903476715088, -0.5026190280914307, -0.05372413992881775, 8.7560396194458, 0.603570282459259, 4.52410364151001, 19.059707641601562, 22.954355239868164, 5.450290679931641, -0.94140625, 0.072265625, -0.180419921875, 
225, 4017407188, 0.8635998368263245, 0.018786311149597168, -0.5011085867881775, -0.052553027868270874, 8.785927772521973, 0.5316402316093445, 4.433561325073242, 19.620634078979492, 24.93172836303711, 6.82326602935791, -0.93994140625, 0.072265625, -0.182861328125, 
226, 4017415521, 0.8645310997962952, 0.019836843013763428, -0.49959811568260193, -0.05121991038322449, 8.646671295166016, 0.44715043902397156, 4.522911548614502, 20.113122940063477, 24.971323013305664, 9.051117897033691, -0.9404296875, 0.07177734375, -0.186279296875, 
227, 4017423854, 0.8654053211212158, 0.02075032889842987, -0.4981977343559265, -0.04971310496330261, 8.383460998535156, 0.446725070476532, 4.643939971923828, 19.811616897583008, 23.21869468688965, 12.082847595214844, -0.94091796875, 0.07470703125, -0.190185546875, 
228, 4017432187, 0.8662389516830444, 0.021481230854988098, -0.49688073992729187, -0.04803594946861267, 8.198026657104492, 0.6006776690483093, 4.695302486419678, 18.86286735534668, 21.87784194946289, 15.336346626281738, -0.94091796875, 0.073974609375, -0.195556640625, 
229, 4017440520, 0.8670138716697693, 0.02213338017463684, -0.49567705392837524, -0.04616013169288635, 8.138445854187012, 0.7747553586959839, 4.642045021057129, 19.386037826538086, 20.127286911010742, 18.25741958618164, -0.939208984375, 0.077880859375, -0.197021484375, 
230, 4017448853, 0.8676842451095581, 0.022745296359062195, -0.4946615993976593, -0.044112980365753174, 8.051712036132812, 0.8627973198890686, 4.558827877044678, 20.234790802001953, 17.208057403564453, 20.554712295532227, -0.938232421875, 0.078369140625, -0.201416015625, 
231, 4017457186, 0.8682332634925842, 0.02334018051624298, -0.49385306239128113, -0.0420096218585968, 8.040946960449219, 0.8910916447639465, 4.599515914916992, 20.569005966186523, 13.909452438354492, 21.342327117919922, -0.939697265625, 0.079833984375, -0.200927734375, 
232, 4017465519, 0.8686399459838867, 0.023926064372062683, -0.4932842254638672, -0.039903342723846436, 8.071054458618164, 0.8611411452293396, 4.685820579528809, 20.88644027709961, 10.107603073120117, 21.550798416137695, -0.939208984375, 0.083251953125, -0.202880859375, 
233, 4017473852, 0.8690332174301147, 0.02458767592906952, -0.49272847175598145, -0.03774663805961609, 8.202234268188477, 0.7777122259140015, 4.764432907104492, 21.922693252563477, 9.889063835144043, 21.518091201782227, -0.9345703125, 0.08740234375, -0.206298828125, 
234, 4017482185, 0.8694843649864197, 0.025324612855911255, -0.4920567274093628, -0.03556853532791138, 8.36828899383545, 0.7381780743598938, 4.857898712158203, 22.930234909057617, 11.725889205932617, 21.266586303710938, -0.9375, 0.09033203125, -0.20751953125, 
235, 4017490518, 0.8700709342956543, 0.02612893283367157, -0.49113303422927856, -0.03334009647369385, 8.482791900634766, 0.7541512846946716, 4.901147365570068, 23.86369514465332, 15.691874504089355, 21.380212783813477, -0.9345703125, 0.09130859375, -0.2109375, 
236, 4017498851, 0.870765209197998, 0.026984676718711853, -0.4900030195713043, -0.03108730912208557, 8.548551559448242, 0.7981815338134766, 4.892119407653809, 24.563146591186523, 18.93389892578125, 21.314926147460938, -0.931884765625, 0.09375, -0.214111328125, 
237, 4017507184, 0.8714867234230042, 0.02784542739391327, -0.48880982398986816, -0.028810501098632812, 8.522541046142578, 0.7964085340499878, 5.000739097595215, 24.6956787109375, 19.87066650390625, 21.540359497070312, -0.929931640625, 0.09521484375, -0.219482421875, 
238, 4017515517, 0.8721892833709717, 0.02861650288105011, -0.4876396656036377, -0.02653142809867859, 8.461002349853516, 0.8157203197479248, 5.13705587387085, 23.711881637573242, 19.448410034179688, 22.194156646728516, -0.932861328125, 0.09765625, -0.220703125, 
239, 4017523850, 0.8728922605514526, 0.029342949390411377, -0.48645639419555664, -0.024242669343948364, 8.430206298828125, 0.8413056135177612, 5.176827907562256, 23.176467895507812, 19.58132553100586, 22.581270217895508, -0.931884765625, 0.1005859375, -0.22509765625, 
240, 4017532183, 0.8736395835876465, 0.02999669313430786, -0.48518097400665283, -0.021971672773361206, 8.379018783569336, 0.8923125267028809, 5.2537007331848145, 22.1232852935791, 20.961856842041016, 22.80805778503418, -0.929443359375, 0.10107421875, -0.22509765625, 
241, 4017540516, 0.8743663430213928, 0.030541181564331055, -0.4839301109313965, -0.019791394472122192, 8.25525951385498, 0.9818994402885437, 5.304320812225342, 20.234846115112305, 20.448646545410156, 22.47640037536621, -0.9296875, 0.10546875, -0.23046875, 
242, 4017548849, 0.8750233054161072, 0.03095477819442749, -0.4827960729598999, -0.017707407474517822, 8.104597091674805, 1.081073522567749, 5.359687328338623, 18.08203887939453, 18.51389503479004, 22.206012725830078, -0.92919921875, 0.1064453125, -0.2314453125, 
243, 4017557182, 0.8756035566329956, 0.03130650520324707, -0.481789767742157, -0.015703707933425903, 8.009195327758789, 1.131698727607727, 5.3943257331848145, 16.86705207824707, 16.40878677368164, 21.698490142822266, -0.9267578125, 0.109375, -0.23486328125, 
244, 4017565515, 0.8761753439903259, 0.03169260919094086, -0.4807850420475006, -0.013692796230316162, 8.039441108703613, 1.0649579763412476, 5.395981788635254, 17.2529296875, 16.34654426574707, 21.493932723999023, -0.926025390625, 0.11083984375, -0.236328125, 
245, 4017573848, 0.8767900466918945, 0.032132163643836975, -0.4796866178512573, -0.01170361042022705, 8.138020515441895, 0.9664163589477539, 5.379109859466553, 17.798620223999023, 17.757047653198242, 20.909626007080078, -0.926513671875, 0.11328125, -0.23779296875, 
246, 4017582181, 0.8774464130401611, 0.032564133405685425, -0.47849851846694946, -0.009799659252166748, 8.217111587524414, 0.9011046290397644, 5.318168640136719, 17.08515739440918, 19.081790924072266, 19.87093734741211, -0.925048828125, 0.115478515625, -0.240234375, 
247, 4017590514, 0.8780796527862549, 0.032946035265922546, -0.4773428738117218, -0.007991701364517212, 8.288338661193848, 0.8921309113502502, 5.315243244171143, 15.890022277832031, 18.480777740478516, 19.081151962280273, -0.92138671875, 0.118896484375, -0.24609375, 
248, 4017598847, 0.8786787986755371, 0.03328438103199005, -0.47624093294143677, -0.0062920451164245605, 8.290600776672363, 0.8676318526268005, 5.3242950439453125, 14.71225357055664, 17.56629180908203, 18.093280792236328, -0.923828125, 0.122314453125, -0.247802734375, 
249, 4017607180, 0.8792667388916016, 0.03367502987384796, -0.4751465618610382, -0.0045996904373168945, 8.256048202514648, 0.8361721634864807, 5.288336277008057, 15.263931274414062, 17.3914737701416, 17.651817321777344, -0.91943359375, 0.123779296875, -0.2490234375, 
250, 4017615513, 0.879892110824585, 0.0340922474861145, -0.47397154569625854, -0.0028904974460601807, 8.197665214538574, 0.855497419834137, 5.370193958282471, 15.672606468200684, 18.629796981811523, 17.6350154876709, -0.92236328125, 0.126220703125, -0.254150390625, 
251, 4017623846, 0.880474328994751, 0.03453190624713898, -0.47286418080329895, -0.001263052225112915, 8.07093620300293, 0.9332486391067505, 5.4756364822387695, 15.433830261230469, 17.4823055267334, 16.541826248168945, -0.91943359375, 0.1259765625, -0.2578125, 
252, 4017632179, 0.8809711933135986, 0.03489939868450165, -0.4719124734401703, 0.00022161006927490234, 7.951985836029053, 0.9900185465812683, 5.61560583114624, 13.694442749023438, 14.984630584716797, 15.35511589050293, -0.919677734375, 0.12744140625, -0.259033203125, 
253, 4017640512, 0.8814390897750854, 0.03529839217662811, -0.4710056483745575, 0.0015819668769836426, 7.979201316833496, 0.8859771490097046, 5.644427299499512, 13.265146255493164, 14.182981491088867, 13.667341232299805, -0.915283203125, 0.131103515625, -0.2587890625, 
254, 4017648845, 0.8819742798805237, 0.035758718848228455, -0.4699614942073822, 0.00290524959564209, 8.02615737915039, 0.8028267621994019, 5.612400054931641, 13.918258666992188, 16.28527069091797, 12.861518859863281, -0.917724609375, 0.130859375, -0.264892578125, 
255, 4017657178, 0.8825756907463074, 0.03627704083919525, -0.46878165006637573, 0.004187136888504028, 8.080977439880371, 0.8150234818458557, 5.573696136474609, 14.146763801574707, 18.314638137817383, 11.803674697875977, -0.915283203125, 0.1298828125, -0.27001953125, 
256, 4017665511, 0.8832255601882935, 0.036619946360588074, -0.4675174951553345, 0.0053289830684661865, 8.101967811584473, 0.8472692966461182, 5.562586307525635, 11.016060829162598, 19.59319496154785, 11.127584457397461, -0.914306640625, 0.133056640625, -0.2685546875, 
257, 4017673844, 0.8838261365890503, 0.03676038980484009, -0.4663577079772949, 0.006321251392364502, 8.087037086486816, 0.8209589123725891, 5.560281276702881, 7.6916632652282715, 17.945556640625, 10.73274040222168, -0.912353515625, 0.13330078125, -0.27294921875, 
258, 4017682177, 0.884388267993927, 0.03679482638835907, -0.4652751684188843, 0.0071968138217926025, 7.993234157562256, 0.8340064287185669, 5.570160865783691, 5.6555352210998535, 16.717636108398438, 10.018101692199707, -0.913818359375, 0.1357421875, -0.275634765625, 
259, 4017690510, 0.8849217295646667, 0.03667132556438446, -0.4642576575279236, 0.007932484149932861, 7.915050983428955, 0.958823025226593, 5.642882347106934, 2.861072301864624, 15.680514335632324, 9.380229949951172, -0.911376953125, 0.134765625, -0.27587890625, 
260, 4017698843, 0.8853312730789185, 0.036519601941108704, -0.4634779095649719, 0.008500993251800537, 7.792168140411377, 1.0273526906967163, 5.548174858093262, 1.5134813785552979, 11.925028800964355, 7.670734405517578, -0.91064453125, 0.13720703125, -0.27880859375, 
261, 4017707176, 0.8855071067810059, 0.03651171922683716, -0.4631323218345642, 0.009042292833328247, 7.76436185836792, 0.9708616137504578, 5.517189979553223, 3.131404399871826, 5.110617160797119, 6.658792495727539, -0.90771484375, 0.13720703125, -0.28173828125, 
262, 4017715509, 0.8855550289154053, 0.036397337913513184, -0.46304216980934143, 0.009434133768081665, 7.698050022125244, 0.8810041546821594, 5.696547031402588, 1.0835206508636475, 1.140640377998352, 5.769952297210693, -0.90966796875, 0.139404296875, -0.27978515625, 
263, 4017723842, 0.8856936693191528, 0.03603878617286682, -0.4627995193004608, 0.009683102369308472, 7.555752277374268, 0.7938359379768372, 5.980855464935303, -2.9943294525146484, 3.5189473628997803, 5.38540506362915, -0.91015625, 0.139892578125, -0.280029296875, 
264, 4017732175, 0.8859571218490601, 0.03578647971153259, -0.4623112678527832, 0.009863078594207764, 7.8069939613342285, 0.9135286808013916, 5.9964919090271, -2.1553354263305664, 7.2611870765686035, 3.736053705215454, -0.91015625, 0.13916015625, -0.28271484375, 
265, 4017740508, 0.8863843679428101, 0.035660818219184875, -0.4615020751953125, 0.009823918342590332, 8.066516876220703, 1.1249477863311768, 5.711881160736084, -2.05561900138855, 12.082913398742676, 0.07677866518497467, -0.91015625, 0.141845703125, -0.282958984375, 
266, 4017748841, 0.8868144750595093, 0.03553955256938934, -0.4606902003288269, 0.009525865316390991, 8.138497352600098, 1.1837687492370605, 5.524179458618164, -3.457512617111206, 12.023260116577148, -2.982496500015259, -0.9072265625, 0.13916015625, -0.283203125, 
267, 4017757174, 0.8871455192565918, 0.03515654802322388, -0.460092157125473, 0.009026378393173218, 7.981080532073975, 1.0771329402923584, 5.561131000518799, -8.093048095703125, 8.704833030700684, -3.787986993789673, -0.90673828125, 0.140625, -0.28662109375, 
268, 4017765507, 0.8874432444572449, 0.034365713596343994, -0.4595893919467926, 0.008397042751312256, 7.712048053741455, 0.9110515117645264, 5.633014678955078, -13.953049659729004, 7.323021411895752, -2.793104648590088, -0.908203125, 0.140625, -0.28857421875, 
269, 4017773840, 0.8876547813415527, 0.03326018154621124, -0.45927315950393677, 0.007772773504257202, 7.747068881988525, 0.9074100255966187, 5.612199306488037, -17.674209594726562, 4.537779808044434, -0.5930976867675781, -0.9072265625, 0.14013671875, -0.2880859375, 
270, 4017782173, 0.8877415060997009, 0.0320877879858017, -0.45919978618621826, 0.007100492715835571, 7.749312400817871, 0.9516622424125671, 5.565561294555664, -18.899751663208008, 0.7676973938941956, -0.7307744026184082, -0.90478515625, 0.142822265625, -0.28857421875, 
271, 4017790506, 0.8876782059669495, 0.03094157576560974, -0.4594115614891052, 0.006361812353134155, 7.773543834686279, 1.0219238996505737, 5.603411674499512, -18.824264526367188, -3.688783645629883, -1.4659030437469482, -0.90625, 0.14306640625, -0.28857421875, 
272, 4017798839, 0.887412965297699, 0.029906123876571655, -0.4600018858909607, 0.0056018829345703125, 7.795284271240234, 0.9486883282661438, 5.72017240524292, -17.590763092041016, -9.600577354431152, -2.2757744789123535, -0.9091796875, 0.142578125, -0.285400390625, 
273, 4017807172, 0.8872002363204956, 0.028833508491516113, -0.4604890048503876, 0.00483056902885437, 7.871399402618408, 0.7689444422721863, 5.89805793762207, -18.091901779174805, -8.015873908996582, -2.197957992553711, -0.90625, 0.144287109375, -0.28466796875, 
274, 4017815505, 0.8872036933898926, 0.02784760296344757, -0.46055084466934204, 0.004038184881210327, 7.894761562347412, 0.6165491342544556, 5.913103103637695, -17.188894271850586, -1.463879108428955, -3.1612579822540283, -0.908203125, 0.14111328125, -0.2861328125, 
275, 4017823838, 0.8873322010040283, 0.027132734656333923, -0.4603518545627594, 0.0033281445503234863, 7.9609832763671875, 0.4839368462562561, 5.843189716339111, -13.431467056274414, 2.5180463790893555, -4.008218288421631, -0.90625, 0.145263671875, -0.283203125, 
276, 4017832171, 0.8874579668045044, 0.026507556438446045, -0.46015098690986633, 0.0024782419204711914, 8.044326782226562, 0.5434463024139404, 5.7646660804748535, -13.299708366394043, 2.4681756496429443, -6.335964202880859, -0.908203125, 0.143798828125, -0.282470703125, 
277, 4017840504, 0.8875304460525513, 0.025929510593414307, -0.46004819869995117, 0.0015060901641845703, 7.990756511688232, 0.6106552481651306, 5.552586078643799, -13.402677536010742, 0.8883659243583679, -8.034521102905273, -0.90478515625, 0.145263671875, -0.28466796875, 
278, 4017848837, 0.8875715732574463, 0.02539403736591339, -0.46000123023986816, 0.00048357248306274414, 7.863287925720215, 0.595384955406189, 5.604170799255371, -13.3516263961792, -0.014984329231083393, -9.007964134216309, -0.9072265625, 0.142578125, -0.28759765625, 
279, 4017857170, 0.8875862956047058, 0.024781987071037292, -0.4600059390068054, -0.0006561279296875, 7.772764205932617, 0.5367091298103333, 5.597850322723389, -14.859563827514648, -0.8489072322845459, -9.826339721679688, -0.90673828125, 0.142822265625, -0.287109375, 
280, 4017865503, 0.8875596523284912, 0.024199843406677246, -0.4600849151611328, -0.0018346607685089111, 7.698882579803467, 0.5589839816093445, 5.629680633544922, -14.84565544128418, -2.0315163135528564, -10.545869827270508, -0.904296875, 0.140869140625, -0.28515625, 
281, 4017873836, 0.8874576687812805, 0.023595452308654785, -0.46030643582344055, -0.0030831098556518555, 7.612719535827637, 0.5607178211212158, 5.696185111999512, -15.412040710449219, -4.270663261413574, -11.131694793701172, -0.90625, 0.141357421875, -0.28369140625, 
282, 4017882169, 0.8872957229614258, 0.023046359419822693, -0.4606364965438843, -0.004312455654144287, 7.5729660987854, 0.5251615047454834, 5.714366912841797, -14.675091743469238, -5.965660095214844, -11.273725509643555, -0.90673828125, 0.141357421875, -0.28125, 
283, 4017890502, 0.8870705962181091, 0.02254822850227356, -0.46108192205429077, -0.005509465932846069, 7.664092063903809, 0.5855681896209717, 5.655465602874756, -13.737892150878906, -7.760013580322266, -11.109306335449219, -0.90625, 0.137939453125, -0.28173828125, 
284, 4017898835, 0.8867529630661011, 0.022041544318199158, -0.461700975894928, -0.006720989942550659, 7.853062629699707, 0.6734110713005066, 5.623253345489502, -13.718347549438477, -10.457475662231445, -11.064891815185547, -0.907958984375, 0.136962890625, -0.27978515625, 
285, 4017907168, 0.8863670825958252, 0.021406948566436768, -0.4624512791633606, -0.00797244906425476, 8.014164924621582, 0.6936731338500977, 5.64505672454834, -15.672664642333984, -12.527159690856934, -10.826936721801758, -0.908935546875, 0.136962890625, -0.2744140625, 
286, 4017915501, 0.8860169053077698, 0.020642131567001343, -0.463132381439209, -0.009265393018722534, 8.22434139251709, 0.6157814264297485, 5.625932693481445, -17.454774856567383, -11.475258827209473, -10.46021842956543, -0.910888671875, 0.134765625, -0.2763671875, 
287, 4017923834, 0.8857421875, 0.019817546010017395, -0.46366599202156067, -0.010548382997512817, 8.408191680908203, 0.5435563921928406, 5.595048904418945, -18.246383666992188, -9.2112398147583, -10.052002906799316, -0.910400390625, 0.135498046875, -0.2734375, 
288, 4017932167, 0.8854908347129822, 0.01890440285205841, -0.4641515016555786, -0.01188632845878601, 8.385771751403809, 0.531706690788269, 5.674210071563721, -19.833547592163086, -8.508054733276367, -10.264141082763672, -0.910400390625, 0.134033203125, -0.2734375, 
289, 4017940500, 0.885237455368042, 0.017852887511253357, -0.4646376371383667, -0.013316035270690918, 8.33334732055664, 0.5516818761825562, 5.728679656982422, -21.95865821838379, -8.570988655090332, -10.400537490844727, -0.912353515625, 0.135009765625, -0.27099609375, 
290, 4017948833, 0.8849906921386719, 0.016770988702774048, -0.46510252356529236, -0.014808833599090576, 8.253413200378418, 0.4999847710132599, 5.82259464263916, -22.735132217407227, -8.286108016967773, -10.975244522094727, -0.908935546875, 0.132080078125, -0.27099609375, 
291, 4017957166, 0.8847712278366089, 0.015665054321289062, -0.4655078053474426, -0.016318023204803467, 8.133858680725098, 0.4245293140411377, 5.909366607666016, -23.151439666748047, -7.399777412414551, -11.031570434570312, -0.909423828125, 0.13037109375, -0.27099609375, 
292, 4017965499, 0.8846335411071777, 0.014486551284790039, -0.46574926376342773, -0.01790034770965576, 7.983456134796143, 0.4418691098690033, 5.823572158813477, -24.27365493774414, -4.898290157318115, -11.278594970703125, -0.913330078125, 0.130615234375, -0.265625, 
293, 4017973832, 0.8844988942146301, 0.013341516256332397, -0.4659763276576996, -0.01947113871574402, 7.958439350128174, 0.5053929090499878, 5.61322546005249, -24.081979751586914, -4.708949565887451, -11.550721168518066, -0.914794921875, 0.131591796875, -0.2666015625, 
294, 4017982165, 0.8842328786849976, 0.012298136949539185, -0.4664410352706909, -0.02105233073234558, 7.991602420806885, 0.5070229768753052, 5.476109027862549, -22.734722137451172, -8.410029411315918, -12.256828308105469, -0.911376953125, 0.130126953125, -0.2685546875, 
295, 4017990498, 0.8837651610374451, 0.01140660047531128, -0.46727392077445984, -0.022657006978988647, 8.143446922302246, 0.4489603340625763, 5.444950103759766, -20.987476348876953, -14.146778106689453, -13.57522201538086, -0.9140625, 0.127197265625, -0.26220703125, 
296, 4017998831, 0.8832108974456787, 0.010592564940452576, -0.46825507283210754, -0.02434590458869934, 8.326115608215332, 0.3916540741920471, 5.486847400665283, -20.472373962402344, -16.489484786987305, -15.060516357421875, -0.914794921875, 0.129150390625, -0.26025390625, 
297, 4018007164, 0.8827128410339355, 0.009629964828491211, -0.46911782026290894, -0.02613648772239685, 8.429120063781738, 0.36832210421562195, 5.584392547607422, -23.03551483154297, -14.75875473022461, -15.378389358520508, -0.91650390625, 0.127685546875, -0.25927734375, 
298, 4018015497, 0.8823391795158386, 0.008486613631248474, -0.4697364270687103, -0.027979403734207153, 8.450469017028809, 0.3776606023311615, 5.556809902191162, -25.47025489807129, -11.05257797241211, -14.699740409851074, -0.91455078125, 0.125244140625, -0.25927734375, 
299, 4018023830, 0.8819868564605713, 0.007419005036354065, -0.47030651569366455, -0.029753774404525757, 8.207185745239258, 0.3584788739681244, 5.602967262268066, -24.32975196838379, -10.300004959106445, -14.489856719970703, -0.9140625, 0.125732421875, -0.25537109375, 
300, 4018032163, 0.881572425365448, 0.0064623355865478516, -0.470986545085907, -0.031453460454940796, 7.960844039916992, 0.3586857318878174, 5.724860191345215, -22.481401443481445, -11.981912612915039, -14.33458137512207, -0.91650390625, 0.122802734375, -0.25146484375, 
301, 4018040496, 0.881123960018158, 0.005547747015953064, -0.4717237055301666, -0.03310534358024597, 7.953061103820801, 0.45269250869750977, 5.589592933654785, -21.602291107177734, -12.872801780700684, -14.018400192260742, -0.91552734375, 0.125244140625, -0.24951171875, 
302, 4018048829, 0.8806923627853394, 0.004735320806503296, -0.4724145531654358, -0.034820884466171265, 8.024572372436523, 0.6117100119590759, 5.392988204956055, -20.565067291259766, -12.148557662963867, -15.290608406066895, -0.916015625, 0.122314453125, -0.24853515625, 
303, 4018057162, 0.8801966309547424, 0.0037946701049804688, -0.4732067584991455, -0.03666204214096069, 8.045103073120117, 0.639762818813324, 5.426581382751465, -23.116994857788086, -13.875089645385742, -16.160932540893555, -0.91748046875, 0.120361328125, -0.248046875, 
304, 4018065495, 0.8796105980873108, 0.002838611602783203, -0.4741531014442444, -0.03853830695152283, 8.013751029968262, 0.5496434569358826, 5.320974826812744, -23.39580535888672, -16.33323860168457, -16.485591888427734, -0.920654296875, 0.118896484375, -0.24755859375, 
305, 4018073828, 0.8790304660797119, 0.002008408308029175, -0.4750814437866211, -0.04035404324531555, 8.160110473632812, 0.40802106261253357, 5.1914825439453125, -21.541440963745117, -16.012344360351562, -16.608463287353516, -0.919189453125, 0.116943359375, -0.24462890625, 
306, 4018082161, 0.8784154653549194, 0.001270204782485962, -0.47606778144836426, -0.04211479425430298, 8.301854133605957, 0.33848780393600464, 5.216453552246094, -20.135395050048828, -16.892091751098633, -16.625883102416992, -0.922119140625, 0.115966796875, -0.24072265625, 
307, 4018090494, 0.8776990175247192, 0.0004943311214447021, -0.47722843289375305, -0.043893963098526, 8.31119155883789, 0.25872883200645447, 5.284738540649414, -20.508953094482422, -19.6805362701416, -16.59340476989746, -0.919677734375, 0.113037109375, -0.23876953125, 
308, 4018098827, 0.8769844174385071, -0.00022949278354644775, -0.47837817668914795, -0.045631080865859985, 8.292760848999023, 0.17644083499908447, 5.37598991394043, -19.567604064941406, -19.501184463500977, -16.39581298828125, -0.923095703125, 0.111083984375, -0.234375, 
309, 4018107160, 0.8763427734375, -0.0008385926485061646, -0.4793909192085266, -0.047292232513427734, 8.252992630004883, 0.1869991421699524, 5.4625244140625, -17.81525421142578, -17.301149368286133, -16.220046997070312, -0.921875, 0.110595703125, -0.232421875, 
310, 4018115493, 0.8757941722869873, -0.0013236552476882935, -0.4802342653274536, -0.04886320233345032, 8.229883193969727, 0.25152233242988586, 5.380682945251465, -15.830681800842285, -14.5632905960083, -15.883373260498047, -0.9228515625, 0.107666015625, -0.230712890625, 
311, 4018123826, 0.8752480149269104, -0.001686885952949524, -0.48107263445854187, -0.050369322299957275, 8.186270713806152, 0.3059406280517578, 5.260089874267578, -13.941246032714844, -14.411422729492188, -15.90849781036377, -0.9228515625, 0.107177734375, -0.225830078125, 
312, 4018132159, 0.8745948076248169, -0.002092897891998291, -0.4820965826511383, -0.051883190870285034, 8.178399085998535, 0.3265407085418701, 5.192512512207031, -14.395591735839844, -17.37847328186035, -15.805785179138184, -0.92529296875, 0.105224609375, -0.22509765625, 
313, 4018140492, 0.8738170862197876, -0.002558201551437378, -0.4833335280418396, -0.05343538522720337, 8.151169776916504, 0.2940279543399811, 5.195926189422607, -15.201111793518066, -20.80961036682129, -15.961651802062988, -0.9287109375, 0.102294921875, -0.22119140625, 
314, 4018148825, 0.8729259967803955, -0.00305020809173584, -0.4847647547721863, -0.05498802661895752, 8.215230941772461, 0.21035423874855042, 5.254940986633301, -15.405898094177246, -23.916515350341797, -15.888242721557617, -0.926513671875, 0.100341796875, -0.217041015625, 
315, 4018157158, 0.8720484972000122, -0.003506273031234741, -0.48616647720336914, -0.056490153074264526, 8.276243209838867, 0.20438015460968018, 5.3295979499816895, -14.639317512512207, -23.447317123413086, -15.503260612487793, -0.929931640625, 0.0986328125, -0.21728515625, 
316, 4018165491, 0.871252715587616, -0.003874555230140686, -0.48742160201072693, -0.05790776014328003, 8.286686897277832, 0.24764040112495422, 5.322431564331055, -13.287676811218262, -21.086088180541992, -15.098322868347168, -0.927001953125, 0.096923828125, -0.215087890625, 
317, 4018173824, 0.8705271482467651, -0.004051283001899719, -0.48855823278427124, -0.059215933084487915, 8.343775749206543, 0.3047031760215759, 5.242369174957275, -10.193036079406738, -19.04355239868164, -14.914230346679688, -0.9287109375, 0.093505859375, -0.209228515625, 
318, 4018182157, 0.8698338866233826, -0.004048585891723633, -0.48964279890060425, -0.0604340136051178, 8.308758735656738, 0.343302458524704, 5.208379745483398, -7.425467491149902, -18.055328369140625, -14.976829528808594, -0.930419921875, 0.094482421875, -0.205322265625, 
319, 4018190490, 0.8691027164459229, -0.003997772932052612, -0.49079933762550354, -0.06156286597251892, 8.3533935546875, 0.3667774498462677, 5.159043788909912, -6.246214389801025, -19.140762329101562, -14.305123329162598, -0.9306640625, 0.08984375, -0.206787109375, 
320, 4018198823, 0.8683362007141113, -0.003925219178199768, -0.49202197790145874, -0.06261599063873291, 8.401491165161133, 0.3979455828666687, 5.121717929840088, -5.780367374420166, -20.177162170410156, -13.792657852172852, -0.931640625, 0.088623046875, -0.201904296875, 
321, 4018207156, 0.8674442768096924, -0.003900662064552307, -0.4934607446193695, -0.06364884972572327, 8.401701927185059, 0.3755355775356293, 5.207473278045654, -5.678500175476074, -23.627532958984375, -13.134527206420898, -0.93310546875, 0.087158203125, -0.197998046875, 
322, 4018215489, 0.8665081858634949, -0.0039536356925964355, -0.4949743151664734, -0.06463640928268433, 8.40234661102295, 0.3477924168109894, 5.2239556312561035, -6.360249996185303, -24.89764404296875, -12.182933807373047, -0.93505859375, 0.085205078125, -0.195556640625, 
323, 4018223822, 0.8656187057495117, -0.0038464516401290894, -0.496409147977829, -0.06555172801017761, 8.302608489990234, 0.3672454059123993, 5.215615749359131, -3.9009478092193604, -23.49610710144043, -12.292354583740234, -0.936279296875, 0.084716796875, -0.192138671875, 
324, 4018232155, 0.864862859249115, -0.003677666187286377, -0.4976193606853485, -0.06635889410972595, 8.387969970703125, 0.35585787892341614, 5.229053020477295, -2.615394115447998, -19.858623504638672, -11.288352012634277, -0.933837890625, 0.083740234375, -0.187744140625, 
325, 4018240488, 0.8641772270202637, -0.003403961658477783, -0.49871399998664856, -0.06708365678787231, 8.435033798217773, 0.43809187412261963, 4.999798774719238, -0.9148383140563965, -17.914398193359375, -10.960283279418945, -0.938232421875, 0.082763671875, -0.184814453125, 
326, 4018248821, 0.8635475039482117, -0.0030441880226135254, -0.4997108280658722, -0.06778666377067566, 8.453502655029297, 0.4791167676448822, 4.884433269500732, 0.16458430886268616, -16.290143966674805, -11.241424560546875, -0.938720703125, 0.078369140625, -0.184326171875, 
327, 4018257154, 0.8628790378570557, -0.002710893750190735, -0.5007723569869995, -0.06847628951072693, 8.463662147521973, 0.44101905822753906, 4.801148414611816, 0.0048026712611317635, -17.349374771118164, -10.935054779052734, -0.938720703125, 0.07666015625, -0.187255859375, 
328, 4018265487, 0.8622317910194397, -0.002514749765396118, -0.5017910599708557, -0.06917649507522583, 8.475826263427734, 0.38412636518478394, 4.810751438140869, -1.7300372123718262, -16.822229385375977, -10.092241287231445, -0.939208984375, 0.076416015625, -0.177978515625, 
329, 4018273820, 0.8614985942840576, -0.002314344048500061, -0.5029696226119995, -0.0697580873966217, 8.549851417541504, 0.3702504336833954, 4.821277618408203, -0.7152265310287476, -19.312013626098633, -8.806432723999023, -0.9384765625, 0.07470703125, -0.182861328125, 
330, 4018282153, 0.8607702255249023, -0.0022233128547668457, -0.504129946231842, -0.07037165760993958, 8.42332649230957, 0.39039137959480286, 4.9689435958862305, -1.7036547660827637, -19.125926971435547, -8.114669799804688, -0.94140625, 0.073486328125, -0.173583984375, 
331, 4018290486, 0.8600230813026428, -0.00212213397026062, -0.5053362846374512, -0.07085606455802917, 8.435770988464355, 0.5068054795265198, 4.923822402954102, -1.1911903619766235, -19.835899353027344, -6.982545375823975, -0.94091796875, 0.071533203125, -0.171630859375, 
332, 4018298819, 0.8593591451644897, -0.0018939822912216187, -0.5064020752906799, -0.07130712270736694, 8.407429695129395, 0.5856534242630005, 4.89633321762085, 0.3709838390350342, -17.475008010864258, -7.409098148345947, -0.943359375, 0.070556640625, -0.170166015625, 
333, 4018307152, 0.8586817383766174, -0.0015549808740615845, -0.507499635219574, -0.07167315483093262, 8.486910820007324, 0.6228689551353455, 4.812613487243652, 2.34041166305542, -17.83665657043457, -7.167454719543457, -0.943359375, 0.067626953125, -0.168212890625, 
334, 4018315485, 0.858035147190094, -0.001131594181060791, -0.5085430145263672, -0.07202872633934021, 8.520305633544922, 0.6167774200439453, 4.7078375816345215, 3.3583474159240723, -16.897613525390625, -7.602870464324951, -0.943603515625, 0.066162109375, -0.163818359375, 
335, 4018323818, 0.8573998212814331, -0.0008408427238464355, -0.5095676779747009, -0.07235574722290039, 8.65670394897461, 0.6317601799964905, 4.659529209136963, 1.9744356870651245, -16.729352951049805, -6.324336051940918, -0.943603515625, 0.067626953125, -0.161376953125, 
336, 4018332151, 0.8566664457321167, -0.0006097257137298584, -0.5107591152191162, -0.07264339923858643, 8.750914573669434, 0.5949263572692871, 4.456572532653809, 1.7117358446121216, -19.443286895751953, -5.545714378356934, -0.944091796875, 0.06640625, -0.156982421875, 
337, 4018340484, 0.8559060096740723, -0.00042743980884552, -0.5119966864585876, -0.07289665937423706, 8.69791030883789, 0.6062634587287903, 4.536679744720459, 1.4230377674102783, -20.226903915405273, -4.8215484619140625, -0.944091796875, 0.064453125, -0.155029296875, 
338, 4018348817, 0.8550947308540344, -0.0003736913204193115, -0.5133184194564819, -0.07312101125717163, 8.781655311584473, 0.6538448333740234, 4.525634288787842, 0.20016254484653473, -21.701723098754883, -3.6301026344299316, -0.945068359375, 0.06396484375, -0.153076171875, 
339, 4018357150, 0.8542740941047668, -0.000327184796333313, -0.5146591067314148, -0.07328963279724121, 8.930647850036621, 0.6752074360847473, 4.575026035308838, 0.5252072811126709, -21.99979591369629, -2.9324724674224854, -0.944091796875, 0.06298828125, -0.14990234375, 
340, 4018365483, 0.853430986404419, -0.00021223723888397217, -0.5160397291183472, -0.07340395450592041, 9.009928703308105, 0.7478374242782593, 4.5550432205200195, 1.7555617094039917, -22.558412551879883, -2.801224946975708, -0.946044921875, 0.0625, -0.147705078125, 
341, 4018373816, 0.8527342081069946, 0.000010281801223754883, -0.517164945602417, -0.07358413934707642, 8.84758472442627, 0.7278286814689636, 4.614414691925049, 2.2912323474884033, -18.414691925048828, -4.189695835113525, -0.947509765625, 0.060546875, -0.145263671875, 
342, 4018382149, 0.8521076440811157, 0.00021256506443023682, -0.5181692838668823, -0.0737752914428711, 8.985726356506348, 0.6553235054016113, 4.5781683921813965, 2.112368106842041, -16.49452018737793, -3.9698486328125, -0.946044921875, 0.0625, -0.142333984375, 
343, 4018390482, 0.8515340089797974, 0.0004169940948486328, -0.5190935134887695, -0.07390183210372925, 8.992015838623047, 0.5484763383865356, 4.5141191482543945, 2.2588558197021484, -15.20095157623291, -3.3075668811798096, -0.9482421875, 0.05859375, -0.139892578125, 
344, 4018398815, 0.8509560823440552, 0.0006267577409744263, -0.52004075050354, -0.07389730215072632, 9.049510955810547, 0.5299816131591797, 4.562528610229492, 3.2808892726898193, -15.492362976074219, -1.8160239458084106, -0.9501953125, 0.0576171875, -0.137451171875, 
345, 4018407148, 0.8502848148345947, 0.0008243471384048462, -0.5211495161056519, -0.07381051778793335, 9.069637298583984, 0.5499777793884277, 4.4936981201171875, 3.88999605178833, -18.06393051147461, -0.8586917519569397, -0.94921875, 0.05908203125, -0.137451171875, 
346, 4018415481, 0.8496912717819214, 0.001103043556213379, -0.5221271514892578, -0.07373234629631042, 8.896478652954102, 0.6330455541610718, 4.486404895782471, 4.645155906677246, -15.88923168182373, -1.4654678106307983, -0.94873046875, 0.05712890625, -0.134765625, 
347, 4018423814, 0.8491594791412354, 0.0013345777988433838, -0.5229933261871338, -0.07371672987937927, 9.035422325134277, 0.7637056112289429, 4.452472686767578, 3.528630018234253, -14.195256233215332, -1.7934319972991943, -0.95068359375, 0.056640625, -0.134521484375, 
348, 4018432147, 0.8485996127128601, 0.001668483018875122, -0.5238936543464661, -0.07376465201377869, 9.224286079406738, 0.7870901226997375, 4.2769036293029785, 4.302692890167236, -14.68902587890625, -3.3044164180755615, -0.951171875, 0.05615234375, -0.135009765625, 
349, 4018440480, 0.8479982018470764, 0.002016589045524597, -0.5248517394065857, -0.0738619863986969, 9.310600280761719, 0.7200517654418945, 4.191412448883057, 4.171318054199219, -15.652812957763672, -4.018746852874756, -0.9501953125, 0.057373046875, -0.127197265625, 
350, 4018448813, 0.847305178642273, 0.002357572317123413, -0.525967001914978, -0.07387086749076843, 9.320902824401855, 0.679740846157074, 4.301589012145996, 4.891077518463135, -18.147844314575195, -3.029550075531006, -0.95166015625, 0.056396484375, -0.124755859375, 
351, 4018457146, 0.8464366793632507, 0.0025645941495895386, -0.5273847579956055, -0.07371270656585693, 9.313727378845215, 0.6267979741096497, 4.408825874328613, 4.849147319793701, -23.075307846069336, -0.2800917625427246, -0.94970703125, 0.055908203125, -0.12451171875, 
352, 4018465479, 0.8456816077232361, 0.002770334482192993, -0.5286309123039246, -0.07344493269920349, 9.038208961486816, 0.43531525135040283, 4.585168361663818, 5.454719543457031, -20.2497501373291, 1.112849235534668, -0.95166015625, 0.056396484375, -0.122314453125, 
353, 4018473812, 0.8451647162437439, 0.003071144223213196, -0.5295220017433167, -0.07296362519264221, 9.182486534118652, 0.38399070501327515, 4.6504225730896, 7.741097450256348, -14.28813648223877, 3.1339151859283447, -0.95263671875, 0.053955078125, -0.119384765625, 
354, 4018482145, 0.8449835777282715, 0.003502964973449707, -0.5298881530761719, -0.07238024473190308, 8.962749481201172, 0.4458262622356415, 4.340665340423584, 9.469390869140625, -5.604010581970215, 3.676705837249756, -0.95361328125, 0.05615234375, -0.116943359375, 
355, 4018490478, 0.8450929522514343, 0.0040860772132873535, -0.5297837257385254, -0.07183432579040527, 8.774049758911133, 0.5678457021713257, 4.109220504760742, 10.468602180480957, 2.126762866973877, 2.409543991088867, -0.951171875, 0.053955078125, -0.11669921875, 
356, 4018498811, 0.8452730178833008, 0.004633784294128418, -0.5295534133911133, -0.0713796615600586, 8.85328197479248, 0.7085943222045898, 3.8321990966796875, 9.266757011413574, 4.0679121017456055, 1.6662957668304443, -0.9560546875, 0.054443359375, -0.116943359375, 
357, 4018507144, 0.8454622626304626, 0.005142912268638611, -0.5293046236038208, -0.07094848155975342, 8.870087623596191, 0.8013026118278503, 3.7050373554229736, 8.626657485961914, 4.306047439575195, 1.6862236261367798, -0.95556640625, 0.057373046875, -0.116943359375, 
358, 4018515477, 0.8456109762191772, 0.0056777894496917725, -0.5291270613670349, -0.07045820355415344, 8.909748077392578, 0.9418245553970337, 3.806889295578003, 9.43127727508545, 3.218108654022217, 2.1471774578094482, -0.9521484375, 0.053955078125, -0.117919921875, 
359, 4018523810, 0.8457191586494446, 0.006133466958999634, -0.5290176868438721, -0.06994122266769409, 8.937027931213379, 1.052864670753479, 3.882094144821167, 8.769611358642578, 2.049920082092285, 3.002821207046509, -0.9501953125, 0.056640625, -0.119873046875, 
360, 4018532143, 0.8458322882652283, 0.006497293710708618, -0.528908371925354, -0.06936487555503845, 8.943538665771484, 0.986084520816803, 4.006587028503418, 8.13688850402832, 2.008758306503296, 4.362092018127441, -0.95068359375, 0.055908203125, -0.119384765625, 
361, 4018540476, 0.8460278511047363, 0.006727322936058044, -0.5286710858345032, -0.06876480579376221, 8.959129333496094, 0.844016432762146, 4.141729831695557, 6.620294570922852, 3.9642772674560547, 5.683197498321533, -0.9541015625, 0.056396484375, -0.119384765625, 
362, 4018548809, 0.8463255763053894, 0.0069054365158081055, -0.5282808542251587, -0.0680793821811676, 8.89033317565918, 0.7805004715919495, 4.130440711975098, 6.485972881317139, 6.452391624450684, 7.132654666900635, -0.9501953125, 0.056884765625, -0.121826171875, 
363, 4018557142, 0.8467128276824951, 0.007092088460922241, -0.5277584791183472, -0.0672917366027832, 8.780349731445312, 0.7385963797569275, 4.051774024963379, 7.193337440490723, 8.652068138122559, 8.335861206054688, -0.954345703125, 0.059814453125, -0.122314453125, 
364, 4018565475, 0.8470813632011414, 0.00726395845413208, -0.5272765159606934, -0.0664074718952179, 8.663067817687988, 0.6521753668785095, 4.009941101074219, 7.763201713562012, 8.047826766967773, 9.548641204833984, -0.951416015625, 0.059814453125, -0.123779296875, 
365, 4018573808, 0.8473621606826782, 0.007426589727401733, -0.5269502997398376, -0.06538820266723633, 8.671366691589355, 0.5463230013847351, 3.9465219974517822, 8.784235954284668, 5.596032619476318, 11.130783081054688, -0.95068359375, 0.057861328125, -0.123779296875, 
366, 4018582141, 0.847545325756073, 0.007601186633110046, -0.5267966985702515, -0.06422173976898193, 8.733759880065918, 0.5219401121139526, 3.917466878890991, 10.157980918884277, 2.910123586654663, 12.681086540222168, -0.950927734375, 0.06298828125, -0.124267578125, 
367, 4018590474, 0.847637414932251, 0.007757082581520081, -0.5267938375473022, -0.06300032138824463, 8.82601261138916, 0.6190361380577087, 4.0528483390808105, 10.477108001708984, 0.47654011845588684, 13.399435043334961, -0.951416015625, 0.060791015625, -0.127197265625, 
368, 4018598807, 0.8476869463920593, 0.007979124784469604, -0.5268521904945374, -0.06180635094642639, 9.013956069946289, 0.7201545834541321, 4.168274402618408, 11.11000919342041, -0.4855690896511078, 12.564973831176758, -0.951416015625, 0.06591796875, -0.127685546875, 
369, 4018607140, 0.8478449583053589, 0.008416235446929932, -0.526732325553894, -0.06059086322784424, 9.265334129333496, 0.6915513873100281, 4.194680213928223, 13.608270645141602, 2.5570311546325684, 11.333443641662598, -0.952880859375, 0.06591796875, -0.12353515625, 
370, 4018615473, 0.8481317162513733, 0.009018361568450928, -0.5263968110084534, -0.0593947172164917, 9.30871295928955, 0.6223073601722717, 4.438756942749023, 15.197813034057617, 6.146304130554199, 9.991232872009277, -0.9521484375, 0.0693359375, -0.126953125, 
371, 4018623806, 0.8484585285186768, 0.009657204151153564, -0.5259882807731628, -0.05823555588722229, 9.192068099975586, 0.6573129296302795, 4.619391918182373, 15.292533874511719, 7.305758476257324, 9.322237968444824, -0.95166015625, 0.06884765625, -0.1259765625, 
372, 4018632139, 0.8489826917648315, 0.010370895266532898, -0.5252566933631897, -0.05706661939620972, 9.28016471862793, 0.8128308653831482, 4.387864589691162, 15.953385353088379, 12.572151184082031, 9.00467586517334, -0.94677734375, 0.0703125, -0.130126953125, 
373, 4018640472, 0.8495924472808838, 0.011179015040397644, -0.5243797302246094, -0.055890172719955444, 9.161100387573242, 0.9129773378372192, 4.350378513336182, 16.982051849365234, 14.953275680541992, 8.463419914245605, -0.94775390625, 0.06982421875, -0.130126953125, 
374, 4018648805, 0.8501972556114197, 0.011886388063430786, -0.5235030651092529, -0.05475437641143799, 8.908012390136719, 0.9052242636680603, 4.359197616577148, 15.514894485473633, 14.840319633483887, 8.703989028930664, -0.9482421875, 0.0703125, -0.134033203125, 
375, 4018657138, 0.8507788181304932, 0.012427732348442078, -0.5226551294326782, -0.05369284749031067, 8.734694480895996, 0.8168102502822876, 4.435487747192383, 13.061203002929688, 14.191457748413086, 9.025294303894043, -0.94921875, 0.072265625, -0.13916015625, 
376, 4018665471, 0.8514237999916077, 0.012849897146224976, -0.5217061638832092, -0.05258679389953613, 8.75598430633545, 0.7842797040939331, 4.360592842102051, 11.90561580657959, 15.755716323852539, 10.42475414276123, -0.9482421875, 0.0751953125, -0.1416015625, 
377, 4018673804, 0.8521715998649597, 0.013255670666694641, -0.5205928087234497, -0.051393061876297, 8.811668395996094, 0.7216070890426636, 4.251683712005615, 12.202462196350098, 18.415122985839844, 11.621685028076172, -0.94970703125, 0.071044921875, -0.140625, 
378, 4018682137, 0.8529317378997803, 0.013579785823822021, -0.5194640755653381, -0.05010053515434265, 8.809059143066406, 0.7221971750259399, 4.244215965270996, 11.941863059997559, 18.65251350402832, 13.364938735961914, -0.9482421875, 0.075439453125, -0.14697265625, 
379, 4018690470, 0.8535947203636169, 0.013769596815109253, -0.51849764585495, -0.04875263571739197, 8.761119842529297, 0.7582799792289734, 4.316873073577881, 10.890116691589355, 15.962814331054688, 14.940471649169922, -0.947021484375, 0.078125, -0.1455078125, 
380, 4018698803, 0.854171633720398, 0.013891726732254028, -0.5176721811294556, -0.047364234924316406, 8.837778091430664, 0.8893195390701294, 4.325093746185303, 10.498112678527832, 13.667823791503906, 15.863299369812012, -0.947998046875, 0.08056640625, -0.14892578125, 
381, 4018707136, 0.8547039031982422, 0.013961642980575562, -0.5169151425361633, -0.04599323868751526, 8.947710037231445, 0.9648395776748657, 4.395090579986572, 9.810013771057129, 12.497281074523926, 16.018829345703125, -0.946533203125, 0.083984375, -0.1494140625, 
382, 4018715469, 0.8552093505859375, 0.0139475017786026, -0.516196608543396, -0.04465267062187195, 8.936397552490234, 0.9154415726661682, 4.486859321594238, 8.638750076293945, 11.805465698242188, 16.245285034179688, -0.947509765625, 0.083984375, -0.1533203125, 
383, 4018723802, 0.8557317852973938, 0.013839483261108398, -0.5154427289962769, -0.04336637258529663, 8.926007270812988, 0.8381150960922241, 4.615676403045654, 7.123128890991211, 12.26388168334961, 16.281604766845703, -0.94677734375, 0.0859375, -0.15234375, 
384, 4018732135, 0.8563305139541626, 0.013728901743888855, -0.5145575404167175, -0.04207465052604675, 8.884756088256836, 0.7935440540313721, 4.6608967781066895, 7.039037227630615, 14.360177040100098, 16.378477096557617, -0.94482421875, 0.08740234375, -0.15625, 
385, 4018740468, 0.8570032119750977, 0.013683885335922241, -0.5135478377342224, -0.0407082736492157, 8.791046142578125, 0.7480595111846924, 4.68295955657959, 8.25202751159668, 16.39105796813965, 16.817739486694336, -0.94140625, 0.09033203125, -0.15966796875, 
386, 4018748801, 0.8577147722244263, 0.013704508543014526, -0.512470543384552, -0.03926575183868408, 8.671679496765137, 0.6432021856307983, 4.688358783721924, 9.520291328430176, 17.52235984802246, 17.25689697265625, -0.943115234375, 0.09326171875, -0.160888671875, 
387, 4018757134, 0.8583846688270569, 0.013708114624023438, -0.5114585161209106, -0.037792861461639404, 8.6531343460083, 0.6232874393463135, 4.706633567810059, 9.573186874389648, 16.446104049682617, 17.729122161865234, -0.945068359375, 0.0966796875, -0.161865234375, 
388, 4018765467, 0.8589890599250793, 0.013624176383018494, -0.510551393032074, -0.0363275408744812, 8.617244720458984, 0.6502390503883362, 4.743291854858398, 8.557246208190918, 14.711071968078613, 18.234155654907227, -0.945556640625, 0.09716796875, -0.166259765625, 
389, 4018773800, 0.8595026731491089, 0.013523057103157043, -0.5097883939743042, -0.03490567207336426, 8.681866645812988, 0.6722928881645203, 4.773102760314941, 8.135635375976562, 12.344286918640137, 17.833011627197266, -0.941162109375, 0.098876953125, -0.166748046875, 
390, 4018782133, 0.8599405884742737, 0.013484969735145569, -0.50914067029953, -0.03355798125267029, 8.644927024841309, 0.7505674958229065, 4.785834789276123, 8.43237590789795, 10.4772367477417, 16.492076873779297, -0.94384765625, 0.10302734375, -0.170654296875, 
391, 4018790466, 0.860275387763977, 0.013451904058456421, -0.5086580514907837, -0.03228810429573059, 8.577198028564453, 0.8035054206848145, 4.848424434661865, 8.039068222045898, 7.780824184417725, 15.524651527404785, -0.943359375, 0.106201171875, -0.1728515625, 
392, 4018798799, 0.8605602383613586, 0.013476520776748657, -0.5082516670227051, -0.031059950590133667, 8.533598899841309, 0.8564289212226868, 4.860919952392578, 8.475842475891113, 6.558898448944092, 14.614988327026367, -0.94189453125, 0.106201171875, -0.171630859375, 
393, 4018807132, 0.8608876466751099, 0.013645797967910767, -0.5077616572380066, -0.029905378818511963, 8.690207481384277, 0.8055154085159302, 4.878277778625488, 9.628662109375, 7.882667541503906, 12.739921569824219, -0.94140625, 0.107666015625, -0.173583984375, 
394, 4018815465, 0.8613580465316772, 0.013905316591262817, -0.507023274898529, -0.02874860167503357, 8.718661308288574, 0.6901744604110718, 4.912622928619385, 10.583562850952148, 11.867552757263184, 12.145390510559082, -0.940185546875, 0.110107421875, -0.174072265625, 
395, 4018823798, 0.8620069026947021, 0.014226719737052917, -0.505979061126709, -0.02751418948173523, 8.662168502807617, 0.6577126979827881, 4.982123374938965, 11.7009859085083, 16.765178680419922, 12.648482322692871, -0.939208984375, 0.113037109375, -0.177734375, 
396, 4018832131, 0.8627889156341553, 0.014572978019714355, -0.504697859287262, -0.02632725238800049, 8.714985847473145, 0.6168265342712402, 4.863858222961426, 11.550400733947754, 20.510623931884766, 11.913201332092285, -0.938720703125, 0.114013671875, -0.18017578125, 
397, 4018840464, 0.863631546497345, 0.01494528353214264, -0.5033071637153625, -0.025088131427764893, 8.748092651367188, 0.5364823341369629, 4.775199890136719, 12.170137405395508, 22.240509033203125, 12.355097770690918, -0.937255859375, 0.114990234375, -0.1865234375, 
398, 4018848797, 0.8644492626190186, 0.015345707535743713, -0.5019544959068298, -0.023742467164993286, 8.755067825317383, 0.4386284649372101, 4.726469993591309, 13.2625093460083, 21.656890869140625, 13.422471046447754, -0.934814453125, 0.116943359375, -0.188720703125, 
399, 4018857130, 0.8652320504188538, 0.01565532386302948, -0.5006628632545471, -0.022256076335906982, 8.568743705749512, 0.42422109842300415, 4.790696144104004, 13.178032875061035, 20.68103790283203, 15.72598648071289, -0.936279296875, 0.117919921875, -0.1884765625, 
400, 4018865463, 0.8659862279891968, 0.01589718461036682, -0.49941307306289673, -0.020786792039871216, 8.413776397705078, 0.5218650102615356, 4.815703392028809, 12.27438735961914, 19.972187042236328, 15.986352920532227, -0.93505859375, 0.120361328125, -0.1923828125, 
401, 4018873796, 0.8666507005691528, 0.016033366322517395, -0.49830853939056396, -0.01945972442626953, 8.3475980758667, 0.6809870004653931, 4.759937286376953, 10.098814964294434, 17.554685592651367, 15.028429985046387, -0.9345703125, 0.121826171875, -0.1953125, 
402, 4018882129, 0.867164671421051, 0.016086161136627197, -0.4974594712257385, -0.01819327473640442, 8.353757858276367, 0.8187759518623352, 4.745261192321777, 8.794408798217773, 13.453178405761719, 14.889907836914062, -0.93115234375, 0.125732421875, -0.19873046875, 
403, 4018890462, 0.8675873279571533, 0.0160856693983078, -0.49676513671875, -0.016977697610855103, 8.345060348510742, 0.77829509973526, 4.887314319610596, 7.8664021492004395, 10.949793815612793, 14.662322998046875, -0.93408203125, 0.125244140625, -0.19921875, 
404, 4018898795, 0.8681689500808716, 0.016180187463760376, -0.4957849383354187, -0.015765368938446045, 8.40568733215332, 0.5945735573768616, 4.8842997550964355, 8.87775707244873, 15.477729797363281, 13.945408821105957, -0.933349609375, 0.127685546875, -0.20166015625, 
405, 4018907128, 0.8690215349197388, 0.016347482800483704, -0.4943201243877411, -0.01457226276397705, 8.545961380004883, 0.47685718536376953, 4.797850608825684, 9.450211524963379, 23.110830307006836, 13.173652648925781, -0.933349609375, 0.129638671875, -0.2080078125, 
406, 4018915461, 0.8699482679367065, 0.016676366329193115, -0.4927116632461548, -0.013327836990356445, 8.55960750579834, 0.4077337980270386, 4.657224655151367, 11.684417724609375, 25.385944366455078, 12.667978286743164, -0.929931640625, 0.130615234375, -0.20751953125, 
407, 4018923794, 0.8707336783409119, 0.017030924558639526, -0.4913454055786133, -0.0119551420211792, 8.336307525634766, 0.4202319085597992, 4.759227275848389, 12.936466217041016, 21.55497169494629, 14.061367988586426, -0.928955078125, 0.131103515625, -0.21435546875, 
408, 4018932127, 0.8712359666824341, 0.01728995144367218, -0.49047449231147766, -0.010680854320526123, 8.064706802368164, 0.5504624247550964, 4.992484092712402, 11.276658058166504, 13.683039665222168, 13.594388008117676, -0.927978515625, 0.1318359375, -0.21826171875, 
409, 4018940460, 0.8714996576309204, 0.017439454793930054, -0.49002426862716675, -0.009533494710922241, 8.179497718811035, 0.6115524768829346, 5.068882942199707, 9.22488021850586, 6.977614402770996, 12.88154411315918, -0.9267578125, 0.135986328125, -0.22021484375, 
410, 4018948793, 0.8717412948608398, 0.017775803804397583, -0.4896049201488495, -0.008270233869552612, 8.333982467651367, 0.4480924904346466, 5.132705211639404, 12.257118225097656, 6.520502090454102, 13.01284122467041, -0.9287109375, 0.136962890625, -0.21826171875, 
411, 4018957126, 0.8721283674240112, 0.018183067440986633, -0.48892173171043396, -0.006892889738082886, 8.347017288208008, 0.23137865960597992, 5.434213638305664, 13.808215141296387, 10.68770980834961, 13.857064247131348, -0.927734375, 0.138916015625, -0.21923828125, 
412, 4018965459, 0.8726788759231567, 0.01846092939376831, -0.48794567584991455, -0.00549083948135376, 8.350895881652832, 0.2728217840194702, 5.601626873016357, 12.354048728942871, 15.304323196411133, 14.96355152130127, -0.92578125, 0.141845703125, -0.22314453125, 
413, 4018973792, 0.8734996318817139, 0.018771052360534668, -0.48647722601890564, -0.004054993391036987, 8.316932678222656, 0.3716452121734619, 5.32073974609375, 12.86185073852539, 23.02558708190918, 15.050923347473145, -0.9248046875, 0.140380859375, -0.22314453125, 
414, 4018982125, 0.8745588064193726, 0.019279256463050842, -0.48456090688705444, -0.0025377273559570312, 8.451554298400879, 0.4021463990211487, 5.280076503753662, 15.908902168273926, 30.051742553710938, 14.727421760559082, -0.923828125, 0.142822265625, -0.228515625, 
415, 4018990458, 0.8756409883499146, 0.019919246435165405, -0.4825825095176697, -0.0009315907955169678, 8.215224266052246, 0.3709086775779724, 5.177649974822998, 17.86811637878418, 30.96164321899414, 14.77547550201416, -0.92236328125, 0.143798828125, -0.23486328125, 
416, 4018998791, 0.876561164855957, 0.020287707448005676, -0.48089417815208435, 0.0006119906902313232, 8.209794998168945, 0.5084425210952759, 5.300285816192627, 14.274199485778809, 26.384004592895508, 15.925576210021973, -0.920654296875, 0.148681640625, -0.23876953125, 
417, 4019007124, 0.8773190975189209, 0.020518794655799866, -0.47949662804603577, 0.0019812583923339844, 7.911240577697754, 0.5931561589241028, 5.122150897979736, 11.464567184448242, 21.74730682373047, 14.791013717651367, -0.919189453125, 0.14697265625, -0.2421875, 
418, 4019015457, 0.8780269622802734, 0.02045111358165741, -0.4781951904296875, 0.003193587064743042, 7.7690110206604, 0.6728900671005249, 5.32349157333374, 6.833100318908691, 20.23101806640625, 14.892341613769531, -0.917236328125, 0.150634765625, -0.24462890625, 
419, 4019023790, 0.8784070611000061, 0.02020898461341858, -0.4774998724460602, 0.0041224658489227295, 7.882010459899902, 0.8295004367828369, 5.332454204559326, 2.9342005252838135, 10.676078796386719, 12.806774139404297, -0.917724609375, 0.15087890625, -0.25, 
420, 4019032123, 0.8786342740058899, 0.020043060183525085, -0.47708195447921753, 0.004839807748794556, 7.955435276031494, 0.7671037316322327, 5.324517250061035, 2.4816741943359375, 6.267458438873291, 9.8284273147583, -0.916748046875, 0.153076171875, -0.2470703125, 
421, 4019040456, 0.878893256187439, 0.01981993019580841, -0.4766085743904114, 0.0053494274616241455, 8.06274700164795, 0.6793013215065002, 5.57122278213501, 0.43289342522621155, 7.083527565002441, 7.686000823974609, -0.9150390625, 0.154541015625, -0.25244140625, 
422, 4019048789, 0.8792089223861694, 0.0197141170501709, -0.4760243594646454, 0.005865246057510376, 8.030594825744629, 0.5435430407524109, 5.647956371307373, 1.7857093811035156, 8.792484283447266, 6.892368793487549, -0.91552734375, 0.154541015625, -0.25146484375, 
423, 4019057122, 0.8798215985298157, 0.019923537969589233, -0.47487592697143555, 0.006354212760925293, 8.01386833190918, 0.44622504711151123, 5.6387457847595215, 5.485328674316406, 17.519798278808594, 4.391293048858643, -0.9150390625, 0.154541015625, -0.251953125, 
424, 4019065455, 0.8804575204849243, 0.020212993025779724, -0.4736761152744293, 0.006890773773193359, 8.228885650634766, 0.4404415786266327, 5.715846061706543, 6.718014717102051, 18.30710220336914, 4.3991312980651855, -0.91259765625, 0.1552734375, -0.2578125, 
425, 4019073788, 0.8810743093490601, 0.02056214213371277, -0.4725056290626526, 0.007364124059677124, 8.021862983703613, 0.3659628629684448, 5.517117023468018, 7.074051856994629, 17.796865463256836, 3.28452730178833, -0.9130859375, 0.156494140625, -0.25634765625, 
426, 4019082121, 0.8818048238754272, 0.020794972777366638, -0.4711240828037262, 0.007772564888000488, 7.9607625007629395, 0.3711462616920471, 5.692881107330322, 5.246450901031494, 21.094369888305664, 3.191650629043579, -0.91357421875, 0.15576171875, -0.2626953125, 
427, 4019090454, 0.8823282122612, 0.020866259932518005, -0.47013336420059204, 0.008177369832992554, 7.850548267364502, 0.47147029638290405, 5.716390609741211, 3.268287181854248, 15.021431922912598, 4.318932056427002, -0.91015625, 0.15771484375, -0.265625, 
428, 4019098787, 0.8827457427978516, 0.020594969391822815, -0.4693550765514374, 0.008501917123794556, 7.9164323806762695, 0.6026499271392822, 5.697302341461182, -1.3248450756072998, 11.784150123596191, 5.683069229125977, -0.91015625, 0.1572265625, -0.26708984375, 
429, 4019107120, 0.8831511735916138, 0.020137444138526917, -0.4686065912246704, 0.008787870407104492, 7.839661121368408, 0.6531540155410767, 5.604890823364258, -3.9102437496185303, 11.346555709838867, 6.375524520874023, -0.90966796875, 0.15625, -0.26806640625, 
430, 4019115453, 0.8837332725524902, 0.019501373171806335, -0.46752995252609253, 0.009013712406158447, 7.833003520965576, 0.6414071321487427, 5.588651657104492, -6.470235347747803, 16.48103904724121, 6.689916133880615, -0.91015625, 0.1591796875, -0.26708984375, 
431, 4019123786, 0.8843609690666199, 0.01876203715801239, -0.4663679599761963, 0.009224385023117065, 7.894690990447998, 0.5371518135070801, 5.492127895355225, -7.829941272735596, 17.814180374145508, 7.135782241821289, -0.9072265625, 0.16015625, -0.27099609375, 
432, 4019132119, 0.8848808407783508, 0.01790599524974823, -0.4654110372066498, 0.009390681982040405, 7.987738609313965, 0.44570380449295044, 5.403619289398193, -9.516201972961426, 14.638371467590332, 7.422405242919922, -0.90771484375, 0.16015625, -0.27294921875, 
433, 4019140452, 0.8851773738861084, 0.01700618863105774, -0.46487802267074585, 0.009518295526504517, 8.026545524597168, 0.3884386420249939, 5.377406597137451, -10.310961723327637, 8.04127025604248, 7.354629993438721, -0.907958984375, 0.16357421875, -0.275390625, 
434, 4019148785, 0.8854504823684692, 0.016226977109909058, -0.4643842279911041, 0.009592652320861816, 7.98538064956665, 0.3101765811443329, 5.392463684082031, -9.099944114685059, 7.393253803253174, 6.005065441131592, -0.903564453125, 0.16357421875, -0.275390625, 
435, 4019157118, 0.8856436014175415, 0.01558750867843628, -0.4640357792377472, 0.009687423706054688, 8.066359519958496, 0.2590303421020508, 5.656026840209961, -7.352361679077148, 5.091124534606934, 5.347138404846191, -0.906494140625, 0.16650390625, -0.27880859375, 
436, 4019165451, 0.8857880234718323, 0.01496054232120514, -0.4637821912765503, 0.009617239236831665, 7.974035739898682, 0.20911189913749695, 5.693255424499512, -8.0077543258667, 3.599069595336914, 3.4563469886779785, -0.906494140625, 0.166015625, -0.2783203125, 
437, 4019173784, 0.8859531879425049, 0.014379724860191345, -0.4634888172149658, 0.009428203105926514, 7.879560947418213, 0.2267652302980423, 5.650060653686523, -8.450470924377441, 4.174800395965576, 1.5309245586395264, -0.905029296875, 0.167724609375, -0.2763671875, 
438, 4019182117, 0.8860489130020142, 0.013931825757026672, -0.4633252024650574, 0.009137570858001709, 7.8074798583984375, 0.2875252366065979, 5.533883571624756, -7.462349891662598, 2.1192069053649902, -0.5030124187469482, -0.904052734375, 0.168701171875, -0.27783203125, 
439, 4019190450, 0.886013388633728, 0.013617098331451416, -0.4634103775024414, 0.008733361959457397, 7.768404483795166, 0.3539761006832123, 5.413464069366455, -6.588212490081787, -1.7923818826675415, -2.6867027282714844, -0.904052734375, 0.16650390625, -0.2783203125, 
440, 4019198783, 0.8858901262283325, 0.013390958309173584, -0.4636620283126831, 0.008199989795684814, 7.827224254608154, 0.3712150454521179, 5.408940315246582, -6.21006965637207, -4.406621932983398, -4.695960521697998, -0.904052734375, 0.1669921875, -0.27783203125, 
441, 4019207116, 0.885739266872406, 0.013110905885696411, -0.46396875381469727, 0.007574915885925293, 7.90972900390625, 0.4210762083530426, 5.510739326477051, -7.5793046951293945, -5.271871089935303, -5.543100357055664, -0.904541015625, 0.167724609375, -0.27587890625, 
442, 4019215449, 0.8855721354484558, 0.01282547414302826, -0.46430590748786926, 0.006924480199813843, 7.97647762298584, 0.4476051926612854, 5.633459091186523, -7.757066249847412, -5.7438645362854, -5.773731231689453, -0.905517578125, 0.16552734375, -0.27490234375, 
443, 4019223782, 0.885453462600708, 0.012461945414543152, -0.46455127000808716, 0.006274402141571045, 8.070106506347656, 0.45896825194358826, 5.741235733032227, -8.754664421081543, -4.316511154174805, -5.328939914703369, -0.904052734375, 0.166259765625, -0.27490234375, 
444, 4019232115, 0.8853699564933777, 0.01205471158027649, -0.4647294878959656, 0.005626201629638672, 8.174057960510254, 0.4718289077281952, 5.787991523742676, -9.120871543884277, -3.2608721256256104, -4.932662010192871, -0.905517578125, 0.1640625, -0.27783203125, 
445, 4019240448, 0.885301411151886, 0.01166360080242157, -0.46487757563591003, 0.004991710186004639, 8.179352760314941, 0.4621068835258484, 5.826887130737305, -8.99146842956543, -2.806065320968628, -4.984633445739746, -0.905029296875, 0.165283203125, -0.27392578125, 
446, 4019248781, 0.8852372169494629, 0.01132155954837799, -0.4650142192840576, 0.00436827540397644, 8.23849868774414, 0.39845040440559387, 5.87686014175415, -8.48548412322998, -2.638317584991455, -5.27133321762085, -0.906982421875, 0.1640625, -0.27392578125, 
447, 4019257114, 0.8852058053016663, 0.010971888899803162, -0.4650879502296448, 0.003723651170730591, 8.27204418182373, 0.27147233486175537, 5.871739864349365, -8.552465438842773, -1.6685881614685059, -5.385111331939697, -0.905517578125, 0.163818359375, -0.271484375, 
