sep=,
PacketCounter,SampleTimeFine,Quat_W,Quat_X,Quat_Y,Quat_Z,Acc_X,Acc_Y,Acc_Z,Gyr_X,Gyr_Y,Gyr_Z,Mag_X,Mag_Y,Mag_Z,
0, 3128626074, 0.8413417339324951, -0.03835462033748627, -0.493248850107193, -0.21772632002830505, 0, 0, 0, 0, 0, 0, -0.936767578125, -0.118408203125, -0.2041015625, 
1, 3128634407, 0.8412823677062988, -0.03834331035614014, -0.4933446943759918, -0.21774107217788696, 8.454625129699707, 1.451700210571289, 5.1472039222717285, 0.26649048924446106, -1.9516894817352295, -0.21296954154968262, -0.941162109375, -0.118896484375, -0.199462890625, 
2, 3128642740, 0.8412802219390869, -0.038298413157463074, -0.49336564540863037, -0.2177097499370575, 8.401021003723145, 1.4502675533294678, 5.131120681762695, 0.6609881520271301, -0.6489366292953491, 0.25320953130722046, -0.938232421875, -0.117431640625, -0.203857421875, 
3, 3128651073, 0.8413047790527344, -0.03823500871658325, -0.4933534264564514, -0.217654287815094, 8.415061950683594, 1.4553173780441284, 5.099075794219971, 0.9845215082168579, -0.027048632502555847, 0.5069953203201294, -0.940185546875, -0.119140625, -0.204345703125, 
4, 3128659406, 0.8413373231887817, -0.03822337090969086, -0.49331358075141907, -0.21762049198150635, 8.370685577392578, 1.4652456045150757, 5.0721025466918945, 0.12748204171657562, 0.19026252627372742, 0.6426099538803101, -0.939208984375, -0.117431640625, -0.200927734375, 
5, 3128667739, 0.8413640260696411, -0.03822226822376251, -0.4932807683944702, -0.21759244799613953, 8.336252212524414, 1.4748876094818115, 5.033212184906006, 0.008734453469514847, 0.05046003684401512, 0.6257813572883606, -0.938720703125, -0.117919921875, -0.202392578125, 
6, 3128676072, 0.8413955569267273, -0.03819510340690613, -0.4932519197463989, -0.21754035353660583, 8.319499015808105, 1.4727988243103027, 5.024343490600586, 0.46488556265830994, 0.09294124692678452, 0.7389834523200989, -0.938720703125, -0.11962890625, -0.205078125, 
7, 3128684405, 0.8414270877838135, -0.03812992572784424, -0.49324482679367065, -0.21744617819786072, 8.301482200622559, 1.4565620422363281, 4.977491855621338, 1.0269770622253418, -0.0996265709400177, 0.8072326183319092, -0.938720703125, -0.11767578125, -0.203857421875, 
8, 3128692738, 0.8414355516433716, -0.03808790445327759, -0.49326762557029724, -0.21736913919448853, 8.271039962768555, 1.4261126518249512, 4.980238437652588, 0.9491354823112488, -0.6304047107696533, 0.8302341103553772, -0.937744140625, -0.118408203125, -0.20263671875, 
9, 3128701071, 0.8414133787155151, -0.03808112442493439, -0.4933321475982666, -0.21730926632881165, 8.25891399383545, 1.391649842262268, 4.974614143371582, 0.5364261269569397, -1.4097306728363037, 0.7486656308174133, -0.937744140625, -0.118408203125, -0.201171875, 
10, 3128709404, 0.8413686752319336, -0.03808280825614929, -0.49343082308769226, -0.21725791692733765, 8.284852981567383, 1.4182699918746948, 4.976003646850586, 0.4695729613304138, -1.9857178926467896, 0.6315573453903198, -0.938232421875, -0.1181640625, -0.2060546875, 
11, 3128717737, 0.841309666633606, -0.03808118402957916, -0.49355292320251465, -0.21720948815345764, 8.294379234313965, 1.4435598850250244, 4.967747688293457, 0.7190043926239014, -2.3043336868286133, 0.6101438999176025, -0.9375, -0.116455078125, -0.202392578125, 
12, 3128726070, 0.8412522077560425, -0.038050487637519836, -0.4936797022819519, -0.21714958548545837, 8.299398422241211, 1.4555777311325073, 4.995619297027588, 0.9770805835723877, -2.3067538738250732, 0.45987796783447266, -0.937255859375, -0.117919921875, -0.203125, 
13, 3128734403, 0.8411896824836731, -0.03800800442695618, -0.4938065707683563, -0.21711093187332153, 8.326702117919922, 1.4897871017456055, 5.006562232971191, 1.090000867843628, -2.2657840251922607, 0.1758032888174057, -0.940185546875, -0.117919921875, -0.199462890625, 
14, 3128742736, 0.841136634349823, -0.037956759333610535, -0.4939134418964386, -0.21708235144615173, 8.341764450073242, 1.5055992603302002, 4.987638473510742, 0.9459465146064758, -1.9668656587600708, -0.01877523399889469, -0.9384765625, -0.116455078125, -0.201904296875, 
15, 3128751069, 0.8410897254943848, -0.03789098560810089, -0.4940090477466583, -0.21705803275108337, 8.36963176727295, 1.503661870956421, 4.991785526275635, 1.0740176439285278, -1.7387710809707642, -0.1453607678413391, -0.937744140625, -0.1201171875, -0.20166015625, 
16, 3128759402, 0.8410506248474121, -0.037844493985176086, -0.49408653378486633, -0.21704113483428955, 8.372800827026367, 1.4984744787216187, 4.996157646179199, 0.730351448059082, -1.5407730340957642, -0.06516261398792267, -0.937744140625, -0.119873046875, -0.201171875, 
17, 3128767735, 0.8410184979438782, -0.03781653940677643, -0.4941498637199402, -0.21702653169631958, 8.387187957763672, 1.481039047241211, 5.027697563171387, 0.36714160442352295, -1.3942595720291138, -0.0085551543161273, -0.939697265625, -0.1181640625, -0.201904296875, 
18, 3128776068, 0.8409821391105652, -0.037806302309036255, -0.4942130446434021, -0.21702533960342407, 8.401922225952148, 1.4481788873672485, 5.0206804275512695, 0.16432812809944153, -1.4563229084014893, 0.01387010794132948, -0.940673828125, -0.118408203125, -0.199462890625, 
19, 3128784401, 0.8409579992294312, -0.03781643509864807, -0.4942484200000763, -0.21703648567199707, 8.408660888671875, 1.47633957862854, 5.017461776733398, -0.22444474697113037, -1.0977877378463745, 0.05363621190190315, -0.9375, -0.115966796875, -0.200439453125, 
20, 3128792734, 0.8409651517868042, -0.037803441286087036, -0.49424582719802856, -0.21701696515083313, 8.391107559204102, 1.486590027809143, 4.991353988647461, 0.14694885909557343, -0.4014134407043457, 0.3716881573200226, -0.940673828125, -0.12060546875, -0.198974609375, 
21, 3128801067, 0.8409917950630188, -0.03778877854347229, -0.4942103326320648, -0.2169966995716095, 8.404897689819336, 1.513834834098816, 4.958901405334473, 0.17032183706760406, 0.1389700323343277, 0.4847621023654938, -0.939697265625, -0.12109375, -0.201171875, 
22, 3128809400, 0.8410207629203796, -0.037760570645332336, -0.494184672832489, -0.21694782376289368, 8.340415000915527, 1.5198217630386353, 4.910712718963623, 0.4628620147705078, 0.04394121840596199, 0.6847068667411804, -0.939697265625, -0.120849609375, -0.1982421875, 
23, 3128817733, 0.8410422801971436, -0.03778211772441864, -0.4941347539424896, -0.21697425842285156, 8.254058837890625, 1.5677958726882935, 5.013828277587891, -0.7912748456001282, 0.15505576133728027, 0.07232178747653961, -0.939208984375, -0.117431640625, -0.199951171875, 
24, 3128826066, 0.8410535454750061, -0.03781725466251373, -0.49410301446914673, -0.21699684858322144, 8.274394035339355, 1.4931917190551758, 5.042689800262451, -0.7821306586265564, -0.15901316702365875, 0.2399669587612152, -0.939208984375, -0.117919921875, -0.200439453125, 
25, 3128834399, 0.8410956859588623, -0.03776794672012329, -0.4940529465675354, -0.21695581078529358, 8.330880165100098, 1.4183586835861206, 4.851837635040283, 0.5480678677558899, 0.48147082328796387, 0.4668194651603699, -0.939697265625, -0.117919921875, -0.201904296875, 
26, 3128842732, 0.8410874605178833, -0.03782595694065094, -0.4940536618232727, -0.21697556972503662, 8.346116065979004, 1.4477711915969849, 4.839978218078613, -0.9399142861366272, -0.7354102730751038, 0.35184988379478455, -0.940673828125, -0.1201171875, -0.203857421875, 
27, 3128851065, 0.8410002589225769, -0.038017868995666504, -0.49416598677635193, -0.21702486276626587, 8.321695327758789, 1.4252023696899414, 4.967597961425781, -2.466496706008911, -2.952910900115967, 0.5707746744155884, -0.938232421875, -0.118408203125, -0.2021484375, 
28, 3128859398, 0.8409764170646667, -0.03810659050941467, -0.494200199842453, -0.21702364087104797, 8.396512985229492, 1.3660176992416382, 5.003721714019775, -1.0600961446762085, -1.3316839933395386, 0.7390346527099609, -0.93896484375, -0.116455078125, -0.198974609375, 
29, 3128867731, 0.8410199284553528, -0.03806832432746887, -0.49415475130081177, -0.21696561574935913, 8.429783821105957, 1.349841594696045, 4.922035217285156, 0.6553785800933838, 0.4143742620944977, 0.8026604652404785, -0.939697265625, -0.117919921875, -0.199462890625, 
30, 3128876064, 0.8410245180130005, -0.038058772683143616, -0.4941868484020233, -0.21687617897987366, 8.356501579284668, 1.394976019859314, 4.917272090911865, 0.6840152740478516, -0.8669392466545105, 1.1786260604858398, -0.937255859375, -0.118896484375, -0.20166015625, 
31, 3128884397, 0.8409654498100281, -0.03816142678260803, -0.4942961633205414, -0.2168373465538025, 8.314071655273438, 1.4121290445327759, 4.985545635223389, -0.5466334223747253, -2.4560210704803467, 1.2406127452850342, -0.938720703125, -0.117431640625, -0.201904296875, 
32, 3128892730, 0.8409127593040466, -0.03827647864818573, -0.4943888187408447, -0.21681076288223267, 8.364404678344727, 1.4572834968566895, 5.025226593017578, -1.0342003107070923, -2.295393943786621, 1.0952261686325073, -0.939208984375, -0.118896484375, -0.200927734375, 
33, 3128901063, 0.8408937454223633, -0.03831698000431061, -0.494428426027298, -0.2167864739894867, 8.392781257629395, 1.49590265750885, 5.065450191497803, -0.3265046179294586, -1.2232588529586792, 0.6769201755523682, -0.93896484375, -0.116455078125, -0.201904296875, 
34, 3128909396, 0.8408958315849304, -0.03829784691333771, -0.4944383502006531, -0.2167591154575348, 8.359105110168457, 1.5203009843826294, 5.0276689529418945, 0.30482217669487, -0.5668686032295227, 0.3996204733848572, -0.937744140625, -0.117919921875, -0.2001953125, 
35, 3128917729, 0.8409014940261841, -0.03826732933521271, -0.49444228410720825, -0.21673333644866943, 8.363426208496094, 1.499457597732544, 5.006002902984619, 0.20413263142108917, -0.46751096844673157, 0.17923559248447418, -0.936767578125, -0.118408203125, -0.20263671875, 
36, 3128926062, 0.8409028053283691, -0.03824251890182495, -0.4944304823875427, -0.21675962209701538, 8.3380765914917, 1.479672908782959, 4.9649529457092285, -0.05801623314619064, -0.2755067050457001, -0.24994367361068726, -0.938720703125, -0.117919921875, -0.198974609375, 
37, 3128934395, 0.8409026861190796, -0.038223594427108765, -0.49441438913345337, -0.2168000042438507, 8.345086097717285, 1.4807887077331543, 4.985888957977295, -0.26239219307899475, -0.24292539060115814, -0.40588313341140747, -0.937744140625, -0.117919921875, -0.20263671875, 
38, 3128942728, 0.8408952951431274, -0.03821690380573273, -0.49440857768058777, -0.21684345602989197, 8.36736011505127, 1.4465909004211426, 5.019629001617432, -0.37373727560043335, -0.45122039318084717, -0.3549620509147644, -0.939697265625, -0.1181640625, -0.202392578125, 
39, 3128951061, 0.8408922553062439, -0.03822547197341919, -0.4943968951702118, -0.21688014268875122, 8.35876178741455, 1.4472275972366333, 5.028777599334717, -0.5379757285118103, -0.39737921953201294, -0.18419195711612701, -0.939453125, -0.115478515625, -0.200439453125, 
40, 3128959394, 0.8409043550491333, -0.0382431298494339, -0.4943692684173584, -0.21689295768737793, 8.380056381225586, 1.3907772302627563, 5.018497943878174, -0.5007198452949524, -0.15218697488307953, 0.2344982922077179, -0.939697265625, -0.118408203125, -0.201416015625, 
41, 3128967727, 0.8409271240234375, -0.03826919198036194, -0.4943338930606842, -0.21688076853752136, 8.381708145141602, 1.3889962434768677, 4.98500919342041, -0.4178706109523773, -0.019236288964748383, 0.6170852780342102, -0.936767578125, -0.117919921875, -0.2001953125, 
42, 3128976060, 0.8409500122070312, -0.0382964164018631, -0.4942971169948578, -0.21687158942222595, 8.352646827697754, 1.4007840156555176, 4.988950252532959, -0.48262345790863037, -0.013678002171218395, 0.5909333229064941, -0.937255859375, -0.119384765625, -0.20068359375, 
43, 3128984393, 0.840968132019043, -0.03831949830055237, -0.49427929520606995, -0.2168375551700592, 8.358332633972168, 1.445296287536621, 4.983829021453857, -0.23040002584457397, -0.26323750615119934, 0.8018407821655273, -0.938720703125, -0.11962890625, -0.20166015625, 
44, 3128992726, 0.840989351272583, -0.038314104080200195, -0.4942575693130493, -0.21680551767349243, 8.333383560180664, 1.4499456882476807, 4.979530334472656, 0.09301809966564178, -0.11398335546255112, 0.6207481622695923, -0.939697265625, -0.1201171875, -0.20263671875, 
45, 3129001059, 0.8410087823867798, -0.03829255700111389, -0.49423301219940186, -0.2167896330356598, 8.326216697692871, 1.4422920942306519, 5.003957271575928, 0.27623674273490906, -0.01055306475609541, 0.3752613365650177, -0.939453125, -0.116943359375, -0.201416015625, 
46, 3129009392, 0.8410235047340393, -0.03827160596847534, -0.49421268701553345, -0.21678248047828674, 8.307483673095703, 1.4488941431045532, 4.965682506561279, 0.10473661124706268, -0.11494388431310654, 0.20529809594154358, -0.93798828125, -0.116455078125, -0.199951171875, 
47, 3129017725, 0.8410297632217407, -0.03825245797634125, -0.4942072927951813, -0.21677443385124207, 8.322489738464355, 1.4392807483673096, 4.956669807434082, 0.10819453001022339, -0.34852004051208496, 0.16838796436786652, -0.93798828125, -0.116455078125, -0.199462890625, 
48, 3129026058, 0.8410232663154602, -0.038219988346099854, -0.4942187964916229, -0.21677899360656738, 8.325481414794922, 1.4529858827590942, 4.9740447998046875, 0.2417343258857727, -0.5870270133018494, -0.08588451892137527, -0.9375, -0.115966796875, -0.200927734375, 
49, 3129034391, 0.8410108089447021, -0.03817586600780487, -0.4942384362220764, -0.21679005026817322, 8.349363327026367, 1.4390590190887451, 4.980932235717773, 0.37216201424598694, -0.6734750866889954, -0.2668747007846832, -0.937744140625, -0.117431640625, -0.20166015625, 
50, 3129042724, 0.8409892916679382, -0.03813941776752472, -0.4942642152309418, -0.2168213129043579, 8.37291145324707, 1.4692797660827637, 4.978164196014404, 0.14214618504047394, -0.8284412026405334, -0.4745805561542511, -0.939208984375, -0.117919921875, -0.199951171875, 
51, 3129051057, 0.8409639596939087, -0.03811648488044739, -0.4942963421344757, -0.2168503999710083, 8.409541130065918, 1.4812390804290771, 4.981869697570801, -0.10455730557441711, -0.9827669262886047, -0.46008288860321045, -0.939208984375, -0.119384765625, -0.200439453125, 
52, 3129059390, 0.8409533500671387, -0.038099855184555054, -0.49431174993515015, -0.21685928106307983, 8.413338661193848, 1.4711037874221802, 4.984501361846924, 0.03945872560143471, -0.7053903937339783, -0.043672267347574234, -0.9365234375, -0.116455078125, -0.19775390625, 
53, 3129067723, 0.8409621715545654, -0.03809760510921478, -0.4943034052848816, -0.21684440970420837, 8.413660049438477, 1.4600812196731567, 5.017111301422119, -0.08150449395179749, -0.35629400610923767, 0.3503642976284027, -0.939208984375, -0.11962890625, -0.20166015625, 
54, 3129076056, 0.8409842252731323, -0.03812386095523834, -0.4942712187767029, -0.21682772040367126, 8.378941535949707, 1.435232400894165, 5.00802755355835, -0.40713822841644287, -0.07364092022180557, 0.6659572720527649, -0.937744140625, -0.118408203125, -0.19873046875, 
55, 3129084389, 0.8410125374794006, -0.03816375136375427, -0.4942261278629303, -0.21681368350982666, 8.365479469299316, 1.4702095985412598, 4.995080471038818, -0.5630776286125183, 0.09496477246284485, 0.7747921347618103, -0.941650390625, -0.11865234375, -0.200439453125, 
56, 3129092722, 0.8410470485687256, -0.038153067231178284, -0.49418193101882935, -0.21678224205970764, 8.317238807678223, 1.4644157886505127, 4.969645023345947, 0.09109701961278915, 0.25185197591781616, 0.6273565888404846, -0.938232421875, -0.118896484375, -0.2001953125, 
57, 3129101055, 0.8410789966583252, -0.03811188042163849, -0.49414628744125366, -0.21674638986587524, 8.30691146850586, 1.4702024459838867, 4.947278022766113, 0.6847324967384338, 0.2646847069263458, 0.5585055351257324, -0.939453125, -0.117431640625, -0.200927734375, 
58, 3129109388, 0.8411051630973816, -0.03808191418647766, -0.49411383271217346, -0.2167244553565979, 8.318434715270996, 1.4552315473556519, 4.928187370300293, 0.28062957525253296, 0.12194937467575073, 0.357036828994751, -0.940185546875, -0.1181640625, -0.201416015625, 
59, 3129117721, 0.8411047458648682, -0.03809314966201782, -0.49411696195602417, -0.21671652793884277, 8.328691482543945, 1.4781206846237183, 4.942814826965332, -0.1632394939661026, -0.5731953382492065, 0.3840982913970947, -0.941162109375, -0.1201171875, -0.202392578125, 
60, 3129126054, 0.841084361076355, -0.038116514682769775, -0.494151771068573, -0.21671247482299805, 8.328470230102539, 1.475416898727417, 4.971189975738525, -0.2829732596874237, -1.121890664100647, 0.3388251066207886, -0.939208984375, -0.117919921875, -0.202392578125, 
61, 3129134387, 0.8410785794258118, -0.03812679648399353, -0.494162917137146, -0.21670764684677124, 8.342353820800781, 1.4584074020385742, 4.981947898864746, -0.2162225842475891, -0.7079646587371826, 0.28385692834854126, -0.93994140625, -0.116455078125, -0.201416015625, 
62, 3129142720, 0.8410826325416565, -0.038103654980659485, -0.4941609501838684, -0.21670016646385193, 8.350057601928711, 1.5202795267105103, 4.954581260681152, 0.18294966220855713, -0.3934858739376068, 0.15474839508533478, -0.937255859375, -0.118408203125, -0.20166015625, 
63, 3129151053, 0.8410943746566772, -0.03806328773498535, -0.4941510558128357, -0.21668460965156555, 8.359748840332031, 1.510272741317749, 4.9607253074646, 0.40494829416275024, -0.1981005072593689, 0.13607563078403473, -0.938232421875, -0.11962890625, -0.20166015625, 
64, 3129159386, 0.8411104679107666, -0.03800128400325775, -0.49413830041885376, -0.21666169166564941, 8.33621597290039, 1.4936637878417969, 4.968750953674316, 0.7114737629890442, -0.0783795565366745, 0.10938560217618942, -0.937744140625, -0.119873046875, -0.2001953125, 
65, 3129167719, 0.8411259055137634, -0.03793773055076599, -0.4941261410713196, -0.2166404128074646, 8.328413009643555, 1.4383080005645752, 4.969316005706787, 0.8235616087913513, -0.05909202992916107, 0.1291341483592987, -0.937255859375, -0.118408203125, -0.19970703125, 
66, 3129176052, 0.8411441445350647, -0.03790038824081421, -0.4941127300262451, -0.21660679578781128, 8.313199043273926, 1.4430574178695679, 4.947192192077637, 0.4966471791267395, -0.13701054453849792, 0.4086110591888428, -0.9375, -0.116455078125, -0.202392578125, 
67, 3129184385, 0.8411537408828735, -0.03793016076087952, -0.4941074252128601, -0.21657657623291016, 8.346087455749512, 1.40668523311615, 4.965539455413818, -0.31031644344329834, -0.48349425196647644, 0.7637267708778381, -0.940673828125, -0.11767578125, -0.202392578125, 
68, 3129192718, 0.8411630988121033, -0.038016244769096375, -0.49410003423690796, -0.21654167771339417, 8.33443546295166, 1.3754559755325317, 4.97141170501709, -0.9080629944801331, -0.6337857246398926, 1.2331204414367676, -0.938232421875, -0.117919921875, -0.20068359375, 
69, 3129201051, 0.841174304485321, -0.03811207413673401, -0.4940967261791229, -0.2164892554283142, 8.322404861450195, 1.372848629951477, 5.005985260009766, -0.8308233022689819, -0.6897913217544556, 1.5249049663543701, -0.940673828125, -0.1181640625, -0.201904296875, 
70, 3129209384, 0.8411827683448792, -0.03820456564426422, -0.49410468339920044, -0.2164217233657837, 8.31940746307373, 1.373246669769287, 5.014092922210693, -0.715789794921875, -0.8541322350502014, 1.6429866552352905, -0.941650390625, -0.1181640625, -0.200439453125, 
71, 3129217717, 0.8411887884140015, -0.03827159106731415, -0.49412256479263306, -0.21634560823440552, 8.361952781677246, 1.4082759618759155, 5.008286476135254, -0.32499340176582336, -0.9042593240737915, 1.5468308925628662, -0.938720703125, -0.117919921875, -0.200439453125, 
72, 3129226050, 0.8411861658096313, -0.0383279025554657, -0.4941597580909729, -0.2162608802318573, 8.389740943908691, 1.395627737045288, 5.019637584686279, -0.10031814128160477, -1.168892741203308, 1.5475095510482788, -0.939208984375, -0.117919921875, -0.199951171875, 
73, 3129234383, 0.8411758542060852, -0.03838391602039337, -0.49420687556266785, -0.2161831259727478, 8.35926628112793, 1.4272148609161377, 5.0638909339904785, -0.09937041997909546, -1.3204009532928467, 1.4329371452331543, -0.939697265625, -0.118896484375, -0.200439453125, 
74, 3129242716, 0.8411813974380493, -0.03839974105358124, -0.49422627687454224, -0.21611446142196655, 8.373053550720215, 1.4479857683181763, 5.079905986785889, 0.2118041068315506, -0.7795308828353882, 1.1202130317687988, -0.936279296875, -0.117431640625, -0.20166015625, 
75, 3129251049, 0.8412142992019653, -0.03835560381412506, -0.4942145347595215, -0.2160208821296692, 8.347432136535645, 1.4774127006530762, 5.058697700500488, 0.9319868087768555, -0.07141248881816864, 1.0450992584228516, -0.940185546875, -0.117919921875, -0.200927734375, 
76, 3129259382, 0.8412467241287231, -0.03829258680343628, -0.4941975176334381, -0.21594524383544922, 8.313156127929688, 1.4717117547988892, 5.028799057006836, 1.0769120454788208, 0.054263755679130554, 0.7642391324043274, -0.939208984375, -0.117919921875, -0.201904296875, 
77, 3129267715, 0.8412715196609497, -0.03822512924671173, -0.4941861629486084, -0.21588554978370667, 8.288679122924805, 1.442635416984558, 5.022948265075684, 1.0811256170272827, -0.024218259379267693, 0.538872241973877, -0.938232421875, -0.117431640625, -0.197998046875, 
78, 3129276048, 0.8412926197052002, -0.038122981786727905, -0.49419230222702026, -0.21580776572227478, 8.309797286987305, 1.4380593299865723, 5.011176586151123, 1.6087918281555176, -0.17417679727077484, 0.478358656167984, -0.9384765625, -0.116455078125, -0.201904296875, 
79, 3129284381, 0.8413122892379761, -0.03800500929355621, -0.4942083954811096, -0.21571490168571472, 8.345677375793457, 1.451910138130188, 4.965381145477295, 1.9162651300430298, -0.2540164291858673, 0.5153712630271912, -0.9384765625, -0.116455078125, -0.202392578125, 
80, 3129292714, 0.8413147926330566, -0.03790748119354248, -0.49425315856933594, -0.2156197726726532, 8.347868919372559, 1.4989023208618164, 4.987616539001465, 1.7750279903411865, -0.7696564793586731, 0.6334015727043152, -0.937255859375, -0.117919921875, -0.20166015625, 
81, 3129301047, 0.8413050174713135, -0.03786246478557587, -0.4943058490753174, -0.2155454158782959, 8.346399307250977, 1.4948444366455078, 5.022927284240723, 1.1406786441802979, -1.067793369293213, 0.7554662823677063, -0.9384765625, -0.115966796875, -0.202392578125, 
82, 3129309380, 0.841303288936615, -0.037836745381355286, -0.49433955550193787, -0.21547862887382507, 8.354484558105469, 1.5082767009735107, 5.02108097076416, 0.719260573387146, -0.8681944608688354, 0.786369800567627, -0.93798828125, -0.115478515625, -0.199462890625, 
83, 3129317713, 0.8413124680519104, -0.0378170907497406, -0.4943479895591736, -0.21542680263519287, 8.377796173095703, 1.493528127670288, 5.034264087677002, 0.5026152729988098, -0.5013217329978943, 0.7036358118057251, -0.938232421875, -0.117919921875, -0.20068359375, 
84, 3129326046, 0.8413262367248535, -0.037791937589645386, -0.4943424463272095, -0.21539020538330078, 8.366673469543457, 1.5248713493347168, 5.007956027984619, 0.39716148376464844, -0.29612618684768677, 0.5072002410888672, -0.939453125, -0.116943359375, -0.199951171875, 
85, 3129334379, 0.8413456678390503, -0.03777661919593811, -0.4943113327026367, -0.21538811922073364, 8.33513069152832, 1.5050870180130005, 4.9683146476745605, 0.06527787446975708, 0.05090828984975815, 0.24460314214229584, -0.939697265625, -0.117919921875, -0.201416015625, 
86, 3129342712, 0.841369092464447, -0.03778897225856781, -0.49426397681236267, -0.21540328860282898, 8.310659408569336, 1.4953299760818481, 4.992047309875488, -0.5057018399238586, 0.16924606263637543, 0.2135843187570572, -0.93994140625, -0.116943359375, -0.200927734375, 
87, 3129351045, 0.8413830995559692, -0.03782883286476135, -0.49422210454940796, -0.21543768048286438, 8.31717586517334, 1.464544415473938, 4.976747035980225, -0.9549242854118347, -0.023539481684565544, 0.12939029932022095, -0.93798828125, -0.115966796875, -0.202392578125, 
88, 3129359378, 0.8413783311843872, -0.037850990891456604, -0.49421557784080505, -0.21546778082847595, 8.29601764678955, 1.4589940309524536, 4.969974040985107, -0.6164065599441528, -0.5166646838188171, 0.0017289607785642147, -0.93798828125, -0.116943359375, -0.200927734375, 
89, 3129367711, 0.8413467407226562, -0.03787259757518768, -0.4942600727081299, -0.21548506617546082, 8.301575660705566, 1.4703454971313477, 4.970789432525635, -0.5431241989135742, -1.3138821125030518, -0.06636647880077362, -0.93798828125, -0.116943359375, -0.203369140625, 
90, 3129376044, 0.8412949442863464, -0.03786207735538483, -0.4943414032459259, -0.21550223231315613, 8.301605224609375, 1.4416040182113647, 4.965423583984375, 0.08510328829288483, -1.7610810995101929, -0.25486162304878235, -0.937255859375, -0.117431640625, -0.19970703125, 
91, 3129384377, 0.8412371873855591, -0.03781062364578247, -0.49444809556007385, -0.21549201011657715, 8.33825397491455, 1.4137367010116577, 4.958454608917236, 0.6290983557701111, -2.015430450439453, -0.37501803040504456, -0.937255859375, -0.116943359375, -0.2001953125, 
92, 3129392710, 0.8411640524864197, -0.03774444758892059, -0.49457645416259766, -0.21549436450004578, 8.374874114990234, 1.4009979963302612, 4.990618705749512, 0.9581902027130127, -2.292909622192383, -0.5475555062294006, -0.938720703125, -0.118896484375, -0.201171875, 
93, 3129401043, 0.8410878777503967, -0.03770457208156586, -0.49470633268356323, -0.2155010998249054, 8.364927291870117, 1.4055417776107788, 5.052203178405762, 0.6206969618797302, -2.400796890258789, -0.44789057970046997, -0.938720703125, -0.117431640625, -0.200927734375, 
94, 3129409376, 0.841019332408905, -0.037703633308410645, -0.4948176443576813, -0.21551313996315002, 8.339583396911621, 1.4557850360870361, 5.076747894287109, 0.09014929085969925, -2.2539756298065186, -0.19584643840789795, -0.9375, -0.115478515625, -0.197998046875, 
95, 3129417709, 0.8409956693649292, -0.03767964243888855, -0.4948619604110718, -0.21550750732421875, 8.367538452148438, 1.4961029291152954, 4.999536991119385, 0.2919894754886627, -1.1090707778930664, 0.0010117621859535575, -0.937255859375, -0.116943359375, -0.2001953125, 
96, 3129426042, 0.8409892320632935, -0.03765459358692169, -0.49487078189849854, -0.21551662683486938, 8.393983840942383, 1.4400746822357178, 4.929096221923828, 0.11779987066984177, -0.5755646228790283, -0.08751104027032852, -0.937255859375, -0.118408203125, -0.1982421875, 
97, 3129434375, 0.8409541845321655, -0.03769083321094513, -0.4949378967285156, -0.2154930830001831, 8.40792465209961, 1.334952712059021, 4.94868278503418, -0.12887801229953766, -1.6214450597763062, 0.6279841661453247, -0.940673828125, -0.117919921875, -0.199462890625, 
98, 3129442708, 0.8409292697906494, -0.03773176670074463, -0.4950028359889984, -0.2154342234134674, 8.428131103515625, 1.3840163946151733, 4.8853302001953125, -0.025895994156599045, -1.5825244188308716, 1.0636439323425293, -0.9375, -0.115478515625, -0.197998046875, 
99, 3129451041, 0.8409184217453003, -0.03776611387729645, -0.495033860206604, -0.21539920568466187, 8.399633407592773, 1.4388515949249268, 4.917436599731445, -0.3094455897808075, -1.0719813108444214, 0.7284047603607178, -0.938232421875, -0.117919921875, -0.19970703125, 
100, 3129459374, 0.8409134149551392, -0.037746697664260864, -0.49504944682121277, -0.21538659930229187, 8.378761291503906, 1.4361478090286255, 4.888503074645996, 0.22181929647922516, -0.6727963089942932, 0.20163525640964508, -0.940673828125, -0.117919921875, -0.198974609375, 
101, 3129467707, 0.8409075736999512, -0.03759388625621796, -0.49509793519973755, -0.2153247594833374, 8.36316204071045, 1.4089232683181763, 4.7302703857421875, 2.001227617263794, -0.7159691452980042, -0.28772470355033875, -0.936279296875, -0.119384765625, -0.2001953125, 
102, 3129476040, 0.8408269286155701, -0.03753639757633209, -0.4952368140220642, -0.21533039212226868, 8.342804908752441, 1.4479022026062012, 4.800502777099609, 0.8632894158363342, -2.490497589111328, -0.5551629066467285, -0.938232421875, -0.117919921875, -0.2001953125, 
103, 3129484373, 0.8406744003295898, -0.037809401750564575, -0.4954048991203308, -0.21549120545387268, 8.313920974731445, 1.466992974281311, 5.009059906005859, -3.8668019771575928, -4.191514015197754, -0.28062954545021057, -0.939453125, -0.116943359375, -0.197509765625, 
104, 3129492706, 0.8405771255493164, -0.03810127079486847, -0.4954815208911896, -0.21564340591430664, 8.355267524719238, 1.4020525217056274, 5.120083808898926, -4.3665361404418945, -2.843846082687378, 0.11263861507177353, -0.938232421875, -0.117919921875, -0.19873046875, 
105, 3129501039, 0.8406112790107727, -0.03819951415061951, -0.49539756774902344, -0.21568536758422852, 8.406225204467773, 1.3916059732437134, 5.020503997802734, -1.9075177907943726, 0.4121202528476715, 0.4541532099246979, -0.93896484375, -0.116943359375, -0.197021484375, 
106, 3129509372, 0.8406628370285034, -0.038245782256126404, -0.49531036615371704, -0.21567681431770325, 8.329506874084473, 1.4625489711761475, 4.884104251861572, -0.841261088848114, 0.7088226675987244, 0.8232414126396179, -0.937744140625, -0.116943359375, -0.197509765625, 
107, 3129517705, 0.8406075835227966, -0.03836908936500549, -0.4954022169113159, -0.21565881371498108, 8.275843620300293, 1.4757640361785889, 4.8271589279174805, -1.1534602642059326, -2.3085598945617676, 1.057394027709961, -0.939697265625, -0.117431640625, -0.196044921875, 
108, 3129526038, 0.840506911277771, -0.03852561116218567, -0.49556592106819153, -0.21564754843711853, 8.36210823059082, 1.4247419834136963, 4.939429759979248, -1.4325785636901855, -3.556715726852417, 1.022994041442871, -0.9404296875, -0.116943359375, -0.198486328125, 
109, 3129534371, 0.8404476642608643, -0.038613930344581604, -0.49567005038261414, -0.2156233787536621, 8.439665794372559, 1.3387163877487183, 5.017941474914551, -0.8089231252670288, -2.4003100395202637, 0.7909547686576843, -0.93994140625, -0.116943359375, -0.197998046875, 
110, 3129542704, 0.8404384851455688, -0.038604795932769775, -0.4957248270511627, -0.2155347466468811, 8.472146034240723, 1.352584958076477, 4.96920108795166, 0.7341167330741882, -1.2243859767913818, 1.1176899671554565, -0.939697265625, -0.117431640625, -0.197998046875, 
111, 3129551037, 0.840429961681366, -0.03857186436653137, -0.4957916736602783, -0.2154196798801422, 8.46185302734375, 1.4282598495483398, 4.889118671417236, 1.3083109855651855, -1.2808654308319092, 1.2922252416610718, -0.937255859375, -0.116943359375, -0.1982421875, 
112, 3129559370, 0.8403981924057007, -0.038590773940086365, -0.49588310718536377, -0.2153301239013672, 8.425982475280762, 1.4851107597351074, 4.847505569458008, 0.5126816630363464, -1.8867443799972534, 1.232979416847229, -0.9384765625, -0.115966796875, -0.195556640625, 
113, 3129567703, 0.8403587937355042, -0.0386456698179245, -0.49595242738723755, -0.2153143584728241, 8.405030250549316, 1.4834355115890503, 4.928614616394043, -0.3952532410621643, -1.7273470163345337, 0.6476430892944336, -0.937744140625, -0.118408203125, -0.1943359375, 
114, 3129576036, 0.8403387069702148, -0.03866741061210632, -0.49598565697669983, -0.21531188488006592, 8.377517700195312, 1.4661610126495361, 4.998385906219482, -0.27955374121665955, -1.095341444015503, 0.31114891171455383, -0.93896484375, -0.116943359375, -0.197021484375, 
115, 3129584369, 0.8403303623199463, -0.03864210844039917, -0.49600541591644287, -0.21530359983444214, 8.342217445373535, 1.4686932563781738, 5.044163227081299, 0.41422057151794434, -0.6918660402297974, 0.1710902601480484, -0.939208984375, -0.117919921875, -0.194580078125, 
116, 3129592702, 0.8403424620628357, -0.038575366139411926, -0.49600571393966675, -0.21526792645454407, 8.348404884338379, 1.487440824508667, 4.977506160736084, 0.8901586532592773, -0.25099387764930725, 0.20456808805465698, -0.93896484375, -0.115966796875, -0.197509765625, 
117, 3129601035, 0.8403462171554565, -0.03856654465198517, -0.49600639939308167, -0.21525335311889648, 8.35717487335205, 1.4690226316452026, 4.992291450500488, 0.08628154546022415, -0.46295166015625, 0.32475006580352783, -0.941162109375, -0.117431640625, -0.195068359375, 
118, 3129609368, 0.8403555154800415, -0.03859959542751312, -0.4959864914417267, -0.21525704860687256, 8.363490104675293, 1.4304684400558472, 4.963522434234619, -0.592329204082489, -0.3116227686405182, 0.4333544373512268, -0.940185546875, -0.117431640625, -0.196533203125, 
119, 3129617701, 0.8403826355934143, -0.03863118588924408, -0.49594658613204956, -0.21523740887641907, 8.378704071044922, 1.4170855283737183, 4.972548961639404, -0.5639230608940125, 0.023885276168584824, 0.6849887371063232, -0.939208984375, -0.116943359375, -0.195068359375, 
120, 3129626034, 0.840421736240387, -0.03863447904586792, -0.4958984851837158, -0.21519455313682556, 8.395362854003906, 1.4342164993286133, 4.961726665496826, -0.00002561423389124684, 0.28194865584373474, 0.8715627193450928, -0.938232421875, -0.116943359375, -0.195556640625, 
121, 3129634367, 0.8404624462127686, -0.03863416612148285, -0.49585700035095215, -0.2151312232017517, 8.383612632751465, 1.4202184677124023, 4.916943073272705, 0.2642748951911926, 0.23443429172039032, 1.1062403917312622, -0.939453125, -0.114990234375, -0.197998046875, 
122, 3129642700, 0.8404831290245056, -0.03866417706012726, -0.4958377182483673, -0.21508988738059998, 8.3511381149292, 1.4418202638626099, 4.91354513168335, -0.24411648511886597, -0.2564113140106201, 0.9656311273574829, -0.939453125, -0.116455078125, -0.197998046875, 
123, 3129651033, 0.8404809236526489, -0.038737595081329346, -0.4958452582359314, -0.21506744623184204, 8.340265274047852, 1.4293955564498901, 4.901320934295654, -0.8755201101303101, -0.8453465700149536, 0.9074994921684265, -0.940673828125, -0.119384765625, -0.197021484375, 
124, 3129659366, 0.84046471118927, -0.03878001868724823, -0.49587762355804443, -0.21504834294319153, 8.34756088256836, 1.4525635242462158, 4.919832706451416, -0.4057038128376007, -1.1286399364471436, 0.65704345703125, -0.9384765625, -0.115234375, -0.195068359375, 
125, 3129667699, 0.8404451608657837, -0.038766101002693176, -0.4959293007850647, -0.21500852704048157, 8.343069076538086, 1.4471060037612915, 4.92322301864624, 0.4660637676715851, -1.2072243690490723, 0.4922415018081665, -0.938232421875, -0.116943359375, -0.197998046875, 
126, 3129676032, 0.8404279947280884, -0.038719549775123596, -0.49597427248954773, -0.21498039364814758, 8.361995697021484, 1.4627134799957275, 4.93799352645874, 0.7203747034072876, -1.022558569908142, 0.14333726465702057, -0.939453125, -0.11474609375, -0.193115234375, 
127, 3129684365, 0.8403918743133545, -0.03866817057132721, -0.49604329466819763, -0.2149713933467865, 8.394669532775879, 1.4474278688430786, 4.955496788024902, 0.5872063040733337, -1.419451117515564, -0.26481273770332336, -0.93994140625, -0.115478515625, -0.194580078125, 
128, 3129692698, 0.8403551578521729, -0.03863301873207092, -0.4961055815219879, -0.21497759222984314, 8.411027908325195, 1.4482861757278442, 4.999615669250488, 0.3959704339504242, -1.3717575073242188, -0.24022309482097626, -0.939453125, -0.114990234375, -0.197021484375, 
129, 3129701031, 0.8403306007385254, -0.038608044385910034, -0.49614590406417847, -0.21498477458953857, 8.42587661743164, 1.4068782329559326, 5.0472025871276855, 0.2795281410217285, -1.0447405576705933, -0.10979541391134262, -0.93994140625, -0.114990234375, -0.197998046875, 
130, 3129709364, 0.8403303623199463, -0.038605496287345886, -0.49614351987838745, -0.21499159932136536, 8.429810523986816, 1.4071930646896362, 5.028018951416016, -0.1564517468214035, -0.47232648730278015, 0.11614774167537689, -0.938232421875, -0.117431640625, -0.196533203125, 
131, 3129717697, 0.8403453826904297, -0.03863458335399628, -0.49611151218414307, -0.21500134468078613, 8.419668197631836, 1.4222211837768555, 5.003020286560059, -0.8043637871742249, -0.14031477272510529, 0.23643217980861664, -0.937255859375, -0.116943359375, -0.1962890625, 
132, 3129726030, 0.8403630256652832, -0.038690224289894104, -0.4960661828517914, -0.2150270938873291, 8.426527976989746, 1.4367557764053345, 4.985774517059326, -1.0760029554367065, -0.01562468521296978, 0.3709837794303894, -0.938720703125, -0.119384765625, -0.1962890625, 
133, 3129734363, 0.840385377407074, -0.0387406200170517, -0.49600815773010254, -0.21506476402282715, 8.407715797424316, 1.3962135314941406, 4.9638800621032715, -0.6916355490684509, 0.2695769965648651, 0.4658844769001007, -0.939453125, -0.115234375, -0.195068359375, 
134, 3129742696, 0.8404347896575928, -0.03873187303543091, -0.49594438076019287, -0.21502047777175903, 8.452686309814453, 1.4159910678863525, 4.861880302429199, 0.10868119448423386, 0.5674321055412292, 0.8442195653915405, -0.93896484375, -0.116455078125, -0.194580078125, 
135, 3129751029, 0.8404625654220581, -0.03874267637729645, -0.4959039092063904, -0.21500366926193237, 8.342947006225586, 1.4433077573776245, 4.946112155914307, -0.2719719409942627, 0.11025647073984146, 0.5548171401023865, -0.93994140625, -0.114990234375, -0.196533203125, 
136, 3129759362, 0.8404629230499268, -0.038828104734420776, -0.49586355686187744, -0.2150798738002777, 8.240523338317871, 1.422064185142517, 5.0960540771484375, -1.7578024864196777, -0.253017395734787, -0.0639331266283989, -0.93994140625, -0.114990234375, -0.196533203125, 
137, 3129767695, 0.8404821157455444, -0.038833558559417725, -0.49583524465560913, -0.21506890654563904, 8.335587501525879, 1.374146819114685, 4.958072185516357, -0.19425836205482483, -0.06408681720495224, 0.43327760696411133, -0.93798828125, -0.115966796875, -0.197021484375, 
138, 3129776028, 0.840516209602356, -0.03878830373287201, -0.4957824647426605, -0.2150653600692749, 8.339156150817871, 1.4172786474227905, 4.845865249633789, 0.2767618000507355, 0.4658716917037964, 0.07387144863605499, -0.939453125, -0.1162109375, -0.193603515625, 
139, 3129784361, 0.8404611349105835, -0.03891049325466156, -0.4958306550979614, -0.2151472568511963, 8.299837112426758, 1.455623984336853, 4.916268348693848, -1.805214524269104, -1.7201495170593262, 0.004674598108977079, -0.9384765625, -0.114990234375, -0.197509765625, 
140, 3129792694, 0.8403784036636353, -0.03906017541885376, -0.49592652916908264, -0.2152222990989685, 8.380615234375, 1.3804374933242798, 4.9464006423950195, -2.1356894969940186, -2.583759307861328, 0.06883826106786728, -0.93896484375, -0.116455078125, -0.195068359375, 
141, 3129801027, 0.8403592109680176, -0.039088666439056396, -0.495947003364563, -0.2152450978755951, 8.422250747680664, 1.333325743675232, 4.974122524261475, -0.6612314581871033, -0.9566660523414612, 0.0056991674937307835, -0.93896484375, -0.114990234375, -0.196533203125, 
142, 3129809360, 0.8403562307357788, -0.03907546401023865, -0.495958536863327, -0.21523255109786987, 8.37024974822998, 1.375806450843811, 4.960675239562988, 0.13845773041248322, -0.6290855407714844, 0.25141650438308716, -0.93603515625, -0.115234375, -0.197265625, 
143, 3129817693, 0.8403470516204834, -0.039080411195755005, -0.4959835112094879, -0.2152102291584015, 8.33509349822998, 1.4365984201431274, 4.913845539093018, 0.09169895201921463, -0.868258535861969, 0.48495426774024963, -0.93896484375, -0.11376953125, -0.196533203125, 
144, 3129826026, 0.840326189994812, -0.039122238755226135, -0.4960125684738159, -0.2152167558670044, 8.349248886108398, 1.430590033531189, 4.918924331665039, -0.585182785987854, -1.107892394065857, 0.34454983472824097, -0.94140625, -0.115478515625, -0.194091796875, 
145, 3129834359, 0.8403067588806152, -0.03919914364814758, -0.49602773785591125, -0.21524399518966675, 8.395563125610352, 1.4125574827194214, 4.978751182556152, -1.1741565465927124, -1.021854281425476, 0.3411431610584259, -0.94091796875, -0.115478515625, -0.195068359375, 
146, 3129842692, 0.8403056263923645, -0.03923653066158295, -0.4960215389728546, -0.2152559757232666, 8.40893268585205, 1.4012705087661743, 4.966454982757568, -0.6641258597373962, -0.5495021939277649, 0.3288995325565338, -0.94091796875, -0.114013671875, -0.197021484375, 
147, 3129851025, 0.8403111696243286, -0.03924223780632019, -0.496013343334198, -0.21525192260742188, 8.413337707519531, 1.4330865144729614, 4.94011116027832, -0.18913550674915314, -0.3873128592967987, 0.30459168553352356, -0.93798828125, -0.11572265625, -0.195556640625, 
148, 3129859358, 0.8402999043464661, -0.03925211727619171, -0.49602311849594116, -0.21527132391929626, 8.359199523925781, 1.4690721035003662, 4.936399459838867, -0.3551541566848755, -0.7173650860786438, 0.01682855188846588, -0.939453125, -0.11474609375, -0.195068359375, 
149, 3129867691, 0.8402853012084961, -0.03929266333580017, -0.49600934982299805, -0.2153531312942505, 8.375328063964844, 1.4896796941757202, 4.975367546081543, -1.1505913734436035, -0.5073155164718628, -0.4728899598121643, -0.94140625, -0.117431640625, -0.197021484375, 
150, 3129876024, 0.8402832746505737, -0.039323002099990845, -0.49596816301345825, -0.21545037627220154, 8.375636100769043, 1.4548596143722534, 4.970682144165039, -1.2687753438949585, -0.08457819372415543, -0.6885105967521667, -0.9404296875, -0.116455078125, -0.196044921875, 
151, 3129884357, 0.8402871489524841, -0.03932790458202362, -0.49592292308807373, -0.21553835272789001, 8.41559886932373, 1.417950987815857, 4.983571529388428, -0.7741390466690063, 0.10643996298313141, -0.6611546277999878, -0.94140625, -0.115966796875, -0.196533203125, 
152, 3129892690, 0.8403035402297974, -0.03931345045566559, -0.4958731234073639, -0.21559187769889832, 8.38128662109375, 1.4013710021972656, 5.002433776855469, -0.46843311190605164, 0.24941858649253845, -0.42983245849609375, -0.93896484375, -0.116943359375, -0.197998046875, 
153, 3129901023, 0.8403221368789673, -0.039339542388916016, -0.49581706523895264, -0.2156435251235962, 8.36841869354248, 1.40518319606781, 4.9844584465026855, -0.688741147518158, 0.2669387459754944, 0.013280980288982391, -0.93994140625, -0.114990234375, -0.198486328125, 
154, 3129909356, 0.8403561115264893, -0.03936854004859924, -0.4957456886768341, -0.2156699001789093, 8.350615501403809, 1.4042675495147705, 4.98705530166626, -0.8420168161392212, 0.47643759846687317, 0.24209296703338623, -0.940673828125, -0.117431640625, -0.196533203125, 
155, 3129917689, 0.8403822183609009, -0.03940233588218689, -0.49568647146224976, -0.2156979739665985, 8.355528831481934, 1.3830164670944214, 4.978400230407715, -0.864441990852356, 0.27791446447372437, 0.22025679051876068, -0.93798828125, -0.116455078125, -0.196044921875, 
156, 3129926022, 0.8403972387313843, -0.039415985345840454, -0.4956497251987457, -0.21572110056877136, 8.324156761169434, 1.390241026878357, 4.9818339347839355, -0.5491948127746582, -0.009759021922945976, 0.10236728936433792, -0.93896484375, -0.114013671875, -0.198486328125, 
157, 3129934355, 0.8404178619384766, -0.03941461443901062, -0.4956062138080597, -0.2157408893108368, 8.324700355529785, 1.3957771062850952, 4.963808536529541, -0.3623645603656769, 0.15892350673675537, 0.048090726137161255, -0.938232421875, -0.116943359375, -0.197998046875, 
158, 3129942688, 0.8404268026351929, -0.0394040048122406, -0.49558204412460327, -0.21576344966888428, 8.372395515441895, 1.3925225734710693, 4.927836894989014, -0.23028476536273956, -0.12444675713777542, -0.08126116544008255, -0.939453125, -0.116943359375, -0.197998046875, 
159, 3129951021, 0.840412437915802, -0.03938886523246765, -0.4955943822860718, -0.21579402685165405, 8.366321563720703, 1.4213917255401611, 4.891706943511963, -0.10921909660100937, -0.6768049597740173, -0.2889285683631897, -0.9404296875, -0.116943359375, -0.196533203125, 
160, 3129959354, 0.8403831720352173, -0.03936995565891266, -0.49562716484069824, -0.21583625674247742, 8.365485191345215, 1.4748306274414062, 4.924917697906494, -0.12051496654748917, -1.007023572921753, -0.5108503103256226, -0.94140625, -0.116455078125, -0.197998046875, 
161, 3129967687, 0.8403459191322327, -0.0393550843000412, -0.49566078186035156, -0.21590682864189148, 8.388761520385742, 1.511960744857788, 4.9369707107543945, -0.20146875083446503, -1.0334190130233765, -0.7520723342895508, -0.939453125, -0.115478515625, -0.196533203125, 
162, 3129976020, 0.8403129577636719, -0.039316222071647644, -0.49568963050842285, -0.2159762680530548, 8.428072929382324, 1.467270016670227, 4.9545745849609375, -0.08875332027673721, -0.9149916768074036, -0.9676547050476074, -0.9404296875, -0.115478515625, -0.196044921875, 
163, 3129984353, 0.8402931690216064, -0.039245232939720154, -0.4956994950771332, -0.21604308485984802, 8.433745384216309, 1.4311121702194214, 4.986289978027344, 0.310918390750885, -0.4925873279571533, -1.0889379978179932, -0.9404296875, -0.116943359375, -0.197998046875, 
164, 3129992686, 0.8402963876724243, -0.03915594518184662, -0.4956759214401245, -0.2161007821559906, 8.432585716247559, 1.4322493076324463, 4.97657585144043, 0.435634046792984, 0.08208080381155014, -1.0398097038269043, -0.939453125, -0.114990234375, -0.197021484375, 
165, 3130001019, 0.8403007984161377, -0.03909127414226532, -0.4956493377685547, -0.21615612506866455, 8.410663604736328, 1.445897102355957, 4.962062835693359, 0.17815978825092316, 0.060616083443164825, -0.8447830677032471, -0.93896484375, -0.114501953125, -0.198486328125, 
166, 3130009352, 0.8403047323226929, -0.039068758487701416, -0.4956141710281372, -0.21622595191001892, 8.402057647705078, 1.428944706916809, 4.974130153656006, -0.4515276551246643, 0.028521450236439705, -0.718248724937439, -0.940673828125, -0.118408203125, -0.197021484375, 
167, 3130017685, 0.8403116464614868, -0.039055705070495605, -0.4955710768699646, -0.21630004048347473, 8.366901397705078, 1.4294880628585815, 4.957378387451172, -0.533083438873291, 0.13681843876838684, -0.6579529047012329, -0.939453125, -0.116455078125, -0.197509765625, 
168, 3130026018, 0.8403350114822388, -0.03901314735412598, -0.49550750851631165, -0.21636280417442322, 8.372961044311523, 1.4387943744659424, 4.970417499542236, -0.24366819858551025, 0.5445201992988586, -0.6994478702545166, -0.938720703125, -0.116943359375, -0.195068359375, 
169, 3130034351, 0.8403688669204712, -0.03896470367908478, -0.4954333007335663, -0.21641016006469727, 8.357817649841309, 1.4610037803649902, 4.950733184814453, -0.17595697939395905, 0.7432225942611694, -0.5824292302131653, -0.939697265625, -0.118408203125, -0.195556640625, 
170, 3130042684, 0.8403773903846741, -0.03893974423408508, -0.4953920543193817, -0.21647605299949646, 8.320022583007812, 1.4673627614974976, 4.9118571281433105, -0.41204339265823364, 0.1344747245311737, -0.6731036901473999, -0.938232421875, -0.118408203125, -0.19921875, 
171, 3130051017, 0.8403628468513489, -0.03895126283168793, -0.49537914991378784, -0.21655955910682678, 8.327940940856934, 1.4638006687164307, 4.93928861618042, -0.8616373538970947, -0.4381571412086487, -0.714790940284729, -0.940185546875, -0.117919921875, -0.198486328125, 
172, 3130059350, 0.8403439521789551, -0.038967564702034, -0.4953727722167969, -0.21664482355117798, 8.392566680908203, 1.4344310760498047, 4.959301948547363, -0.9319995045661926, -0.5672271847724915, -0.7153031229972839, -0.940185546875, -0.117919921875, -0.198974609375, 
173, 3130067683, 0.8403304815292358, -0.038967862725257874, -0.49535781145095825, -0.2167309820652008, 8.399669647216797, 1.4175074100494385, 4.9678850173950195, -0.7161483764648438, -0.3640551269054413, -0.7939131855964661, -0.938720703125, -0.118896484375, -0.2001953125, 
174, 3130076016, 0.8403347730636597, -0.038968369364738464, -0.4953167736530304, -0.21680834889411926, 8.398117065429688, 1.4531501531600952, 4.939180850982666, -0.7860240936279297, 0.03318324312567711, -0.6447359919548035, -0.938232421875, -0.118408203125, -0.19921875, 
175, 3130084349, 0.8403287529945374, -0.03899240493774414, -0.4952731728553772, -0.21692639589309692, 8.388625144958496, 1.4716330766677856, 4.942836284637451, -1.2222599983215332, -0.023770008236169815, -0.9222917556762695, -0.937255859375, -0.119384765625, -0.1953125, 
176, 3130092682, 0.840308666229248, -0.039048030972480774, -0.49524712562561035, -0.21705365180969238, 8.359649658203125, 1.4433321952819824, 4.950196266174316, -1.7297035455703735, -0.44228097796440125, -0.9263387322425842, -0.940185546875, -0.118896484375, -0.199951171875, 
177, 3130101015, 0.8402893543243408, -0.03909364342689514, -0.4952182471752167, -0.2171863317489624, 8.36004638671875, 1.4228373765945435, 4.972058296203613, -1.5751473903656006, -0.3483535647392273, -1.013478398323059, -0.937255859375, -0.117919921875, -0.19580078125, 
178, 3130109348, 0.8402715921401978, -0.0391341894865036, -0.4951859712600708, -0.2173214554786682, 8.359485626220703, 1.4149513244628906, 4.959497451782227, -1.6270675659179688, -0.30585959553718567, -1.1116834878921509, -0.9404296875, -0.116943359375, -0.199951171875, 
179, 3130117681, 0.8402398824691772, -0.03915686905384064, -0.4951728582382202, -0.2174694538116455, 8.359268188476562, 1.444259762763977, 4.947255611419678, -1.4210394620895386, -0.5464668869972229, -1.4211162328720093, -0.939697265625, -0.118408203125, -0.201416015625, 
180, 3130126014, 0.8401901125907898, -0.03915810585021973, -0.4951900243759155, -0.21762236952781677, 8.36745834350586, 1.4440639019012451, 4.955526828765869, -1.1631808280944824, -0.9677953124046326, -1.7038459777832031, -0.937744140625, -0.118896484375, -0.19921875, 
181, 3130134347, 0.8401258587837219, -0.03911082446575165, -0.49523359537124634, -0.21777984499931335, 8.350175857543945, 1.4388644695281982, 4.952120304107666, -0.5216338634490967, -1.2092992067337036, -2.135817289352417, -0.936767578125, -0.120849609375, -0.19921875, 
182, 3130142680, 0.8400623798370361, -0.039008185267448425, -0.495278000831604, -0.2179417610168457, 8.344809532165527, 1.4656157493591309, 4.968750476837158, 0.049576349556446075, -1.060070514678955, -2.570798397064209, -0.939697265625, -0.12060546875, -0.19970703125, 
183, 3130151013, 0.8400142788887024, -0.038876086473464966, -0.49529775977134705, -0.21810618042945862, 8.34342098236084, 1.4714956283569336, 4.965529441833496, 0.3791290819644928, -0.5599271059036255, -2.7114458084106445, -0.939208984375, -0.121337890625, -0.19677734375, 
184, 3130159346, 0.8399732708930969, -0.038718074560165405, -0.4953131377696991, -0.21825721859931946, 8.346582412719727, 1.4784692525863647, 4.969743251800537, 0.688088059425354, -0.41164639592170715, -2.7415173053741455, -0.938720703125, -0.118896484375, -0.19921875, 
185, 3130167679, 0.8399343490600586, -0.03853224217891693, -0.4953306317329407, -0.21840062737464905, 8.37232494354248, 1.5010782480239868, 4.953303337097168, 1.0592126846313477, -0.3365198075771332, -2.857703685760498, -0.940673828125, -0.12109375, -0.197509765625, 
186, 3130176012, 0.8399050831794739, -0.038354143500328064, -0.4953295886516571, -0.2185463309288025, 8.402968406677246, 1.5081827640533447, 4.928280830383301, 0.9126735925674438, -0.0829901248216629, -2.7703330516815186, -0.939208984375, -0.121826171875, -0.197265625, 
187, 3130184345, 0.8398603200912476, -0.03823681175708771, -0.4953392446041107, -0.2187175452709198, 8.429811477661133, 1.5430580377578735, 4.94521427154541, 0.11069192737340927, -0.46523135900497437, -2.6861393451690674, -0.938720703125, -0.120849609375, -0.1982421875, 
188, 3130192678, 0.8397861123085022, -0.03819403052330017, -0.4953768849372864, -0.2189246118068695, 8.426374435424805, 1.5773234367370605, 4.9806060791015625, -0.9743140935897827, -1.2113484144210815, -2.7154929637908936, -0.937744140625, -0.12255859375, -0.2001953125, 
189, 3130201011, 0.839720606803894, -0.038156285881996155, -0.4954032301902771, -0.2191225290298462, 8.446572303771973, 1.478633165359497, 5.04075288772583, -0.9984428286552429, -1.034302830696106, -2.5538158416748047, -0.938232421875, -0.121337890625, -0.19775390625, 
190, 3130209344, 0.8397167921066284, -0.03805631399154663, -0.4953466057777405, -0.21928203105926514, 8.483867645263672, 1.3667783737182617, 5.052355766296387, -0.23680362105369568, 0.5041009187698364, -2.292858362197876, -0.939208984375, -0.123779296875, -0.19580078125, 
191, 3130217677, 0.8397753834724426, -0.037931591272354126, -0.49518802762031555, -0.21943774819374084, 8.526853561401367, 1.3329987525939941, 4.944087982177734, -0.07228337228298187, 2.2105727195739746, -2.113327980041504, -0.938232421875, -0.123046875, -0.19775390625, 
192, 3130226010, 0.8398514986038208, -0.03781409561634064, -0.49500417709350586, -0.21958166360855103, 8.466936111450195, 1.3726662397384644, 4.853152275085449, -0.2714596688747406, 2.561641216278076, -1.9234752655029297, -0.936767578125, -0.121337890625, -0.2001953125, 
193, 3130234343, 0.8399184942245483, -0.0377316027879715, -0.49482738971710205, -0.219737708568573, 8.456894874572754, 1.4372848272323608, 4.827624797821045, -0.7947584986686707, 2.317845106124878, -1.9038807153701782, -0.935791015625, -0.123046875, -0.201171875, 
194, 3130242676, 0.8399766087532043, -0.0376402884721756, -0.49466952681541443, -0.21988695859909058, 8.468290328979492, 1.3884544372558594, 4.84802770614624, -0.540178656578064, 2.063239336013794, -1.8772931098937988, -0.937255859375, -0.12109375, -0.20068359375, 
195, 3130251009, 0.840045690536499, -0.037534281611442566, -0.4945058524608612, -0.2200089693069458, 8.480817794799805, 1.2939246892929077, 4.877877235412598, -0.2535809278488159, 2.233830213546753, -1.6751967668533325, -0.938720703125, -0.12451171875, -0.1982421875, 
196, 3130259342, 0.8401452302932739, -0.03743851184844971, -0.4943017363548279, -0.22010350227355957, 8.476329803466797, 1.2613242864608765, 4.8632731437683105, -0.23508742451667786, 2.8651185035705566, -1.1241830587387085, -0.936767578125, -0.12255859375, -0.19921875, 
197, 3130267675, 0.8402612209320068, -0.03736579418182373, -0.4940817952156067, -0.22016742825508118, 8.458429336547852, 1.3271338939666748, 4.821387767791748, -0.32571059465408325, 3.082404136657715, -0.5683029890060425, -0.93701171875, -0.126953125, -0.2021484375, 
198, 3130276008, 0.8403548002243042, -0.037349969148635864, -0.49390938878059387, -0.22019976377487183, 8.389432907104492, 1.3737870454788208, 4.887042999267578, -0.6431222558021545, 2.1838057041168213, 0.10413467139005661, -0.937255859375, -0.125, -0.20263671875, 
199, 3130284341, 0.8404449224472046, -0.037294939160346985, -0.4937690496444702, -0.2201799750328064, 8.417591094970703, 1.4047762155532837, 4.961081027984619, 0.17949175834655762, 1.8747187852859497, 0.3482895791530609, -0.935791015625, -0.123046875, -0.19970703125, 
200, 3130292674, 0.840579628944397, -0.03713671863079071, -0.49358418583869934, -0.22010722756385803, 8.39041519165039, 1.4008195400238037, 4.966590404510498, 1.6995431184768677, 2.984250783920288, 0.48145806789398193, -0.937744140625, -0.1220703125, -0.2021484375, 
201, 3130301007, 0.840753972530365, -0.036925554275512695, -0.49335038661956787, -0.22000077366828918, 8.355188369750977, 1.4019414186477661, 4.9306840896606445, 2.426936149597168, 3.974522590637207, 0.6487958431243896, -0.937744140625, -0.12451171875, -0.20263671875, 
202, 3130309340, 0.8408899307250977, -0.03676006197929382, -0.49316930770874023, -0.21991461515426636, 8.2965087890625, 1.463281512260437, 4.898940563201904, 1.8858609199523926, 2.964015483856201, 0.5877571105957031, -0.937744140625, -0.12353515625, -0.20458984375, 
203, 3130317673, 0.8409737944602966, -0.03666314482688904, -0.4930592477321625, -0.21985727548599243, 8.257946968078613, 1.4715653657913208, 4.908423900604248, 1.1251181364059448, 1.612147331237793, 0.5326096415519714, -0.938232421875, -0.123046875, -0.2041015625, 
204, 3130326006, 0.8410589694976807, -0.036550939083099365, -0.4929521679878235, -0.21979030966758728, 8.264053344726562, 1.4594682455062866, 4.9843034744262695, 1.3382797241210938, 1.6122753620147705, 0.5369639992713928, -0.938720703125, -0.1220703125, -0.20458984375, 
205, 3130334339, 0.8411483764648438, -0.03642617166042328, -0.49284279346466064, -0.2197141945362091, 8.256739616394043, 1.4378293752670288, 5.05148458480835, 1.3752411603927612, 1.6803580522537231, 0.4554083049297333, -0.938232421875, -0.125, -0.20458984375, 
206, 3130342672, 0.8412380218505859, -0.03631186485290527, -0.49271124601364136, -0.21968507766723633, 8.226552963256836, 1.4602497816085815, 5.046412467956543, 1.0344692468643188, 1.9508954286575317, 0.11020524054765701, -0.937744140625, -0.123046875, -0.2041015625, 
207, 3130351005, 0.8413435220718384, -0.0361807644367218, -0.4925597310066223, -0.21964216232299805, 8.272068977355957, 1.4514871835708618, 4.99866247177124, 1.2828890085220337, 2.3444454669952393, 0.2064763605594635, -0.937255859375, -0.12451171875, -0.20556640625, 
208, 3130359338, 0.8414583206176758, -0.035984352231025696, -0.49240297079086304, -0.21958619356155396, 8.31735610961914, 1.4848579168319702, 4.942159652709961, 2.1035563945770264, 2.6479103565216064, -0.04474807158112526, -0.938720703125, -0.123046875, -0.20458984375, 
209, 3130367671, 0.8415195941925049, -0.03585295379161835, -0.4922753572463989, -0.21965864300727844, 8.23501968383789, 1.5345046520233154, 5.054409503936768, 0.5069056749343872, 1.8188923597335815, -1.3046865463256836, -0.938720703125, -0.124755859375, -0.20654296875, 
210, 3130376004, 0.8415571451187134, -0.03572306036949158, -0.4921506941318512, -0.21981561183929443, 8.226845741271973, 1.5320600271224976, 5.064964771270752, -0.04961477592587471, 1.6561781167984009, -2.310173511505127, -0.937255859375, -0.123046875, -0.20556640625, 
211, 3130384337, 0.8416073322296143, -0.03539562225341797, -0.4920501112937927, -0.21990153193473816, 8.362736701965332, 1.5773876905441284, 4.902318477630615, 2.7549777030944824, 2.028096914291382, -2.837750196456909, -0.936767578125, -0.1240234375, -0.205078125, 
212, 3130392670, 0.8416039943695068, -0.035077691078186035, -0.49201643466949463, -0.22004041075706482, 8.290196418762207, 1.6627522706985474, 4.907994747161865, 2.5030105113983154, 0.8873924612998962, -3.541450023651123, -0.9375, -0.125732421875, -0.205078125, 
213, 3130401003, 0.8415412306785583, -0.0349639356136322, -0.4919963777065277, -0.2203427255153656, 8.149900436401367, 1.7544680833816528, 5.07611608505249, -0.921087920665741, -0.1960001438856125, -4.232701301574707, -0.937255859375, -0.124755859375, -0.20654296875, 
214, 3130409336, 0.8414804339408875, -0.034972742199897766, -0.49193304777145386, -0.22071483731269836, 8.15365219116211, 1.6598314046859741, 5.230031490325928, -2.9734537601470947, -0.03644905611872673, -4.18910551071167, -0.9365234375, -0.126220703125, -0.2060546875, 
215, 3130417669, 0.8415124416351318, -0.03493805229663849, -0.49172139167785645, -0.22106945514678955, 8.258378982543945, 1.5619298219680786, 5.138099193572998, -2.724688768386841, 2.4486570358276367, -3.9208736419677734, -0.93798828125, -0.126708984375, -0.20556640625, 
216, 3130426002, 0.8415865898132324, -0.034867092967033386, -0.49147748947143555, -0.22134098410606384, 8.29592514038086, 1.5659388303756714, 5.003293991088867, -1.8529082536697388, 3.1613216400146484, -3.0679965019226074, -0.935546875, -0.126220703125, -0.20751953125, 
217, 3130434335, 0.8415771722793579, -0.03494711220264435, -0.4913697838783264, -0.22160273790359497, 8.23973274230957, 1.6290967464447021, 4.976945877075195, -3.149590253829956, 0.5666124820709229, -2.2611351013183594, -0.93701171875, -0.125732421875, -0.208984375, 
218, 3130442668, 0.84152752161026, -0.035157233476638794, -0.49131447076797485, -0.22188076376914978, 8.275343894958496, 1.5606223344802856, 5.093270778656006, -4.636394023895264, -0.711089551448822, -1.711300015449524, -0.9365234375, -0.126220703125, -0.2060546875, 
219, 3130451001, 0.8415361642837524, -0.03534264862537384, -0.4911690950393677, -0.22213983535766602, 8.404993057250977, 1.4745820760726929, 5.169137001037598, -4.492839813232422, 0.7951043844223022, -1.4662870168685913, -0.93896484375, -0.129150390625, -0.20654296875, 
220, 3130459334, 0.8415956497192383, -0.03545105457305908, -0.49097633361816406, -0.2223236858844757, 8.395880699157715, 1.4628154039382935, 5.171140670776367, -3.1885108947753906, 1.8815064430236816, -0.9090235829353333, -0.93603515625, -0.127685546875, -0.20849609375, 
221, 3130467667, 0.8416590690612793, -0.03550444543361664, -0.4908182621002197, -0.2224237322807312, 8.309035301208496, 1.4708690643310547, 5.143094062805176, -1.8726056814193726, 1.644318699836731, -0.3255825340747833, -0.93603515625, -0.128173828125, -0.20947265625, 
222, 3130476000, 0.8416940569877625, -0.035598695278167725, -0.4907050132751465, -0.22252655029296875, 8.20982837677002, 1.5063444375991821, 5.112978935241699, -2.246624708175659, 0.7998941540718079, -0.18068282306194305, -0.93603515625, -0.127197265625, -0.20947265625, 
223, 3130484333, 0.8417072296142578, -0.035704106092453, -0.4906177520751953, -0.22265216708183289, 8.149430274963379, 1.5139259099960327, 5.131730079650879, -2.479586124420166, 0.3349701464176178, -0.47473421692848206, -0.9375, -0.129150390625, -0.208984375, 
224, 3130492666, 0.841707706451416, -0.035740435123443604, -0.4905621111392975, -0.2227669656276703, 8.151698112487793, 1.544658899307251, 5.1627278327941895, -1.4988683462142944, 0.08292608708143234, -0.8435280323028564, -0.9375, -0.129150390625, -0.2109375, 
225, 3130500999, 0.8416895866394043, -0.035645246505737305, -0.49057990312576294, -0.22281166911125183, 8.19315242767334, 1.5625098943710327, 5.168258190155029, 0.6762542128562927, -0.5219668745994568, -1.048262596130371, -0.9365234375, -0.126708984375, -0.20849609375, 
226, 3130509332, 0.8416494727134705, -0.03548191487789154, -0.4906567335128784, -0.22282037138938904, 8.22672176361084, 1.5497844219207764, 5.165531635284424, 1.9137804508209229, -1.1633473634719849, -1.1523332595825195, -0.935546875, -0.127197265625, -0.20849609375, 
227, 3130517665, 0.8416147232055664, -0.035297244787216187, -0.49072131514549255, -0.22283875942230225, 8.275843620300293, 1.5243409872055054, 5.1745452880859375, 2.089468479156494, -0.902235746383667, -1.3838346004486084, -0.9365234375, -0.130615234375, -0.208740234375, 
228, 3130525998, 0.8416109085083008, -0.03515493869781494, -0.49071452021598816, -0.222890704870224, 8.30012035369873, 1.5384430885314941, 5.1497087478637695, 1.1404610872268677, 0.004546526353806257, -1.3583486080169678, -0.9375, -0.1298828125, -0.21044921875, 
229, 3130534331, 0.8416335582733154, -0.03504188358783722, -0.49066609144210815, -0.22292885184288025, 8.28593921661377, 1.5447994470596313, 5.154267311096191, 0.8007137775421143, 0.5814559459686279, -0.9026199579238892, -0.93701171875, -0.130126953125, -0.207763671875, 
230, 3130542664, 0.841658353805542, -0.034944191575050354, -0.49062782526016235, -0.22293493151664734, 8.278779029846191, 1.583095908164978, 5.165855407714844, 0.8512762784957886, 0.4030015170574188, -0.42253240942955017, -0.9365234375, -0.128173828125, -0.20849609375, 
231, 3130550997, 0.8417048454284668, -0.034847453236579895, -0.4905632734298706, -0.22291678190231323, 8.23908805847168, 1.5756568908691406, 5.135912895202637, 0.892130970954895, 0.8397754430770874, -0.10109937936067581, -0.9365234375, -0.129638671875, -0.210693359375, 
232, 3130559330, 0.8417679071426392, -0.03478984534740448, -0.4904636740684509, -0.2229066789150238, 8.216792106628418, 1.593224287033081, 5.084112167358398, 0.32641497254371643, 1.2417652606964111, 0.18202754855155945, -0.9365234375, -0.127685546875, -0.208984375, 
233, 3130567663, 0.8418132066726685, -0.034791991114616394, -0.4903857409954071, -0.22290655970573425, 8.215726852416992, 1.6240172386169434, 5.028670310974121, -0.2880832850933075, 0.7144449949264526, 0.4395018517971039, -0.93603515625, -0.130615234375, -0.207763671875, 
234, 3130575996, 0.8418149948120117, -0.03482435643672943, -0.49037739634513855, -0.22291329503059387, 8.236083984375, 1.6308839321136475, 5.002439975738525, -0.5780492424964905, -0.4960324764251709, 0.36098140478134155, -0.9365234375, -0.128662109375, -0.208984375, 
235, 3130584329, 0.8417763710021973, -0.0348835289478302, -0.49043551087379456, -0.2229221761226654, 8.224753379821777, 1.646927833557129, 5.099766731262207, -0.7411863803863525, -1.616194248199463, 0.3317555785179138, -0.9375, -0.129638671875, -0.21044921875, 
236, 3130592662, 0.8417532444000244, -0.034922003746032715, -0.4904685914516449, -0.22293034195899963, 8.250425338745117, 1.6999517679214478, 5.142915725708008, -0.5413697361946106, -1.161131739616394, 0.2901068329811096, -0.9375, -0.129150390625, -0.21044921875, 
237, 3130600995, 0.8417763710021973, -0.03490625321865082, -0.4904264807701111, -0.22293823957443237, 8.267428398132324, 1.687584638595581, 5.107109069824219, -0.08378417044878006, 0.20031613111495972, 0.11348387598991394, -0.9365234375, -0.128173828125, -0.20849609375, 
238, 3130609328, 0.8418123126029968, -0.03488589823246002, -0.4903607964515686, -0.22294995188713074, 8.284823417663574, 1.6751171350479126, 5.080428123474121, -0.15827034413814545, 0.5633211135864258, 0.08077449351549149, -0.93798828125, -0.129150390625, -0.2080078125, 
239, 3130617661, 0.841856837272644, -0.03487284481525421, -0.4902803897857666, -0.2229604721069336, 8.269152641296387, 1.6531366109848022, 5.037197113037109, -0.33534160256385803, 0.7640342116355896, 0.12908293306827545, -0.93701171875, -0.127197265625, -0.20849609375, 
240, 3130625994, 0.8419027328491211, -0.03486378490924835, -0.4901832640171051, -0.22300252318382263, 8.270359992980957, 1.6471638679504395, 5.033405303955078, -0.5867964625358582, 0.9727902412414551, -0.14956150949001312, -0.93701171875, -0.130126953125, -0.208740234375, 
241, 3130634327, 0.8419562578201294, -0.03486442565917969, -0.49006369709968567, -0.22306278347969055, 8.246691703796387, 1.6050193309783936, 5.0407586097717285, -0.9003915190696716, 1.2688907384872437, -0.2809881567955017, -0.9365234375, -0.130126953125, -0.208251953125, 
242, 3130642660, 0.842003583908081, -0.034861668944358826, -0.4899568557739258, -0.223119854927063, 8.226720809936523, 1.599776268005371, 5.049678325653076, -0.789802074432373, 1.0835332870483398, -0.27172860503196716, -0.93701171875, -0.128662109375, -0.2080078125, 
243, 3130650993, 0.8420379161834717, -0.03486040234565735, -0.4898650050163269, -0.22319185733795166, 8.239397048950195, 1.6005277633666992, 5.036732196807861, -0.6318391561508179, 0.8756994009017944, -0.3522341549396515, -0.93701171875, -0.130126953125, -0.209228515625, 
244, 3130659326, 0.8420810103416443, -0.03484901785850525, -0.4897766709327698, -0.2232251763343811, 8.270989418029785, 1.603653073310852, 5.006861209869385, -0.474862277507782, 0.8554257750511169, -0.07553637772798538, -0.93603515625, -0.13037109375, -0.212158203125, 
245, 3130667659, 0.8421231508255005, -0.03485400974750519, -0.4896939992904663, -0.22324657440185547, 8.276274681091309, 1.6019004583358765, 4.989529132843018, -0.4416790306568146, 0.7593851685523987, 0.23078425228595734, -0.9365234375, -0.12939453125, -0.214599609375, 
246, 3130675992, 0.8421640396118164, -0.03487633168697357, -0.48962271213531494, -0.22324514389038086, 8.256834030151367, 1.637063980102539, 4.984079360961914, -0.579688549041748, 0.5234782099723816, 0.5377708673477173, -0.9365234375, -0.128173828125, -0.2109375, 
247, 3130684325, 0.8421863317489624, -0.03499855101108551, -0.48954230546951294, -0.22331839799880981, 8.165555000305176, 1.6425549983978271, 5.101309299468994, -2.2545905113220215, 0.24293820559978485, 0.2935263216495514, -0.9365234375, -0.129638671875, -0.211669921875, 
248, 3130692658, 0.8421933650970459, -0.035150304436683655, -0.48948466777801514, -0.22339439392089844, 8.247270584106445, 1.6148099899291992, 5.070689678192139, -2.5747170448303223, -0.22294631600379944, 0.403641939163208, -0.935546875, -0.128662109375, -0.211669921875, 
249, 3130700991, 0.8422222137451172, -0.03524439036846161, -0.48941025137901306, -0.22343367338180542, 8.313425064086914, 1.5777769088745117, 4.940745830535889, -1.677783489227295, 0.29075998067855835, 0.5153198838233948, -0.9365234375, -0.13232421875, -0.212158203125, 
250, 3130709324, 0.8422292470932007, -0.03542262315750122, -0.4893445670604706, -0.2235230803489685, 8.28128433227539, 1.6039992570877075, 4.9974164962768555, -2.9967503547668457, -0.2049010992050171, 0.42857739329338074, -0.9365234375, -0.12939453125, -0.212646484375, 
251, 3130717657, 0.8422058820724487, -0.03570470213890076, -0.48928967118263245, -0.2236858308315277, 8.280496597290039, 1.5527026653289795, 5.0874924659729, -4.700685977935791, -0.8153138756752014, 0.15063731372356415, -0.93603515625, -0.126708984375, -0.21337890625, 
252, 3130725990, 0.8422261476516724, -0.035878926515579224, -0.4891897439956665, -0.22380051016807556, 8.3372163772583, 1.442441701889038, 5.079545021057129, -3.2182745933532715, 0.30428430438041687, 0.16811902821063995, -0.9375, -0.1298828125, -0.21142578125, 
253, 3130734323, 0.8423091173171997, -0.035921573638916016, -0.4890254735946655, -0.22384008765220642, 8.407309532165527, 1.4152518510818481, 5.020493030548096, -1.3361152410507202, 1.8531769514083862, 0.3744416832923889, -0.9375, -0.128662109375, -0.208984375, 
254, 3130742656, 0.842387318611145, -0.036006197333335876, -0.48888030648231506, -0.22384992241859436, 8.300491333007812, 1.4413952827453613, 5.048183441162109, -1.5868273973464966, 1.4426065683364868, 0.9796291589736938, -0.935546875, -0.12841796875, -0.215087890625, 
255, 3130750989, 0.8424272537231445, -0.0361948162317276, -0.4887959361076355, -0.22385236620903015, 8.220678329467773, 1.4819978475570679, 5.095345497131348, -2.5626018047332764, 0.16799095273017883, 1.610379695892334, -0.9375, -0.12890625, -0.212890625, 
256, 3130759322, 0.842461109161377, -0.03647817671298981, -0.48870086669921875, -0.22388669848442078, 8.224810600280762, 1.4840227365493774, 5.1791839599609375, -3.922640800476074, -0.035168346017599106, 1.8700313568115234, -0.9365234375, -0.1318359375, -0.211181640625, 
257, 3130767655, 0.8424936532974243, -0.03672121465206146, -0.4886336028575897, -0.22387105226516724, 8.227466583251953, 1.4986095428466797, 5.211614608764648, -2.737111806869507, -0.2037612646818161, 2.3297812938690186, -0.9375, -0.127197265625, -0.2119140625, 
258, 3130775988, 0.84255450963974, -0.036902204155921936, -0.4885556399822235, -0.22378265857696533, 8.180773735046387, 1.50510573387146, 5.26861047744751, -1.8434817790985107, 0.20046979188919067, 2.6790566444396973, -0.9375, -0.126220703125, -0.21240234375, 
259, 3130784321, 0.84263014793396, -0.037046730518341064, -0.48847028613090515, -0.22366046905517578, 8.208805084228516, 1.5094246864318848, 5.210663795471191, -1.1749504804611206, 0.4961093068122864, 2.882049560546875, -0.9375, -0.1279296875, -0.21484375, 
260, 3130792654, 0.8426958322525024, -0.03719806671142578, -0.4884015619754791, -0.22353753447532654, 8.237190246582031, 1.5434383153915405, 5.147322654724121, -1.2375006675720215, 0.2004186064004898, 2.8910915851593018, -0.9384765625, -0.126708984375, -0.2099609375, 
261, 3130800987, 0.8427550792694092, -0.03736118972301483, -0.4883519411087036, -0.22339555621147156, 8.225378036499023, 1.5372308492660522, 5.112751483917236, -1.2100164890289307, -0.10596609860658646, 3.1350417137145996, -0.936767578125, -0.125732421875, -0.21533203125, 
262, 3130809320, 0.8428192734718323, -0.03748407959938049, -0.488312304019928, -0.22321903705596924, 8.297313690185547, 1.4886232614517212, 5.120267391204834, -0.46101775765419006, -0.08684506267309189, 3.300598621368408, -0.9375, -0.126708984375, -0.21435546875, 
263, 3130817653, 0.842901349067688, -0.037590622901916504, -0.48826196789741516, -0.22300130128860474, 8.360201835632324, 1.4661532640457153, 5.1305832862854, -0.05364901199936867, 0.188162162899971, 3.6911137104034424, -0.939208984375, -0.125732421875, -0.21240234375, 
264, 3130825986, 0.8430004119873047, -0.037723273038864136, -0.48818373680114746, -0.22277551889419556, 8.40107536315918, 1.4401785135269165, 5.109548091888428, -0.3426288068294525, 0.5396662354469299, 4.064364433288574, -0.935791015625, -0.123779296875, -0.21435546875, 
265, 3130834319, 0.8431464433670044, -0.037894636392593384, -0.48803186416625977, -0.2225261628627777, 8.38101863861084, 1.4041683673858643, 5.104149341583252, -0.8494192361831665, 1.582562804222107, 4.755910396575928, -0.936767578125, -0.123291015625, -0.21484375, 
266, 3130842652, 0.8433542251586914, -0.03808000683784485, -0.4877861440181732, -0.2222459316253662, 8.360326766967773, 1.3539154529571533, 5.114652156829834, -1.0458035469055176, 3.021493434906006, 5.467755317687988, -0.936279296875, -0.120849609375, -0.2158203125, 
267, 3130850985, 0.8435829877853394, -0.03821928799152374, -0.4875280559062958, -0.2219199240207672, 8.28494930267334, 1.337741732597351, 5.1240153312683105, -0.2509554922580719, 3.4258017539978027, 5.732977867126465, -0.935302734375, -0.122314453125, -0.21484375, 
268, 3130859318, 0.843813419342041, -0.03828415274620056, -0.4872921109199524, -0.22155076265335083, 8.187113761901855, 1.3458538055419922, 5.092024803161621, 0.9903231263160706, 3.381770610809326, 5.756004810333252, -0.938232421875, -0.120361328125, -0.2158203125, 
269, 3130867651, 0.8440274000167847, -0.038275688886642456, -0.4871048927307129, -0.2211480438709259, 8.152490615844727, 1.3426671028137207, 5.067606449127197, 2.239760160446167, 2.9251201152801514, 5.585158348083496, -0.937255859375, -0.123291015625, -0.21435546875, 
270, 3130875984, 0.8441998958587646, -0.03831221163272858, -0.4869646728038788, -0.22079235315322876, 8.187177658081055, 1.3444405794143677, 5.098549842834473, 1.4908894300460815, 1.9744092226028442, 5.182463645935059, -0.936767578125, -0.121826171875, -0.21435546875, 
271, 3130884317, 0.8443160653114319, -0.03833344578742981, -0.48691797256469727, -0.2204466164112091, 8.143868446350098, 1.3781555891036987, 5.069163799285889, 1.842444658279419, 0.5710565447807312, 4.722227096557617, -0.937744140625, -0.118408203125, -0.21533203125, 
272, 3130892650, 0.8443859815597534, -0.03829565644264221, -0.4869579076766968, -0.22009748220443726, 8.201045036315918, 1.3680943250656128, 5.116988658905029, 2.8010447025299072, -0.5747194290161133, 4.201887607574463, -0.938232421875, -0.118408203125, -0.21630859375, 
273, 3130900983, 0.8444139957427979, -0.03823371231555939, -0.4870627820491791, -0.2197681963443756, 8.273619651794434, 1.4139453172683716, 5.151298999786377, 3.1951327323913574, -1.5058096647262573, 3.6797282695770264, -0.938232421875, -0.119384765625, -0.2119140625, 
274, 3130909316, 0.8444362878799438, -0.038145750761032104, -0.4871731102466583, -0.21945303678512573, 8.355714797973633, 1.4013181924819946, 5.156672477722168, 3.345334529876709, -1.5383909940719604, 3.292799711227417, -0.937255859375, -0.118896484375, -0.2158203125, 
275, 3130917649, 0.8444650173187256, -0.03795996308326721, -0.4872943162918091, -0.2191045582294464, 8.406787872314453, 1.35115385055542, 5.220873832702637, 4.777682304382324, -1.3303521871566772, 3.0446488857269287, -0.93896484375, -0.11572265625, -0.214111328125, 
276, 3130925982, 0.8445481061935425, -0.03777150809764862, -0.48730555176734924, -0.2187921106815338, 8.404745101928711, 1.3895606994628906, 5.243326187133789, 4.226259231567383, 0.32111287117004395, 2.820344924926758, -0.9365234375, -0.11669921875, -0.2158203125, 
277, 3130934315, 0.8446589708328247, -0.03756798803806305, -0.48726987838745117, -0.21847832202911377, 8.339906692504883, 1.46212637424469, 5.234440326690674, 4.288783550262451, 1.1061378717422485, 2.8317177295684814, -0.938232421875, -0.118408203125, -0.216796875, 
278, 3130942648, 0.8448043465614319, -0.03732621669769287, -0.48717525601387024, -0.21816882491111755, 8.254029273986816, 1.4977645874023438, 5.238863468170166, 4.5397515296936035, 2.131065845489502, 2.6729094982147217, -0.9384765625, -0.116943359375, -0.217529296875, 
279, 3130950981, 0.844966471195221, -0.03709983825683594, -0.4870355725288391, -0.21789073944091797, 8.186625480651855, 1.4738000631332397, 5.199377536773682, 4.013225555419922, 2.741837501525879, 2.460387945175171, -0.93798828125, -0.116943359375, -0.216552734375, 
280, 3130959314, 0.8451282978057861, -0.03691476583480835, -0.48686641454696655, -0.2176729142665863, 8.13880729675293, 1.4574241638183594, 5.128559112548828, 3.053280830383301, 2.984250545501709, 2.074279308319092, -0.9384765625, -0.117431640625, -0.216552734375, 
281, 3130967647, 0.8452630043029785, -0.036806344985961914, -0.4867152273654938, -0.21750622987747192, 8.064035415649414, 1.5147016048431396, 5.115553855895996, 1.8408311605453491, 2.3941752910614014, 1.8768705129623413, -0.938720703125, -0.118408203125, -0.217529296875, 
282, 3130975980, 0.845358669757843, -0.036767736077308655, -0.4866154193878174, -0.21736422181129456, 8.020828247070312, 1.5585005283355713, 5.084380149841309, 1.0161807537078857, 1.3349242210388184, 1.9401884078979492, -0.93994140625, -0.117431640625, -0.215576171875, 
283, 3130984313, 0.845420241355896, -0.03674513101577759, -0.4865742027759552, -0.2172204852104187, 8.068077087402344, 1.5609537363052368, 5.064921855926514, 1.0624910593032837, 0.39580392837524414, 1.961012840270996, -0.9384765625, -0.116943359375, -0.215576171875, 
284, 3130992646, 0.8454750776290894, -0.03676903247833252, -0.48654043674468994, -0.21707862615585327, 8.1281099319458, 1.570412516593933, 5.107835292816162, 0.4654747247695923, 0.10710593312978745, 2.201735734939575, -0.9345703125, -0.11669921875, -0.21728515625, 
285, 3131000979, 0.8455042243003845, -0.0367753803730011, -0.4865592122077942, -0.21692165732383728, 8.169979095458984, 1.5753313302993774, 5.106958866119385, 0.9463564157485962, -0.6179434657096863, 2.16170072555542, -0.93701171875, -0.11328125, -0.216552734375, 
286, 3131009312, 0.8455081582069397, -0.03674003481864929, -0.48662829399108887, -0.2167574167251587, 8.261910438537598, 1.5688576698303223, 5.067253112792969, 1.5837923288345337, -1.2639857530593872, 1.8597087860107422, -0.9365234375, -0.116943359375, -0.21923828125, 
287, 3131017645, 0.8454831838607788, -0.03671532869338989, -0.4867537021636963, -0.2165769338607788, 8.290925025939941, 1.5591542720794678, 5.183114528656006, 1.7593135833740234, -2.1377768516540527, 2.0147130489349365, -0.9375, -0.115966796875, -0.217041015625, 
288, 3131025978, 0.8454689383506775, -0.03674487769603729, -0.48683157563209534, -0.21645265817642212, 8.332083702087402, 1.5523091554641724, 5.172776222229004, 0.5809563994407654, -1.6596616506576538, 1.7731196880340576, -0.93994140625, -0.114990234375, -0.216552734375, 
289, 3131034311, 0.8454360365867615, -0.036762699484825134, -0.48693710565567017, -0.21634036302566528, 8.356833457946777, 1.455200433731079, 5.173582553863525, 0.756068229675293, -2.050675630569458, 1.5020828247070312, -0.9404296875, -0.114501953125, -0.217041015625, 
290, 3131042644, 0.8454442024230957, -0.036872461438179016, -0.48691287636756897, -0.2163442075252533, 8.369555473327637, 1.4462753534317017, 5.228602886199951, -1.501583218574524, -0.4958403706550598, 0.9378779530525208, -0.93896484375, -0.115966796875, -0.216552734375, 
291, 3131050977, 0.8454462289810181, -0.03697521984577179, -0.48690444231033325, -0.21633824706077576, 8.307534217834473, 1.4333239793777466, 5.113193035125732, -1.215549111366272, -0.6834902763366699, 1.0242236852645874, -0.93798828125, -0.114990234375, -0.217041015625, 
292, 3131059310, 0.8454439640045166, -0.037032127380371094, -0.4869198799133301, -0.21630257368087769, 8.262985229492188, 1.4667547941207886, 5.152271270751953, -0.5108119249343872, -0.8904147744178772, 0.9927308559417725, -0.9375, -0.11572265625, -0.213623046875, 
293, 3131067643, 0.8454239368438721, -0.03710399568080902, -0.48695823550224304, -0.21628159284591675, 8.238927841186523, 1.5276846885681152, 5.144798278808594, -0.9802823066711426, -1.3521754741668701, 0.6828370690345764, -0.9375, -0.11572265625, -0.214111328125, 
294, 3131075976, 0.8453842401504517, -0.03713960945606232, -0.48701924085617065, -0.21629345417022705, 8.196693420410156, 1.5573885440826416, 5.134081840515137, -0.46364322304725647, -1.5831644535064697, 0.1632523089647293, -0.9384765625, -0.115966796875, -0.215576171875, 
295, 3131084309, 0.8453515768051147, -0.03718635439872742, -0.4870515763759613, -0.21634048223495483, 8.189261436462402, 1.5209232568740845, 5.20078182220459, -0.8648133873939514, -1.203843355178833, -0.12007953226566315, -0.9365234375, -0.115966796875, -0.21728515625, 
296, 3131092642, 0.845317006111145, -0.037207961082458496, -0.48707500100135803, -0.2164187729358673, 8.158447265625, 1.5187270641326904, 5.184166431427002, -0.8549262881278992, -1.035890817642212, -0.6677118539810181, -0.93701171875, -0.116943359375, -0.216796875, 
297, 3131100975, 0.8452852964401245, -0.037224382162094116, -0.487091600894928, -0.21650215983390808, 8.139291763305664, 1.521073818206787, 5.164559841156006, -0.7575665712356567, -0.8976507782936096, -0.7063124775886536, -0.93896484375, -0.115966796875, -0.216064453125, 
298, 3131109308, 0.8452436923980713, -0.037246182560920715, -0.48711851239204407, -0.21660059690475464, 8.222625732421875, 1.518695592880249, 5.072851657867432, -0.9853028059005737, -1.114526629447937, -0.9238541722297668, -0.93701171875, -0.116943359375, -0.21630859375, 
299, 3131117641, 0.8451839685440063, -0.037293896079063416, -0.48716360330581665, -0.21672382950782776, 8.313737869262695, 1.49996018409729, 5.073033332824707, -1.3526365756988525, -1.4957687854766846, -1.080895185470581, -0.93896484375, -0.115234375, -0.212646484375, 
300, 3131125974, 0.8451237082481384, -0.03735487163066864, -0.4872027337551117, -0.21686026453971863, 8.346683502197266, 1.4371830224990845, 5.1207780838012695, -1.6695358753204346, -1.479068398475647, -1.1663954257965088, -0.9375, -0.116455078125, -0.216064453125, 
301, 3131134307, 0.8450919389724731, -0.03739720582962036, -0.487199604511261, -0.21698379516601562, 8.327149391174316, 1.436479091644287, 5.169589042663574, -1.5172336101531982, -0.7487297654151917, -1.070521354675293, -0.9404296875, -0.114990234375, -0.215576171875, 
302, 3131142640, 0.8450879454612732, -0.03744949400424957, -0.4871540069580078, -0.2170926332473755, 8.285455703735352, 1.5292495489120483, 5.1290788650512695, -1.6077032089233398, -0.10537697374820709, -0.691277027130127, -0.9365234375, -0.116943359375, -0.21630859375, 
303, 3131150973, 0.8450671434402466, -0.03747902810573578, -0.48715150356292725, -0.21717369556427002, 8.271111488342285, 1.5437982082366943, 5.074920654296875, -1.1299207210540771, -0.6737312078475952, -0.6634855270385742, -0.93603515625, -0.1142578125, -0.216064453125, 
304, 3131159306, 0.8450203537940979, -0.0375400185585022, -0.4871911108493805, -0.21725666522979736, 8.305529594421387, 1.4606140851974487, 5.100479602813721, -1.3033291101455688, -1.4226658344268799, -0.5040369629859924, -0.93896484375, -0.117431640625, -0.215576171875, 
305, 3131167639, 0.8449770212173462, -0.037626951932907104, -0.4872254431247711, -0.21733319759368896, 8.31241226196289, 1.433619499206543, 5.144627571105957, -1.6024779081344604, -1.416313648223877, -0.2750456929206848, -0.93701171875, -0.1162109375, -0.215576171875, 
306, 3131175972, 0.8449534177780151, -0.03771673142910004, -0.48722517490386963, -0.2174101173877716, 8.328575134277344, 1.3977028131484985, 5.159948348999023, -1.7050371170043945, -0.8927841186523438, -0.15161064267158508, -0.93701171875, -0.1162109375, -0.215576171875, 
307, 3131184305, 0.844955325126648, -0.03779566287994385, -0.48718661069869995, -0.21747493743896484, 8.339936256408691, 1.3744045495986938, 5.155533790588379, -1.559586763381958, -0.2369188815355301, 0.024000540375709534, -0.9375, -0.116455078125, -0.217529296875, 
308, 3131192638, 0.8449805974960327, -0.03785453736782074, -0.48711347579956055, -0.2175302505493164, 8.336503028869629, 1.4066492319107056, 5.132857799530029, -1.3932222127914429, 0.3630049228668213, 0.07735498994588852, -0.93896484375, -0.115478515625, -0.216552734375, 
309, 3131200971, 0.8450150489807129, -0.037902429699897766, -0.4870244264602661, -0.2175876498222351, 8.331245422363281, 1.388295292854309, 5.1316142082214355, -1.3608330488204956, 0.6429556608200073, -0.024384750053286552, -0.9365234375, -0.116455078125, -0.216796875, 
310, 3131209304, 0.8450586199760437, -0.03799276053905487, -0.48691046237945557, -0.21765753626823425, 8.28657341003418, 1.3662465810775757, 5.173070907592773, -1.9674550294876099, 0.8746107816696167, 0.19445045292377472, -0.93701171875, -0.117431640625, -0.2177734375, 
311, 3131217637, 0.8451178669929504, -0.038087740540504456, -0.48678749799728394, -0.21768581867218018, 8.26544189453125, 1.4130555391311646, 5.163143634796143, -1.798144817352295, 1.0469945669174194, 0.7269448041915894, -0.93798828125, -0.117431640625, -0.216064453125, 
312, 3131225970, 0.845191478729248, -0.03819987177848816, -0.4866405129432678, -0.21770918369293213, 8.245739936828613, 1.4407881498336792, 5.135339736938477, -1.994555115699768, 1.3690426349639893, 0.9869293570518494, -0.93701171875, -0.11669921875, -0.2158203125, 
313, 3131234303, 0.8452398777008057, -0.038326337933540344, -0.48655176162719727, -0.21769678592681885, 8.234734535217285, 1.4379591941833496, 5.135097980499268, -1.718740701675415, 0.47536173462867737, 1.4043132066726685, -0.939453125, -0.115966796875, -0.216552734375, 
314, 3131242636, 0.8452813029289246, -0.03835460543632507, -0.48652154207229614, -0.21759867668151855, 8.261181831359863, 1.3913631439208984, 5.011358261108398, 0.126956969499588, -0.016726097092032433, 1.681254267692566, -0.93896484375, -0.116455078125, -0.217041015625, 
315, 3131250969, 0.8452895879745483, -0.03833925724029541, -0.4865385890007019, -0.2175309956073761, 8.23621940612793, 1.4116636514663696, 5.090756893157959, 0.559991180896759, -0.632440984249115, 0.9016338586807251, -0.93994140625, -0.11474609375, -0.215576171875, 
316, 3131259302, 0.8452375531196594, -0.03838667273521423, -0.48661983013153076, -0.2175433337688446, 8.160279273986816, 1.3918745517730713, 5.215091228485107, -0.5512951612472534, -1.937230110168457, 0.1865868866443634, -0.93798828125, -0.11474609375, -0.216552734375, 
317, 3131267635, 0.8452045321464539, -0.03829778730869293, -0.48671388626098633, -0.21747639775276184, 8.261346817016602, 1.3697601556777954, 5.065169811248779, 1.6481095552444458, -1.5775808095932007, 0.2561551630496979, -0.93798828125, -0.116455078125, -0.216552734375, 
318, 3131275968, 0.8451982736587524, -0.038054078817367554, -0.4868180751800537, -0.21731036901474, 8.385519981384277, 1.4373070001602173, 4.973171234130859, 4.119870662689209, -1.1217626333236694, 0.4364153742790222, -0.93701171875, -0.115234375, -0.216552734375, 
319, 3131284301, 0.8451651334762573, -0.037991300225257874, -0.4869137406349182, -0.21723583340644836, 8.298470497131348, 1.5412802696228027, 5.0074639320373535, 1.3409435749053955, -1.6892586946487427, 0.48056143522262573, -0.93701171875, -0.115234375, -0.215576171875, 
320, 3131292634, 0.8451007604598999, -0.03813613951206207, -0.4869906008243561, -0.21728909015655518, 8.270541191101074, 1.5419931411743164, 5.133915901184082, -1.977687954902649, -2.2385690212249756, 0.3288355767726898, -0.93896484375, -0.11376953125, -0.214111328125, 
321, 3131300967, 0.8450462222099304, -0.038420796394348145, -0.48700883984565735, -0.21740996837615967, 8.228846549987793, 1.4165985584259033, 5.313114166259766, -4.244317531585693, -1.8685457706451416, 0.5155889391899109, -0.93701171875, -0.11474609375, -0.216552734375, 
322, 3131309300, 0.8450716137886047, -0.038631319999694824, -0.48691728711128235, -0.21747902035713196, 8.249878883361816, 1.3431552648544312, 5.223023891448975, -3.3023667335510254, 0.13100402057170868, 0.9426167011260986, -0.9384765625, -0.11572265625, -0.214599609375, 
323, 3131317633, 0.8451048135757446, -0.03874310851097107, -0.48686426877975464, -0.2174491286277771, 8.206719398498535, 1.3971565961837769, 5.07190465927124, -1.2731555700302124, 0.005519867409020662, 1.4853054285049438, -0.93505859375, -0.11572265625, -0.2158203125, 
324, 3131325966, 0.845041036605835, -0.03891126811504364, -0.4869725704193115, -0.21742448210716248, 8.116254806518555, 1.4997848272323608, 5.078094959259033, -1.6329972743988037, -2.7099990844726562, 1.3740756511688232, -0.93798828125, -0.115234375, -0.214111328125, 
325, 3131334299, 0.8449317216873169, -0.03913073241710663, -0.48712676763534546, -0.21746456623077393, 8.172401428222656, 1.455381989479065, 5.151741027832031, -2.476179361343384, -3.6479029655456543, 0.8361639380455017, -0.9375, -0.11181640625, -0.215087890625, 
326, 3131342632, 0.8448622822761536, -0.03921373188495636, -0.4872371256351471, -0.21747231483459473, 8.272148132324219, 1.3908153772354126, 5.166633605957031, -0.8565913438796997, -2.4999494552612305, 0.41089072823524475, -0.9375, -0.11279296875, -0.215576171875, 
327, 3131350965, 0.8448176383972168, -0.039168402552604675, -0.4873449504375458, -0.21741273999214172, 8.297219276428223, 1.4388924837112427, 5.106725215911865, 0.980602502822876, -1.9700675010681152, 0.3254672884941101, -0.9384765625, -0.11328125, -0.214599609375, 
328, 3131359298, 0.844743013381958, -0.03911639750003815, -0.4874991774559021, -0.2173660695552826, 8.278685569763184, 1.475272536277771, 5.028565883636475, 1.205470085144043, -2.669848918914795, 0.09978026151657104, -0.9384765625, -0.11279296875, -0.216552734375, 
329, 3131367631, 0.8446388244628906, -0.039179980754852295, -0.48766469955444336, -0.2173880636692047, 8.318533897399902, 1.4788668155670166, 4.994694232940674, -0.7365245223045349, -3.3269436359405518, -0.12869873642921448, -0.939453125, -0.11474609375, -0.216064453125, 
330, 3131375964, 0.8444952964782715, -0.03937065601348877, -0.48785150051116943, -0.21749207377433777, 8.34443187713623, 1.4619070291519165, 5.071984767913818, -2.564023494720459, -4.157485008239746, -0.24803544580936432, -0.93701171875, -0.11474609375, -0.212646484375, 
331, 3131384297, 0.8443604111671448, -0.039609938859939575, -0.48801302909851074, -0.2176097333431244, 8.333779335021973, 1.4590301513671875, 5.211817741394043, -3.395679473876953, -3.9521994590759277, -0.12177006900310516, -0.93798828125, -0.1142578125, -0.215576171875, 
332, 3131392630, 0.8442566394805908, -0.03976501524448395, -0.4881477355957031, -0.21768218278884888, 8.342944145202637, 1.4455862045288086, 5.230706214904785, -2.0733439922332764, -3.1922764778137207, 0.028803205117583275, -0.93798828125, -0.1142578125, -0.210693359375, 
333, 3131400963, 0.8442103862762451, -0.0398842990398407, -0.48818543553352356, -0.21775537729263306, 8.320058822631836, 1.449176549911499, 5.2006659507751465, -1.8288438320159912, -1.5509804487228394, 0.04613124206662178, -0.9384765625, -0.111328125, -0.214599609375, 
334, 3131409296, 0.8441648483276367, -0.04002615809440613, -0.48820069432258606, -0.21787184476852417, 8.271721839904785, 1.4175323247909546, 5.147887706756592, -2.5402660369873047, -1.3527134656906128, -0.33180680871009827, -0.9384765625, -0.1142578125, -0.211669921875, 
335, 3131417629, 0.8440907001495361, -0.0401870459318161, -0.4882516860961914, -0.21801495552062988, 8.237374305725098, 1.3870110511779785, 5.109410762786865, -2.8684613704681396, -1.9982432126998901, -0.6471436619758606, -0.9365234375, -0.1142578125, -0.210693359375, 
336, 3131425962, 0.8439943790435791, -0.04029694199562073, -0.4883456826210022, -0.2181573510169983, 8.226945877075195, 1.4039676189422607, 5.131141185760498, -2.135894298553467, -2.497541904449463, -1.0428324937820435, -0.9375, -0.1142578125, -0.214111328125, 
337, 3131434295, 0.8438974618911743, -0.04031737148761749, -0.48845696449279785, -0.21827921271324158, 8.22491455078125, 1.4409511089324951, 5.112473964691162, -0.8721134662628174, -2.431431293487549, -1.4107552766799927, -0.939453125, -0.11474609375, -0.210693359375, 
338, 3131442628, 0.8438024520874023, -0.040287911891937256, -0.4885704815387726, -0.2183980941772461, 8.243417739868164, 1.4648969173431396, 5.092184543609619, -0.30135148763656616, -2.310250759124756, -1.713899850845337, -0.9384765625, -0.11474609375, -0.210693359375, 
339, 3131450961, 0.8436886668205261, -0.04029221832752228, -0.48868682980537415, -0.2185763120651245, 8.253228187561035, 1.4625978469848633, 5.052565574645996, -1.003002405166626, -2.5158047676086426, -2.1890695095062256, -0.9384765625, -0.115234375, -0.212158203125, 
340, 3131459294, 0.8435398936271667, -0.04034407436847687, -0.48884204030036926, -0.21879377961158752, 8.29743480682373, 1.4722273349761963, 5.045446872711182, -1.8120790719985962, -3.344860792160034, -2.497772216796875, -0.93798828125, -0.115234375, -0.211669921875, 
341, 3131467627, 0.8433704376220703, -0.04040025174617767, -0.48903629183769226, -0.2190021276473999, 8.315451622009277, 1.448940396308899, 5.050734519958496, -1.6815744638442993, -3.9460010528564453, -2.4488232135772705, -0.939453125, -0.1142578125, -0.212646484375, 
342, 3131475960, 0.8432027101516724, -0.04043656587600708, -0.48922261595726013, -0.21922537684440613, 8.396097183227539, 1.4232869148254395, 5.059958457946777, -1.5869812965393066, -3.782710313796997, -2.7402877807617188, -0.93896484375, -0.115234375, -0.212158203125, 
343, 3131484293, 0.8430483341217041, -0.0404890775680542, -0.48937392234802246, -0.21947109699249268, 8.431049346923828, 1.4135771989822388, 5.053514003753662, -2.057360887527466, -3.320911169052124, -2.869511604309082, -0.939453125, -0.11572265625, -0.206787109375, 
344, 3131492626, 0.842893660068512, -0.040609851479530334, -0.48949506878852844, -0.219773530960083, 8.382840156555176, 1.40874445438385, 5.124439716339111, -3.289315938949585, -3.151024580001831, -3.0161914825439453, -0.93798828125, -0.11669921875, -0.210693359375, 
345, 3131500959, 0.8427404165267944, -0.04073452949523926, -0.4895968735218048, -0.22011062502861023, 8.300622940063477, 1.4787575006484985, 5.134326457977295, -3.623863697052002, -2.9009785652160645, -3.388930082321167, -0.93798828125, -0.11572265625, -0.209716796875, 
346, 3131509292, 0.8425724506378174, -0.04079939424991608, -0.48972147703170776, -0.2204638421535492, 8.270333290100098, 1.5341315269470215, 5.102022171020508, -2.979550361633301, -3.0821096897125244, -4.020897388458252, -0.939208984375, -0.11865234375, -0.210205078125, 
347, 3131517625, 0.8423546552658081, -0.040771350264549255, -0.48992475867271423, -0.22084969282150269, 8.220385551452637, 1.5603123903274536, 5.101690292358398, -1.90101158618927, -4.019949436187744, -5.230785369873047, -0.938720703125, -0.11962890625, -0.20849609375, 
348, 3131525958, 0.8421192765235901, -0.04065166413784027, -0.4901632070541382, -0.22123998403549194, 8.21011734008789, 1.537975788116455, 5.108420372009277, -0.7830528616905212, -4.275298118591309, -5.962738037109375, -0.938720703125, -0.11865234375, -0.208251953125, 
349, 3131534291, 0.8419232368469238, -0.04048812389373779, -0.4903255105018616, -0.22165632247924805, 8.253545761108398, 1.474749207496643, 5.076858997344971, -0.6381018757820129, -2.966769218444824, -6.399563312530518, -0.938720703125, -0.11767578125, -0.205810546875, 
350, 3131542624, 0.841750979423523, -0.04026319086551666, -0.4904683828353882, -0.22203528881072998, 8.317090034484863, 1.4888725280761719, 5.005826473236084, 0.25612953305244446, -2.427332878112793, -6.29777193069458, -0.938720703125, -0.122314453125, -0.208984375, 
351, 3131550957, 0.8415940403938293, -0.04010803997516632, -0.49058133363723755, -0.22240802645683289, 8.363740921020508, 1.5335959196090698, 4.953682899475098, -0.46671703457832336, -2.1657605171203613, -5.626320838928223, -0.937744140625, -0.1220703125, -0.2080078125, 
352, 3131559290, 0.8414500951766968, -0.0400409996509552, -0.49068987369537354, -0.2227253019809723, 8.431070327758789, 1.5516188144683838, 4.909337997436523, -1.243699073791504, -2.355203151702881, -4.412768840789795, -0.937744140625, -0.1220703125, -0.20751953125, 
353, 3131567623, 0.8413265943527222, -0.04007136821746826, -0.49076205492019653, -0.22302734851837158, 8.414003372192383, 1.599780559539795, 4.956336498260498, -2.380356550216675, -2.0987024307250977, -3.5134787559509277, -0.939208984375, -0.1220703125, -0.2041015625, 
354, 3131575956, 0.8412082195281982, -0.040242522954940796, -0.49079927802085876, -0.22336053848266602, 8.388598442077637, 1.571122407913208, 5.0989274978637695, -4.313002109527588, -2.0795176029205322, -2.871509552001953, -0.939208984375, -0.124267578125, -0.20654296875, 
355, 3131584289, 0.841116189956665, -0.040450334548950195, -0.49082159996032715, -0.22362059354782104, 8.482434272766113, 1.4549403190612793, 4.96994686126709, -4.227732181549072, -1.8659716844558716, -1.6731986999511719, -0.938232421875, -0.12353515625, -0.205078125, 
356, 3131592622, 0.841078519821167, -0.04063493013381958, -0.49076932668685913, -0.22384363412857056, 8.478069305419922, 1.386167287826538, 4.916939735412598, -3.9554271697998047, -0.6044959425926208, -1.2088381052017212, -0.939208984375, -0.1220703125, -0.2060546875, 
357, 3131600955, 0.8409997224807739, -0.04093289375305176, -0.4907730519771576, -0.22407734394073486, 8.414060592651367, 1.3087581396102905, 4.987026214599609, -5.200099468231201, -1.86307692527771, -0.7448362708091736, -0.938232421875, -0.123291015625, -0.2080078125, 
358, 3131609288, 0.8409258723258972, -0.0412207692861557, -0.49077776074409485, -0.22429141402244568, 8.390767097473145, 1.195826768875122, 5.035305023193359, -4.933352470397949, -1.8273706436157227, -0.551423192024231, -0.935791015625, -0.123046875, -0.20556640625, 
359, 3131617621, 0.8409329056739807, -0.04131820797920227, -0.4907057285308838, -0.22440442442893982, 8.401854515075684, 1.2068202495574951, 4.972989559173584, -2.2064998149871826, 0.14843450486660004, -0.366168349981308, -0.938232421875, -0.123046875, -0.20556640625, 
360, 3131625954, 0.8409430980682373, -0.04133455455303192, -0.4906679689884186, -0.2244459092617035, 8.338769912719727, 1.2529420852661133, 4.935232639312744, -0.7120501399040222, -0.030199185013771057, -0.10542819648981094, -0.938232421875, -0.1220703125, -0.20458984375, 
361, 3131634287, 0.8409178256988525, -0.04137660562992096, -0.49069344997406006, -0.22447669506072998, 8.271082878112793, 1.2899723052978516, 4.943823337554932, -0.5391028523445129, -1.0366337299346924, 0.17055238783359528, -0.936767578125, -0.1240234375, -0.20654296875, 
362, 3131642620, 0.840897798538208, -0.04142741858959198, -0.4907069802284241, -0.22451332211494446, 8.3524751663208, 1.2742217779159546, 4.9497456550598145, -0.9362772107124329, -0.9381213784217834, 0.0605904757976532, -0.938232421875, -0.1220703125, -0.20654296875, 
363, 3131650953, 0.8408833742141724, -0.04145781695842743, -0.49070942401885986, -0.22455617785453796, 8.384427070617676, 1.3321452140808105, 4.939116954803467, -0.7326951622962952, -0.687998354434967, -0.11193420737981796, -0.938232421875, -0.12353515625, -0.20703125, 
364, 3131659286, 0.8408575654029846, -0.041474953293800354, -0.49073293805122375, -0.22459831833839417, 8.36613655090332, 1.3499131202697754, 4.997319221496582, -0.5569174885749817, -0.9825491905212402, -0.2530558109283447, -0.939208984375, -0.123046875, -0.20556640625, 
365, 3131667619, 0.8408443331718445, -0.04144364595413208, -0.490756630897522, -0.22460174560546875, 8.401178359985352, 1.3837960958480835, 4.988678932189941, 0.2746870517730713, -0.7648282051086426, -0.10667048394680023, -0.938720703125, -0.125244140625, -0.20556640625, 
366, 3131675952, 0.8408602476119995, -0.04134298861026764, -0.49074113368988037, -0.22459477186203003, 8.4226655960083, 1.3720512390136719, 5.021967887878418, 1.0381065607070923, 0.08436048775911331, -0.3295527696609497, -0.937744140625, -0.12548828125, -0.20361328125, 
367, 3131684285, 0.8408910036087036, -0.041228294372558594, -0.49068179726600647, -0.22463065385818481, 8.362903594970703, 1.3122248649597168, 5.0876665115356445, 0.9284904599189758, 0.7932727932929993, -0.7769693732261658, -0.936767578125, -0.12255859375, -0.20751953125, 
368, 3131692618, 0.8409576416015625, -0.04111681878566742, -0.4905547797679901, -0.22467920184135437, 8.342995643615723, 1.3020282983779907, 5.080350875854492, 0.4734150767326355, 1.7813290357589722, -0.8245477676391602, -0.939697265625, -0.12255859375, -0.20703125, 
369, 3131700951, 0.8410353660583496, -0.04101434350013733, -0.49041783809661865, -0.22470614314079285, 8.319095611572266, 1.3177632093429565, 5.0461273193359375, 0.44324150681495667, 1.931198000907898, -0.5165878534317017, -0.939208984375, -0.122802734375, -0.2080078125, 
370, 3131709284, 0.8411126732826233, -0.04094281792640686, -0.4902936816215515, -0.22470083832740784, 8.279129028320312, 1.3964914083480835, 5.100559234619141, 0.39061710238456726, 1.6658475399017334, 0.09902464598417282, -0.937255859375, -0.123779296875, -0.2099609375, 
371, 3131717617, 0.8411849737167358, -0.040933430194854736, -0.49018198251724243, -0.224674791097641, 8.252677917480469, 1.3847403526306152, 5.143380641937256, -0.17212766408920288, 1.2907397747039795, 0.711909294128418, -0.940673828125, -0.123779296875, -0.2060546875, 
372, 3131725950, 0.8412725925445557, -0.04094327986240387, -0.4900352954864502, -0.22466552257537842, 8.220608711242676, 1.364013910293579, 5.157499313354492, -0.5879747867584229, 1.7427284717559814, 0.7366014122962952, -0.936767578125, -0.123046875, -0.2060546875, 
373, 3131734283, 0.841368556022644, -0.04093313217163086, -0.48987799882888794, -0.2246507704257965, 8.207921028137207, 1.3134407997131348, 5.14095401763916, -0.4507336914539337, 1.9706951379776, 0.6211580038070679, -0.938232421875, -0.12353515625, -0.20654296875, 
374, 3131742616, 0.8414487838745117, -0.04089488089084625, -0.4897644817829132, -0.22460517287254333, 8.17943286895752, 1.3346132040023804, 5.101994037628174, 0.3123015761375427, 1.4369969367980957, 0.7928501963615417, -0.938720703125, -0.123291015625, -0.2080078125, 
375, 3131750949, 0.8414950966835022, -0.040829792618751526, -0.4897148609161377, -0.2245510220527649, 8.20360279083252, 1.4003547430038452, 5.114683151245117, 1.0113396644592285, 0.5828647017478943, 0.6507936716079712, -0.939208984375, -0.123291015625, -0.208984375, 
376, 3131759282, 0.8415168523788452, -0.04074662923812866, -0.4897086024284363, -0.22449877858161926, 8.20184326171875, 1.4051188230514526, 5.131900310516357, 1.1741693019866943, -0.06208890303969383, 0.32510867714881897, -0.938232421875, -0.122314453125, -0.20849609375, 
377, 3131767615, 0.8415112495422363, -0.040648624300956726, -0.48973217606544495, -0.2244861125946045, 8.20766544342041, 1.4399173259735107, 5.135290622711182, 1.2141786813735962, -0.5059067010879517, -0.3133133351802826, -0.936279296875, -0.124267578125, -0.2099609375, 
378, 3131775948, 0.8415043354034424, -0.04049365222454071, -0.489757239818573, -0.22448554635047913, 8.254192352294922, 1.4078441858291626, 5.072986125946045, 1.73896324634552, -0.3668726980686188, -0.8609456419944763, -0.935791015625, -0.123779296875, -0.20947265625, 
379, 3131784281, 0.8414573669433594, -0.040343061089515686, -0.48983317613601685, -0.22452235221862793, 8.2623929977417, 1.431809902191162, 5.055296421051025, 1.5657597780227661, -1.2112714052200317, -1.4325016736984253, -0.938720703125, -0.123779296875, -0.2080078125, 
380, 3131792614, 0.8413591384887695, -0.04023538529872894, -0.4899758994579315, -0.22459840774536133, 8.281094551086426, 1.4751397371292114, 5.058413505554199, 0.988299548625946, -2.446504831314087, -1.7770769596099854, -0.935791015625, -0.123046875, -0.20703125, 
381, 3131800947, 0.841256320476532, -0.04013600945472717, -0.4901166260242462, -0.22469455003738403, 8.315722465515137, 1.5094636678695679, 5.096884250640869, 0.7903400659561157, -2.4554834365844727, -1.9543405771255493, -0.936279296875, -0.123046875, -0.20654296875, 
382, 3131809280, 0.8411797285079956, -0.0400223433971405, -0.4902040660381317, -0.22481119632720947, 8.336837768554688, 1.5568114519119263, 5.1043877601623535, 0.624385416507721, -1.6209712028503418, -2.187865734100342, -0.937255859375, -0.124755859375, -0.2080078125, 
383, 3131817613, 0.8411551117897034, -0.03990989923477173, -0.49020129442214966, -0.2249288260936737, 8.346030235290527, 1.5577551126480103, 5.13787317276001, 0.35082536935806274, -0.2213325947523117, -1.9981919527053833, -0.938720703125, -0.125244140625, -0.20703125, 
384, 3131825946, 0.841182291507721, -0.03982250392436981, -0.49011141061782837, -0.2250385284423828, 8.304150581359863, 1.501821756362915, 5.139993667602539, -0.12404973804950714, 1.0426145792007446, -1.5123156309127808, -0.936767578125, -0.124755859375, -0.20751953125, 
385, 3131834279, 0.8412394523620605, -0.03976365923881531, -0.48997268080711365, -0.22513747215270996, 8.2666015625, 1.4565458297729492, 5.103264808654785, -0.4110828638076782, 1.745597243309021, -1.0265673398971558, -0.937255859375, -0.125244140625, -0.20654296875, 
386, 3131842612, 0.8413176536560059, -0.039689838886260986, -0.48981237411499023, -0.22520649433135986, 8.254237174987793, 1.45894193649292, 5.079936504364014, -0.19786998629570007, 2.1396467685699463, -0.7549027800559998, -0.93701171875, -0.125732421875, -0.21044921875, 
387, 3131850945, 0.8413863182067871, -0.039600253105163574, -0.4896797835826874, -0.22525432705879211, 8.225323677062988, 1.4232335090637207, 5.052651405334473, 0.2038508802652359, 1.7965184450149536, -0.6779575347900391, -0.937255859375, -0.125244140625, -0.2109375, 
388, 3131859278, 0.8414101600646973, -0.03955455124378204, -0.48960813879966736, -0.2253289520740509, 8.176457405090332, 1.4473706483840942, 5.031002044677734, -0.3152984380722046, 0.6642026901245117, -0.8471012711524963, -0.937744140625, -0.125244140625, -0.2099609375, 
389, 3131867611, 0.8413940668106079, -0.03953710198402405, -0.48959094285964966, -0.2254299819469452, 8.165528297424316, 1.4454965591430664, 5.061580657958984, -0.618955135345459, -0.29168209433555603, -1.096071481704712, -0.939453125, -0.126220703125, -0.20947265625, 
390, 3131875944, 0.8413654565811157, -0.03948919475078583, -0.4895971417427063, -0.2255319058895111, 8.169013023376465, 1.4470988512039185, 5.072689056396484, -0.26091939210891724, -0.5693916082382202, -1.3825410604476929, -0.93701171875, -0.126220703125, -0.2080078125, 
391, 3131884277, 0.8413450717926025, -0.03938913345336914, -0.4896104335784912, -0.22559627890586853, 8.229925155639648, 1.4619266986846924, 5.096822738647461, 0.4775902032852173, -0.4739401638507843, -1.3809401988983154, -0.935546875, -0.126220703125, -0.20947265625, 
392, 3131892610, 0.8413110971450806, -0.039323896169662476, -0.4896347224712372, -0.22568142414093018, 8.241069793701172, 1.508992314338684, 5.138309001922607, 0.1061069667339325, -0.7690929174423218, -1.3320937156677246, -0.93603515625, -0.1259765625, -0.2060546875, 
393, 3131900943, 0.8412836194038391, -0.039288297295570374, -0.4896462857723236, -0.2257654368877411, 8.234345436096191, 1.5363163948059082, 5.152021408081055, -0.29233524203300476, -0.669043779373169, -1.1223901510238647, -0.9384765625, -0.126220703125, -0.208984375, 
394, 3131909276, 0.8412709832191467, -0.0392424613237381, -0.48963260650634766, -0.22585004568099976, 8.269001007080078, 1.5380758047103882, 5.1402974128723145, -0.2222547084093094, -0.24761278927326202, -1.1070727109909058, -0.93603515625, -0.126220703125, -0.20849609375, 
395, 3131917609, 0.841280996799469, -0.03915731608867645, -0.4895910918712616, -0.22591760754585266, 8.310158729553223, 1.523376703262329, 5.125977516174316, 0.27413633465766907, 0.34841760993003845, -1.1045113801956177, -0.938720703125, -0.125732421875, -0.20849609375, 
396, 3131925942, 0.8412902355194092, -0.0390402227640152, -0.4895640015602112, -0.22596204280853271, 8.29195499420166, 1.5180978775024414, 5.085449695587158, 0.8429772853851318, 0.2556428611278534, -1.0472891330718994, -0.93701171875, -0.126708984375, -0.208984375, 
397, 3131934275, 0.8412959575653076, -0.03896830976009369, -0.48954182863235474, -0.22600096464157104, 8.280474662780762, 1.5020970106124878, 5.080728530883789, 0.3412584364414215, 0.03101883828639984, -0.7285328507423401, -0.939453125, -0.127197265625, -0.20947265625, 
398, 3131942608, 0.841294527053833, -0.03892016410827637, -0.4895341694355011, -0.22603100538253784, 8.322626113891602, 1.4887140989303589, 5.077159404754639, 0.1972680240869522, -0.2629813253879547, -0.4595705568790436, -0.937744140625, -0.125732421875, -0.20947265625, 
399, 3131950941, 0.8413130044937134, -0.038876116275787354, -0.48951148986816406, -0.22601929306983948, 8.290373802185059, 1.4855310916900635, 5.079076290130615, 0.15286575257778168, -0.02826530672609806, -0.04535000026226044, -0.93603515625, -0.128173828125, -0.20849609375, 
400, 3131959274, 0.8413193821907043, -0.03887812793254852, -0.4895049035549164, -0.22600916028022766, 8.275388717651367, 1.5331116914749146, 5.104154109954834, -0.10583801567554474, -0.40209224820137024, 0.36524614691734314, -0.9365234375, -0.126220703125, -0.20947265625, 
401, 3131967607, 0.8413230776786804, -0.03889325261116028, -0.4895060658454895, -0.2259906530380249, 8.232407569885254, 1.5722664594650269, 5.107316017150879, -0.19031375646591187, -0.548528790473938, 0.51455157995224, -0.93994140625, -0.128173828125, -0.208984375, 
402, 3131975940, 0.8413312435150146, -0.038895413279533386, -0.4895000457763672, -0.22597306966781616, 8.230791091918945, 1.566973328590393, 5.118653297424316, -0.05295742303133011, -0.39979973435401917, 0.45910948514938354, -0.9384765625, -0.129150390625, -0.21044921875, 
403, 3131984273, 0.8413341045379639, -0.03892567753791809, -0.48949477076530457, -0.22596779465675354, 8.223502159118652, 1.5480968952178955, 5.145819664001465, -0.4838144779205322, -0.5220821499824524, 0.4612868130207062, -0.93896484375, -0.127197265625, -0.208984375, 
404, 3131992606, 0.8413537740707397, -0.0389532744884491, -0.48945438861846924, -0.22597742080688477, 8.242242813110352, 1.5177903175354004, 5.114647388458252, -0.6314805150032043, 0.010706749744713306, 0.3683326840400696, -0.9365234375, -0.127197265625, -0.2080078125, 
405, 3132000939, 0.8413785099983215, -0.0389593243598938, -0.4894135892391205, -0.2259729504585266, 8.262706756591797, 1.5191996097564697, 5.109504699707031, -0.2517751157283783, 0.12120656669139862, 0.40946921706199646, -0.93603515625, -0.126708984375, -0.21044921875, 
406, 3132009272, 0.8413952589035034, -0.03894758224487305, -0.48939502239227295, -0.22595277428627014, 8.24817943572998, 1.493277668952942, 5.0756001472473145, 0.09055913239717484, -0.1559138298034668, 0.4284364879131317, -0.93798828125, -0.126708984375, -0.2099609375, 
407, 3132017605, 0.8414139747619629, -0.038896769285202026, -0.4893861413002014, -0.22591063380241394, 8.272313117980957, 1.5242708921432495, 5.059048652648926, 0.6982312798500061, -0.14197972416877747, 0.3899895250797272, -0.9384765625, -0.127685546875, -0.20849609375, 
408, 3132025938, 0.8414293527603149, -0.038850173354148865, -0.48938077688217163, -0.225873202085495, 8.26236343383789, 1.5393415689468384, 5.062331676483154, 0.6500251889228821, -0.2182845026254654, 0.3817417621612549, -0.93798828125, -0.126708984375, -0.20947265625, 
409, 3132034271, 0.8414245843887329, -0.03883720934391022, -0.48939764499664307, -0.22585681080818176, 8.281362533569336, 1.5618807077407837, 5.08957052230835, 0.22336892783641815, -0.6888948678970337, 0.3047197759151459, -0.93701171875, -0.126708984375, -0.2099609375, 
410, 3132042604, 0.8414091467857361, -0.03881204128265381, -0.4894418716430664, -0.22582262754440308, 8.261468887329102, 1.5987032651901245, 5.088682651519775, 0.5178046226501465, -1.0639897584915161, 0.36529740691185, -0.9384765625, -0.127197265625, -0.20849609375, 
411, 3132050937, 0.8413826823234558, -0.03879709541797638, -0.4895132780075073, -0.22576913237571716, 8.247456550598145, 1.6379581689834595, 5.140841007232666, 0.43339285254478455, -1.5198333263397217, 0.4878486692905426, -0.93701171875, -0.128662109375, -0.20751953125, 
412, 3132059270, 0.8413395881652832, -0.03880980610847473, -0.4895937442779541, -0.22575300931930542, 8.230230331420898, 1.6852929592132568, 5.1340107917785645, 0.05612078309059143, -1.777948021888733, 0.3071402907371521, -0.93798828125, -0.128662109375, -0.208984375, 
413, 3132067603, 0.8413002490997314, -0.03882096707820892, -0.48966115713119507, -0.22575131058692932, 8.22962474822998, 1.6872555017471313, 5.159338474273682, -0.13608843088150024, -1.5959972143173218, 0.08996999263763428, -0.9365234375, -0.128173828125, -0.20947265625, 
414, 3132075936, 0.8412816524505615, -0.038829952478408813, -0.4896741807460785, -0.22579097747802734, 8.20569896697998, 1.68807053565979, 5.180031776428223, -0.4736071228981018, -0.7910187244415283, -0.2514805495738983, -0.936767578125, -0.125244140625, -0.21142578125, 
415, 3132084269, 0.8412958383560181, -0.038859590888023376, -0.48963022232055664, -0.22582831978797913, 8.199225425720215, 1.6511982679367065, 5.147694110870361, -1.021009087562561, -0.00035859932540915906, -0.06946580857038498, -0.93505859375, -0.129150390625, -0.208251953125, 
416, 3132092602, 0.8413609266281128, -0.03881902992725372, -0.4895366132259369, -0.22579577565193176, 8.308026313781738, 1.5850847959518433, 4.977927207946777, 0.3009544312953949, 1.1222237348556519, 0.566702127456665, -0.93701171875, -0.129150390625, -0.20947265625, 
417, 3132100935, 0.8413947820663452, -0.038773179054260254, -0.4894794523715973, -0.2258012890815735, 8.302889823913574, 1.6296039819717407, 4.987369060516357, 0.2717798054218292, 0.5456984639167786, 0.0040854704566299915, -0.93701171875, -0.127197265625, -0.21044921875, 
418, 3132109268, 0.841357946395874, -0.03887520730495453, -0.48948782682418823, -0.2259025275707245, 8.218903541564941, 1.5347065925598145, 5.14804744720459, -1.9888684749603271, -1.117139220237732, -0.39217954874038696, -0.93896484375, -0.12890625, -0.21044921875, 
419, 3132117601, 0.841361939907074, -0.03889089822769165, -0.48946672677993774, -0.22593125700950623, 8.326130867004395, 1.4767688512802124, 5.037296772003174, -0.6245263814926147, -0.27307337522506714, -0.03757608309388161, -0.9365234375, -0.127685546875, -0.208984375, 
420, 3132125934, 0.841388463973999, -0.03880898654460907, -0.48944705724716187, -0.2258892059326172, 8.405770301818848, 1.4650237560272217, 4.9464263916015625, 1.0516307353973389, 0.13044048845767975, 0.2410939633846283, -0.9365234375, -0.127685546875, -0.21044921875, 
421, 3132134267, 0.8413832187652588, -0.03885909914970398, -0.48944544792175293, -0.2259036898612976, 8.275403022766113, 1.5748485326766968, 5.016324520111084, -0.8181313872337341, -0.666725754737854, 0.35152971744537354, -0.939453125, -0.128662109375, -0.20849609375, 
422, 3132142600, 0.8413437604904175, -0.039011090993881226, -0.48945146799087524, -0.2260115146636963, 8.201034545898438, 1.577399492263794, 5.14948844909668, -2.6176722049713135, -1.259118914604187, -0.1375228315591812, -0.93408203125, -0.126708984375, -0.208740234375, 
423, 3132150933, 0.8413316607475281, -0.03916986286640167, -0.4893976151943207, -0.22614550590515137, 8.194958686828613, 1.4417093992233276, 5.317709445953369, -2.97563099861145, -0.36969026923179626, -0.248867928981781, -0.9375, -0.127685546875, -0.20947265625, 
424, 3132159266, 0.8414126634597778, -0.03918279707431793, -0.48923102021217346, -0.2262025773525238, 8.228556632995605, 1.3536925315856934, 5.130406379699707, -1.1413192749023438, 1.9539179801940918, -0.020465774461627007, -0.9375, -0.126220703125, -0.20849609375, 
425, 3132167599, 0.8414777517318726, -0.039091527462005615, -0.4891345202922821, -0.2261846363544464, 8.212980270385742, 1.4262053966522217, 4.976032733917236, 0.9485846757888794, 1.3571830987930298, 0.14949747920036316, -0.9345703125, -0.125244140625, -0.2099609375, 
426, 3132175932, 0.8414324522018433, -0.039099544286727905, -0.4892082214355469, -0.2261924147605896, 8.160529136657715, 1.4925726652145386, 4.993145942687988, -0.0724114403128624, -1.6867485046386719, -0.004200734198093414, -0.93701171875, -0.127685546875, -0.2080078125, 
427, 3132184265, 0.8413412570953369, -0.03916986286640167, -0.48934856057167053, -0.22621598839759827, 8.280130386352539, 1.446099042892456, 5.0575270652771, -0.7490370273590088, -2.94970965385437, 0.018378213047981262, -0.93505859375, -0.129638671875, -0.210693359375, 
428, 3132192598, 0.841299295425415, -0.039152830839157104, -0.4894297122955322, -0.22619929909706116, 8.424822807312012, 1.4417275190353394, 5.110551834106445, 0.4064594507217407, -1.6856215000152588, 0.11466212570667267, -0.93505859375, -0.126953125, -0.20556640625, 
429, 3132200931, 0.841310977935791, -0.0390506386756897, -0.489470899105072, -0.22608408331871033, 8.417778015136719, 1.4764000177383423, 5.106678485870361, 1.728128433227539, -0.6857187151908875, 0.7156233191490173, -0.93994140625, -0.1298828125, -0.20849609375, 
430, 3132209264, 0.8413358926773071, -0.038983121514320374, -0.4894939363002777, -0.22595375776290894, 8.366583824157715, 1.5525246858596802, 5.03261661529541, 1.608817219734192, -0.46884292364120483, 1.3302369117736816, -0.9375, -0.129638671875, -0.208984375, 
431, 3132217597, 0.8413397073745728, -0.039006829261779785, -0.4895239472389221, -0.22586959600448608, 8.370401382446289, 1.5652230978012085, 4.998788356781006, 0.3506716787815094, -0.9239821434020996, 1.3867931365966797, -0.9384765625, -0.126220703125, -0.20751953125, 
432, 3132225930, 0.8413301706314087, -0.039135441184043884, -0.48955079913139343, -0.2258249819278717, 8.330595016479492, 1.526048183441162, 5.057150363922119, -1.2412916421890259, -1.3078372478485107, 1.547215223312378, -0.9375, -0.128173828125, -0.20849609375, 
433, 3132234263, 0.841333270072937, -0.039310142397880554, -0.4895433485507965, -0.22579869627952576, 8.294812202453613, 1.47721529006958, 5.114983558654785, -1.9304554462432861, -0.9376475214958191, 1.734339952468872, -0.9365234375, -0.127685546875, -0.20947265625, 
434, 3132242596, 0.8413676023483276, -0.03943346440792084, -0.48951706290245056, -0.2257070243358612, 8.262160301208496, 1.4986908435821533, 5.125351428985596, -1.004257321357727, -0.40839338302612305, 2.223968744277954, -0.9375, -0.127685546875, -0.2080078125, 
435, 3132250929, 0.8414111137390137, -0.03952755033969879, -0.4894911050796509, -0.22558435797691345, 8.23237419128418, 1.511488914489746, 5.093255519866943, -0.5221974849700928, -0.2799123525619507, 2.3574702739715576, -0.93701171875, -0.127685546875, -0.2099609375, 
436, 3132259262, 0.8414273262023926, -0.039647459983825684, -0.4895024001598358, -0.22547832131385803, 8.188026428222656, 1.5401207208633423, 5.074850559234619, -0.7627407312393188, -0.9597911238670349, 2.2896182537078857, -0.93505859375, -0.126708984375, -0.208984375, 
437, 3132267595, 0.841444730758667, -0.039755865931510925, -0.48952069878578186, -0.22535428404808044, 8.266802787780762, 1.5024101734161377, 5.0714006423950195, -0.5295231342315674, -1.0073310136795044, 2.377603054046631, -0.93798828125, -0.126708984375, -0.20849609375, 
438, 3132275928, 0.8414667248725891, -0.03983329236507416, -0.4895557165145874, -0.2251822054386139, 8.264592170715332, 1.4413928985595703, 5.078062534332275, 0.2502894699573517, -1.0999776124954224, 2.77388072013855, -0.935546875, -0.125244140625, -0.2080078125, 
439, 3132284261, 0.8415013551712036, -0.03990575671195984, -0.4895878732204437, -0.22497022151947021, 8.270858764648438, 1.46506667137146, 5.067971706390381, 0.5814304351806641, -0.9812301993370056, 3.2324016094207764, -0.9365234375, -0.126708984375, -0.20751953125, 
440, 3132292594, 0.8415564298629761, -0.039999693632125854, -0.48960357904434204, -0.22471311688423157, 8.311176300048828, 1.4765055179595947, 5.06160306930542, 0.5890889167785645, -0.7493700385093689, 3.980515956878662, -0.937744140625, -0.122802734375, -0.20849609375, 
441, 3132300927, 0.8416285514831543, -0.04012146592140198, -0.4896209239959717, -0.22438299655914307, 8.320094108581543, 1.4663995504379272, 5.0424957275390625, 0.6966047286987305, -0.7880859971046448, 5.0037407875061035, -0.939697265625, -0.125244140625, -0.208984375, 
442, 3132309260, 0.8416930437088013, -0.04028761386871338, -0.4896569848060608, -0.22403284907341003, 8.337631225585938, 1.4503642320632935, 5.023560523986816, 0.4503110647201538, -1.1988743543624878, 5.562221527099609, -0.938232421875, -0.124267578125, -0.2080078125, 
