sep=,
PacketCounter,SampleTimeFine,Quat_W,Quat_X,Quat_Y,Quat_Z,Acc_X,Acc_Y,Acc_Z,Gyr_X,Gyr_Y,Gyr_Z,Mag_X,Mag_Y,Mag_Z,
0, 3598973926, 0.6431580185890198, -0.26684826612472534, -0.5940525531768799, -0.4027714729309082, 0, 0, 0, 0, 0, 0, -0.80029296875, 0.111083984375, 0.15869140625, 
1, 3598982259, 0.6432203650474548, -0.2669011056423187, -0.593920111656189, -0.4028318524360657, 9.78799057006836, 1.4814841747283936, 1.4327073097229004, -1.6898993253707886, 2.0527634620666504, 0.7076573371887207, -0.8017578125, 0.111083984375, 0.1572265625, 
2, 3598990592, 0.6432724595069885, -0.26698625087738037, -0.5937747955322266, -0.402906596660614, 9.793034553527832, 1.4647468328475952, 1.4502464532852173, -2.419520616531372, 1.8059189319610596, 0.7846792936325073, -0.80322265625, 0.110595703125, 0.15966796875, 
3, 3598998925, 0.6433221697807312, -0.2671012580394745, -0.5936129093170166, -0.4029894769191742, 9.776503562927246, 1.4680856466293335, 1.4710214138031006, -2.489959716796875, 1.9663150310516357, 1.078320860862732, -0.8046875, 0.11279296875, 0.156494140625, 
4, 3599007258, 0.6433982253074646, -0.2671930193901062, -0.5934605002403259, -0.4030317962169647, 9.773520469665527, 1.4763848781585693, 1.5099436044692993, -2.1642489433288574, 1.9090161323547363, 1.2841825485229492, -0.8017578125, 0.113525390625, 0.1591796875, 
5, 3599015591, 0.6434717178344727, -0.26730790734291077, -0.59328693151474, -0.40309396386146545, 9.766623497009277, 1.451124906539917, 1.5002483129501343, -2.5483858585357666, 2.1514296531677246, 1.397935390472412, -0.80029296875, 0.110107421875, 0.15869140625, 
6, 3599023924, 0.6435588598251343, -0.2674143314361572, -0.5930987596511841, -0.403160959482193, 9.762736320495605, 1.4789106845855713, 1.4905741214752197, -2.65299391746521, 2.325861930847168, 1.3781864643096924, -0.802734375, 0.110107421875, 0.15673828125, 
7, 3599032257, 0.6436417698860168, -0.26753920316696167, -0.5928963422775269, -0.40324339270591736, 9.735109329223633, 1.487531304359436, 1.4874403476715088, -2.767336130142212, 2.5256786346435547, 1.4829232692718506, -0.80078125, 0.110107421875, 0.1591796875, 
8, 3599040590, 0.6437205672264099, -0.26767227053642273, -0.5926950573921204, -0.40332528948783875, 9.685935020446777, 1.511670708656311, 1.5093369483947754, -3.1143321990966797, 2.2804479598999023, 1.4669400453567505, -0.8017578125, 0.110107421875, 0.15673828125, 
9, 3599048923, 0.6437850594520569, -0.26781216263771057, -0.5924909710884094, -0.4034295082092285, 9.620923042297363, 1.489823341369629, 1.47732675075531, -3.423982620239258, 2.233522891998291, 1.2544699907302856, -0.80322265625, 0.111083984375, 0.15673828125, 
10, 3599057256, 0.6438316702842712, -0.2679566442966461, -0.5922884345054626, -0.40355628728866577, 9.585914611816406, 1.42330002784729, 1.5051134824752808, -3.402594804763794, 2.2881836891174316, 1.0577014684677124, -0.80224609375, 0.111572265625, 0.15771484375, 
11, 3599065589, 0.6438764333724976, -0.2680775225162506, -0.5920912027359009, -0.403694212436676, 9.564640045166016, 1.3771586418151855, 1.4865150451660156, -3.2601284980773926, 2.3993494510650635, 0.7401105761528015, -0.8037109375, 0.110107421875, 0.15771484375, 
12, 3599073922, 0.6439176797866821, -0.268184632062912, -0.5919039845466614, -0.4038316607475281, 9.546225547790527, 1.3485891819000244, 1.4672443866729736, -3.396242380142212, 2.1981751918792725, 0.5019493103027344, -0.80029296875, 0.113525390625, 0.15576171875, 
13, 3599082255, 0.6439416408538818, -0.26829275488853455, -0.5917222499847412, -0.4039881229400635, 9.53846549987793, 1.326302409172058, 1.4352812767028809, -3.596238851547241, 2.1880064010620117, 0.2504175901412964, -0.80126953125, 0.11279296875, 0.15478515625, 
14, 3599090588, 0.6439826488494873, -0.26836463809013367, -0.5915411710739136, -0.4041401445865631, 9.535354614257812, 1.2910327911376953, 1.4586514234542847, -3.17052960395813, 2.3924334049224854, 0.06235785409808159, -0.8037109375, 0.113525390625, 0.156494140625, 
15, 3599098921, 0.6439934372901917, -0.2684267461299896, -0.5914011597633362, -0.40428635478019714, 9.605445861816406, 1.2712546586990356, 1.4575022459030151, -2.860572576522827, 1.9366028308868408, -0.2506609261035919, -0.80078125, 0.111083984375, 0.15673828125, 
16, 3599107254, 0.6440143585205078, -0.2684767246246338, -0.5912681818008423, -0.4044147729873657, 9.643973350524902, 1.2703529596328735, 1.4422107934951782, -2.592237710952759, 1.837424397468567, -0.19556468725204468, -0.80322265625, 0.11181640625, 0.1552734375, 
17, 3599115587, 0.644025444984436, -0.2685233950614929, -0.5911391377449036, -0.40455448627471924, 9.659393310546875, 1.2889500856399536, 1.417564868927002, -2.510195255279541, 1.9192876815795898, -0.34174513816833496, -0.80029296875, 0.1123046875, 0.15380859375, 
18, 3599123920, 0.6440569758415222, -0.2685558497905731, -0.5910112857818604, -0.4046696722507477, 9.693994522094727, 1.3277466297149658, 1.4617518186569214, -2.2605843544006348, 1.925460696220398, -0.18127192556858063, -0.80029296875, 0.1123046875, 0.1533203125, 
19, 3599132253, 0.6440837979316711, -0.2685849070549011, -0.5908975005149841, -0.404773473739624, 9.712746620178223, 1.3429733514785767, 1.4327442646026611, -2.1050803661346436, 1.8536638021469116, -0.16546796262264252, -0.8017578125, 0.11083984375, 0.15478515625, 
20, 3599140586, 0.644116997718811, -0.2686188817024231, -0.5907770991325378, -0.40487390756607056, 9.747268676757812, 1.3618136644363403, 1.4251914024353027, -2.107052803039551, 1.8098376989364624, -0.056300088763237, -0.802734375, 0.109375, 0.15380859375, 
21, 3599148919, 0.6441424489021301, -0.26865148544311523, -0.5906628370285034, -0.4049782454967499, 9.734858512878418, 1.3376734256744385, 1.4287959337234497, -1.823067545890808, 1.8717732429504395, -0.09395301342010498, -0.7998046875, 0.11181640625, 0.15283203125, 
22, 3599157252, 0.6441682577133179, -0.2686804533004761, -0.5905553102493286, -0.4050750434398651, 9.748771667480469, 1.3698049783706665, 1.4531203508377075, -1.9885355234146118, 1.6520543098449707, -0.1533011943101883, -0.8037109375, 0.1123046875, 0.15283203125, 
23, 3599165585, 0.6441829204559326, -0.26872164011001587, -0.5904425978660583, -0.4051886796951294, 9.768248558044434, 1.3821749687194824, 1.4791934490203857, -2.3431901931762695, 1.7113767862319946, -0.2283509224653244, -0.80126953125, 0.11279296875, 0.15380859375, 
24, 3599173918, 0.6441987752914429, -0.2687765657901764, -0.5903153419494629, -0.40531259775161743, 9.745701789855957, 1.365897536277771, 1.473147988319397, -2.586679220199585, 1.7013872861862183, -0.16434094309806824, -0.80322265625, 0.11181640625, 0.15234375, 
25, 3599182251, 0.6442195177078247, -0.2688133716583252, -0.5902097225189209, -0.4054088592529297, 9.730742454528809, 1.352613925933838, 1.4996964931488037, -2.090505838394165, 1.65999436378479, -0.0995112955570221, -0.80322265625, 0.11181640625, 0.15283203125, 
26, 3599190584, 0.6442351937294006, -0.26884445548057556, -0.5901281237602234, -0.40548214316368103, 9.676950454711914, 1.361191749572754, 1.5077173709869385, -1.7100574970245361, 1.2416115999221802, -0.07955781370401382, -0.80224609375, 0.11279296875, 0.15283203125, 
27, 3599198917, 0.6442393660545349, -0.2688515782356262, -0.5900841355323792, -0.40553486347198486, 9.667496681213379, 1.3348349332809448, 1.5426608324050903, -1.2329155206680298, 0.9780666828155518, -0.28132113814353943, -0.80078125, 0.111083984375, 0.150390625, 
28, 3599207250, 0.6442505121231079, -0.26883798837661743, -0.5900560617446899, -0.40556690096855164, 9.653756141662598, 1.3321454524993896, 1.5268672704696655, -0.6956825852394104, 0.8265072703361511, -0.3002244234085083, -0.8017578125, 0.1103515625, 0.15478515625, 
29, 3599215583, 0.6442592144012451, -0.2688123285770416, -0.5900540947914124, -0.4055730402469635, 9.638357162475586, 1.330371618270874, 1.5055735111236572, 0.05751676484942436, 0.7034308910369873, -0.20268544554710388, -0.80224609375, 0.11328125, 0.15234375, 
30, 3599223916, 0.6442764401435852, -0.26876765489578247, -0.5900606513023376, -0.4055657684803009, 9.656245231628418, 1.3250139951705933, 1.4765257835388184, 0.11292034387588501, 0.5968756675720215, -0.2985851466655731, -0.802734375, 0.11279296875, 0.15185546875, 
31, 3599232249, 0.6442970633506775, -0.26872071623802185, -0.5900701880455017, -0.4055502414703369, 9.682238578796387, 1.2913527488708496, 1.4716259241104126, 0.09860199689865112, 0.6767408847808838, -0.2312709242105484, -0.80126953125, 0.1123046875, 0.15185546875, 
32, 3599240582, 0.6443156003952026, -0.2686895728111267, -0.5900790095329285, -0.40552854537963867, 9.692880630493164, 1.2976045608520508, 1.4951657056808472, 0.12895487248897552, 0.458251416683197, -0.061935216188430786, -0.80078125, 0.11083984375, 0.15185546875, 
33, 3599248915, 0.6443148851394653, -0.2686779201030731, -0.5901212692260742, -0.40547579526901245, 9.662568092346191, 1.3082191944122314, 1.5012959241867065, 0.36242857575416565, -0.09490072727203369, 0.1729857325553894, -0.802734375, 0.111083984375, 0.150390625, 
34, 3599257248, 0.6443114876747131, -0.2686634361743927, -0.590192437171936, -0.4053875207901001, 9.659470558166504, 1.3419090509414673, 1.4934706687927246, 0.7861393690109253, -0.610745906829834, 0.3118661344051361, -0.802734375, 0.1103515625, 0.15283203125, 
35, 3599265581, 0.6442983746528625, -0.2686755657196045, -0.5902498364448547, -0.40531641244888306, 9.662396430969238, 1.3480247259140015, 1.5197144746780396, 0.45569005608558655, -0.5158963799476624, 0.42146942019462585, -0.802734375, 0.11279296875, 0.15283203125, 
36, 3599273914, 0.644295871257782, -0.26870211958885193, -0.5902833342552185, -0.405254065990448, 9.689648628234863, 1.38296639919281, 1.521152138710022, 0.005955308675765991, -0.4027582108974457, 0.557634711265564, -0.8037109375, 0.11083984375, 0.15185546875, 
37, 3599282247, 0.6442579030990601, -0.2687723636627197, -0.5903265476226807, -0.40520501136779785, 9.712202072143555, 1.335171103477478, 1.504500389099121, -0.5255528688430786, -0.851007342338562, 0.5944423079490662, -0.80029296875, 0.1103515625, 0.1513671875, 
38, 3599290580, 0.6442234516143799, -0.2688599228858948, -0.5903380513191223, -0.4051850736141205, 9.739789962768555, 1.3491692543029785, 1.485080361366272, -1.1205203533172607, -0.6504991054534912, 0.5803289413452148, -0.80224609375, 0.11279296875, 0.15283203125, 
39, 3599298913, 0.6441980004310608, -0.2689315378665924, -0.5903486609458923, -0.4051625430583954, 9.73672866821289, 1.3311867713928223, 1.5179554224014282, -0.9275170564651489, -0.49125537276268005, 0.5278453230857849, -0.80419921875, 0.10986328125, 0.15380859375, 
40, 3599307246, 0.6441752314567566, -0.2689923346042633, -0.590366005897522, -0.4051329791545868, 9.75598430633545, 1.2357752323150635, 1.5634756088256836, -0.7918896675109863, -0.3876970708370209, 0.5087370872497559, -0.802734375, 0.1103515625, 0.1552734375, 
41, 3599315579, 0.6441318392753601, -0.26908349990844727, -0.5903765559196472, -0.4051259756088257, 9.72541332244873, 1.1712424755096436, 1.5306434631347656, -0.967372715473175, -0.5273202061653137, 0.5255144834518433, -0.80224609375, 0.11181640625, 0.15283203125, 
42, 3599323912, 0.6441322565078735, -0.2691354751586914, -0.590384304523468, -0.40507960319519043, 9.714920043945312, 1.1770360469818115, 1.4587150812149048, -0.48259779810905457, -0.2344982922077179, 0.7350132465362549, -0.8017578125, 0.111328125, 0.15380859375, 
43, 3599332245, 0.6441475749015808, -0.2691628634929657, -0.5904116034507751, -0.40499716997146606, 9.695587158203125, 1.1377027034759521, 1.4494589567184448, 0.318218469619751, -0.15376226603984833, 0.9096255898475647, -0.8017578125, 0.1123046875, 0.15380859375, 
44, 3599340578, 0.6441837549209595, -0.2691812217235565, -0.590437114238739, -0.4048902094364166, 9.710091590881348, 1.0657521486282349, 1.4418843984603882, 0.5399609208106995, -0.13788142800331116, 1.1312655210494995, -0.8037109375, 0.11181640625, 0.15478515625, 
45, 3599348911, 0.6442357301712036, -0.26919078826904297, -0.5904650688171387, -0.40476033091545105, 9.712627410888672, 1.04514479637146, 1.4363372325897217, 1.055191159248352, 0.07262915372848511, 1.3921208381652832, -0.8017578125, 0.11279296875, 0.15234375, 
46, 3599357244, 0.6443595290184021, -0.2691517472267151, -0.5904723405838013, -0.40457871556282043, 9.735469818115234, 1.0783413648605347, 1.4206444025039673, 1.876383662223816, 0.7796333432197571, 1.883427619934082, -0.80126953125, 0.112548828125, 0.1552734375, 
47, 3599365577, 0.6445157527923584, -0.26909178495407104, -0.5904697179794312, -0.4043733775615692, 9.695735931396484, 1.1441316604614258, 1.4078428745269775, 2.516329765319824, 1.2987059354782104, 2.190311908721924, -0.80224609375, 0.111328125, 0.1533203125, 
48, 3599373910, 0.6447086930274963, -0.2690367102622986, -0.590433657169342, -0.40415483713150024, 9.668416976928711, 1.2195543050765991, 1.4068329334259033, 2.3334951400756836, 1.677053451538086, 2.624934196472168, -0.80029296875, 0.113525390625, 0.15625, 
49, 3599382243, 0.6448836326599121, -0.26904043555259705, -0.5903664827346802, -0.4039713442325592, 9.66324520111084, 1.290130853652954, 1.4231036901474, 1.2891005277633667, 1.6106359958648682, 2.8051300048828125, -0.80126953125, 0.11328125, 0.15283203125, 
50, 3599390576, 0.6450290083885193, -0.2691236734390259, -0.5902706980705261, -0.4038240909576416, 9.689974784851074, 1.3796709775924683, 1.4147003889083862, 0.2719591557979584, 1.4619197845458984, 3.130610466003418, -0.80078125, 0.115234375, 0.153076171875, 
51, 3599398909, 0.6451488733291626, -0.2692454755306244, -0.5901572108268738, -0.40371739864349365, 9.690443992614746, 1.4291937351226807, 1.3624825477600098, -0.8721646666526794, 1.3132033348083496, 2.9616587162017822, -0.80029296875, 0.11328125, 0.15380859375, 
52, 3599407242, 0.6452341675758362, -0.26944026350975037, -0.5900000333786011, -0.4036806523799896, 9.71169662475586, 1.4958930015563965, 1.4228241443634033, -2.4280502796173096, 1.1611316204071045, 2.890963315963745, -0.8017578125, 0.1162109375, 0.154052734375, 
53, 3599415575, 0.6452443599700928, -0.26975467801094055, -0.5898029208183289, -0.40374231338500977, 9.715816497802734, 1.5318877696990967, 1.4528287649154663, -4.759790897369385, 0.7290450930595398, 2.7433741092681885, -0.80126953125, 0.1142578125, 0.151611328125, 
54, 3599423908, 0.645219087600708, -0.2701498568058014, -0.5895359516143799, -0.40390849113464355, 9.713044166564941, 1.5255616903305054, 1.4795860052108765, -6.870865821838379, 0.8785554766654968, 2.5093371868133545, -0.8017578125, 0.115234375, 0.151611328125, 
55, 3599432241, 0.6451659202575684, -0.27060574293136597, -0.5892215371131897, -0.4041469395160675, 9.677876472473145, 1.4673328399658203, 1.493902325630188, -8.405721664428711, 1.1183048486709595, 2.396045446395874, -0.8017578125, 0.11572265625, 0.153564453125, 
56, 3599440574, 0.6451092958450317, -0.2711085379123688, -0.5888572335243225, -0.40443095564842224, 9.632654190063477, 1.3941785097122192, 1.5349012613296509, -9.438974380493164, 1.327854871749878, 2.5230660438537598, -0.80029296875, 0.1142578125, 0.15283203125, 
57, 3599448907, 0.6450332999229431, -0.27165865898132324, -0.5884852409362793, -0.404724657535553, 9.643474578857422, 1.3246592283248901, 1.5604901313781738, -9.883255004882812, 1.1489906311035156, 2.7930917739868164, -0.8017578125, 0.11669921875, 0.150146484375, 
58, 3599457240, 0.644956111907959, -0.2722454369068146, -0.5880866050720215, -0.40503254532814026, 9.67039680480957, 1.2614121437072754, 1.5602976083755493, -10.646430015563965, 1.0894376039505005, 3.0059971809387207, -0.802734375, 0.11572265625, 0.154052734375, 
59, 3599465573, 0.6449029445648193, -0.272827684879303, -0.5876806974411011, -0.4053146243095398, 9.674484252929688, 1.2165261507034302, 1.5644720792770386, -10.347665786743164, 1.2766263484954834, 3.358961343765259, -0.8017578125, 0.11669921875, 0.153564453125, 
60, 3599473906, 0.6448458433151245, -0.2734122574329376, -0.5872942209243774, -0.4055718779563904, 9.707273483276367, 1.2339274883270264, 1.5633466243743896, -9.955281257629395, 1.0964303016662598, 3.5464320182800293, -0.7998046875, 0.115234375, 0.151123046875, 
61, 3599482239, 0.6448162794113159, -0.27396664023399353, -0.5869179964065552, -0.40578895807266235, 9.746708869934082, 1.2828264236450195, 1.5456002950668335, -9.345662117004395, 1.2242196798324585, 3.7506542205810547, -0.8017578125, 0.115234375, 0.151123046875, 
62, 3599490572, 0.644835889339447, -0.2744942009449005, -0.5864915251731873, -0.40601813793182373, 9.75355052947998, 1.2653251886367798, 1.5383232831954956, -9.275504112243652, 2.1522748470306396, 3.8699142932891846, -0.8046875, 0.11767578125, 0.15283203125, 
63, 3599498905, 0.6448748111724854, -0.27498888969421387, -0.5860690474510193, -0.40623146295547485, 9.705763816833496, 1.265459418296814, 1.5346285104751587, -8.832428932189941, 2.5006022453308105, 3.851856231689453, -0.80029296875, 0.11669921875, 0.150146484375, 
64, 3599507238, 0.6449152231216431, -0.27546387910842896, -0.5856512784957886, -0.40644776821136475, 9.701303482055664, 1.246692180633545, 1.5140483379364014, -8.578591346740723, 2.4891786575317383, 3.643509864807129, -0.80029296875, 0.1162109375, 0.150634765625, 
65, 3599515571, 0.6449535489082336, -0.27592310309410095, -0.585252583026886, -0.406649649143219, 9.729280471801758, 1.2606840133666992, 1.4900734424591064, -8.25833797454834, 2.445122480392456, 3.582368850708008, -0.8046875, 0.116943359375, 0.149658203125, 
66, 3599523904, 0.645018994808197, -0.27635031938552856, -0.5848434567451477, -0.4068443477153778, 9.720976829528809, 1.2835283279418945, 1.4738781452178955, -7.839032173156738, 2.7965238094329834, 3.558009386062622, -0.802734375, 0.119140625, 0.150390625, 
67, 3599532237, 0.6450790166854858, -0.2767671048641205, -0.5844370722770691, -0.4070495367050171, 9.71619701385498, 1.3061531782150269, 1.4779492616653442, -8.059545516967773, 2.9137351512908936, 3.328890562057495, -0.8017578125, 0.119140625, 0.150146484375, 
68, 3599540570, 0.6450968384742737, -0.2772273123264313, -0.5840082764625549, -0.4073239266872406, 9.695271492004395, 1.3505669832229614, 1.4558957815170288, -9.063007354736328, 2.7098710536956787, 2.92392897605896, -0.80224609375, 0.11865234375, 0.150146484375, 
69, 3599548903, 0.6450825929641724, -0.27771830558776855, -0.5835890769958496, -0.4076128304004669, 9.695923805236816, 1.3478796482086182, 1.494838833808899, -9.681158065795898, 2.3422303199768066, 2.8289520740509033, -0.802734375, 0.119873046875, 0.14794921875, 
70, 3599557236, 0.6450456976890564, -0.2782362401485443, -0.5831663012504578, -0.4079228341579437, 9.6652193069458, 1.3081176280975342, 1.503821611404419, -10.034686088562012, 2.0281739234924316, 2.7429394721984863, -0.80419921875, 0.117919921875, 0.14697265625, 
71, 3599565569, 0.6449770331382751, -0.27877911925315857, -0.5827738046646118, -0.40822160243988037, 9.706714630126953, 1.276418685913086, 1.5275863409042358, -10.396638870239258, 1.402699589729309, 2.7308237552642822, -0.80126953125, 0.120361328125, 0.1474609375, 
72, 3599573902, 0.6448943018913269, -0.27933087944984436, -0.582377552986145, -0.40854042768478394, 9.759535789489746, 1.2994251251220703, 1.5315238237380981, -10.43234634399414, 1.2710680961608887, 2.576728343963623, -0.8046875, 0.119140625, 0.15087890625, 
73, 3599582235, 0.6448013186454773, -0.27986836433410645, -0.5819883942604065, -0.40887388586997986, 9.791559219360352, 1.2890617847442627, 1.53223717212677, -10.535623550415039, 1.3618195056915283, 2.2608790397644043, -0.8046875, 0.12060546875, 0.1494140625, 
74, 3599590568, 0.6446861624717712, -0.2803920805454254, -0.5816209316253662, -0.4092194139957428, 9.807894706726074, 1.2854186296463013, 1.5271445512771606, -10.360139846801758, 1.0133376121520996, 1.8222607374191284, -0.8037109375, 0.120361328125, 0.14697265625, 
75, 3599598901, 0.6445514559745789, -0.28088536858558655, -0.5813025832176208, -0.4095456898212433, 9.845312118530273, 1.2727645635604858, 1.495467185974121, -10.212934494018555, 0.5793812870979309, 1.4007275104522705, -0.80224609375, 0.1181640625, 0.149169921875, 
76, 3599607234, 0.6444043517112732, -0.28136521577835083, -0.5809911489486694, -0.4098895192146301, 9.823590278625488, 1.2131813764572144, 1.5357722043991089, -9.766169548034668, 0.5024616718292236, 1.0917940139770508, -0.80517578125, 0.120361328125, 0.1484375, 
77, 3599615567, 0.6442662477493286, -0.2817780077457428, -0.5807567238807678, -0.41015493869781494, 9.829116821289062, 1.080688714981079, 1.6371675729751587, -8.4302339553833, 0.040713828057050705, 0.9752491116523743, -0.80224609375, 0.118896484375, 0.148193359375, 
78, 3599623900, 0.6441136598587036, -0.2821284532546997, -0.5805980563163757, -0.4103783667087555, 9.808425903320312, 0.9778749942779541, 1.5948318243026733, -6.817817687988281, -0.6306737065315247, 0.5020517706871033, -0.803466796875, 0.1220703125, 0.1494140625, 
79, 3599632233, 0.6440221071243286, -0.28232938051223755, -0.5805227160453796, -0.410490483045578, 9.805574417114258, 0.9786713123321533, 1.545602798461914, -4.397733688354492, -0.4124404191970825, 0.26281487941741943, -0.80224609375, 0.119140625, 0.14990234375, 
80, 3599640566, 0.6439720392227173, -0.2824283242225647, -0.5804877281188965, -0.4105503261089325, 9.76489543914795, 1.010791540145874, 1.5297000408172607, -2.1867642402648926, -0.12315324693918228, 0.04137980192899704, -0.80419921875, 0.117919921875, 0.149169921875, 
81, 3599648899, 0.6439476013183594, -0.28247013688087463, -0.5805091261863708, -0.41052955389022827, 9.711064338684082, 1.064300298690796, 1.5236910581588745, -0.799548327922821, -0.3128010034561157, 0.22621208429336548, -0.80419921875, 0.1181640625, 0.150390625, 
82, 3599657232, 0.643930971622467, -0.28248339891433716, -0.5805637240409851, -0.41046929359436035, 9.627140045166016, 1.1428240537643433, 1.494529366493225, 0.1657625138759613, -0.6329020857810974, 0.26148292422294617, -0.8046875, 0.118896484375, 0.1484375, 
83, 3599665565, 0.6438998579978943, -0.28248411417007446, -0.5806565880775452, -0.41038647294044495, 9.549537658691406, 1.2238726615905762, 1.4944504499435425, 0.33210134506225586, -1.0201380252838135, 0.11215192079544067, -0.80029296875, 0.119384765625, 0.147705078125, 
84, 3599673898, 0.6438405513763428, -0.28250589966773987, -0.5807340145111084, -0.41035473346710205, 9.545109748840332, 1.2586358785629272, 1.4755955934524536, -0.17374135553836823, -1.1125798225402832, -0.25181353092193604, -0.8017578125, 0.119873046875, 0.14697265625, 
85, 3599682231, 0.6437614560127258, -0.2825402021408081, -0.580834150314331, -0.41031354665756226, 9.586793899536133, 1.2842700481414795, 1.5007816553115845, -0.6659444570541382, -1.5212293863296509, -0.32194530963897705, -0.80322265625, 0.118896484375, 0.1484375, 
86, 3599690564, 0.643638551235199, -0.2826331555843353, -0.5809003114700317, -0.4103488028049469, 9.614299774169922, 1.252454161643982, 1.4811853170394897, -1.6510169506072998, -1.6626968383789062, -0.5913046598434448, -0.80322265625, 0.1201171875, 0.15185546875, 
87, 3599698897, 0.6435052752494812, -0.2827325165271759, -0.5809653401374817, -0.41039738059043884, 9.684022903442383, 1.2138943672180176, 1.477351427078247, -2.122292995452881, -1.63362455368042, -0.7257537841796875, -0.80322265625, 0.11865234375, 0.14990234375, 
88, 3599707230, 0.6433528661727905, -0.28285205364227295, -0.5810200572013855, -0.4104766547679901, 9.717391014099121, 1.1878684759140015, 1.484734296798706, -2.4164981842041016, -1.7754249572753906, -0.8913241028785706, -0.8017578125, 0.1171875, 0.152587890625, 
89, 3599715563, 0.6431881785392761, -0.28297990560531616, -0.5810816884040833, -0.41055935621261597, 9.732339859008789, 1.174750566482544, 1.4792709350585938, -2.5270493030548096, -1.9686331748962402, -0.9496733546257019, -0.80322265625, 0.11865234375, 0.1494140625, 
90, 3599723896, 0.6430055499076843, -0.2831288278102875, -0.5811371207237244, -0.41066402196884155, 9.74475383758545, 1.1671422719955444, 1.5283739566802979, -3.0156915187835693, -1.976445198059082, -1.0244923830032349, -0.802734375, 0.11767578125, 0.149169921875, 
91, 3599732229, 0.6427984833717346, -0.2833021283149719, -0.5811928510665894, -0.4107896685600281, 9.738283157348633, 1.1908607482910156, 1.5652905702590942, -3.77315616607666, -2.2621982097625732, -1.2009234428405762, -0.80078125, 0.11865234375, 0.151611328125, 
92, 3599740562, 0.6425589919090271, -0.2835044860839844, -0.5812385082244873, -0.4109601080417633, 9.740864753723145, 1.1542510986328125, 1.5801938772201538, -4.267356872558594, -2.502690076828003, -1.4915680885314941, -0.8017578125, 0.11767578125, 0.152587890625, 
93, 3599748895, 0.6423046588897705, -0.28368595242500305, -0.5813157558441162, -0.41112303733825684, 9.75027847290039, 1.0855662822723389, 1.6059703826904297, -4.104399681091309, -2.7199246883392334, -1.798734188079834, -0.80078125, 0.11572265625, 0.152099609375, 
94, 3599757228, 0.6420608758926392, -0.2838382124900818, -0.5814120173454285, -0.41126272082328796, 9.772466659545898, 1.0341572761535645, 1.6187527179718018, -3.310512065887451, -2.821049690246582, -1.842995524406433, -0.8017578125, 0.11767578125, 0.149658203125, 
95, 3599765561, 0.6418580412864685, -0.2839023768901825, -0.5815595984458923, -0.4113263487815857, 9.749239921569824, 0.9965589046478271, 1.6228001117706299, -1.955185890197754, -2.68644642829895, -1.8899974822998047, -0.80419921875, 0.1162109375, 0.154052734375, 
96, 3599773894, 0.641681969165802, -0.28390446305274963, -0.581738293170929, -0.4113469421863556, 9.73277759552002, 0.9751389622688293, 1.626125454902649, -0.3018125295639038, -2.62443470954895, -1.9303914308547974, -0.80224609375, 0.11572265625, 0.151611328125, 
97, 3599782227, 0.6415422558784485, -0.2838248610496521, -0.58197021484375, -0.41129177808761597, 9.752037048339844, 1.0086549520492554, 1.6066701412200928, 1.1919970512390137, -2.5556607246398926, -1.9319794178009033, -0.80078125, 0.11474609375, 0.154052734375, 
98, 3599790560, 0.6414330005645752, -0.2836885452270508, -0.5821917057037354, -0.41124293208122253, 9.772807121276855, 1.0328638553619385, 1.5557372570037842, 1.9777647256851196, -1.9559800624847412, -2.2134289741516113, -0.80126953125, 0.11669921875, 0.153564453125, 
99, 3599798893, 0.6413654088973999, -0.28348881006240845, -0.5824147462844849, -0.4111703634262085, 9.796951293945312, 1.1020773649215698, 1.5299124717712402, 2.898775577545166, -1.3697211742401123, -2.283842086791992, -0.7998046875, 0.11572265625, 0.151611328125, 
100, 3599807226, 0.6413138508796692, -0.2832752764225006, -0.5826247334480286, -0.41110002994537354, 9.777836799621582, 1.0957040786743164, 1.530415415763855, 2.7061054706573486, -0.9576650261878967, -2.287632942199707, -0.80029296875, 0.1162109375, 0.153076171875, 
101, 3599815559, 0.6412572264671326, -0.2830795645713806, -0.5828266143798828, -0.41103726625442505, 9.760583877563477, 1.1478909254074097, 1.5313864946365356, 2.3750929832458496, -1.005179524421692, -2.218654155731201, -0.80029296875, 0.11572265625, 0.154052734375, 
102, 3599823892, 0.641178548336029, -0.28292062878608704, -0.5830260515213013, -0.41098645329475403, 9.756380081176758, 1.1746976375579834, 1.5251917839050293, 2.1883137226104736, -1.3957709074020386, -2.118553638458252, -0.80029296875, 0.11376953125, 0.1533203125, 
103, 3599832225, 0.6410757303237915, -0.28279951214790344, -0.5832129120826721, -0.410965234041214, 9.743057250976562, 1.1806154251098633, 1.497824788093567, 1.2950172424316406, -1.482372522354126, -2.160330057144165, -0.80078125, 0.116943359375, 0.155029296875, 
104, 3599840558, 0.6409777402877808, -0.28269872069358826, -0.5833829641342163, -0.41094622015953064, 9.729001998901367, 1.200219750404358, 1.5156904458999634, 1.1796507835388184, -1.4967677593231201, -1.9277528524398804, -0.80126953125, 0.11474609375, 0.153564453125, 
105, 3599848891, 0.6408647298812866, -0.28260287642478943, -0.5835596323013306, -0.4109373688697815, 9.723018646240234, 1.2003477811813354, 1.5284448862075806, 0.7547618746757507, -1.582498550415039, -2.104029893875122, -0.80029296875, 0.115966796875, 0.156982421875, 
106, 3599857224, 0.6407325267791748, -0.28255128860473633, -0.5837063789367676, -0.4109707474708557, 9.706914901733398, 1.201850175857544, 1.5133676528930664, 0.060667313635349274, -1.6412832736968994, -2.096294641494751, -0.80078125, 0.11474609375, 0.154052734375, 
107, 3599865557, 0.6406101584434509, -0.28251057863235474, -0.5838408470153809, -0.4109983444213867, 9.72474479675293, 1.2152267694473267, 1.5266684293746948, -0.31221190094947815, -1.45883309841156, -1.8748338222503662, -0.8037109375, 0.11474609375, 0.155029296875, 
108, 3599873890, 0.640515148639679, -0.28248465061187744, -0.583938717842102, -0.4110250771045685, 9.720593452453613, 1.2069752216339111, 1.5001325607299805, -0.24325835704803467, -1.082918643951416, -1.4318357706069946, -0.80126953125, 0.113525390625, 0.15625, 
109, 3599882223, 0.6404379606246948, -0.2824600338935852, -0.5840173363685608, -0.41105058789253235, 9.732057571411133, 1.2446733713150024, 1.4836212396621704, -0.42081624269485474, -0.6847196817398071, -1.2288684844970703, -0.80078125, 0.114990234375, 0.155029296875, 
110, 3599890556, 0.6403775811195374, -0.2824740409851074, -0.5840421319007874, -0.4110998511314392, 9.711150169372559, 1.2431139945983887, 1.4850159883499146, -1.0559468269348145, -0.297176331281662, -0.8297731876373291, -0.8017578125, 0.114501953125, 0.155029296875, 
111, 3599898889, 0.6403176188468933, -0.28251373767852783, -0.5840439796447754, -0.41116347908973694, 9.711882591247559, 1.2846704721450806, 1.474563717842102, -1.8255521059036255, -0.10676012933254242, -0.679186999797821, -0.80126953125, 0.114990234375, 0.155029296875, 
112, 3599907222, 0.6402345895767212, -0.28262650966644287, -0.5840034484863281, -0.41127264499664307, 9.681905746459961, 1.293994665145874, 1.515515923500061, -2.8644402027130127, -0.2304512858390808, -0.4378753900527954, -0.80029296875, 0.114501953125, 0.15673828125, 
113, 3599915555, 0.6401452422142029, -0.28278350830078125, -0.5839409232139587, -0.4113926589488983, 9.674407958984375, 1.280938744544983, 1.54128897190094, -3.738474130630493, -0.21367394924163818, -0.1402379274368286, -0.7998046875, 0.11181640625, 0.15478515625, 
114, 3599923888, 0.6400437951087952, -0.28299078345298767, -0.5838273167610168, -0.41156935691833496, 9.645035743713379, 1.3019134998321533, 1.5439373254776, -4.7231879234313965, -0.00709514319896698, -0.09390179812908173, -0.7998046875, 0.112060546875, 0.15673828125, 
115, 3599932221, 0.6399343609809875, -0.28319787979125977, -0.5837045311927795, -0.41177067160606384, 9.655502319335938, 1.2705440521240234, 1.5808449983596802, -5.08127498626709, 0.20702704787254333, -0.3049374520778656, -0.80224609375, 0.114013671875, 0.156005859375, 
116, 3599940554, 0.6398411989212036, -0.28338056802749634, -0.5835686326026917, -0.41198232769966125, 9.641386032104492, 1.2530606985092163, 1.5600134134292603, -4.882021903991699, 0.5324302911758423, -0.4655643701553345, -0.80078125, 0.113525390625, 0.15625, 
117, 3599948887, 0.6397623419761658, -0.2835395932197571, -0.583428680896759, -0.41219353675842285, 9.687247276306152, 1.2203556299209595, 1.532806396484375, -4.880382537841797, 0.8933092951774597, -0.5615152716636658, -0.8017578125, 0.113037109375, 0.15576171875, 
118, 3599957220, 0.6396906971931458, -0.2836974263191223, -0.5832671523094177, -0.4124249815940857, 9.70810317993164, 1.201899766921997, 1.5210156440734863, -4.882354736328125, 1.1483501195907593, -0.6178921461105347, -0.80322265625, 0.113037109375, 0.156494140625, 
119, 3599965553, 0.6396156549453735, -0.283875435590744, -0.583102822303772, -0.41265106201171875, 9.737027168273926, 1.1853200197219849, 1.5263245105743408, -5.266234874725342, 1.0916144847869873, -0.41956114768981934, -0.7998046875, 0.113037109375, 0.1552734375, 
120, 3599973886, 0.6395313143730164, -0.28406909108161926, -0.5829365849494934, -0.41288328170776367, 9.767450332641602, 1.1688185930252075, 1.5234023332595825, -5.28016996383667, 0.8880071640014648, -0.39210274815559387, -0.802734375, 0.114013671875, 0.156982421875, 
121, 3599982219, 0.6394600868225098, -0.28425487875938416, -0.5827814340591431, -0.4130847454071045, 9.772618293762207, 1.167761206626892, 1.5472981929779053, -5.132631301879883, 0.8939239382743835, -0.16541671752929688, -0.80126953125, 0.112060546875, 0.15673828125, 
122, 3599990552, 0.6393934488296509, -0.2844569683074951, -0.5826032757759094, -0.4133000671863556, 9.796818733215332, 1.1256046295166016, 1.531558871269226, -5.216825485229492, 1.020253300666809, -0.02620336040854454, -0.80078125, 0.111083984375, 0.15673828125, 
123, 3599998885, 0.6393353939056396, -0.28465214371681213, -0.5824376940727234, -0.4134887158870697, 9.808382034301758, 1.1097795963287354, 1.5681545734405518, -4.92953634262085, 1.0110836029052734, 0.16814465820789337, -0.80322265625, 0.11181640625, 0.15185546875, 
124, 3600007218, 0.6392855048179626, -0.284841388463974, -0.5822576880455017, -0.41368910670280457, 9.841865539550781, 1.092265248298645, 1.5664137601852417, -4.930099964141846, 1.1835696697235107, 0.10382729768753052, -0.80224609375, 0.113525390625, 0.156005859375, 
125, 3600015551, 0.6392180323600769, -0.2850585877895355, -0.58206707239151, -0.4139120876789093, 9.792515754699707, 1.0263012647628784, 1.540627121925354, -5.807950973510742, 1.1358249187469482, 0.04819318652153015, -0.80419921875, 0.11181640625, 0.15625, 
126, 3600023884, 0.6391306519508362, -0.28530532121658325, -0.581879734992981, -0.4141402840614319, 9.805127143859863, 1.028785228729248, 1.5237797498703003, -5.846807479858398, 0.7297623753547668, 0.13397525250911713, -0.80078125, 0.110595703125, 0.15673828125, 
127, 3600032217, 0.6390786170959473, -0.2855151891708374, -0.5817043781280518, -0.41432201862335205, 9.79322338104248, 1.0343126058578491, 1.568429708480835, -5.027791976928711, 1.0339057445526123, 0.4187799394130707, -0.80126953125, 0.11181640625, 0.15380859375, 
128, 3600040550, 0.6390469074249268, -0.2856970429420471, -0.5815410614013672, -0.4144749343395233, 9.817785263061523, 1.0308501720428467, 1.5799351930618286, -4.318867206573486, 1.0391566753387451, 0.4994904100894928, -0.800048828125, 0.109375, 0.15576171875, 
129, 3600048883, 0.6390296816825867, -0.2858266830444336, -0.5814027786254883, -0.4146062135696411, 9.771472930908203, 1.0373233556747437, 1.5355831384658813, -3.4860715866088867, 1.1467621326446533, 0.2558477818965912, -0.7998046875, 0.11279296875, 0.15380859375, 
130, 3600057216, 0.6390425562858582, -0.2858940064907074, -0.5812685489654541, -0.41472792625427246, 9.748188972473145, 1.0281431674957275, 1.4932198524475098, -2.76364803314209, 1.7728766202926636, 0.020581038668751717, -0.80078125, 0.109375, 0.15283203125, 
131, 3600065549, 0.639060914516449, -0.2859356999397278, -0.5811424851417542, -0.4148477017879486, 9.709234237670898, 1.0339405536651611, 1.5355193614959717, -2.6214632987976074, 1.861962914466858, -0.19551347196102142, -0.8017578125, 0.10986328125, 0.15380859375, 
132, 3600073882, 0.6390733122825623, -0.28598132729530334, -0.5810202956199646, -0.41496846079826355, 9.69749641418457, 1.0585970878601074, 1.5649442672729492, -2.455073118209839, 1.6803065538406372, -0.21710625290870667, -0.8017578125, 0.111328125, 0.15234375, 
133, 3600082215, 0.6390776038169861, -0.2860109806060791, -0.5809341073036194, -0.415061891078949, 9.702998161315918, 1.0524325370788574, 1.5578639507293701, -2.281049966812134, 1.348038673400879, -0.3255825340747833, -0.80224609375, 0.111328125, 0.15380859375, 
134, 3600090548, 0.6391006112098694, -0.2860025465488434, -0.5808432698249817, -0.41515958309173584, 9.714595794677734, 1.0553619861602783, 1.5474094152450562, -1.5756340026855469, 1.7049733400344849, -0.5088524222373962, -0.80078125, 0.111328125, 0.15380859375, 
135, 3600098881, 0.6391414403915405, -0.28595101833343506, -0.5807448029518127, -0.41526979207992554, 9.701496124267578, 1.0536258220672607, 1.5084800720214844, -1.549353837966919, 2.2849819660186768, -0.8517245054244995, -0.802734375, 0.11181640625, 0.15380859375, 
136, 3600107214, 0.6391572952270508, -0.2859274744987488, -0.5806631445884705, -0.41537585854530334, 9.639318466186523, 1.0420987606048584, 1.5254952907562256, -1.4850878715515137, 1.6902194023132324, -0.7816184759140015, -0.8017578125, 0.111083984375, 0.15087890625, 
137, 3600115547, 0.6391406655311584, -0.28589409589767456, -0.5806328654289246, -0.41546666622161865, 9.655003547668457, 1.0295015573501587, 1.5374397039413452, -1.522766351699829, 1.0324714183807373, -1.155202031135559, -0.802734375, 0.108642578125, 0.15185546875, 
138, 3600123880, 0.6391304731369019, -0.2858589291572571, -0.5806078910827637, -0.415541410446167, 9.670879364013672, 1.015174388885498, 1.5338413715362549, -0.9134548902511597, 0.9255319237709045, -0.9696269035339355, -0.8046875, 0.11181640625, 0.154052734375, 
139, 3600132213, 0.6391406655311584, -0.28580382466316223, -0.58060622215271, -0.4155658483505249, 9.659650802612305, 1.0208967924118042, 1.5318742990493774, -0.12197498977184296, 0.7998172044754028, -0.6620766520500183, -0.8037109375, 0.111328125, 0.1533203125, 
140, 3600140546, 0.6391743421554565, -0.2857077121734619, -0.5806363224983215, -0.4155381917953491, 9.682209968566895, 1.063119888305664, 1.5065962076187134, 0.5959023237228394, 0.8022505640983582, -0.5545737743377686, -0.801025390625, 0.1083984375, 0.153076171875, 
141, 3600148879, 0.6392174959182739, -0.28558653593063354, -0.5806739926338196, -0.41550251841545105, 9.702130317687988, 1.1123243570327759, 1.5050296783447266, 1.1921762228012085, 0.9528878927230835, -0.6222465634346008, -0.802734375, 0.10888671875, 0.15234375, 
142, 3600157212, 0.6392894387245178, -0.2854407727718353, -0.5806818008422852, -0.4154811203479767, 9.691433906555176, 1.1718136072158813, 1.4968191385269165, 1.3383311033248901, 1.5466516017913818, -0.6676863431930542, -0.7998046875, 0.11083984375, 0.15478515625, 
143, 3600165545, 0.6393511295318604, -0.2853023409843445, -0.5806990265846252, -0.4154570698738098, 9.648256301879883, 1.2177693843841553, 1.5118896961212158, 1.11594820022583, 1.4134831428527832, -0.6914049983024597, -0.8037109375, 0.11279296875, 0.152587890625, 
144, 3600173878, 0.6393649578094482, -0.28521302342414856, -0.5807207226753235, -0.41546687483787537, 9.678018569946289, 1.254429817199707, 1.5296497344970703, 0.4417814314365387, 0.7615495324134827, -0.8763654232025146, -0.80224609375, 0.109375, 0.15576171875, 
145, 3600182211, 0.6393507719039917, -0.28516682982444763, -0.5807241797447205, -0.4155154824256897, 9.693253517150879, 1.2656526565551758, 1.5217459201812744, -0.478243350982666, 0.707477867603302, -0.9442687630653381, -0.8017578125, 0.109375, 0.15185546875, 
146, 3600190544, 0.6393352746963501, -0.2851373255252838, -0.5806999206542969, -0.41559359431266785, 9.713045120239258, 1.2267909049987793, 1.5259019136428833, -1.005435585975647, 0.8566808700561523, -0.9880434274673462, -0.8037109375, 0.11083984375, 0.15380859375, 
147, 3600198877, 0.6393123269081116, -0.2851135730743408, -0.5806889533996582, -0.41566020250320435, 9.723588943481445, 1.2061266899108887, 1.5311232805252075, -1.165780782699585, 0.6784570217132568, -0.9537715911865234, -0.80224609375, 0.10791015625, 0.15625, 
148, 3600207210, 0.6392803192138672, -0.28512024879455566, -0.5806655287742615, -0.4157377779483795, 9.718367576599121, 1.1861129999160767, 1.5511441230773926, -1.3792752027511597, 0.5090188384056091, -0.7928373217582703, -0.80517578125, 0.1083984375, 0.15576171875, 
149, 3600215543, 0.6392556428909302, -0.2851191759109497, -0.5806501507759094, -0.4157978594303131, 9.720627784729004, 1.1707773208618164, 1.534313440322876, -1.097493052482605, 0.4722623825073242, -0.6878190040588379, -0.8046875, 0.10986328125, 0.15283203125, 
150, 3600223876, 0.639256477355957, -0.2850733995437622, -0.5806576609611511, -0.41581764817237854, 9.717859268188477, 1.142638087272644, 1.4890002012252808, -0.12648309767246246, 0.6818637251853943, -0.6105921268463135, -0.80126953125, 0.10888671875, 0.15283203125, 
151, 3600232209, 0.6392814517021179, -0.2849712073802948, -0.5806915760040283, -0.4158017337322235, 9.726607322692871, 1.151521921157837, 1.4769762754440308, 0.6946452856063843, 0.7978705763816833, -0.7462963461875916, -0.802734375, 0.11083984375, 0.1533203125, 
152, 3600240542, 0.6393128633499146, -0.2848513126373291, -0.580734372138977, -0.41577592492103577, 9.703883171081543, 1.1454063653945923, 1.4739214181900024, 1.1847478151321411, 0.7532249689102173, -0.7904296517372131, -0.80517578125, 0.10791015625, 0.15380859375, 
153, 3600248875, 0.6393396854400635, -0.2847306728363037, -0.5807989239692688, -0.41572728753089905, 9.719490051269531, 1.1696829795837402, 1.5056304931640625, 1.4200403690338135, 0.537194550037384, -0.6950422525405884, -0.802734375, 0.10888671875, 0.15234375, 
154, 3600257208, 0.6393415927886963, -0.2846291661262512, -0.5808886289596558, -0.41566842794418335, 9.709813117980957, 1.1903904676437378, 1.5463945865631104, 1.4397121667861938, -0.1302996128797531, -0.7051342725753784, -0.801513671875, 0.1083984375, 0.15283203125, 
155, 3600265541, 0.6393154859542847, -0.28457796573638916, -0.5809579491615295, -0.4156465530395508, 9.728025436401367, 1.2224855422973633, 1.4934279918670654, 0.33115363121032715, -0.2288632094860077, -0.7110768556594849, -0.8037109375, 0.109375, 0.15380859375, 
156, 3600273874, 0.6392778158187866, -0.2845478951931, -0.5810202360153198, -0.41563814878463745, 9.705156326293945, 1.2335506677627563, 1.5141209363937378, 0.09808970987796783, -0.41787058115005493, -0.6981415748596191, -0.801025390625, 0.1083984375, 0.152587890625, 
157, 3600282207, 0.6392045021057129, -0.2845522165298462, -0.5810791850090027, -0.4156654477119446, 9.701007843017578, 1.2544727325439453, 1.5580036640167236, -0.7947841286659241, -0.640022873878479, -0.929463803768158, -0.802734375, 0.10791015625, 0.15380859375, 
158, 3600290540, 0.6391212344169617, -0.28459692001342773, -0.5811148285865784, -0.41571304202079773, 9.698988914489746, 1.2111623287200928, 1.5832585096359253, -1.336448311805725, -0.7564395666122437, -0.7487809062004089, -0.801513671875, 0.107421875, 0.153564453125, 
159, 3600298873, 0.6390489339828491, -0.28462910652160645, -0.5811675190925598, -0.41572871804237366, 9.697452545166016, 1.2020713090896606, 1.576007604598999, -0.9001097679138184, -0.7720643281936646, -0.5600808262825012, -0.802734375, 0.108154296875, 0.15087890625, 
160, 3600307206, 0.6390080451965332, -0.28462111949920654, -0.581225574016571, -0.4157157242298126, 9.718997955322266, 1.1754909753799438, 1.5411442518234253, -0.09518250077962875, -0.5497839450836182, -0.4826746881008148, -0.801025390625, 0.10791015625, 0.152099609375, 
161, 3600315539, 0.6389877796173096, -0.2846081852912903, -0.5812867283821106, -0.4156702756881714, 9.696157455444336, 1.1859413385391235, 1.5301289558410645, 0.09427319467067719, -0.4298068881034851, -0.14384956657886505, -0.801513671875, 0.10791015625, 0.153076171875, 
162, 3600323872, 0.6389786005020142, -0.2845871150493622, -0.5813474655151367, -0.4156137704849243, 9.688218116760254, 1.179761290550232, 1.5151365995407104, 0.5059451460838318, -0.4150274395942688, -0.033272888511419296, -0.802490234375, 0.107421875, 0.153564453125, 
163, 3600332205, 0.6389837265014648, -0.284555047750473, -0.5814307928085327, -0.4155111610889435, 9.659928321838379, 1.2000105381011963, 1.537439227104187, 1.0646427869796753, -0.5242465138435364, 0.28269150853157043, -0.802001953125, 0.10791015625, 0.152587890625, 
164, 3600340538, 0.6390039920806885, -0.2845107614994049, -0.5815287828445435, -0.41537347435951233, 9.644317626953125, 1.254647135734558, 1.5497987270355225, 1.6865564584732056, -0.6894839406013489, 0.5153199434280396, -0.80224609375, 0.10791015625, 0.15380859375, 
165, 3600348871, 0.6390233635902405, -0.28446561098098755, -0.5816524624824524, -0.4152013957500458, 9.624043464660645, 1.2822483777999878, 1.5726295709609985, 2.1127004623413086, -1.0541794300079346, 0.7071706056594849, -0.8017578125, 0.1083984375, 0.15380859375, 
166, 3600357204, 0.6390625834465027, -0.2843969464302063, -0.5817767381668091, -0.41501396894454956, 9.630688667297363, 1.3343119621276855, 1.5599514245986938, 2.4014244079589844, -0.7386889457702637, 0.7655967473983765, -0.80224609375, 0.11181640625, 0.1552734375, 
167, 3600365537, 0.6391133666038513, -0.2842943072319031, -0.581925094127655, -0.4147980213165283, 9.59825611114502, 1.3341383934020996, 1.5354340076446533, 2.957944631576538, -0.7927349209785461, 0.6915715336799622, -0.802734375, 0.109619140625, 0.15673828125, 
168, 3600373870, 0.639140248298645, -0.2842349708080292, -0.5820455551147461, -0.41462820768356323, 9.64645767211914, 1.358006477355957, 1.5409636497497559, 2.229757785797119, -0.8768521547317505, 0.6283556818962097, -0.802001953125, 0.10693359375, 0.153564453125, 
169, 3600382203, 0.6391317844390869, -0.2842622995376587, -0.5821210145950317, -0.41451653838157654, 9.652854919433594, 1.3797407150268555, 1.5169748067855835, 0.5795091986656189, -0.929924726486206, 0.8040180206298828, -0.8017578125, 0.10888671875, 0.15625, 
170, 3600390536, 0.6391024589538574, -0.2843710780143738, -0.5821592807769775, -0.4144335389137268, 9.624185562133789, 1.3876454830169678, 1.5003608465194702, -0.6300845146179199, -1.2234638929367065, 1.2119759321212769, -0.80078125, 0.109375, 0.15576171875, 
171, 3600398869, 0.6390682458877563, -0.28452011942863464, -0.5821804404258728, -0.4143540561199188, 9.632397651672363, 1.3442060947418213, 1.5236893892288208, -1.218161702156067, -1.2330948114395142, 1.5533112287521362, -0.80322265625, 0.11083984375, 0.15625, 
172, 3600407202, 0.6390326023101807, -0.2846962511539459, -0.5821788311004639, -0.41429048776626587, 9.66641616821289, 1.3407810926437378, 1.5426967144012451, -1.6286811828613281, -1.232864499092102, 1.6994149684906006, -0.80322265625, 0.11083984375, 0.15478515625, 
173, 3600415535, 0.6390156745910645, -0.28485897183418274, -0.5821723937988281, -0.41421377658843994, 9.69074535369873, 1.2809349298477173, 1.5301567316055298, -1.5852138996124268, -0.9367638826370239, 1.8235160112380981, -0.8017578125, 0.111328125, 0.15576171875, 
174, 3600423868, 0.6390234231948853, -0.2850099503993988, -0.5821495056152344, -0.41413021087646484, 9.689820289611816, 1.305230736732483, 1.5176235437393188, -1.2006672620773315, -0.6294954419136047, 2.005581855773926, -0.80224609375, 0.11083984375, 0.15380859375, 
175, 3600432201, 0.6390348672866821, -0.2851538360118866, -0.5821247696876526, -0.41404828429222107, 9.720422744750977, 1.2992669343948364, 1.5125802755355835, -1.1458781957626343, -0.53907710313797, 1.9622937440872192, -0.80078125, 0.11083984375, 0.1552734375, 
176, 3600440534, 0.6390396356582642, -0.28529590368270874, -0.5820921659469604, -0.4139886796474457, 9.766448020935059, 1.2749733924865723, 1.483353614807129, -1.6481993198394775, -0.35501334071159363, 1.7292042970657349, -0.80224609375, 0.11083984375, 0.1552734375, 
177, 3600448867, 0.6390381455421448, -0.28545424342155457, -0.5820285081863403, -0.41397106647491455, 9.814658164978027, 1.2731010913848877, 1.4758682250976562, -2.2384536266326904, -0.0477193221449852, 1.5904775857925415, -0.802734375, 0.111328125, 0.15478515625, 
178, 3600457200, 0.6390348076820374, -0.2856288552284241, -0.5819367170333862, -0.41398507356643677, 9.81049919128418, 1.251293659210205, 1.5016502141952515, -2.6249470710754395, 0.13215665519237518, 1.545166015625, -0.80126953125, 0.11328125, 0.15380859375, 
179, 3600465533, 0.6390029191970825, -0.2858215272426605, -0.5818450450897217, -0.4140301048755646, 9.806800842285156, 1.2260727882385254, 1.5105246305465698, -3.142585277557373, -0.07489603012800217, 1.2528049945831299, -0.8037109375, 0.109375, 0.15576171875, 
180, 3600473866, 0.638952374458313, -0.28602880239486694, -0.5817586779594421, -0.4140864312648773, 9.841440200805664, 1.2017465829849243, 1.5600671768188477, -3.7826075553894043, -0.2549128532409668, 1.1105691194534302, -0.80126953125, 0.112548828125, 0.1572265625, 
181, 3600482199, 0.638884961605072, -0.2862350642681122, -0.5816758275032043, -0.41416430473327637, 9.8533296585083, 1.1452559232711792, 1.5415616035461426, -3.786526679992676, -0.3035030663013458, 0.8372652530670166, -0.80126953125, 0.111083984375, 0.1572265625, 
182, 3600490532, 0.6388096213340759, -0.2864234447479248, -0.5816117525100708, -0.41424018144607544, 9.803199768066406, 1.1006814241409302, 1.5490442514419556, -3.3655314445495605, -0.5225816965103149, 0.5927262902259827, -0.80322265625, 0.1123046875, 0.15478515625, 
183, 3600498865, 0.6387539505958557, -0.2865324318408966, -0.581600546836853, -0.4142664074897766, 9.810884475708008, 1.069919228553772, 1.544185757637024, -2.168117046356201, -0.503294050693512, 0.28041183948516846, -0.80224609375, 0.11181640625, 0.15478515625, 
184, 3600507198, 0.6387149691581726, -0.28658899664878845, -0.5815896987915039, -0.41430285573005676, 9.782028198242188, 1.0295015573501587, 1.5510367155075073, -1.4451807737350464, -0.10048463195562363, -0.11938794702291489, -0.7998046875, 0.111572265625, 0.1572265625, 
185, 3600515531, 0.6386804580688477, -0.28663066029548645, -0.5815907716751099, -0.4143257141113281, 9.750969886779785, 1.0308605432510376, 1.5300860404968262, -1.1216984987258911, -0.13987933099269867, -0.14103198051452637, -0.802734375, 0.113525390625, 0.157470703125, 
186, 3600523864, 0.6386536359786987, -0.28662237524986267, -0.5816366672515869, -0.41430798172950745, 9.756357192993164, 1.0303024053573608, 1.5517446994781494, -0.20675809681415558, -0.2611114978790283, -0.30831852555274963, -0.80078125, 0.110595703125, 0.15576171875, 
187, 3600532197, 0.6386741399765015, -0.2865484952926636, -0.581691563129425, -0.41425055265426636, 9.736313819885254, 1.0651942491531372, 1.5120608806610107, 0.9058858752250671, 0.25223618745803833, -0.25591185688972473, -0.80029296875, 0.110107421875, 0.15625, 
188, 3600540530, 0.6387232542037964, -0.2864355444908142, -0.5817433595657349, -0.4141803979873657, 9.706463813781738, 1.096346139907837, 1.5207048654556274, 1.5992887020111084, 0.5981051325798035, -0.2834983468055725, -0.80126953125, 0.109619140625, 0.1572265625, 
189, 3600548863, 0.6387701034545898, -0.2863176167011261, -0.5818006992340088, -0.41410914063453674, 9.692426681518555, 1.1323463916778564, 1.4976102113723755, 1.6749788522720337, 0.5552269220352173, -0.3480205833911896, -0.8017578125, 0.11376953125, 0.155029296875, 
190, 3600557196, 0.6388005614280701, -0.28621023893356323, -0.5818519592285156, -0.41406434774398804, 9.685829162597656, 1.1636172533035278, 1.4748165607452393, 1.2627688646316528, 0.6203640103340149, -0.5413824915885925, -0.8017578125, 0.11083984375, 0.1552734375, 
191, 3600565529, 0.6388140320777893, -0.28612926602363586, -0.5818907022476196, -0.4140447676181793, 9.694047927856445, 1.174611210823059, 1.478707194328308, 0.5345306396484375, 0.5258218050003052, -0.625806987285614, -0.8037109375, 0.11181640625, 0.15478515625, 
192, 3600573862, 0.6388124227523804, -0.2860819101333618, -0.5818973779678345, -0.4140706956386566, 9.697652816772461, 1.1923788785934448, 1.456068515777588, -0.2029159516096115, 0.5930079221725464, -0.7125368118286133, -0.80322265625, 0.110595703125, 0.1572265625, 
193, 3600582195, 0.6387935876846313, -0.2860579490661621, -0.5818861722946167, -0.41413193941116333, 9.689190864562988, 1.1539037227630615, 1.4299534559249878, -0.9338693618774414, 0.7093222141265869, -0.8514171242713928, -0.8046875, 0.1103515625, 0.15283203125, 
194, 3600590528, 0.6387550234794617, -0.2860461175441742, -0.5818684101104736, -0.4142245948314667, 9.695182800292969, 1.162925124168396, 1.4371520280838013, -1.3326060771942139, 0.5731056332588196, -1.1303561925888062, -0.8017578125, 0.111572265625, 0.15576171875, 
195, 3600598861, 0.638715386390686, -0.28602930903434753, -0.5818371176719666, -0.41434136033058167, 9.698975563049316, 1.1050424575805664, 1.4286167621612549, -1.7886162996292114, 0.8798105120658875, -1.345259666442871, -0.80126953125, 0.110595703125, 0.1572265625, 
196, 3600607194, 0.6386677026748657, -0.28602609038352966, -0.58179771900177, -0.414472371339798, 9.664299011230469, 1.1040751934051514, 1.4151450395584106, -1.8732203245162964, 0.7902888655662537, -1.3655205965042114, -0.80126953125, 0.113525390625, 0.15576171875, 
197, 3600615527, 0.6386236548423767, -0.28602248430252075, -0.5817660689353943, -0.41458702087402344, 9.671759605407715, 1.1214550733566284, 1.4545224905014038, -2.031337022781372, 0.7501000761985779, -1.2648565769195557, -0.8017578125, 0.10986328125, 0.15478515625, 
198, 3600623860, 0.6385546922683716, -0.28603875637054443, -0.5817288160324097, -0.4147345721721649, 9.70447063446045, 1.110720157623291, 1.4896202087402344, -2.2491347789764404, 0.555380642414093, -1.4855999946594238, -0.8017578125, 0.111572265625, 0.15771484375, 
199, 3600632193, 0.638489842414856, -0.2860357165336609, -0.5817021727561951, -0.4148736000061035, 9.759217262268066, 1.1029014587402344, 1.4691002368927002, -2.0981900691986084, 0.6542516350746155, -1.584675908088684, -0.80126953125, 0.1103515625, 0.1533203125, 
200, 3600640526, 0.638438880443573, -0.28601405024528503, -0.5816580057144165, -0.4150288999080658, 9.792363166809082, 1.0948481559753418, 1.5066633224487305, -1.946682095527649, 1.0090086460113525, -1.7255797386169434, -0.80322265625, 0.109130859375, 0.15771484375, 
201, 3600648859, 0.6383801102638245, -0.2859978675842285, -0.5815996527671814, -0.41521206498146057, 9.749141693115234, 1.1336400508880615, 1.4850599765777588, -2.36293888092041, 1.2441986799240112, -1.8972976207733154, -0.8017578125, 0.10986328125, 0.15478515625, 
202, 3600657192, 0.6382865905761719, -0.2860125005245209, -0.5815490484237671, -0.41541698575019836, 9.783599853515625, 1.138859748840332, 1.5172944068908691, -2.8666939735412598, 0.7124983668327332, -2.0872786045074463, -0.8017578125, 0.10888671875, 0.15478515625, 
203, 3600665525, 0.6381853222846985, -0.2860194444656372, -0.5815111398696899, -0.41562068462371826, 9.813319206237793, 1.0968191623687744, 1.5487812757492065, -2.9328808784484863, 0.6554810404777527, -2.2416040897369385, -0.80322265625, 0.10791015625, 0.15478515625, 
204, 3600673858, 0.6380824446678162, -0.2860199511051178, -0.581484317779541, -0.4158157408237457, 9.814433097839355, 1.0730879306793213, 1.575492024421692, -2.565547466278076, 0.47200635075569153, -2.261737108230591, -0.8037109375, 0.10791015625, 0.1552734375, 
205, 3600682191, 0.6379866003990173, -0.2859939634799957, -0.58148193359375, -0.41598397493362427, 9.81900405883789, 1.0627557039260864, 1.5898442268371582, -2.0889945030212402, 0.4419095516204834, -2.294318199157715, -0.8037109375, 0.107421875, 0.15478515625, 
206, 3600690524, 0.6379197835922241, -0.28592655062675476, -0.5814937353134155, -0.41611620783805847, 9.81389045715332, 1.0811907052993774, 1.5837631225585938, -1.1033587455749512, 0.5611182451248169, -2.2000067234039307, -0.801025390625, 0.10791015625, 0.153076171875, 
207, 3600698857, 0.6378684043884277, -0.2858002781867981, -0.5815548896789551, -0.41619613766670227, 9.777074813842773, 1.1159251928329468, 1.5715049505233765, -0.08473189920186996, 0.4516430199146271, -2.337043285369873, -0.80322265625, 0.1083984375, 0.15673828125, 
208, 3600707190, 0.6378247141838074, -0.2856420874595642, -0.5816351771354675, -0.4162595868110657, 9.77169132232666, 1.1431477069854736, 1.5707544088363647, 0.7273802757263184, 0.3930376470088959, -2.4594788551330566, -0.802490234375, 0.10693359375, 0.155029296875, 
209, 3600715523, 0.6378071904182434, -0.2854532301425934, -0.5817175507545471, -0.4163009226322174, 9.760284423828125, 1.2107264995574951, 1.5430538654327393, 1.1445080041885376, 0.7586296200752258, -2.37162184715271, -0.801513671875, 0.10693359375, 0.155517578125, 
210, 3600723856, 0.6377920508384705, -0.2852519750595093, -0.5817928314208984, -0.41635698080062866, 9.729982376098633, 1.229515552520752, 1.5135369300842285, 1.245837926864624, 0.8835246562957764, -2.5551223754882812, -0.8037109375, 0.1083984375, 0.1552734375, 
211, 3600732189, 0.6377696990966797, -0.28504234552383423, -0.5818781852722168, -0.4164154529571533, 9.705223083496094, 1.263694167137146, 1.5011179447174072, 1.0913585424423218, 0.8660812973976135, -2.7421576976776123, -0.80322265625, 0.10693359375, 0.155517578125, 
212, 3600740522, 0.6377371549606323, -0.284848690032959, -0.5819533467292786, -0.41649267077445984, 9.732608795166016, 1.2493927478790283, 1.5225616693496704, 0.9417970776557922, 0.7830144166946411, -2.779733657836914, -0.8037109375, 0.10693359375, 0.15380859375, 
213, 3600748855, 0.637699544429779, -0.28466537594795227, -0.5820336937904358, -0.4165632128715515, 9.768510818481445, 1.2133716344833374, 1.5034466981887817, 0.6661109924316406, 0.6817100644111633, -2.7080650329589844, -0.801513671875, 0.10498046875, 0.156005859375, 
214, 3600757188, 0.6376678347587585, -0.28448888659477234, -0.5821059346199036, -0.41663140058517456, 9.769203186035156, 1.2208276987075806, 1.5006605386734009, 0.8488429188728333, 0.6841689944267273, -2.5464134216308594, -0.802001953125, 0.104736328125, 0.157958984375, 
215, 3600765521, 0.6376593708992004, -0.2842971086502075, -0.5821744203567505, -0.41667962074279785, 9.738001823425293, 1.2356526851654053, 1.4843088388442993, 1.213410496711731, 0.9115722179412842, -2.3463921546936035, -0.802490234375, 0.10400390625, 0.155517578125, 
216, 3600773854, 0.6376611590385437, -0.2841167747974396, -0.5822504758834839, -0.41669386625289917, 9.67680835723877, 1.2417845726013184, 1.4877833127975464, 1.5146849155426025, 0.8354723453521729, -1.898757815361023, -0.802001953125, 0.10498046875, 0.153564453125, 
217, 3600782187, 0.6376694440841675, -0.2839425802230835, -0.5823549628257751, -0.41665351390838623, 9.626090049743652, 1.2517364025115967, 1.507957935333252, 1.8555335998535156, 0.3614552617073059, -1.4829872846603394, -0.80322265625, 0.106201171875, 0.158447265625, 
218, 3600790520, 0.6376835703849792, -0.2837892472743988, -0.5824478268623352, -0.41660669445991516, 9.622135162353516, 1.2923375368118286, 1.515100359916687, 1.8653695583343506, 0.2855859398841858, -1.169802188873291, -0.802001953125, 0.10546875, 0.154541015625, 
219, 3600798853, 0.637703537940979, -0.28366920351982117, -0.5825074911117554, -0.41657447814941406, 9.656545639038086, 1.3081691265106201, 1.5031412839889526, 1.2867182493209839, 0.4917036294937134, -0.8694751858711243, -0.801025390625, 0.10595703125, 0.156982421875, 
220, 3600807186, 0.6377246379852295, -0.2835584878921509, -0.5825589895248413, -0.4165455102920532, 9.684491157531738, 1.297890543937683, 1.486210584640503, 0.9565508365631104, 0.6093242764472961, -0.7932472229003906, -0.800537109375, 0.10498046875, 0.153564453125, 
221, 3600815519, 0.6377383470535278, -0.28344017267227173, -0.582602322101593, -0.4165443778038025, 9.750542640686035, 1.2825547456741333, 1.4641085863113403, 0.7138046622276306, 0.7713086009025574, -1.1101977825164795, -0.802001953125, 0.10400390625, 0.153564453125, 
222, 3600823852, 0.6377573013305664, -0.28333768248558044, -0.582602858543396, -0.4165842831134796, 9.79064655303955, 1.3356074094772339, 1.482104778289795, 0.2134818285703659, 1.183364748954773, -1.1363242864608765, -0.804931640625, 0.10302734375, 0.157470703125, 
223, 3600832185, 0.6377700567245483, -0.28326883912086487, -0.5825724601745605, -0.4166542589664459, 9.74632453918457, 1.381563663482666, 1.541646122932434, -0.41118529438972473, 1.443093180656433, -1.0045390129089355, -0.801025390625, 0.10302734375, 0.153564453125, 
224, 3600840518, 0.6377779245376587, -0.2832312285900116, -0.582510232925415, -0.41675499081611633, 9.724678039550781, 1.3945802450180054, 1.5213189125061035, -1.244826078414917, 1.5077177286148071, -0.9691145420074463, -0.800537109375, 0.10546875, 0.153564453125, 
225, 3600848851, 0.6377679109573364, -0.2832185924053192, -0.5824359059333801, -0.41688284277915955, 9.752805709838867, 1.372175693511963, 1.5485785007476807, -1.8205828666687012, 1.4347941875457764, -1.062888264656067, -0.801025390625, 0.10498046875, 0.153564453125, 
226, 3600857184, 0.6377545595169067, -0.28319287300109863, -0.5823726654052734, -0.41700899600982666, 9.743280410766602, 1.2786089181900024, 1.585368037223816, -1.8766272068023682, 1.4481905698776245, -1.2289453744888306, -0.803466796875, 0.10400390625, 0.154541015625, 
227, 3600865517, 0.6377519965171814, -0.28315120935440063, -0.5823086500167847, -0.41713041067123413, 9.74223518371582, 1.1561391353607178, 1.5980286598205566, -1.5386470556259155, 1.631306529045105, -1.231865406036377, -0.801025390625, 0.10498046875, 0.153076171875, 
228, 3600873850, 0.6377568244934082, -0.28308671712875366, -0.5822718739509583, -0.41721805930137634, 9.741331100463867, 1.1513482332229614, 1.607525110244751, -0.771628737449646, 1.3664296865463257, -1.185503602027893, -0.803466796875, 0.102783203125, 0.152099609375, 
229, 3600882183, 0.6377938389778137, -0.2829667925834656, -0.5822737216949463, -0.417240172624588, 9.795348167419434, 1.1281390190124512, 1.626265048980713, 0.5879619717597961, 1.3471678495407104, -1.0205222368240356, -0.801513671875, 0.1044921875, 0.153564453125, 
230, 3600890516, 0.6378673911094666, -0.2828029692173004, -0.5822950601577759, -0.41720908880233765, 9.780126571655273, 1.1533061265945435, 1.6117892265319824, 1.497779369354248, 1.592193603515625, -0.774958610534668, -0.8056640625, 0.104736328125, 0.151611328125, 
231, 3600898849, 0.6379848718643188, -0.2825753092765808, -0.5823419690132141, -0.41711828112602234, 9.80839729309082, 1.14525306224823, 1.6301020383834839, 2.748163938522339, 1.8399344682693481, -0.6281378865242004, -0.803466796875, 0.10400390625, 0.155517578125, 
232, 3600907182, 0.6381229162216187, -0.282304584980011, -0.5823915004730225, -0.41702115535736084, 9.781645774841309, 1.209136724472046, 1.5985467433929443, 3.5317039489746094, 2.140261650085449, -0.7876889705657959, -0.800048828125, 0.1025390625, 0.15283203125, 
233, 3600915515, 0.6382771730422974, -0.28202688694000244, -0.5824333429336548, -0.41691455245018005, 9.737150192260742, 1.267983317375183, 1.5835521221160889, 3.6217377185821533, 2.428678035736084, -0.6280611157417297, -0.801025390625, 0.1044921875, 0.155029296875, 
234, 3600923848, 0.6384087800979614, -0.28179365396499634, -0.5824527740478516, -0.41684335470199585, 9.680000305175781, 1.2808361053466797, 1.5908671617507935, 2.79783034324646, 2.2374162673950195, -0.6346951723098755, -0.803466796875, 0.104736328125, 0.153076171875, 
235, 3600932181, 0.6385079026222229, -0.28161320090293884, -0.5824669003486633, -0.416794091463089, 9.644505500793457, 1.2898972034454346, 1.5785529613494873, 1.8492579460144043, 1.8836581707000732, -0.5762434005737305, -0.802978515625, 0.102783203125, 0.152587890625, 
236, 3600940514, 0.638587474822998, -0.28147438168525696, -0.582467257976532, -0.4167655110359192, 9.598237037658691, 1.3005224466323853, 1.5897693634033203, 1.3154575824737549, 1.61271071434021, -0.4777054786682129, -0.804443359375, 0.1025390625, 0.155517578125, 
237, 3600948847, 0.6386544108390808, -0.28137391805648804, -0.5824339389801025, -0.41677719354629517, 9.577887535095215, 1.3323087692260742, 1.575512409210205, 0.5058170557022095, 1.850205898284912, -0.42952510714530945, -0.802490234375, 0.104736328125, 0.149169921875, 
238, 3600957180, 0.6387397646903992, -0.28127381205558777, -0.5823691487312317, -0.41680455207824707, 9.548364639282227, 1.3778817653656006, 1.5746549367904663, 0.17698155343532562, 2.224634885787964, -0.3745569586753845, -0.804443359375, 0.103271484375, 0.150634765625, 
239, 3600965513, 0.6388164758682251, -0.2811765968799591, -0.5822939276695251, -0.41685760021209717, 9.544614791870117, 1.3358937501907349, 1.5915637016296387, -0.14730748534202576, 2.3300373554229736, -0.5864379405975342, -0.801513671875, 0.105712890625, 0.149169921875, 
240, 3600973846, 0.6388794183731079, -0.2811136543750763, -0.5822048187255859, -0.4169282019138336, 9.568856239318848, 1.3358911275863647, 1.555440902709961, -0.8925281167030334, 2.287748336791992, -0.4961733818054199, -0.803955078125, 0.104736328125, 0.152099609375, 
241, 3600982179, 0.6389341354370117, -0.2810690402984619, -0.5821183919906616, -0.41699498891830444, 9.551167488098145, 1.3103834390640259, 1.5355936288833618, -1.016808271408081, 2.0798118114471436, -0.37007445096969604, -0.802978515625, 0.104736328125, 0.149658203125, 
242, 3600990512, 0.6389920115470886, -0.28102678060531616, -0.5820399522781372, -0.417044460773468, 9.575857162475586, 1.3230350017547607, 1.54524564743042, -0.6929418444633484, 1.877817988395691, -0.20988303422927856, -0.804931640625, 0.101806640625, 0.152587890625, 
243, 3600998845, 0.6390321850776672, -0.280996710062027, -0.5819770097732544, -0.4170909523963928, 9.60222053527832, 1.31780207157135, 1.56406569480896, -0.7008311748504639, 1.6209843158721924, -0.21587678790092468, -0.803466796875, 0.101806640625, 0.152587890625, 
244, 3601007178, 0.6390787363052368, -0.28096261620521545, -0.5819070935249329, -0.41714027523994446, 9.66811752319336, 1.2937029600143433, 1.536624789237976, -0.7588728666305542, 1.666346788406372, -0.241106778383255, -0.804443359375, 0.103759765625, 0.149658203125, 
245, 3601015511, 0.6391218900680542, -0.28092899918556213, -0.581836998462677, -0.41719430685043335, 9.701787948608398, 1.2541896104812622, 1.5103501081466675, -1.002541184425354, 1.7276928424835205, -0.3059876561164856, -0.804931640625, 0.10400390625, 0.147705078125, 
246, 3601023844, 0.6391653418540955, -0.28089413046836853, -0.581770122051239, -0.41724440455436707, 9.734989166259766, 1.2611265182495117, 1.5098416805267334, -0.7527767419815063, 1.620932698249817, -0.2828579843044281, -0.802490234375, 0.103759765625, 0.152587890625, 
247, 3601032177, 0.6391949653625488, -0.28087395429611206, -0.5817071795463562, -0.41730019450187683, 9.750382423400879, 1.2694600820541382, 1.5127140283584595, -1.0019519329071045, 1.5041831731796265, -0.2953065037727356, -0.804443359375, 0.1025390625, 0.148193359375, 
248, 3601040510, 0.6392244696617126, -0.2808712124824524, -0.5816413164138794, -0.4173488914966583, 9.770791053771973, 1.3025321960449219, 1.54850435256958, -1.0715715885162354, 1.3110517263412476, -0.09753900021314621, -0.804443359375, 0.104736328125, 0.148681640625, 
249, 3601048843, 0.6392509937286377, -0.2808590233325958, -0.5815987586975098, -0.4173758625984192, 9.76626968383789, 1.281446099281311, 1.573060393333435, -0.9733664393424988, 1.1118499040603638, -0.11362473666667938, -0.801513671875, 0.10400390625, 0.147216796875, 
250, 3601057176, 0.639262855052948, -0.280860036611557, -0.5815581679344177, -0.41741353273391724, 9.753838539123535, 1.2702232599258423, 1.5763936042785645, -0.938889741897583, 0.8851638436317444, -0.17097501456737518, -0.805419921875, 0.103271484375, 0.149658203125, 
251, 3601065509, 0.6392858028411865, -0.2808590233325958, -0.5815080404281616, -0.41744884848594666, 9.759088516235352, 1.2541723251342773, 1.623666763305664, -1.059814691543579, 1.1359784603118896, -0.06611033529043198, -0.803466796875, 0.103515625, 0.148681640625, 
252, 3601073842, 0.639301061630249, -0.2808634042739868, -0.581455409526825, -0.4174959361553192, 9.78376579284668, 1.26272714138031, 1.6115784645080566, -1.101078987121582, 1.035442590713501, -0.1595766544342041, -0.804443359375, 0.103515625, 0.147216796875, 
253, 3601082175, 0.6393232345581055, -0.2808510661125183, -0.5814341902732849, -0.4174998700618744, 9.785310745239258, 1.251926302909851, 1.5890111923217773, -0.6370259523391724, 0.804402232170105, -0.012371675111353397, -0.804443359375, 0.103271484375, 0.151123046875, 
254, 3601090508, 0.63935786485672, -0.28081250190734863, -0.5814141631126404, -0.4175005853176117, 9.785602569580078, 1.2365405559539795, 1.5557430982589722, -0.08936807513237, 0.9705618619918823, -0.11024367809295654, -0.804931640625, 0.103759765625, 0.150146484375, 
255, 3601098841, 0.6394031643867493, -0.2807621657848358, -0.5813851952552795, -0.4175054728984833, 9.727743148803711, 1.2918106317520142, 1.5472956895828247, -0.030122337862849236, 1.217124342918396, -0.1451302468776703, -0.803955078125, 0.10302734375, 0.148681640625, 
256, 3601107174, 0.6394387483596802, -0.2806985676288605, -0.5813769102096558, -0.4175053834915161, 9.716373443603516, 1.2883414030075073, 1.5654356479644775, 0.06243469938635826, 1.0909231901168823, -0.34620198607444763, -0.802490234375, 0.102294921875, 0.149169921875, 
257, 3601115507, 0.639459490776062, -0.2806437015533447, -0.5813910961151123, -0.4174906015396118, 9.678619384765625, 1.2663178443908691, 1.5760931968688965, 0.23182161152362823, 0.6753320097923279, -0.3070378303527832, -0.804931640625, 0.103515625, 0.147705078125, 
258, 3601123840, 0.6394835114479065, -0.2805618643760681, -0.5814275145530701, -0.41745805740356445, 9.651230812072754, 1.2292518615722656, 1.5388121604919434, 0.8391351699829102, 0.5095824003219604, -0.4422554075717926, -0.802490234375, 0.102294921875, 0.151123046875, 
259, 3601132173, 0.6395196914672852, -0.280447393655777, -0.5814772844314575, -0.41741034388542175, 9.60988712310791, 1.2502883672714233, 1.5524601936340332, 1.3850256204605103, 0.7141888737678528, -0.5270897150039673, -0.800537109375, 0.102783203125, 0.150390625, 
260, 3601140506, 0.6395641565322876, -0.28031298518180847, -0.5815269947052002, -0.41736340522766113, 9.620315551757812, 1.238625168800354, 1.5320366621017456, 1.5720350742340088, 0.8016871213912964, -0.6705294251441956, -0.803955078125, 0.10205078125, 0.147705078125, 
261, 3601148839, 0.6395988464355469, -0.28019729256629944, -0.5815825462341309, -0.41731035709381104, 9.576583862304688, 1.2185869216918945, 1.530043125152588, 1.3480130434036255, 0.6212605237960815, -0.5405628681182861, -0.803466796875, 0.103271484375, 0.150146484375, 
262, 3601157172, 0.639627993106842, -0.28008392453193665, -0.5816501975059509, -0.4172476530075073, 9.592055320739746, 1.2053041458129883, 1.5248216390609741, 1.5566409826278687, 0.3401954770088196, -0.5208654403686523, -0.806396484375, 0.1025390625, 0.148681640625, 
263, 3601165505, 0.6396785974502563, -0.27994710206985474, -0.5817350149154663, -0.4171433746814728, 9.60224723815918, 1.2155544757843018, 1.5353326797485352, 2.180373191833496, 0.4164746403694153, -0.2795281410217285, -0.802978515625, 0.102783203125, 0.149658203125, 
264, 3601173838, 0.6397460103034973, -0.27981290221214294, -0.5817940831184387, -0.4170476794242859, 9.594354629516602, 1.2312891483306885, 1.5138518810272217, 2.102224349975586, 0.7144962549209595, -0.14395199716091156, -0.803955078125, 0.103759765625, 0.150634765625, 
265, 3601182171, 0.639789879322052, -0.2797255218029022, -0.5818561911582947, -0.4169524610042572, 9.605724334716797, 1.2838995456695557, 1.5308300256729126, 1.6130691766738892, 0.2322058379650116, 0.07859727740287781, -0.802490234375, 0.101318359375, 0.1494140625, 
266, 3601190504, 0.6398141980171204, -0.27966874837875366, -0.5819187164306641, -0.4168657660484314, 9.640108108520508, 1.271782636642456, 1.5429898500442505, 1.126654863357544, 0.014049407094717026, 0.14481006562709808, -0.804931640625, 0.103271484375, 0.150146484375, 
267, 3601198837, 0.6398352980613708, -0.279632568359375, -0.5819573998451233, -0.4168035387992859, 9.657661437988281, 1.289586067199707, 1.5291705131530762, 0.6087862849235535, 0.17500926554203033, 0.1684776395559311, -0.803466796875, 0.102783203125, 0.149169921875, 
268, 3601207170, 0.6398426294326782, -0.2796449661254883, -0.5819692611694336, -0.41676732897758484, 9.645922660827637, 1.271567940711975, 1.5762574672698975, -0.16549356281757355, 0.038715917617082596, 0.34191158413887024, -0.804443359375, 0.103271484375, 0.150146484375, 
269, 3601215503, 0.639812171459198, -0.27974021434783936, -0.5819575190544128, -0.4167666435241699, 9.66726016998291, 1.294600248336792, 1.586135745048523, -1.4599599838256836, -0.39676445722579956, 0.5677266716957092, -0.803466796875, 0.10302734375, 0.148193359375, 
270, 3601223836, 0.639755368232727, -0.27986037731170654, -0.5819545984268188, -0.4167773425579071, 9.674378395080566, 1.2401528358459473, 1.5844824314117432, -1.88082754611969, -0.6961691975593567, 0.4920366406440735, -0.805419921875, 0.104248046875, 0.149169921875, 
271, 3601232169, 0.6396965384483337, -0.27996566891670227, -0.5819746851921082, -0.416768878698349, 9.6937894821167, 1.2049627304077148, 1.6155778169631958, -1.5994294881820679, -0.9210366010665894, 0.42208415269851685, -0.805419921875, 0.101806640625, 0.150634765625, 
272, 3601240502, 0.6396528482437134, -0.2800379991531372, -0.582012414932251, -0.41673481464385986, 9.681057929992676, 1.197564721107483, 1.6296322345733643, -0.7586936950683594, -0.9343047738075256, 0.41058337688446045, -0.802978515625, 0.104736328125, 0.151611328125, 
273, 3601248835, 0.6396257877349854, -0.2800814211368561, -0.5820719599723816, -0.41666385531425476, 9.690665245056152, 1.216913104057312, 1.647178292274475, -0.11436756700277328, -0.887456476688385, 0.5201355218887329, -0.803466796875, 0.103759765625, 0.150146484375, 
274, 3601257168, 0.6396054029464722, -0.28008952736854553, -0.5821626782417297, -0.4165630042552948, 9.65523624420166, 1.2486646175384521, 1.657821536064148, 0.7340143322944641, -1.1033074855804443, 0.41363149881362915, -0.804931640625, 0.103759765625, 0.151123046875, 
275, 3601265501, 0.6396181583404541, -0.28003349900245667, -0.5822687745094299, -0.4164324998855591, 9.686338424682617, 1.259054183959961, 1.63796067237854, 1.6953420639038086, -0.632722795009613, 0.3023376166820526, -0.805419921875, 0.104248046875, 0.149169921875, 
276, 3601273834, 0.6396503448486328, -0.27995291352272034, -0.5823596119880676, -0.416310578584671, 9.651504516601562, 1.2540514469146729, 1.6139250993728638, 1.887474536895752, -0.2581658661365509, 0.18922515213489532, -0.803955078125, 0.103759765625, 0.149169921875, 
277, 3601282167, 0.6396831274032593, -0.2798705995082855, -0.5824580192565918, -0.4161777198314667, 9.656355857849121, 1.273653507232666, 1.5706945657730103, 1.8977714776992798, -0.2747895121574402, 0.2442445307970047, -0.802978515625, 0.103759765625, 0.150146484375, 
278, 3601290500, 0.6397080421447754, -0.279801607131958, -0.5825513005256653, -0.4160553216934204, 9.642046928405762, 1.2965720891952515, 1.5730068683624268, 1.775437831878662, -0.4052684009075165, 0.23666271567344666, -0.80419921875, 0.106689453125, 0.150390625, 
279, 3601298833, 0.639726459980011, -0.27974969148635864, -0.5826306939125061, -0.4159508943557739, 9.656423568725586, 1.2956016063690186, 1.566208004951477, 1.375753402709961, -0.36190348863601685, 0.23036161065101624, -0.803466796875, 0.103271484375, 0.153564453125, 
280, 3601307166, 0.639722466468811, -0.2797233462333679, -0.5827110409736633, -0.41586196422576904, 9.639700889587402, 1.279922604560852, 1.5499924421310425, 0.731376051902771, -0.5740917921066284, 0.15126484632492065, -0.804443359375, 0.103759765625, 0.153076171875, 
281, 3601315499, 0.639694333076477, -0.27973565459251404, -0.5827766060829163, -0.4158051609992981, 9.640923500061035, 1.26239812374115, 1.5569521188735962, 0.3058467507362366, -0.6892790794372559, 0.15723296999931335, -0.8056640625, 0.1044921875, 0.155517578125, 
282, 3601323832, 0.639680802822113, -0.27973440289497375, -0.5828310251235962, -0.4157505929470062, 9.66313362121582, 1.2409753799438477, 1.5330473184585571, 0.2658117115497589, -0.4957122504711151, 0.11251051723957062, -0.804931640625, 0.105224609375, 0.149169921875, 
283, 3601332165, 0.6396749019622803, -0.27972331643104553, -0.5829036235809326, -0.41566506028175354, 9.70136547088623, 1.2218343019485474, 1.5321675539016724, 0.5463643670082092, -0.5901774764060974, 0.2666569650173187, -0.803466796875, 0.105224609375, 0.152099609375, 
284, 3601340498, 0.639676570892334, -0.2797199785709381, -0.582965075969696, -0.4155787229537964, 9.685908317565918, 1.2240657806396484, 1.511245608329773, 0.6360912322998047, -0.5474531054496765, 0.4341229200363159, -0.803466796875, 0.104736328125, 0.152099609375, 
285, 3601348831, 0.6396803855895996, -0.27971136569976807, -0.5830427408218384, -0.41546955704689026, 9.71489143371582, 1.2101961374282837, 1.5396780967712402, 0.8676693439483643, -0.6528043746948242, 0.5449044108390808, -0.803466796875, 0.106689453125, 0.151123046875, 
286, 3601357164, 0.6396686434745789, -0.27974259853363037, -0.5831247568130493, -0.4153517484664917, 9.738252639770508, 1.274886965751648, 1.538512110710144, 0.6499996185302734, -1.1529991626739502, 0.833115816116333, -0.803955078125, 0.104736328125, 0.153076171875, 
287, 3601365497, 0.6396634578704834, -0.2797808051109314, -0.5831940174102783, -0.41523656249046326, 9.75717830657959, 1.2788424491882324, 1.5592982769012451, 0.5176252722740173, -0.9288489818572998, 0.971432626247406, -0.804443359375, 0.105224609375, 0.151123046875, 
288, 3601373830, 0.6396702527999878, -0.2798254191875458, -0.5832411050796509, -0.4151298999786377, 9.759760856628418, 1.3097785711288452, 1.5558148622512817, 0.31657910346984863, -0.7320547699928284, 1.0822398662567139, -0.803466796875, 0.104736328125, 0.152099609375, 
289, 3601382163, 0.6396593451499939, -0.2798880338668823, -0.5832728743553162, -0.4150598645210266, 9.780110359191895, 1.309435248374939, 1.54474937915802, -0.3425135314464569, -0.6161248087882996, 0.8721774816513062, -0.803955078125, 0.10498046875, 0.153564453125, 
290, 3601390496, 0.6396383047103882, -0.279975563287735, -0.5832817554473877, -0.41502082347869873, 9.748695373535156, 1.3016958236694336, 1.5721591711044312, -0.9296686053276062, -0.6041117906570435, 0.8198732137680054, -0.802978515625, 0.10400390625, 0.153564453125, 
291, 3601398829, 0.6396005153656006, -0.2800818383693695, -0.5832754373550415, -0.4150160849094391, 9.760510444641113, 1.2646340131759644, 1.5723625421524048, -1.4858306646347046, -0.4830332100391388, 0.6563007235527039, -0.802978515625, 0.105224609375, 0.150634765625, 
292, 3601407162, 0.6395373344421387, -0.28020626306533813, -0.5832701921463013, -0.4150369167327881, 9.759552001953125, 1.2500922679901123, 1.600736379623413, -1.9773675203323364, -0.7989848256111145, 0.4039236605167389, -0.804443359375, 0.105712890625, 0.152099609375, 
293, 3601415495, 0.6394787430763245, -0.2802923917770386, -0.5832894444465637, -0.4150419235229492, 9.754617691040039, 1.172458291053772, 1.6216925382614136, -1.4879307746887207, -0.7439653873443604, 0.16361092031002045, -0.803466796875, 0.104248046875, 0.153076171875, 
294, 3601423828, 0.6394590735435486, -0.2803098261356354, -0.5833178758621216, -0.4150203764438629, 9.766334533691406, 1.1780232191085815, 1.5794192552566528, -0.33736512064933777, -0.29684334993362427, 0.036128874868154526, -0.8037109375, 0.10791015625, 0.15283203125, 
295, 3601432161, 0.639482855796814, -0.2802351713180542, -0.5833956003189087, -0.41492512822151184, 9.747701644897461, 1.1756126880645752, 1.5883889198303223, 1.273706316947937, -0.07971149682998657, -0.018109263852238655, -0.8056640625, 0.107177734375, 0.15234375, 
296, 3601440494, 0.6395223140716553, -0.28012099862098694, -0.5834971070289612, -0.41479867696762085, 9.758620262145996, 1.1717629432678223, 1.5912541151046753, 2.3081371784210205, -0.11913180351257324, -0.04187927395105362, -0.803466796875, 0.104248046875, 0.153564453125, 
297, 3601448827, 0.6395736932754517, -0.27997449040412903, -0.5836108922958374, -0.41465815901756287, 9.790445327758789, 1.183017611503601, 1.586900234222412, 2.8750572204589844, 0.09414511173963547, -0.12876275181770325, -0.80712890625, 0.10595703125, 0.1552734375, 
298, 3601457160, 0.6396499872207642, -0.2798128128051758, -0.5837147235870361, -0.4145034849643707, 9.764300346374512, 1.245224952697754, 1.5112828016281128, 3.1075057983398438, 0.31955036520957947, 0.026446692645549774, -0.802734375, 0.10888671875, 0.15478515625, 
299, 3601465493, 0.6397350430488586, -0.2796300947666168, -0.5838455557823181, -0.4143112301826477, 9.752370834350586, 1.2674057483673096, 1.5269430875778198, 3.551887273788452, 0.18525493144989014, 0.11292034387588501, -0.803955078125, 0.10595703125, 0.153076171875, 
300, 3601473826, 0.6397944092750549, -0.27948737144470215, -0.5839710831642151, -0.4141390919685364, 9.761688232421875, 1.2813527584075928, 1.5201072692871094, 3.136347770690918, -0.1816817671060562, 0.1530066281557083, -0.8056640625, 0.105224609375, 0.153564453125, 
301, 3601482159, 0.6398396492004395, -0.27937766909599304, -0.5840804576873779, -0.41398873925209045, 9.782875061035156, 1.3145262002944946, 1.4899606704711914, 2.3765270709991455, -0.1884695440530777, 0.20105893909931183, -0.802978515625, 0.1064453125, 0.153564453125, 
302, 3601490492, 0.639858603477478, -0.27931636571884155, -0.5841647982597351, -0.4138818681240082, 9.760976791381836, 1.332338571548462, 1.4980485439300537, 1.508742332458496, -0.35931649804115295, 0.16005054116249084, -0.80419921875, 0.1064453125, 0.1552734375, 
303, 3601498825, 0.6398438811302185, -0.27930158376693726, -0.5842394828796387, -0.41380906105041504, 9.738259315490723, 1.3429248332977295, 1.5279903411865234, 0.6922886967658997, -0.5804697871208191, 0.10549221932888031, -0.80419921875, 0.106201171875, 0.152587890625, 
304, 3601507158, 0.6398055553436279, -0.2793400287628174, -0.5842955112457275, -0.413763165473938, 9.72574234008789, 1.3787462711334229, 1.5576388835906982, -0.2393394410610199, -0.902671217918396, 0.2092810869216919, -0.80322265625, 0.10693359375, 0.156005859375, 
305, 3601515491, 0.6397463083267212, -0.27939340472221375, -0.5843531489372253, -0.4137372374534607, 9.72803783416748, 1.3545339107513428, 1.5569020509719849, -0.6028822064399719, -1.0938814878463745, 0.025447741150856018, -0.802978515625, 0.10595703125, 0.153564453125, 
306, 3601523824, 0.6396892666816711, -0.2794167697429657, -0.5844186544418335, -0.4137174189090729, 9.713546752929688, 1.3481106758117676, 1.5588905811309814, -0.3745312988758087, -0.8653513193130493, -0.27402108907699585, -0.802001953125, 0.10693359375, 0.155029296875, 
307, 3601532157, 0.6396583914756775, -0.2794097661972046, -0.5844688415527344, -0.41369882225990295, 9.674304962158203, 1.347023606300354, 1.5933245420455933, -0.08473189175128937, -0.3418731689453125, -0.31712982058525085, -0.802490234375, 0.10498046875, 0.153076171875, 
308, 3601540490, 0.6396275758743286, -0.2794042229652405, -0.5845036506652832, -0.41370096802711487, 9.622661590576172, 1.3533895015716553, 1.5849202871322632, -0.3320373296737671, -0.22030802071094513, -0.44394585490226746, -0.802001953125, 0.10595703125, 0.153564453125, 
309, 3601548823, 0.6395955085754395, -0.27938544750213623, -0.5845667719841003, -0.41367417573928833, 9.615983009338379, 1.3391910791397095, 1.5721306800842285, 0.107259601354599, -0.4365690052509308, -0.4036034941673279, -0.80419921875, 0.10546875, 0.154541015625, 
310, 3601557156, 0.639590859413147, -0.27934014797210693, -0.5846256017684937, -0.4136287569999695, 9.620702743530273, 1.3156296014785767, 1.5671950578689575, 0.637371838092804, -0.17855681478977203, -0.28949207067489624, -0.8056640625, 0.106201171875, 0.16015625, 
311, 3601565489, 0.6395995020866394, -0.27926409244537354, -0.5846965909004211, -0.41356655955314636, 9.56590461730957, 1.284106969833374, 1.5699489116668701, 1.5430653095245361, 0.06799298524856567, -0.2765824794769287, -0.80517578125, 0.10693359375, 0.15576171875, 
312, 3601573822, 0.6396346688270569, -0.2791636884212494, -0.5847675204277039, -0.41347965598106384, 9.551482200622559, 1.2660653591156006, 1.5078531503677368, 1.6786928176879883, 0.18948130309581757, -0.18747058510780334, -0.802978515625, 0.10546875, 0.155029296875, 
313, 3601582155, 0.6396637558937073, -0.2790651023387909, -0.5848435759544373, -0.41339367628097534, 9.545154571533203, 1.2676571607589722, 1.4826325178146362, 1.8297659158706665, 0.1979084014892578, -0.1865997165441513, -0.803466796875, 0.104248046875, 0.153564453125, 
314, 3601590488, 0.6397016048431396, -0.2789677679538727, -0.5849047303199768, -0.4133143424987793, 9.576504707336426, 1.2316408157348633, 1.5007805824279785, 1.543962001800537, 0.30899733304977417, -0.17586733400821686, -0.804443359375, 0.10498046875, 0.155029296875, 
315, 3601598821, 0.6397284269332886, -0.27890267968177795, -0.5849560499191284, -0.4132441580295563, 9.608850479125977, 1.1823363304138184, 1.4828344583511353, 1.090999960899353, 0.15628524124622345, -0.023360183462500572, -0.802978515625, 0.10595703125, 0.153564453125, 
316, 3601607154, 0.6397502422332764, -0.2788580060005188, -0.5850133895874023, -0.41315898299217224, 9.614014625549316, 1.1089483499526978, 1.5077550411224365, 1.0526041984558105, -0.01962050423026085, 0.24547404050827026, -0.802490234375, 0.107421875, 0.153564453125, 
317, 3601615487, 0.6398082375526428, -0.27876028418540955, -0.5850956439971924, -0.4130188524723053, 9.66550064086914, 1.0399456024169922, 1.4933545589447021, 2.0478711128234863, 0.11635267734527588, 0.37825825810432434, -0.802734375, 0.1083984375, 0.1552734375, 
318, 3601623820, 0.6399381756782532, -0.27855953574180603, -0.5851988196372986, -0.41280674934387207, 9.746047973632812, 0.9653260707855225, 1.484744668006897, 4.115298271179199, 0.7585015892982483, 0.5210319757461548, -0.80322265625, 0.107421875, 0.15478515625, 
319, 3601632153, 0.6401798725128174, -0.27818775177001953, -0.5853566527366638, -0.41245853900909424, 9.791145324707031, 0.9382144808769226, 1.462158203125, 7.383624076843262, 1.7043328285217285, 0.7746129035949707, -0.802001953125, 0.10546875, 0.153076171875, 
320, 3601640486, 0.6405277848243713, -0.2776952087879181, -0.5855050683021545, -0.41203972697257996, 9.908774375915527, 1.001554250717163, 1.6171140670776367, 9.437066078186035, 2.9785895347595215, 1.05606210231781, -0.802734375, 0.107421875, 0.1552734375, 
321, 3601648819, 0.6409591436386108, -0.2771953046321869, -0.585544764995575, -0.411648690700531, 9.999930381774902, 1.0846424102783203, 1.7645872831344604, 9.006414413452148, 4.845432758331299, 1.6579970121383667, -0.8017578125, 0.1083984375, 0.15380859375, 
322, 3601657152, 0.6414529085159302, -0.27670755982398987, -0.5855467915534973, -0.4112049639225006, 9.984103202819824, 0.9010393023490906, 1.71884286403656, 9.323569297790527, 5.321139812469482, 2.6994714736938477, -0.8037109375, 0.10791015625, 0.15380859375, 
323, 3601665485, 0.6419709324836731, -0.27626046538352966, -0.5855430364608765, -0.4107019901275635, 9.958324432373047, 0.7174929976463318, 1.786208987236023, 9.552764892578125, 5.20503044128418, 3.728933334350586, -0.80322265625, 0.10986328125, 0.1552734375, 
324, 3601673818, 0.6425982117652893, -0.2758285105228424, -0.5854448080062866, -0.4101508855819702, 9.924210548400879, 0.8235498666763306, 1.7605252265930176, 9.637370109558105, 6.556694030761719, 5.231003761291504, -0.80322265625, 0.10791015625, 0.15625, 
325, 3601682151, 0.6433233022689819, -0.2753812074661255, -0.5853180885314941, -0.40949520468711853, 9.735759735107422, 0.9013617038726807, 1.6599490642547607, 10.959066390991211, 7.387954235076904, 6.722086429595947, -0.80322265625, 0.110595703125, 0.15087890625, 
326, 3601690484, 0.64407879114151, -0.2749897539615631, -0.5851828455924988, -0.40876349806785583, 9.553290367126465, 0.7994704246520996, 1.6351816654205322, 11.010550498962402, 7.003508567810059, 8.017576217651367, -0.8056640625, 0.112548828125, 0.150634765625, 
327, 3601698817, 0.6448614001274109, -0.2747012972831726, -0.5849675536155701, -0.40803101658821106, 9.525708198547363, 0.6415750980377197, 1.6734791994094849, 9.652073860168457, 7.419382095336914, 9.296777725219727, -0.80517578125, 0.11279296875, 0.153076171875, 
328, 3601707150, 0.645724356174469, -0.2745226323604584, -0.5846272110939026, -0.40727365016937256, 9.570826530456543, 0.49408257007598877, 1.7631347179412842, 8.584933280944824, 8.393697738647461, 11.334622383117676, -0.8056640625, 0.114013671875, 0.149169921875, 
329, 3601715483, 0.6466712355613708, -0.274518758058548, -0.5841949582099915, -0.40639299154281616, 9.663290977478027, 0.4378211498260498, 1.8551477193832397, 7.938327789306641, 8.537495613098145, 14.66977596282959, -0.806640625, 0.116455078125, 0.14990234375, 
330, 3601723816, 0.647833526134491, -0.2745736837387085, -0.5835992097854614, -0.40535950660705566, 9.822446823120117, 0.34020933508872986, 1.949446201324463, 8.431608200073242, 10.719266891479492, 18.305309295654297, -0.806884765625, 0.120361328125, 0.14892578125, 
331, 3601732149, 0.6492314338684082, -0.27473363280296326, -0.5827964544296265, -0.40416771173477173, 9.979692459106445, 0.29301896691322327, 2.1186280250549316, 8.55179214477539, 13.358050346374512, 22.656484603881836, -0.806396484375, 0.121826171875, 0.14501953125, 
332, 3601740482, 0.6508412957191467, -0.2750926911830902, -0.5817381739616394, -0.40285682678222656, 10.11512279510498, 0.2995930314064026, 2.3459908962249756, 7.0588154792785645, 15.695688247680664, 27.456268310546875, -0.807373046875, 0.126708984375, 0.144287109375, 
333, 3601748815, 0.652653157711029, -0.2757512032985687, -0.5803398489952087, -0.4014897346496582, 10.177579879760742, 0.27276313304901123, 2.4587953090667725, 3.7988646030426025, 18.566640853881836, 32.76353073120117, -0.806884765625, 0.131103515625, 0.14306640625, 
334, 3601757148, 0.6547121405601501, -0.27662843465805054, -0.578605592250824, -0.40003466606140137, 10.215718269348145, 0.12894298136234283, 2.4242379665374756, 1.5303122997283936, 21.930551528930664, 37.932403564453125, -0.80615234375, 0.135498046875, 0.142822265625, 
335, 3601765481, 0.6570647954940796, -0.2776678204536438, -0.5764799118041992, -0.3985227644443512, 10.10468578338623, -0.018193170428276062, 2.425103187561035, -0.30852416157722473, 26.77304458618164, 42.85845947265625, -0.80859375, 0.142578125, 0.1376953125, 
336, 3601773814, 0.659668505191803, -0.27890893816947937, -0.5739803314208984, -0.3969598114490509, 9.962071418762207, 0.0009028073982335627, 2.5257487297058105, -3.022641897201538, 30.749399185180664, 47.70458221435547, -0.80859375, 0.146728515625, 0.131591796875, 
337, 3601782147, 0.6623919606208801, -0.28041332960128784, -0.5712178349494934, -0.39534643292427063, 10.000036239624023, -0.05726110562682152, 2.5089023113250732, -5.755844593048096, 32.53416442871094, 51.920997619628906, -0.811279296875, 0.15380859375, 0.131591796875, 
338, 3601790480, 0.6652782559394836, -0.2820780277252197, -0.5682195425033569, -0.3936328887939453, 10.081893920898438, -0.17160886526107788, 2.4317269325256348, -7.316835880279541, 34.61933898925781, 55.866737365722656, -0.809326171875, 0.160400390625, 0.12646484375, 
339, 3601798813, 0.6682857871055603, -0.2839317321777344, -0.5649323463439941, -0.3919331133365631, 10.026789665222168, -0.17106163501739502, 2.523143768310547, -10.196173667907715, 37.30189895629883, 58.971527099609375, -0.8115234375, 0.16943359375, 0.119873046875, 
340, 3601807146, 0.6713392734527588, -0.2860434651374817, -0.5613127946853638, -0.3903767466545105, 9.8884916305542, -0.07948009669780731, 2.6746950149536133, -15.344768524169922, 39.821502685546875, 61.22764587402344, -0.81005859375, 0.17578125, 0.11572265625, 
341, 3601815479, 0.6743609309196472, -0.28845468163490295, -0.5574703216552734, -0.3888973295688629, 9.91801643371582, -0.024746842682361603, 2.7495875358581543, -19.718305587768555, 40.40102767944336, 63.56201934814453, -0.811279296875, 0.18505859375, 0.115234375, 
342, 3601823812, 0.6774157881736755, -0.2911158800125122, -0.5533735752105713, -0.3874535858631134, 10.142765998840332, -0.12810063362121582, 2.7518622875213623, -23.845510482788086, 41.74496078491211, 66.30721282958984, -0.809814453125, 0.19482421875, 0.1083984375, 
343, 3601832145, 0.680581271648407, -0.29394254088401794, -0.5490519404411316, -0.38591718673706055, 10.417224884033203, -0.5063537955284119, 2.748152256011963, -25.742961883544922, 43.47188186645508, 69.80814361572266, -0.8115234375, 0.201904296875, 0.102783203125, 
344, 3601840478, 0.6839104890823364, -0.2969127595424652, -0.5445079803466797, -0.3841920495033264, 10.56038761138916, -0.9221776127815247, 2.784698486328125, -25.87230682373047, 45.221988677978516, 74.5363540649414, -0.811767578125, 0.21337890625, 0.097412109375, 
345, 3601848811, 0.6874144077301025, -0.3000918924808502, -0.5396801233291626, -0.38227590918540955, 10.631518363952637, -1.1947619915008545, 2.8272905349731445, -27.195674896240234, 47.31560516357422, 79.97994232177734, -0.810302734375, 0.22119140625, 0.09033203125, 
346, 3601857144, 0.6911370754241943, -0.3034055531024933, -0.5345581769943237, -0.3801388144493103, 10.70617961883545, -1.2542017698287964, 2.934495449066162, -27.908681869506836, 50.1541748046875, 85.2721939086914, -0.80859375, 0.23388671875, 0.086669921875, 
347, 3601865477, 0.6950583457946777, -0.30689284205436707, -0.5290823578834534, -0.3778434991836548, 10.688761711120605, -1.2880860567092896, 3.099822521209717, -29.524023056030273, 53.413734436035156, 90.52865600585938, -0.80908203125, 0.246826171875, 0.077392578125, 
348, 3601873810, 0.6991026997566223, -0.31054481863975525, -0.5233192443847656, -0.3754163086414337, 10.593266487121582, -1.323048710823059, 3.261683702468872, -30.566896438598633, 55.587947845458984, 95.03748321533203, -0.810791015625, 0.256591796875, 0.075439453125, 
349, 3601882143, 0.7032979130744934, -0.3142937123775482, -0.517290472984314, -0.3728070557117462, 10.470968246459961, -1.3356196880340576, 3.3396525382995605, -31.424888610839844, 58.0189208984375, 99.1944580078125, -0.80712890625, 0.270751953125, 0.069580078125, 
350, 3601890476, 0.7076167464256287, -0.31817707419395447, -0.5109777450561523, -0.37003621459007263, 10.423859596252441, -1.5617250204086304, 3.3466813564300537, -31.986801147460938, 60.18661117553711, 103.77821350097656, -0.806396484375, 0.28564453125, 0.063232421875, 
351, 3601898809, 0.7120392918586731, -0.32226502895355225, -0.5044742822647095, -0.36692535877227783, 10.587024688720703, -2.048046588897705, 3.3788235187530518, -32.750301361083984, 60.33695602416992, 109.62987518310547, -0.806396484375, 0.296875, 0.055908203125, 
352, 3601907142, 0.7164837121963501, -0.32671689987182617, -0.497649610042572, -0.3636416792869568, 10.824161529541016, -2.501801013946533, 3.5158069133758545, -35.994449615478516, 60.936885833740234, 115.63864135742188, -0.8037109375, 0.313720703125, 0.0458984375, 
353, 3601915475, 0.7211048007011414, -0.3315768241882324, -0.4903789162635803, -0.35996729135513306, 11.228297233581543, -2.6967568397521973, 3.650359630584717, -39.452239990234375, 62.87014389038086, 124.8783187866211, -0.802490234375, 0.327880859375, 0.042236328125, 
354, 3601923808, 0.7258787155151367, -0.33651936054229736, -0.48279812932014465, -0.3560112714767456, 10.706892967224121, -3.112161874771118, 3.4700019359588623, -38.53567886352539, 65.15736389160156, 130.68954467773438, -0.79736328125, 0.346923828125, 0.035400390625, 
355, 3601932141, 0.7307345271110535, -0.3415209650993347, -0.47500479221343994, -0.3517729640007019, 10.952792167663574, -3.048577308654785, 3.588991403579712, -37.88195037841797, 66.26332092285156, 135.20510864257812, -0.795166015625, 0.364013671875, 0.02783203125, 
356, 3601940474, 0.7357316613197327, -0.34641698002815247, -0.4669841527938843, -0.3472798764705658, 10.787887573242188, -3.1598246097564697, 3.593071699142456, -35.62345504760742, 68.7490463256836, 138.90621948242188, -0.789794921875, 0.380615234375, 0.02099609375, 
357, 3601948807, 0.7407801151275635, -0.35130760073661804, -0.45882177352905273, -0.3424818515777588, 10.627165794372559, -3.3744499683380127, 3.542680263519287, -34.00493240356445, 69.12177276611328, 142.79310607910156, -0.78662109375, 0.400634765625, 0.01513671875, 
358, 3601957140, 0.7458773851394653, -0.3561316430568695, -0.4505581557750702, -0.33736908435821533, 10.493362426757812, -3.6158905029296875, 3.588334083557129, -31.619022369384766, 69.21924591064453, 146.38143920898438, -0.781494140625, 0.419677734375, 0.0068359375, 
359, 3601965473, 0.7509752511978149, -0.3609905242919922, -0.4421793222427368, -0.331938236951828, 10.33610725402832, -3.755720376968384, 3.64408016204834, -30.495609283447266, 68.72050476074219, 150.3380584716797, -0.77490234375, 0.440185546875, -0.000732421875, 
360, 3601973806, 0.7560555934906006, -0.36585700511932373, -0.4337443709373474, -0.3261561691761017, 10.209966659545898, -3.7604329586029053, 3.6702284812927246, -28.824129104614258, 67.37928009033203, 154.30075073242188, -0.768798828125, 0.45751953125, -0.00439453125, 
361, 3601982139, 0.7610355615615845, -0.37089988589286804, -0.42519742250442505, -0.3200758099555969, 10.130267143249512, -3.6165413856506348, 3.7603750228881836, -29.83600425720215, 65.69145965576172, 158.47190856933594, -0.76123046875, 0.4794921875, -0.013916015625, 
362, 3601990472, 0.7658365368843079, -0.3762267529964447, -0.4164033532142639, -0.31390994787216187, 10.024476051330566, -3.5448503494262695, 3.805215835571289, -34.360172271728516, 65.50635528564453, 161.5968475341797, -0.753173828125, 0.499755859375, -0.020263671875, 
363, 3601998805, 0.7703654766082764, -0.38187649846076965, -0.40741974115371704, -0.3077336847782135, 9.81485366821289, -3.7181570529937744, 3.827645778656006, -39.870025634765625, 64.5351791381836, 163.26649475097656, -0.744873046875, 0.520751953125, -0.01611328125, 
364, 3602007138, 0.7745686173439026, -0.38786739110946655, -0.3982640206813812, -0.30161482095718384, 9.583647727966309, -4.163044452667236, 4.0332841873168945, -46.3012580871582, 63.35249710083008, 164.1888427734375, -0.736328125, 0.541015625, -0.023681640625, 
365, 3602015471, 0.778428316116333, -0.3942781090736389, -0.38891279697418213, -0.2955065369606018, 9.372512817382812, -4.413037300109863, 4.48082160949707, -53.41543960571289, 61.906185150146484, 165.90316772460938, -0.726318359375, 0.560546875, -0.030029296875, 
366, 3602023804, 0.7820889949798584, -0.40085723996162415, -0.37933263182640076, -0.2893790900707245, 9.187251091003418, -4.430113792419434, 4.796523094177246, -57.18416213989258, 62.467559814453125, 167.5323944091797, -0.712646484375, 0.5830078125, -0.0361328125, 
367, 3602032137, 0.7856860756874084, -0.4072413742542267, -0.3696284592151642, -0.2832132875919342, 9.022085189819336, -4.482989311218262, 4.8179850578308105, -55.66971969604492, 64.06915283203125, 167.26705932617188, -0.705078125, 0.602783203125, -0.037109375, 
368, 3602040470, 0.7892670035362244, -0.4132674038410187, -0.35994407534599304, -0.2769315838813782, 8.98556137084961, -4.795746326446533, 4.812270164489746, -51.28607940673828, 64.48390197753906, 166.61746215820312, -0.69189453125, 0.62158203125, -0.041015625, 
369, 3602048803, 0.7928197979927063, -0.4189305901527405, -0.3503076732158661, -0.27055832743644714, 9.00385570526123, -5.1843061447143555, 4.8282294273376465, -46.80849075317383, 64.71340942382812, 165.3467559814453, -0.680908203125, 0.64208984375, -0.044189453125, 
370, 3602057136, 0.7963370084762573, -0.42425766587257385, -0.34068796038627625, -0.2641364336013794, 8.993379592895508, -5.525445938110352, 4.86304235458374, -43.115928649902344, 65.30308532714844, 164.1167449951172, -0.667236328125, 0.66064453125, -0.04248046875, 
371, 3602065469, 0.7997748851776123, -0.42931583523750305, -0.33119887113571167, -0.25756266713142395, 8.841130256652832, -5.856339454650879, 5.027650356292725, -39.382781982421875, 63.618370056152344, 163.38442993164062, -0.65478515625, 0.679443359375, -0.0478515625, 
372, 3602073802, 0.8031333088874817, -0.4341043531894684, -0.3218652606010437, -0.2508312463760376, 8.773771286010742, -5.935899257659912, 5.223503589630127, -35.682132720947266, 61.54286575317383, 162.77621459960938, -0.6435546875, 0.69970703125, -0.052490234375, 
373, 3602082135, 0.8064883351325989, -0.4385298788547516, -0.3125665783882141, -0.2440357506275177, 8.64103889465332, -5.827929973602295, 5.253850936889648, -31.224246978759766, 62.0345458984375, 161.57501220703125, -0.629150390625, 0.71630859375, -0.052734375, 
374, 3602090468, 0.8098782300949097, -0.44253262877464294, -0.3032205104827881, -0.23728185892105103, 8.4262056350708, -5.882192134857178, 5.395544528961182, -26.72742462158203, 64.35558319091797, 159.78054809570312, -0.612548828125, 0.73486328125, -0.05859375, 
375, 3602098801, 0.8133823871612549, -0.44600802659988403, -0.29381486773490906, -0.23052535951137543, 8.202585220336914, -6.170162677764893, 5.405766487121582, -20.27983856201172, 67.22221374511719, 158.26939392089844, -0.599853515625, 0.751708984375, -0.062744140625, 
376, 3602107134, 0.817080020904541, -0.44885432720184326, -0.28437426686286926, -0.22366216778755188, 8.05434513092041, -6.595648765563965, 5.302271842956543, -11.798481941223145, 69.7137451171875, 157.82562255859375, -0.586669921875, 0.768798828125, -0.068603515625, 
377, 3602115467, 0.8209818601608276, -0.451104998588562, -0.2748592793941498, -0.21663053333759308, 7.910885810852051, -6.985867977142334, 5.268392086029053, -3.3521475791931152, 72.15731811523438, 158.40208435058594, -0.570556640625, 0.782958984375, -0.070556640625, 
378, 3602123800, 0.8250900506973267, -0.45273759961128235, -0.2653869688510895, -0.20930388569831848, 7.816728115081787, -7.232830047607422, 5.313948631286621, 6.085991859436035, 72.45096588134766, 159.8213653564453, -0.554931640625, 0.7998046875, -0.078369140625, 
379, 3602132133, 0.8293414115905762, -0.4538237452507019, -0.2560198903083801, -0.20167820155620575, 7.844039440155029, -7.351024627685547, 5.380668640136719, 14.634824752807617, 71.50061798095703, 160.9078369140625, -0.536865234375, 0.814697265625, -0.084716796875, 
380, 3602140466, 0.8336997032165527, -0.4543835520744324, -0.24668976664543152, -0.19392797350883484, 7.961970806121826, -7.388578414916992, 5.376217842102051, 21.782554626464844, 72.12837219238281, 160.6099395751953, -0.521728515625, 0.832275390625, -0.095458984375, 
381, 3602148799, 0.8381030559539795, -0.45455124974250793, -0.2372913956642151, -0.18612563610076904, 7.866645812988281, -7.422727584838867, 5.435815811157227, 26.6182804107666, 73.79442596435547, 160.3612823486328, -0.50390625, 0.84619140625, -0.100830078125, 
382, 3602157132, 0.8424988985061646, -0.4544011652469635, -0.22775839269161224, -0.17839448153972626, 7.578855991363525, -7.333268642425537, 5.541788101196289, 29.594900131225586, 76.56877899169922, 159.3887176513672, -0.48828125, 0.86083984375, -0.1103515625, 
383, 3602165465, 0.8468917608261108, -0.4539780914783478, -0.21800848841667175, -0.17068609595298767, 7.274814605712891, -6.983249187469482, 5.655972957611084, 32.19868087768555, 79.8967514038086, 159.564208984375, -0.46923828125, 0.872314453125, -0.1162109375, 
384, 3602173798, 0.8511453866958618, -0.453483909368515, -0.2080995738506317, -0.16303907334804535, 6.993659019470215, -6.577146053314209, 5.874773979187012, 31.53746223449707, 81.86869049072266, 159.35638427734375, -0.451904296875, 0.886474609375, -0.12841796875, 
385, 3602182131, 0.8551988005638123, -0.4530027508735657, -0.19804124534130096, -0.15551996231079102, 6.625954627990723, -6.348978519439697, 5.7557878494262695, 29.49473762512207, 83.82573699951172, 158.3355255126953, -0.430908203125, 0.900634765625, -0.13720703125, 
386, 3602190464, 0.8591510653495789, -0.45236849784851074, -0.18780170381069183, -0.1481076329946518, 6.459290981292725, -6.368902206420898, 5.5460028648376465, 29.926179885864258, 86.66246032714844, 157.61956787109375, -0.412109375, 0.912353515625, -0.1474609375, 
387, 3602198797, 0.8629162311553955, -0.4517008066177368, -0.17739373445510864, -0.14091381430625916, 6.301106929779053, -6.613215923309326, 5.5225958824157715, 28.30620574951172, 89.60863494873047, 155.58705139160156, -0.39453125, 0.925537109375, -0.157958984375, 
388, 3602207130, 0.8663489818572998, -0.45125812292099, -0.16689157485961914, -0.1339256316423416, 5.9949421882629395, -6.778517723083496, 5.5888495445251465, 22.831119537353516, 90.7448959350586, 153.66744995117188, -0.372802734375, 0.935791015625, -0.1630859375, 
389, 3602215463, 0.869431734085083, -0.45106521248817444, -0.1564323753118515, -0.12704643607139587, 5.658713340759277, -6.829431533813477, 5.674572944641113, 17.56566619873047, 89.66130828857422, 152.01231384277344, -0.3544921875, 0.94482421875, -0.174072265625, 
390, 3602223796, 0.872283399105072, -0.4509229063987732, -0.14597488939762115, -0.12026973813772202, 5.429908752441406, -6.833042144775391, 5.598445892333984, 15.256882667541504, 89.67491149902344, 150.49871826171875, -0.332275390625, 0.953857421875, -0.182861328125, 
391, 3602232129, 0.8749629259109497, -0.4507336914539337, -0.13553039729595184, -0.1135505884885788, 5.263431072235107, -6.812477111816406, 5.651623249053955, 14.708050727844238, 89.62854766845703, 149.3428955078125, -0.313720703125, 0.96435546875, -0.18798828125, 
392, 3602240462, 0.8775354027748108, -0.4503592550754547, -0.12505878508090973, -0.1070125550031662, 5.142383575439453, -6.987233638763428, 5.663741588592529, 15.843684196472168, 91.14619445800781, 146.8258819580078, -0.2939453125, 0.9736328125, -0.19677734375, 
393, 3602248795, 0.8800804018974304, -0.44966885447502136, -0.11443191766738892, -0.10072222352027893, 5.005476474761963, -7.316938877105713, 5.6713409423828125, 18.878921508789062, 94.99623107910156, 144.22027587890625, -0.273193359375, 0.980712890625, -0.202392578125, 
394, 3602257128, 0.8825777173042297, -0.4487256109714508, -0.10361979901790619, -0.0945945605635643, 4.689328193664551, -7.621189594268799, 5.690821170806885, 21.083066940307617, 98.49497985839844, 142.92666625976562, -0.2529296875, 0.9873046875, -0.206787109375, 
395, 3602265461, 0.8850342631340027, -0.4475277066230774, -0.09269534796476364, -0.08845433592796326, 4.330681800842285, -7.64788818359375, 5.490350723266602, 23.84283447265625, 100.08394622802734, 143.37403869628906, -0.231201171875, 0.997314453125, -0.218994140625, 
396, 3602273794, 0.8874640464782715, -0.4460385739803314, -0.08171217143535614, -0.08224162459373474, 3.9821789264678955, -7.502599716186523, 5.46983003616333, 27.195327758789062, 100.642822265625, 144.1970977783203, -0.20849609375, 1.0029296875, -0.226318359375, 
397, 3602282127, 0.8896781206130981, -0.44457632303237915, -0.0708773285150528, -0.07605414092540741, 3.6332204341888428, -7.226656913757324, 5.865870475769043, 25.73505401611328, 98.7490463256836, 142.79312133789062, -0.189697265625, 1.010009765625, -0.2314453125, 
398, 3602290460, 0.8915871977806091, -0.44329187273979187, -0.060242827981710434, -0.07013316452503204, 3.2775208950042725, -7.08690881729126, 5.9901838302612305, 21.591876983642578, 97.41023254394531, 138.13302612304688, -0.16845703125, 1.015869140625, -0.239990234375, 
399, 3602298793, 0.8931874632835388, -0.4422358572483063, -0.04973898455500603, -0.06444384157657623, 2.9785079956054688, -7.269918918609619, 5.995579242706299, 16.892833709716797, 96.78167724609375, 134.42538452148438, -0.14453125, 1.01904296875, -0.244384765625, 
400, 3602307126, 0.8944582343101501, -0.44150859117507935, -0.03924105316400528, -0.05880707502365112, 2.7521703243255615, -7.619309902191162, 6.193387508392334, 10.771465301513672, 96.47334289550781, 133.63876342773438, -0.124755859375, 1.0244140625, -0.252685546875, 
401, 3602315459, 0.8954985737800598, -0.44093430042266846, -0.028705615550279617, -0.053088754415512085, 2.6054468154907227, -7.896877765655518, 6.271798133850098, 7.54888916015625, 96.23338317871094, 134.8129425048828, -0.10498046875, 1.028564453125, -0.25634765625, 
402, 3602323792, 0.8965210318565369, -0.4400804042816162, -0.0179430078715086, -0.0473368838429451, 2.376037120819092, -8.002882957458496, 6.01116418838501, 10.686156272888184, 98.9850845336914, 136.43336486816406, -0.084716796875, 1.034423828125, -0.258544921875, 
403, 3602332125, 0.8976271152496338, -0.43871909379959106, -0.006903534755110741, -0.04155533015727997, 2.104416608810425, -7.932854652404785, 5.783195495605469, 17.322147369384766, 102.61447143554688, 138.45985412597656, -0.0625, 1.037109375, -0.261474609375, 
404, 3602340458, 0.8986554741859436, -0.43715745210647583, 0.004203364718705416, -0.03574267029762268, 1.7049733400344849, -7.865304946899414, 5.935665607452393, 19.243989944458008, 103.3189926147461, 139.13197326660156, -0.04052734375, 1.039794921875, -0.263916015625, 
405, 3602348791, 0.8994157910346985, -0.43576690554618835, 0.01534142717719078, -0.030108127743005753, 1.2086101770401, -7.74901819229126, 6.129302024841309, 15.56055736541748, 104.75898742675781, 137.0384063720703, -0.017822265625, 1.041259765625, -0.27392578125, 
406, 3602357124, 0.8998484015464783, -0.4346888065338135, 0.026447046548128128, -0.024544784799218178, 0.935390293598175, -7.37322998046875, 6.181644916534424, 9.712977409362793, 104.6724624633789, 135.70022583007812, 0.00146484375, 1.0458984375, -0.277099609375, 
407, 3602365457, 0.8999180793762207, -0.4340023696422577, 0.037621963769197464, -0.018903356045484543, 0.6877700090408325, -7.114887237548828, 6.091832637786865, 2.6886560916900635, 105.11527252197266, 136.88430786132812, 0.025390625, 1.04638671875, -0.27685546875, 
408, 3602373790, 0.8997819423675537, -0.4333595037460327, 0.04896228760480881, -0.013340173289179802, 0.4482575058937073, -7.123105525970459, 5.699774742126465, 0.8760943412780762, 107.67305755615234, 136.75885009765625, 0.047607421875, 1.047607421875, -0.27783203125, 
409, 3602382123, 0.8995198011398315, -0.4325973391532898, 0.06037572771310806, -0.007858461700379848, 0.324005126953125, -7.351182460784912, 5.778471946716309, 1.6861664056777954, 109.22343444824219, 136.31912231445312, 0.071044921875, 1.049072265625, -0.280029296875, 
410, 3602390456, 0.899057924747467, -0.4319232702255249, 0.07151784747838974, -0.002376532182097435, 0.2948499321937561, -7.675809860229492, 5.926667213439941, -0.606611967086792, 105.96835327148438, 134.53662109375, 0.09228515625, 1.04931640625, -0.281494140625, 
411, 3602398789, 0.8984690308570862, -0.43116652965545654, 0.0826028361916542, 0.0029898453503847122, 0.253629595041275, -7.801474094390869, 5.661025047302246, -0.18122534453868866, 106.1340103149414, 132.9285888671875, 0.112548828125, 1.048095703125, -0.281005859375, 
412, 3602407122, 0.8979015350341797, -0.429976224899292, 0.09384434670209885, 0.008353481069207191, -0.043846245855093, -7.431131839752197, 5.771968364715576, 5.271662712097168, 107.98306274414062, 134.23239135742188, 0.137939453125, 1.04931640625, -0.279296875, 
413, 3602415455, 0.8973650336265564, -0.4282740652561188, 0.1054241806268692, 0.013648392632603645, -0.45613381266593933, -7.191664218902588, 5.8689093589782715, 11.94636058807373, 112.53229522705078, 136.1333465576172, 0.15869140625, 1.048095703125, -0.281005859375, 
414, 3602423788, 0.8968375325202942, -0.426044762134552, 0.11746804416179657, 0.018778420984745026, -0.7808942794799805, -7.123196125030518, 5.970702648162842, 18.785303115844727, 119.05516052246094, 137.5018310546875, 0.1826171875, 1.048828125, -0.282958984375, 
415, 3602432121, 0.8961803317070007, -0.42364615201950073, 0.1296442151069641, 0.02367549203336239, -0.893867015838623, -7.208901882171631, 6.250181198120117, 20.566627502441406, 122.28358459472656, 135.810791015625, 0.2041015625, 1.0458984375, -0.279296875, 
416, 3602440454, 0.8954421281814575, -0.42094922065734863, 0.14199167490005493, 0.02840360440313816, -0.8397231698036194, -6.963201522827148, 6.30040168762207, 24.085065841674805, 125.3608169555664, 135.18460083007812, 0.22802734375, 1.041259765625, -0.28466796875, 
417, 3602448787, 0.8947893381118774, -0.41748347878456116, 0.1548124998807907, 0.03280259296298027, -0.8612995743751526, -6.410637855529785, 6.006056785583496, 34.9135627746582, 132.6983184814453, 135.44871520996094, 0.250244140625, 1.036376953125, -0.286865234375, 
418, 3602457120, 0.894152045249939, -0.41341352462768555, 0.1679256409406662, 0.03695402294397354, -1.1096878051757812, -6.107365131378174, 5.659177780151367, 43.059051513671875, 137.34164428710938, 135.25155639648438, 0.273193359375, 1.035888671875, -0.2890625, 
419, 3602465453, 0.8932582139968872, -0.4095221161842346, 0.18075336515903473, 0.04114554077386856, -1.6592397689819336, -6.028161525726318, 5.236883640289307, 39.200130462646484, 134.3653106689453, 133.9556121826172, 0.297119140625, 1.02880859375, -0.29052734375, 
420, 3602473786, 0.892168402671814, -0.4057879149913788, 0.1931309700012207, 0.0453365333378315, -2.27831768989563, -5.863907337188721, 4.634702682495117, 35.877647399902344, 129.33633422851562, 131.0192413330078, 0.317626953125, 1.025146484375, -0.291748046875, 
421, 3602482119, 0.890906572341919, -0.4023624062538147, 0.2047158032655716, 0.04964430630207062, -2.7673280239105225, -5.8301005363464355, 4.587874889373779, 30.358999252319336, 119.68826293945312, 127.43418884277344, 0.340576171875, 1.01806640625, -0.292236328125, 
422, 3602490452, 0.8893747925758362, -0.39949271082878113, 0.21558906137943268, 0.05406113713979721, -2.782309055328369, -5.705911159515381, 5.074271202087402, 21.229591369628906, 111.4244155883789, 123.33245086669922, 0.3623046875, 1.014404296875, -0.291015625, 
423, 3602498785, 0.8875543475151062, -0.3970247507095337, 0.22627754509449005, 0.05831291526556015, -2.6193864345550537, -5.514181613922119, 5.370698928833008, 15.113409042358398, 111.3073959350586, 119.44405364990234, 0.38330078125, 1.0078125, -0.284423828125, 
424, 3602507118, 0.8855632543563843, -0.3944994807243347, 0.2372017204761505, 0.06218011677265167, -2.5252809524536133, -5.500890731811523, 5.280003547668457, 16.236190795898438, 116.68682861328125, 116.22968292236328, 0.40087890625, 1.0048828125, -0.287109375, 
425, 3602515451, 0.8835155963897705, -0.39152994751930237, 0.24858637154102325, 0.06551656872034073, -2.5799195766448975, -6.014886379241943, 5.454996109008789, 23.491405487060547, 125.06785583496094, 113.88813018798828, 0.420654296875, 0.99755859375, -0.284912109375, 
426, 3602523784, 0.8814182281494141, -0.3880353271961212, 0.26044222712516785, 0.06843552738428116, -2.8434391021728516, -6.637945175170898, 5.275111675262451, 31.42888069152832, 132.64874267578125, 113.06759643554688, 0.440185546875, 0.989990234375, -0.281982421875, 
427, 3602532117, 0.8794447183609009, -0.38367974758148193, 0.27257025241851807, 0.0711018294095993, -3.411952495574951, -6.737130165100098, 4.664383888244629, 43.712947845458984, 136.1387481689453, 114.55840301513672, 0.459228515625, 0.986572265625, -0.28173828125, 
428, 3602540450, 0.8777031898498535, -0.37815290689468384, 0.28496021032333374, 0.07361064851284027, -3.9604103565216064, -6.687948226928711, 4.183919429779053, 59.92238998413086, 138.02743530273438, 118.06602478027344, 0.477783203125, 0.9755859375, -0.27978515625, 
429, 3602548783, 0.8757273554801941, -0.37292689085006714, 0.2968807816505432, 0.07662998884916306, -4.277156829833984, -6.4978556632995605, 3.8948917388916016, 52.62739181518555, 131.02761840820312, 120.98562622070312, 0.500732421875, 0.96875, -0.27734375, 
430, 3602557116, 0.8733623027801514, -0.3688209056854248, 0.30776655673980713, 0.08045143634080887, -4.6326003074646, -5.750997543334961, 3.4288241863250732, 32.746639251708984, 117.12057495117188, 121.0348892211914, 0.518798828125, 0.9580078125, -0.27978515625, 
431, 3602565449, 0.8705613613128662, -0.3660224974155426, 0.31773099303245544, 0.08473826944828033, -5.030447006225586, -4.452587127685547, 3.0812103748321533, 11.877367973327637, 107.08324432373047, 117.04410552978516, 0.5390625, 0.950439453125, -0.275634765625, 
432, 3602573782, 0.8673485517501831, -0.3642333745956421, 0.32723134756088257, 0.0891265720129013, -5.3337273597717285, -3.1308789253234863, 3.538039445877075, -3.2971837520599365, 103.89627075195312, 111.84673309326172, 0.55419921875, 0.941650390625, -0.27001953125, 
433, 3602582115, 0.8636773824691772, -0.363616019487381, 0.33626848459243774, 0.09355036914348602, -5.507126808166504, -2.522095203399658, 4.282050132751465, -20.26386260986328, 101.78160095214844, 105.38190460205078, 0.571533203125, 0.93603515625, -0.259521484375, 
434, 3602590448, 0.8594947457313538, -0.364183247089386, 0.34501370787620544, 0.09791911393404007, -5.53478479385376, -2.625474452972412, 4.441340446472168, -37.04585266113281, 102.38860321044922, 98.303955078125, 0.588623046875, 0.9296875, -0.25341796875, 
435, 3602598781, 0.8549273610115051, -0.3653590977191925, 0.35382750630378723, 0.1019856184720993, -5.499184608459473, -3.3748598098754883, 4.081690788269043, -44.61661148071289, 107.44598388671875, 92.84107208251953, 0.6015625, 0.924072265625, -0.243408203125, 
436, 3602607114, 0.8501756191253662, -0.36695098876953125, 0.3623492419719696, 0.10599394142627716, -5.588993072509766, -3.9875729084014893, 3.456407070159912, -50.58451843261719, 105.69635009765625, 88.78876495361328, 0.616943359375, 0.920166015625, -0.227783203125, 
437, 3602615447, 0.8454550504684448, -0.3685942590236664, 0.3704483211040497, 0.109979048371315, -6.037013053894043, -4.1175031661987305, 2.5703375339508057, -51.507808685302734, 100.87611389160156, 86.21514129638672, 0.630859375, 0.91357421875, -0.21337890625, 
438, 3602623780, 0.8409556150436401, -0.37003305554389954, 0.37795108556747437, 0.11404211819171906, -6.405275821685791, -3.986454725265503, 2.579566717147827, -49.32862854003906, 92.02828216552734, 84.67278289794922, 0.641357421875, 0.906494140625, -0.2021484375, 
439, 3602632113, 0.836651086807251, -0.3714515268802643, 0.3847580552101135, 0.11825117468833923, -6.247411251068115, -3.9523532390594482, 3.099684715270996, -49.92899703979492, 82.26649475097656, 82.7511215209961, 0.65087890625, 0.9033203125, -0.18994140625, 
440, 3602640446, 0.8323153257369995, -0.3729245960712433, 0.3914942443370819, 0.12204240262508392, -5.849442481994629, -4.212327480316162, 3.5608572959899902, -48.64605712890625, 83.76739501953125, 77.21521759033203, 0.664306640625, 0.897216796875, -0.178466796875, 
441, 3602648779, 0.8279332518577576, -0.37411656975746155, 0.3986007571220398, 0.1251554638147354, -5.7936692237854, -4.5736494064331055, 4.119051456451416, -41.370567321777344, 91.33184814453125, 73.07041931152344, 0.6728515625, 0.889892578125, -0.168212890625, 
442, 3602657112, 0.8235639929771423, -0.37515610456466675, 0.40573829412460327, 0.12790541350841522, -6.058130741119385, -4.657445907592773, 4.37331485748291, -37.545249938964844, 93.14993286132812, 69.78137969970703, 0.684814453125, 0.88525390625, -0.155517578125, 
443, 3602665445, 0.81928950548172, -0.37589091062545776, 0.41290518641471863, 0.13024306297302246, -6.406040191650391, -4.474276065826416, 4.109292507171631, -31.239543914794922, 94.61871337890625, 66.92827606201172, 0.6943359375, 0.878662109375, -0.139892578125, 
444, 3602673778, 0.8152780532836914, -0.37606918811798096, 0.4199806749820709, 0.13226157426834106, -6.578101634979248, -4.335551738739014, 3.9756264686584473, -21.974660873413086, 92.6739501953125, 65.41787719726562, 0.703369140625, 0.872802734375, -0.133056640625, 
445, 3602682111, 0.8115716576576233, -0.37579670548439026, 0.4267876446247101, 0.13402974605560303, -6.6700615882873535, -4.174971103668213, 3.876314401626587, -14.374553680419922, 88.45368194580078, 63.403621673583984, 0.712158203125, 0.867919921875, -0.124267578125, 
446, 3602690444, 0.80799400806427, -0.37529483437538147, 0.43353545665740967, 0.13538837432861328, -6.705842018127441, -4.243184566497803, 4.003852367401123, -8.868378639221191, 88.6559066772461, 59.50299835205078, 0.7197265625, 0.862060546875, -0.114501953125, 
447, 3602698777, 0.8045174479484558, -0.3747180104255676, 0.4401473104953766, 0.136350616812706, -6.681796073913574, -4.44802713394165, 4.163379669189453, -5.395228862762451, 88.5267333984375, 54.78861618041992, 0.725830078125, 0.856201171875, -0.107666015625, 
448, 3602707110, 0.8010815382003784, -0.3738192021846771, 0.44699087738990784, 0.1367836594581604, -6.603722095489502, -4.702475070953369, 3.7191803455352783, 2.0078814029693604, 92.88831329345703, 51.86784362792969, 0.73486328125, 0.85205078125, -0.1005859375, 
449, 3602715443, 0.7977835536003113, -0.37238314747810364, 0.4540172517299652, 0.13683466613292694, -6.689053535461426, -4.838836193084717, 3.3792929649353027, 11.32858943939209, 95.09562683105469, 51.7769889831543, 0.74072265625, 0.84814453125, -0.0927734375, 
