sep=,
PacketCounter,SampleTimeFine,Quat_W,Quat_X,Quat_Y,Quat_Z,Acc_X,Acc_Y,Acc_Z,Gyr_X,Gyr_Y,Gyr_Z,Mag_X,Mag_Y,Mag_Z,
0, 3330234676, 0.5121960639953613, -0.44344526529312134, -0.4633333384990692, -0.5712387561798096, 0, 0, 0, 0, 0, 0, -0.78857421875, -0.08056640625, 0.14599609375, 
1, 3330243009, 0.5121744275093079, -0.44338536262512207, -0.463423490524292, -0.5712316036224365, 9.76129150390625, 0.6968442797660828, 1.7694846391677856, 0.587193489074707, -0.05709412693977356, -1.134428858757019, -0.78662109375, -0.0791015625, 0.14306640625, 
2, 3330251342, 0.512137234210968, -0.4433494508266449, -0.4635232090950012, -0.5712118744850159, 9.756270408630371, 0.7435451745986938, 1.7978169918060303, 0.36114785075187683, -0.48646554350852966, -1.0864533185958862, -0.7861328125, -0.0791015625, 0.14453125, 
3, 3330259675, 0.5120782256126404, -0.44333165884017944, -0.46361446380615234, -0.5712043046951294, 9.781047821044922, 0.7663055062294006, 1.81465482711792, 0.343320369720459, -0.6049569845199585, -1.1016169786453247, -0.78515625, -0.077392578125, 0.14111328125, 
4, 3330268008, 0.5120534896850586, -0.44328752160072327, -0.4636958837509155, -0.5711946487426758, 9.75588321685791, 0.7804250717163086, 1.7686331272125244, 0.40338578820228577, -0.15378786623477936, -0.9884788393974304, -0.78515625, -0.078369140625, 0.14697265625, 
5, 3330276341, 0.5120505690574646, -0.44320541620254517, -0.463782399892807, -0.5711908340454102, 9.731127738952637, 0.7634658217430115, 1.7803211212158203, 0.23994134366512299, 0.25172388553619385, -1.2283306121826172, -0.78759765625, -0.0791015625, 0.14599609375, 
6, 3330284674, 0.5120400190353394, -0.44311800599098206, -0.463850736618042, -0.5712125897407532, 9.724991798400879, 0.7677003741264343, 1.7547714710235596, 0.49157553911209106, 0.5600680708885193, -1.2932627201080322, -0.786865234375, -0.08056640625, 0.14599609375, 
7, 3330293007, 0.512044370174408, -0.44301649928092957, -0.4639173150062561, -0.571233332157135, 9.74528980255127, 0.7729432582855225, 1.7637979984283447, 0.31942227482795715, 0.7545312643051147, -1.307478427886963, -0.784912109375, -0.081298828125, 0.14208984375, 
8, 3330301340, 0.5120267271995544, -0.4429476857185364, -0.46395668387413025, -0.5712705254554749, 9.747501373291016, 0.7605546116828918, 1.8009856939315796, -0.00783795677125454, 0.6676478385925293, -1.1617079973220825, -0.78759765625, -0.080078125, 0.14501953125, 
9, 3330309673, 0.5120046734809875, -0.442887544631958, -0.4639934301376343, -0.5713071227073669, 9.760367393493652, 0.7497751116752625, 1.8101842403411865, -0.08652488887310028, 0.5981820821762085, -1.107201099395752, -0.784912109375, -0.08203125, 0.143310546875, 
10, 3330318006, 0.5119987726211548, -0.4428160488605499, -0.464030921459198, -0.5713374018669128, 9.775440216064453, 0.7505621314048767, 1.7926740646362305, 0.11151158064603806, 0.7329897880554199, -1.0284370183944702, -0.785888671875, -0.08251953125, 0.14501953125, 
11, 3330326339, 0.511978268623352, -0.4427475333213806, -0.46406233310699463, -0.5713834166526794, 9.77369499206543, 0.7544031143188477, 1.8028099536895752, 0.48330217599868774, 0.8109339475631714, -1.067883014678955, -0.784423828125, -0.0810546875, 0.14404296875, 
12, 3330334672, 0.5119923949241638, -0.44264113903045654, -0.4641205668449402, -0.5714058876037598, 9.757586479187012, 0.7515849471092224, 1.7837830781936646, 0.692467987537384, 0.9428983330726624, -1.1644484996795654, -0.7861328125, -0.0791015625, 0.14501953125, 
13, 3330343005, 0.5119630694389343, -0.44256848096847534, -0.46416300535202026, -0.5714540481567383, 9.733482360839844, 0.7664414048194885, 1.8095766305923462, 0.7526615262031555, 0.7388554811477661, -1.202588438987732, -0.788330078125, -0.081298828125, 0.14208984375, 
14, 3330351338, 0.5119704604148865, -0.44247543811798096, -0.46423038840293884, -0.5714646577835083, 9.722865104675293, 0.7661839723587036, 1.7932533025741577, 0.7054800391197205, 0.6589133739471436, -1.1045113801956177, -0.785888671875, -0.08056640625, 0.14404296875, 
15, 3330359671, 0.5119863152503967, -0.4423718750476837, -0.46429184079170227, -0.5714805126190186, 9.720765113830566, 0.7568780183792114, 1.7771669626235962, 0.731171190738678, 0.8773003816604614, -1.0980823040008545, -0.786865234375, -0.080078125, 0.1435546875, 
16, 3330368004, 0.5120257139205933, -0.44225943088531494, -0.46434900164604187, -0.5714859366416931, 9.694083213806152, 0.7362954616546631, 1.765523910522461, 0.988594114780426, 1.0543203353881836, -0.8779022693634033, -0.784423828125, -0.0810546875, 0.14453125, 
17, 3330376337, 0.5120888948440552, -0.4421372413635254, -0.46440669894218445, -0.571476936340332, 9.695507049560547, 0.7556402683258057, 1.7451647520065308, 1.1323412656784058, 1.1895636320114136, -0.6760109663009644, -0.785888671875, -0.082275390625, 0.14208984375, 
18, 3330384670, 0.5121545791625977, -0.44202521443367004, -0.46445271372795105, -0.5714674592018127, 9.696730613708496, 0.7601898908615112, 1.7490805387496948, 1.153754711151123, 1.2074165344238281, -0.49671125411987305, -0.786376953125, -0.080078125, 0.14501953125, 
19, 3330393003, 0.5122165083885193, -0.44192981719970703, -0.4644854664802551, -0.5714590549468994, 9.664936065673828, 0.7772780060768127, 1.7717519998550415, 1.1137453317642212, 1.1781138181686401, -0.29620301723480225, -0.784423828125, -0.0810546875, 0.1435546875, 
20, 3330401336, 0.5122872591018677, -0.44184085726737976, -0.46451014280319214, -0.5714443922042847, 9.68320369720459, 0.7831862568855286, 1.7332626581192017, 0.8875203728675842, 1.1780370473861694, -0.14290180802345276, -0.785400390625, -0.08203125, 0.1435546875, 
21, 3330409669, 0.5123444199562073, -0.441758930683136, -0.46450552344322205, -0.571459949016571, 9.67117977142334, 0.776669979095459, 1.7653430700302124, 0.6535600423812866, 1.458589792251587, -0.16728657484054565, -0.783935546875, -0.08154296875, 0.143798828125, 
22, 3330418002, 0.5123897790908813, -0.4416930675506592, -0.46448391675949097, -0.5714879035949707, 9.682080268859863, 0.7717845439910889, 1.7616591453552246, -0.06692999601364136, 1.4197841882705688, -0.2135714739561081, -0.786376953125, -0.082763671875, 0.143310546875, 
23, 3330426335, 0.5124369263648987, -0.44163912534713745, -0.46446338295936584, -0.5715039968490601, 9.677453994750977, 0.7510125637054443, 1.7725316286087036, -0.5457624197006226, 1.2288299798965454, -0.13160593807697296, -0.786376953125, -0.080810546875, 0.1416015625, 
24, 3330434668, 0.5124531388282776, -0.44162070751190186, -0.46441787481307983, -0.5715407133102417, 9.701766014099121, 0.7158851623535156, 1.7509658336639404, -0.8206031918525696, 1.0814201831817627, -0.05499375984072685, -0.786376953125, -0.08154296875, 0.14404296875, 
25, 3330443001, 0.5124801397323608, -0.4416085481643677, -0.46437400579452515, -0.5715615749359131, 9.734762191772461, 0.6999128460884094, 1.7520960569381714, -0.771782398223877, 0.9961759448051453, 0.16297057271003723, -0.784912109375, -0.08251953125, 0.143798828125, 
26, 3330451334, 0.5125225782394409, -0.4415954053401947, -0.4643261134624481, -0.5715726017951965, 9.742121696472168, 0.6805715560913086, 1.750887155532837, -0.5527039170265198, 1.0671786069869995, 0.3788473308086395, -0.786865234375, -0.08251953125, 0.14453125, 
27, 3330459667, 0.5125681161880493, -0.4415854811668396, -0.46427178382873535, -0.5715835690498352, 9.745491027832031, 0.7018440961837769, 1.761702299118042, -0.28823697566986084, 1.1424589157104492, 0.5340951085090637, -0.785888671875, -0.080078125, 0.14453125, 
28, 3330468000, 0.5126510858535767, -0.44155555963516235, -0.46422961354255676, -0.571566641330719, 9.725820541381836, 0.7267575860023499, 1.766788125038147, 0.03400289639830589, 1.2479639053344727, 0.7526615262031555, -0.784912109375, -0.07958984375, 0.14306640625, 
29, 3330476333, 0.512749195098877, -0.4415207803249359, -0.46419087052345276, -0.5715368986129761, 9.719554901123047, 0.7464420795440674, 1.7702785730361938, 0.3713167607784271, 1.2988849878311157, 0.9397990107536316, -0.787353515625, -0.0830078125, 0.14453125, 
30, 3330484666, 0.5128585696220398, -0.4414864480495453, -0.46414902806282043, -0.5714993476867676, 9.735808372497559, 0.7582343220710754, 1.7723803520202637, 0.35930365324020386, 1.3245247602462769, 1.075964331626892, -0.784912109375, -0.08154296875, 0.14453125, 
31, 3330492999, 0.512908935546875, -0.4415060877799988, -0.4640626907348633, -0.5715090036392212, 9.700765609741211, 0.7616532444953918, 1.7863683700561523, 0.2808728516101837, 1.2308791875839233, 1.155470848083496, -0.784912109375, -0.08056640625, 0.14306640625, 
32, 3330501332, 0.5130141377449036, -0.4414610266685486, -0.4640123248100281, -0.5714904069900513, 9.66970443725586, 0.7757523655891418, 1.7705116271972656, 0.22213944792747498, 1.5575889348983765, 0.893360435962677, -0.784423828125, -0.080322265625, 0.14111328125, 
33, 3330509665, 0.5131404399871826, -0.44139590859413147, -0.46398186683654785, -0.5714519023895264, 9.624038696289062, 0.8070604801177979, 1.7605783939361572, 0.23863504827022552, 1.556974172592163, 0.8548623919487, -0.786376953125, -0.080078125, 0.14501953125, 
34, 3330517998, 0.5132238268852234, -0.4413650631904602, -0.4639410078525543, -0.5714340209960938, 9.660786628723145, 0.7864479422569275, 1.7504007816314697, 0.061025913804769516, 1.2443522214889526, 0.749126672744751, -0.784912109375, -0.08251953125, 0.142822265625, 
35, 3330526331, 0.5132867097854614, -0.4413476288318634, -0.4638981521129608, -0.57142573595047, 9.648076057434082, 0.8103026747703552, 1.7476755380630493, -0.17366451025009155, 1.0934075117111206, 0.6389086246490479, -0.785888671875, -0.079345703125, 0.140625, 
36, 3330534664, 0.5133431553840637, -0.44133907556533813, -0.46383941173553467, -0.5714293122291565, 9.670902252197266, 0.8046735525131226, 1.753455400466919, -0.5379757285118103, 1.1527302265167236, 0.6370131969451904, -0.787109375, -0.078857421875, 0.142578125, 
37, 3330542997, 0.5134007930755615, -0.4413336217403412, -0.4637855291366577, -0.5714254975318909, 9.703304290771484, 0.7400043606758118, 1.7711366415023804, -0.7218859791755676, 1.0479423999786377, 0.6484115123748779, -0.78564453125, -0.07861328125, 0.14306640625, 
38, 3330551330, 0.5134563446044922, -0.44132569432258606, -0.46372270584106445, -0.5714325904846191, 9.739998817443848, 0.7174017429351807, 1.7360167503356934, -0.6025236248970032, 1.1933287382125854, 0.6344773769378662, -0.788330078125, -0.080810546875, 0.1416015625, 
39, 3330559663, 0.5135404467582703, -0.4412986636161804, -0.4636772871017456, -0.5714147090911865, 9.760799407958984, 0.7392106652259827, 1.7072194814682007, -0.4176400899887085, 1.228394627571106, 0.7332971096038818, -0.78759765625, -0.080322265625, 0.14208984375, 
40, 3330567996, 0.513617992401123, -0.4412830173969269, -0.46363142132759094, -0.5713944435119629, 9.74763011932373, 0.7235601544380188, 1.7372181415557861, -0.10709311068058014, 1.108315110206604, 0.8478951454162598, -0.787109375, -0.07958984375, 0.14306640625, 
41, 3330576329, 0.5136902332305908, -0.44127902388572693, -0.4636005163192749, -0.5713577270507812, 9.742894172668457, 0.7252410650253296, 1.7579470872879028, 0.048782311379909515, 0.7900070548057556, 0.9242000579833984, -0.785888671875, -0.08056640625, 0.14453125, 
42, 3330584662, 0.513770341873169, -0.44127050042152405, -0.4635695517063141, -0.5713173747062683, 9.737422943115234, 0.7339746952056885, 1.751888632774353, 0.10497993230819702, 0.8404158353805542, 0.9645679593086243, -0.7861328125, -0.07861328125, 0.142578125, 
43, 3330592995, 0.5138704776763916, -0.44125327467918396, -0.46353939175605774, -0.5712651610374451, 9.72562026977539, 0.7405697107315063, 1.7841122150421143, 0.04350578039884567, 0.9457928538322449, 1.0897448062896729, -0.786865234375, -0.080810546875, 0.14013671875, 
44, 3330601328, 0.5139551758766174, -0.44124695658683777, -0.4634994566440582, -0.5712262392044067, 9.677410125732422, 0.757157027721405, 1.76216721534729, 0.036538705229759216, 0.9255574345588684, 1.0600578784942627, -0.786376953125, -0.080322265625, 0.14208984375, 
45, 3330609661, 0.5140271782875061, -0.4412579834461212, -0.46345803141593933, -0.571186363697052, 9.672266960144043, 0.7484448552131653, 1.7589913606643677, 0.030237603932619095, 0.7363708019256592, 1.133545160293579, -0.786376953125, -0.07958984375, 0.14306640625, 
46, 3330617994, 0.5140883922576904, -0.44126439094543457, -0.4634397029876709, -0.5711411237716675, 9.680622100830078, 0.7504834532737732, 1.780735969543457, 0.014664149843156338, 0.4838144779205322, 0.8686171174049377, -0.78515625, -0.0771484375, 0.1435546875, 
47, 3330626327, 0.5141571760177612, -0.44125986099243164, -0.4634333848953247, -0.5710878968238831, 9.649264335632324, 0.7562199831008911, 1.7678394317626953, -0.006967071443796158, 0.475874125957489, 0.7981523871421814, -0.7890625, -0.077880859375, 0.140869140625, 
48, 3330634660, 0.5142162442207336, -0.44125422835350037, -0.4634314775466919, -0.5710406303405762, 9.620494842529297, 0.7582800388336182, 1.7589126825332642, 0.22764652967453003, 0.436043918132782, 0.6893174648284912, -0.786376953125, -0.078857421875, 0.140625, 
49, 3330642993, 0.5142775774002075, -0.44123753905296326, -0.4634486436843872, -0.5709843635559082, 9.651603698730469, 0.7420141696929932, 1.7568022012710571, 0.5562258362770081, 0.3602001667022705, 0.6005897521972656, -0.78759765625, -0.077880859375, 0.142333984375, 
50, 3330651326, 0.5143541097640991, -0.44120562076568604, -0.4634803235530853, -0.5709144473075867, 9.658769607543945, 0.7388026714324951, 1.7502361536026, 0.9268894195556641, 0.37961575388908386, 0.6145495176315308, -0.787109375, -0.078857421875, 0.1396484375, 
51, 3330659659, 0.5144229531288147, -0.44117069244384766, -0.46350938081741333, -0.5708558559417725, 9.6754150390625, 0.7284383773803711, 1.7349148988723755, 1.3319017887115479, 0.4884762465953827, 0.5833513736724854, -0.7861328125, -0.078369140625, 0.1416015625, 
52, 3330667992, 0.5145159959793091, -0.44110918045043945, -0.4635659456253052, -0.5707736611366272, 9.686952590942383, 0.7498325109481812, 1.7261312007904053, 1.5105609893798828, 0.4663199186325073, 0.49306121468544006, -0.78759765625, -0.0791015625, 0.14306640625, 
53, 3330676325, 0.5146598219871521, -0.44101589918136597, -0.4636652171611786, -0.5706354379653931, 9.681523323059082, 0.753087043762207, 1.735129475593567, 1.5185014009475708, 0.32057496905326843, 0.5963377952575684, -0.7890625, -0.078369140625, 0.139892578125, 
54, 3330684658, 0.5147415399551392, -0.44097650051116943, -0.46371904015541077, -0.570548415184021, 9.701065063476562, 0.7623643279075623, 1.7405155897140503, 1.2946330308914185, 0.21066425740718842, 0.5952619910240173, -0.787109375, -0.077880859375, 0.1416015625, 
55, 3330692991, 0.5148149132728577, -0.4409438371658325, -0.4637821614742279, -0.5704562067985535, 9.717903137207031, 0.766963541507721, 1.7255021333694458, 1.2179185152053833, 0.012025883421301842, 0.5470816493034363, -0.7880859375, -0.078125, 0.144287109375, 
56, 3330701324, 0.5148795247077942, -0.44092684984207153, -0.4638277292251587, -0.5703739523887634, 9.69771671295166, 0.7982001304626465, 1.7524750232696533, 0.9364949464797974, 0.013024838641285896, 0.6207482218742371, -0.787109375, -0.076416015625, 0.141845703125, 
57, 3330709657, 0.5148991942405701, -0.44094401597976685, -0.46385470032691956, -0.5703208446502686, 9.699963569641113, 0.7878141403198242, 1.740916132926941, 0.466448038816452, -0.19717837870121002, 0.4734407663345337, -0.78564453125, -0.0771484375, 0.14208984375, 
58, 3330717990, 0.5149160623550415, -0.440965473651886, -0.4638938009738922, -0.570257306098938, 9.704197883605957, 0.7852891683578491, 1.7436199188232422, 0.20508037507534027, -0.43426376581192017, 0.3976738154888153, -0.7890625, -0.077880859375, 0.142822265625, 
59, 3330726323, 0.5149205923080444, -0.4409988224506378, -0.4639192223548889, -0.5702066421508789, 9.71319580078125, 0.7882862091064453, 1.743147850036621, -0.10970576852560043, -0.4171278178691864, 0.3845849335193634, -0.787109375, -0.07666015625, 0.142333984375, 
60, 3330734656, 0.5149113535881042, -0.44104138016700745, -0.46393683552742004, -0.5701677799224854, 9.71481990814209, 0.7987150549888611, 1.7554149627685547, -0.42762964963912964, -0.4637201130390167, 0.28399786353111267, -0.791015625, -0.07666015625, 0.143798828125, 
61, 3330742989, 0.5148885846138, -0.44108718633651733, -0.46396297216415405, -0.5701315999031067, 9.716636657714844, 0.7986149191856384, 1.7793197631835938, -0.6260631680488586, -0.6185837984085083, 0.10941120237112045, -0.78759765625, -0.07763671875, 0.143798828125, 
62, 3330751322, 0.5148582458496094, -0.4411342740058899, -0.46399712562561035, -0.5700947642326355, 9.709769248962402, 0.7695528864860535, 1.789340853691101, -0.4706871807575226, -0.7386633157730103, 0.032517269253730774, -0.78857421875, -0.07568359375, 0.142822265625, 
63, 3330759655, 0.5148208737373352, -0.4411791265010834, -0.46402931213378906, -0.5700675845146179, 9.730490684509277, 0.7584306001663208, 1.7731823921203613, -0.38359880447387695, -0.6710929870605469, -0.04554210975766182, -0.787109375, -0.07666015625, 0.143310546875, 
64, 3330767988, 0.5148056149482727, -0.4411979913711548, -0.4640858471393585, -0.5700207352638245, 9.705606460571289, 0.7653756737709045, 1.7689266204833984, 0.05820833891630173, -0.6392543911933899, -0.09472142904996872, -0.7880859375, -0.078857421875, 0.1416015625, 
65, 3330776321, 0.5148008465766907, -0.4411991536617279, -0.4641520082950592, -0.5699701905250549, 9.711458206176758, 0.7653828263282776, 1.7700926065444946, 0.4856586754322052, -0.5061884522438049, -0.1215907633304596, -0.7880859375, -0.07666015625, 0.144287109375, 
66, 3330784654, 0.5147979855537415, -0.44118866324424744, -0.46423375606536865, -0.5699144005775452, 9.700407028198242, 0.7445036768913269, 1.7597709894180298, 0.5976441502571106, -0.5633594393730164, -0.2738673686981201, -0.78662109375, -0.078125, 0.14404296875, 
67, 3330792987, 0.5148294568061829, -0.44114503264427185, -0.46433281898498535, -0.5698390007019043, 9.703117370605469, 0.7429443597793579, 1.7661585807800293, 1.0103919506072998, -0.33751875162124634, -0.22965721786022186, -0.7861328125, -0.07470703125, 0.142822265625, 
68, 3330801320, 0.5148532390594482, -0.44110429286956787, -0.4644317030906677, -0.5697686672210693, 9.674663543701172, 0.7641028165817261, 1.7614238262176514, 1.1982468366622925, -0.3659249246120453, -0.25903674960136414, -0.78759765625, -0.076171875, 0.143798828125, 
69, 3330809653, 0.5148791074752808, -0.4410592317581177, -0.4645378589630127, -0.5696934461593628, 9.676959991455078, 0.778236448764801, 1.762024164199829, 1.2349517345428467, -0.3981732428073883, -0.290286123752594, -0.7861328125, -0.0791015625, 0.1435546875, 
70, 3330817986, 0.5149053931236267, -0.4410102367401123, -0.4646345376968384, -0.569628894329071, 9.65979290008545, 0.7735012769699097, 1.7437129020690918, 1.2188405990600586, -0.2343958467245102, -0.3202035427093506, -0.787109375, -0.0771484375, 0.142822265625, 
71, 3330826319, 0.5149235725402832, -0.44096893072128296, -0.4647294878959656, -0.5695670247077942, 9.666523933410645, 0.7883580327033997, 1.756509780883789, 0.9449987411499023, -0.3184361457824707, -0.36098140478134155, -0.78515625, -0.07763671875, 0.14306640625, 
72, 3330834652, 0.5149134397506714, -0.44095465540885925, -0.4648132622241974, -0.5695187449455261, 9.651087760925293, 0.8011685013771057, 1.739549994468689, 0.5482598543167114, -0.5490410923957825, -0.41840848326683044, -0.7861328125, -0.07568359375, 0.143310546875, 
73, 3330842985, 0.5148925185203552, -0.4409501850605011, -0.46489226818084717, -0.5694765448570251, 9.659479141235352, 0.7996521592140198, 1.7480477094650269, 0.1131252646446228, -0.6301869750022888, -0.4911273121833801, -0.787109375, -0.07666015625, 0.145263671875, 
74, 3330851318, 0.5148467421531677, -0.44097307324409485, -0.4649357795715332, -0.5694648027420044, 9.665493965148926, 0.7969268560409546, 1.7467957735061646, -0.4817013442516327, -0.5607725381851196, -0.47642481327056885, -0.7861328125, -0.07666015625, 0.143798828125, 
75, 3330859651, 0.5147699117660522, -0.44102656841278076, -0.464964359998703, -0.5694694519042969, 9.688904762268066, 0.7738374471664429, 1.7498071193695068, -0.945805549621582, -0.7725253105163574, -0.5082377195358276, -0.783935546875, -0.0791015625, 0.142578125, 
76, 3330867984, 0.5146925449371338, -0.4410942792892456, -0.4649832248687744, -0.5694716572761536, 9.711358070373535, 0.7562701106071472, 1.747611165046692, -1.2720285654067993, -0.8549776077270508, -0.38682615756988525, -0.78662109375, -0.0771484375, 0.145263671875, 
77, 3330876317, 0.5146315693855286, -0.4411565661430359, -0.4649966359138489, -0.5694674253463745, 9.750094413757324, 0.7553581595420837, 1.7644429206848145, -1.5415927171707153, -0.7279565334320068, -0.2816797196865082, -0.78564453125, -0.076904296875, 0.147216796875, 
78, 3330884650, 0.5145483016967773, -0.4412301778793335, -0.46497926115989685, -0.5694997906684875, 9.746386528015137, 0.7409746050834656, 1.7653578519821167, -1.8263972997665405, -0.49983617663383484, -0.3884654641151428, -0.7861328125, -0.078125, 0.14501953125, 
79, 3330892983, 0.5144599080085754, -0.44130945205688477, -0.46496909856796265, -0.5695266127586365, 9.776278495788574, 0.7477118968963623, 1.7527292966842651, -1.9456061124801636, -0.6627427339553833, -0.4156678020954132, -0.78662109375, -0.07861328125, 0.146484375, 
80, 3330901316, 0.5143734812736511, -0.4413849413394928, -0.46496447920799255, -0.5695500373840332, 9.768648147583008, 0.7421148419380188, 1.763152837753296, -1.7016048431396484, -0.6791357398033142, -0.41466885805130005, -0.7861328125, -0.07666015625, 0.145263671875, 
81, 3330909649, 0.5143222212791443, -0.4414243698120117, -0.46499180793762207, -0.5695433020591736, 9.755430221557617, 0.7698440551757812, 1.7750931978225708, -1.5101386308670044, -0.6215550899505615, -0.48042067885398865, -0.7880859375, -0.07666015625, 0.146728515625, 
82, 3330917982, 0.5142534971237183, -0.44147151708602905, -0.46501097083091736, -0.5695531964302063, 9.736557006835938, 0.7652755379676819, 1.7879389524459839, -1.1209300756454468, -0.5957358479499817, -0.5069825649261475, -0.7880859375, -0.0791015625, 0.14404296875, 
83, 3330926315, 0.5142282843589783, -0.44147929549217224, -0.46507012844085693, -0.5695216655731201, 9.676774024963379, 0.7859185934066772, 1.7836614847183228, -1.0144773721694946, -0.6052643060684204, -0.5512439012527466, -0.78662109375, -0.07568359375, 0.146240234375, 
84, 3330934648, 0.5141537189483643, -0.44152143597602844, -0.46509140729904175, -0.5695390105247498, 9.689577102661133, 0.8012614846229553, 1.8039827346801758, -1.1523075103759766, -0.5628984570503235, -0.6493721008300781, -0.7861328125, -0.07861328125, 0.14501953125, 
85, 3330942981, 0.5141103267669678, -0.4415337145328522, -0.4651353359222412, -0.5695327520370483, 9.72299575805664, 0.7630080580711365, 1.818860650062561, -1.0288724899291992, -0.46633270382881165, -0.6731164455413818, -0.78662109375, -0.07666015625, 0.145263671875, 
86, 3330951314, 0.5140511393547058, -0.4415530860424042, -0.4651622176170349, -0.5695492029190063, 9.759317398071289, 0.7347115278244019, 1.7875028848648071, -0.8484970927238464, -0.3312945067882538, -0.7036486268043518, -0.787109375, -0.07666015625, 0.146728515625, 
87, 3330959647, 0.5140235424041748, -0.4415346682071686, -0.4652223587036133, -0.5695391893386841, 9.765369415283203, 0.6965796947479248, 1.7823745012283325, -0.5387697815895081, -0.26272520422935486, -0.8142764568328857, -0.78662109375, -0.079345703125, 0.14208984375, 
88, 3330967980, 0.5139881372451782, -0.4415110945701599, -0.4652802348136902, -0.5695422887802124, 9.7820405960083, 0.6904066801071167, 1.7711584568023682, -0.072731614112854, -0.14363181591033936, -0.8853431940078735, -0.78759765625, -0.078125, 0.14599609375, 
89, 3330976313, 0.5139704942703247, -0.4414636194705963, -0.46536561846733093, -0.5695251822471619, 9.775983810424805, 0.7042331695556641, 1.785142183303833, 0.40889284014701843, -0.15965354442596436, -0.9408108592033386, -0.78564453125, -0.07861328125, 0.14501953125, 
90, 3330984646, 0.5139505863189697, -0.4414096176624298, -0.465464323759079, -0.5695043802261353, 9.758974075317383, 0.7291250228881836, 1.7668166160583496, 0.7094246745109558, -0.23831482231616974, -1.0370179414749146, -0.78759765625, -0.0791015625, 0.146484375, 
91, 3330992979, 0.5139332413673401, -0.44133684039115906, -0.46557754278182983, -0.569483757019043, 9.727751731872559, 0.7327587008476257, 1.7471891641616821, 0.8527618646621704, -0.1769431233406067, -1.2403693199157715, -0.7861328125, -0.07861328125, 0.14599609375, 
92, 3331001312, 0.5139171481132507, -0.441254585981369, -0.46568527817726135, -0.5694740414619446, 9.717365264892578, 0.7137463688850403, 1.7495348453521729, 0.9315512776374817, 0.009336389601230621, -1.3229496479034424, -0.78759765625, -0.0791015625, 0.14501953125, 
93, 3331009645, 0.5138803720474243, -0.4411807656288147, -0.46578294038772583, -0.569484531879425, 9.709333419799805, 0.6826887726783752, 1.739864706993103, 0.7697973847389221, 0.03305516764521599, -1.457962155342102, -0.783935546875, -0.07763671875, 0.14599609375, 
94, 3331017978, 0.5138648152351379, -0.4410915672779083, -0.4658854007720947, -0.5694839358329773, 9.699005126953125, 0.693453848361969, 1.7149441242218018, 0.8857017755508423, 0.1603066772222519, -1.3933374881744385, -0.78857421875, -0.07958984375, 0.14453125, 
95, 3331026311, 0.5138494968414307, -0.4410129189491272, -0.46599113941192627, -0.5694721937179565, 9.716485977172852, 0.6936827301979065, 1.7262027263641357, 0.661730945110321, -0.021208586171269417, -1.305045247077942, -0.78515625, -0.077880859375, 0.1474609375, 
96, 3331034644, 0.513811469078064, -0.4409642815589905, -0.4660870432853699, -0.569465696811676, 9.765769004821777, 0.686730146408081, 1.7301939725875854, 0.44931209087371826, -0.2897225618362427, -1.2294063568115234, -0.78662109375, -0.07958984375, 0.14453125, 
97, 3331042977, 0.513800323009491, -0.4409094750881195, -0.46617284417152405, -0.5694479942321777, 9.788408279418945, 0.7028669714927673, 1.7345000505447388, 0.5088396072387695, -0.0675959661602974, -0.9343560934066772, -0.7861328125, -0.0791015625, 0.146484375, 
98, 3331051310, 0.5137959718704224, -0.44085270166397095, -0.4662594795227051, -0.5694247484207153, 9.7677001953125, 0.7220652103424072, 1.6821268796920776, 0.7467446327209473, -0.04733511060476303, -0.8426059484481812, -0.78515625, -0.07861328125, 0.14599609375, 
99, 3331059643, 0.5138075947761536, -0.4407861828804016, -0.4663352072238922, -0.5694037079811096, 9.741829872131348, 0.7449972629547119, 1.667006254196167, 0.4374527037143707, 0.20474737882614136, -0.7920945882797241, -0.7861328125, -0.07958984375, 0.14599609375, 
100, 3331067976, 0.5138071179389954, -0.44073933362960815, -0.46638911962509155, -0.569396436214447, 9.71240234375, 0.7882933616638184, 1.6891224384307861, 0.3394014537334442, 0.2287735641002655, -0.6629732847213745, -0.78662109375, -0.07958984375, 0.14697265625, 
101, 3331076309, 0.5137777924537659, -0.44072431325912476, -0.46642833948135376, -0.5694022178649902, 9.701122283935547, 0.8111466765403748, 1.6988502740859985, -0.06229382008314133, 0.0018314179033041, -0.6435576677322388, -0.785400390625, -0.0791015625, 0.146484375, 
102, 3331084642, 0.513737678527832, -0.44072702527046204, -0.46645328402519226, -0.5694158673286438, 9.695098876953125, 0.8227629065513611, 1.685145378112793, -0.6117191314697266, -0.08270835876464844, -0.6280865669250488, -0.78564453125, -0.078857421875, 0.14892578125, 
103, 3331092975, 0.5136634707450867, -0.44075897336006165, -0.46643656492233276, -0.5694718360900879, 9.689319610595703, 0.8459882140159607, 1.6941508054733276, -1.220723271369934, 0.062178559601306915, -0.6669691205024719, -0.784423828125, -0.079345703125, 0.14794921875, 
104, 3331101308, 0.5136054158210754, -0.440782755613327, -0.4664267897605896, -0.5695139169692993, 9.683518409729004, 0.824393630027771, 1.6811970472335815, -1.3236154317855835, 0.05411006882786751, -0.6257812976837158, -0.785888671875, -0.080078125, 0.1474609375, 
105, 3331109641, 0.5135664343833923, -0.4407927393913269, -0.46642470359802246, -0.5695429444313049, 9.649449348449707, 0.8481410145759583, 1.6842442750930786, -1.520153522491455, 0.1216035708785057, -0.6129229664802551, -0.784912109375, -0.07958984375, 0.14697265625, 
106, 3331117974, 0.5135005712509155, -0.4408358335494995, -0.4664040803909302, -0.5695858597755432, 9.679778099060059, 0.8344220519065857, 1.7245862483978271, -1.5970218181610107, -0.06516260653734207, -0.5013473629951477, -0.7861328125, -0.07861328125, 0.14501953125, 
107, 3331126307, 0.5134572982788086, -0.4408681392669678, -0.4663895070552826, -0.5696117281913757, 9.691007614135742, 0.8501082062721252, 1.7269322872161865, -1.6033486127853394, 0.0013191330945119262, -0.3716112971305847, -0.7861328125, -0.080322265625, 0.1494140625, 
108, 3331134640, 0.5134218335151672, -0.44090521335601807, -0.46636149287223816, -0.5696381330490112, 9.702831268310547, 0.8210462331771851, 1.715273141860962, -1.3227447271347046, 0.12905731797218323, -0.1394951194524765, -0.785888671875, -0.080078125, 0.1474609375, 
109, 3331142973, 0.5134257674217224, -0.4408990144729614, -0.46634775400161743, -0.5696503520011902, 9.708775520324707, 0.80666184425354, 1.698170781135559, -1.040091633796692, 0.5111704468727112, -0.17573925852775574, -0.788330078125, -0.08251953125, 0.1474609375, 
110, 3331151306, 0.5134233236312866, -0.4408988356590271, -0.46630942821502686, -0.5696840882301331, 9.728438377380371, 0.7783151268959045, 1.670153021812439, -0.9865834712982178, 0.7492291331291199, -0.11021804809570312, -0.787109375, -0.07763671875, 0.145263671875, 
111, 3331159639, 0.5134026408195496, -0.4409167170524597, -0.4662632644176483, -0.5697267055511475, 9.727959632873535, 0.7609986662864685, 1.6904815435409546, -1.1036405563354492, 0.6283299922943115, -0.09876848757266998, -0.7880859375, -0.0810546875, 0.14501953125, 
112, 3331167972, 0.5133996605873108, -0.4409281611442566, -0.4662352502346039, -0.5697435140609741, 9.748208999633789, 0.7493389844894409, 1.6992794275283813, -0.8847925662994385, 0.4810737669467926, 0.018275756388902664, -0.78515625, -0.078857421875, 0.14794921875, 
113, 3331176305, 0.5133751034736633, -0.4409622550010681, -0.46618372201919556, -0.5697813034057617, 9.77488899230957, 0.7605907917022705, 1.7062394618988037, -0.9183983206748962, 0.5116571187973022, 0.10595327615737915, -0.785888671875, -0.081298828125, 0.142578125, 
114, 3331184638, 0.513368546962738, -0.4409868121147156, -0.4661535620689392, -0.5697929859161377, 9.754396438598633, 0.7644100189208984, 1.7133419513702393, -0.9800261855125427, 0.3378133177757263, 0.12416499853134155, -0.786865234375, -0.08056640625, 0.14697265625, 
115, 3331192971, 0.5133586525917053, -0.441015362739563, -0.46612945199012756, -0.5697996020317078, 9.780539512634277, 0.7491816282272339, 1.7460018396377563, -1.0123257637023926, 0.21973170340061188, 0.11747968196868896, -0.782958984375, -0.0810546875, 0.144775390625, 
116, 3331201304, 0.5133464336395264, -0.44105443358421326, -0.4661112427711487, -0.5697952508926392, 9.769438743591309, 0.7704328298568726, 1.7312817573547363, -0.9209597706794739, 0.006057766266167164, 0.21266217529773712, -0.786376953125, -0.0810546875, 0.14599609375, 
117, 3331209637, 0.5133569240570068, -0.4410797357559204, -0.4661136865615845, -0.5697641372680664, 9.772951126098633, 0.7434450387954712, 1.7881606817245483, -0.8915547132492065, -0.07743183523416519, 0.2715749144554138, -0.786376953125, -0.080078125, 0.1474609375, 
118, 3331217970, 0.5133508443832397, -0.44112080335617065, -0.46609926223754883, -0.5697497129440308, 9.750905990600586, 0.7466709613800049, 1.7699352502822876, -0.8055933117866516, -0.05727342516183853, 0.32101038098335266, -0.787353515625, -0.08154296875, 0.14599609375, 
119, 3331226303, 0.5133663415908813, -0.44113850593566895, -0.4661019444465637, -0.5697197914123535, 9.74077033996582, 0.7687089443206787, 1.768676519393921, -0.6222721934318542, 0.03500185161828995, 0.287865549325943, -0.786865234375, -0.0810546875, 0.14599609375, 
120, 3331234636, 0.5133732557296753, -0.44115427136421204, -0.4660930037498474, -0.5697086453437805, 9.696308135986328, 0.756935715675354, 1.748219609260559, -0.5245538949966431, 0.20684772729873657, 0.2060537040233612, -0.784423828125, -0.07958984375, 0.14404296875, 
121, 3331242969, 0.51340252161026, -0.441138356924057, -0.46611738204956055, -0.5696747899055481, 9.663555145263672, 0.7656474709510803, 1.7195076942443848, -0.2683091163635254, 0.19547505676746368, 0.04445350915193558, -0.786865234375, -0.08056640625, 0.14599609375, 
122, 3331251302, 0.5134132504463196, -0.44113287329673767, -0.4661417007446289, -0.5696494579315186, 9.642359733581543, 0.788701057434082, 1.7472318410873413, 0.0000640355865471065, 0.07626637816429138, -0.0028944083023816347, -0.7880859375, -0.0810546875, 0.14404296875, 
123, 3331259635, 0.513433039188385, -0.4411223828792572, -0.46618226170539856, -0.5696064233779907, 9.655701637268066, 0.7721779942512512, 1.751566767692566, 0.35279765725135803, -0.03708941116929054, 0.07447338104248047, -0.783935546875, -0.08203125, 0.146240234375, 
124, 3331267968, 0.5134792327880859, -0.44109347462654114, -0.46622398495674133, -0.5695530772209167, 9.699684143066406, 0.7625930905342102, 1.7559585571289062, 0.6954648494720459, 0.1938101053237915, 0.21709343791007996, -0.783447265625, -0.08203125, 0.147216796875, 
125, 3331276301, 0.5134803056716919, -0.44110140204429626, -0.46622270345687866, -0.5695471167564392, 9.733087539672852, 0.7400046586990356, 1.7467743158340454, 1.000837802886963, 0.3280799090862274, 0.31460684537887573, -0.785400390625, -0.080322265625, 0.1484375, 
126, 3331284634, 0.51356041431427, -0.44103503227233887, -0.46628352999687195, -0.5694764852523804, 9.762200355529785, 0.7507911324501038, 1.759727954864502, 1.4273403882980347, 0.46488553285598755, 0.24762560427188873, -0.785888671875, -0.080322265625, 0.14794921875, 
127, 3331292967, 0.5136550068855286, -0.440961092710495, -0.46637651324272156, -0.5693721771240234, 9.774531364440918, 0.7612729072570801, 1.7444995641708374, 1.843878984451294, 0.1812591254711151, 0.32654306292533875, -0.783935546875, -0.07958984375, 0.14599609375, 
128, 3331301300, 0.5137604475021362, -0.44087958335876465, -0.4664871096611023, -0.5692494511604309, 9.801002502441406, 0.7775194644927979, 1.7275935411453247, 2.4120798110961914, 0.07844359427690506, 0.4170893728733063, -0.78515625, -0.078857421875, 0.14794921875, 
129, 3331309633, 0.5138589143753052, -0.44078314304351807, -0.4666297733783722, -0.5691184401512146, 9.804944038391113, 0.8006522059440613, 1.742205262184143, 3.0781524181365967, -0.09431160986423492, 0.19268310070037842, -0.784912109375, -0.07861328125, 0.14599609375, 
130, 3331317966, 0.5139835476875305, -0.440656453371048, -0.46678879857063293, -0.5689736008644104, 9.784544944763184, 0.8432282209396362, 1.73277747631073, 3.3686435222625732, 0.07926326245069504, 0.13861143589019775, -0.7861328125, -0.080322265625, 0.1484375, 
131, 3331326299, 0.5141199231147766, -0.4405059814453125, -0.46695154905319214, -0.5688333511352539, 9.713897705078125, 0.8839646577835083, 1.6900931596755981, 3.1203644275665283, 0.31683528423309326, -0.060782574117183685, -0.78759765625, -0.081298828125, 0.150390625, 
132, 3331334632, 0.5142242312431335, -0.4403980076313019, -0.46705740690231323, -0.5687357187271118, 9.705859184265137, 0.9305461645126343, 1.681052803993225, 2.393663167953491, 0.4633742868900299, 0.08735735714435577, -0.786376953125, -0.08056640625, 0.14501953125, 
133, 3331342965, 0.5143694281578064, -0.44026708602905273, -0.46718794107437134, -0.5685984492301941, 9.654271125793457, 0.9377591609954834, 1.669866919517517, 1.333617925643921, 0.35835593938827515, 0.03579588979482651, -0.7861328125, -0.079833984375, 0.14794921875, 
134, 3331351298, 0.5143882036209106, -0.4402514100074768, -0.46720120310783386, -0.5685828328132629, 9.634607315063477, 0.9407633543014526, 1.685445785522461, -0.02820127084851265, 0.34339725971221924, -0.00624987343326211, -0.78662109375, -0.079345703125, 0.14892578125, 
135, 3331359631, 0.5143646597862244, -0.4402865171432495, -0.4671664535999298, -0.568605363368988, 9.63609504699707, 0.91209477186203, 1.6863042116165161, -1.4229731559753418, 0.24429574608802795, -0.014215899631381035, -0.785888671875, -0.0810546875, 0.14599609375, 
136, 3331367964, 0.5142989158630371, -0.44034990668296814, -0.46708863973617554, -0.5686796307563782, 9.650371551513672, 0.8680034279823303, 1.6869686841964722, -2.3888862133026123, 0.37126556038856506, -0.24484649300575256, -0.78759765625, -0.079833984375, 0.14892578125, 
137, 3331376297, 0.514231264591217, -0.44042569398880005, -0.46699416637420654, -0.5687599182128906, 9.679499626159668, 0.8059440851211548, 1.6843554973602295, -3.435868263244629, 0.3696518838405609, -0.258498877286911, -0.785400390625, -0.080078125, 0.14599609375, 
138, 3331384630, 0.5141197443008423, -0.44053196907043457, -0.4668610394001007, -0.5688877105712891, 9.723628044128418, 0.7581412196159363, 1.7094439268112183, -3.745723247528076, 0.4566633701324463, -0.37132957577705383, -0.78564453125, -0.0791015625, 0.14697265625, 
139, 3331392963, 0.5139927268028259, -0.4406595826148987, -0.4667055904865265, -0.5690309405326843, 9.765403747558594, 0.695776641368866, 1.7027956247329712, -3.8650598526000977, 0.4830716550350189, -0.24500013887882233, -0.786376953125, -0.08154296875, 0.14697265625, 
140, 3331401296, 0.5138842463493347, -0.44076067209243774, -0.4665697515010834, -0.5691620707511902, 9.77306842803955, 0.689756453037262, 1.7273024320602417, -3.733299970626831, 0.5570198893547058, -0.3863394260406494, -0.787109375, -0.0810546875, 0.14794921875, 
141, 3331409629, 0.5137749910354614, -0.44086599349975586, -0.4664466381072998, -0.569280207157135, 9.774188995361328, 0.6499998569488525, 1.73193359375, -3.4515185356140137, 0.36960065364837646, -0.3183337450027466, -0.787109375, -0.081298828125, 0.14892578125, 
142, 3331417962, 0.5136938691139221, -0.44093888998031616, -0.4663601219654083, -0.5693677663803101, 9.773565292358398, 0.612567663192749, 1.7414090633392334, -2.7028653621673584, 0.34111759066581726, -0.34361496567726135, -0.78662109375, -0.0791015625, 0.14501953125, 
143, 3331426295, 0.5136520266532898, -0.4409736096858978, -0.46631956100463867, -0.5694117546081543, 9.771668434143066, 0.6231551170349121, 1.7881494760513306, -2.165888547897339, 0.2675791084766388, -0.3607509136199951, -0.78564453125, -0.079345703125, 0.1484375, 
144, 3331434628, 0.5136192440986633, -0.4409874379634857, -0.4662993252277374, -0.5694472193717957, 9.77977466583252, 0.6430334448814392, 1.7801923751831055, -1.1391162872314453, 0.3284129500389099, -0.37973105907440186, -0.78759765625, -0.080078125, 0.14697265625, 
145, 3331442961, 0.5136227011680603, -0.4409550726413727, -0.4663209319114685, -0.5694514513015747, 9.780674934387207, 0.662474513053894, 1.801801085472107, -0.14039161801338196, 0.4420120120048523, -0.4322145879268646, -0.786376953125, -0.08203125, 0.14697265625, 
146, 3331451294, 0.5136591196060181, -0.44087618589401245, -0.46638691425323486, -0.5694257616996765, 9.767965316772461, 0.6854142546653748, 1.7931599617004395, 1.000786542892456, 0.5201610922813416, -0.5231707096099854, -0.7861328125, -0.079345703125, 0.1484375, 
147, 3331459627, 0.5137855410575867, -0.44070857763290405, -0.46652621030807495, -0.5693272352218628, 9.747084617614746, 0.7070069909095764, 1.7987194061279297, 2.0091676712036133, 0.7507147789001465, -0.5382574796676636, -0.784423828125, -0.08056640625, 0.14599609375, 
148, 3331467960, 0.5138795375823975, -0.440544456243515, -0.46664562821388245, -0.5692715644836426, 9.751566886901855, 0.7621906399726868, 1.7738183736801147, 2.5632293224334717, 0.9958685636520386, -0.7327721118927002, -0.787353515625, -0.0810546875, 0.14501953125, 
149, 3331476293, 0.5139551758766174, -0.4403770864009857, -0.46675410866737366, -0.5692439079284668, 9.69521713256836, 0.8087524175643921, 1.7653568983078003, 2.8513128757476807, 1.2096450328826904, -0.8966006636619568, -0.785888671875, -0.0810546875, 0.14404296875, 
150, 3331484626, 0.5140551328659058, -0.4401940703392029, -0.4668659269809723, -0.5692034959793091, 9.694718360900879, 0.8486822843551636, 1.7516437768936157, 2.577316999435425, 1.3281878232955933, -0.8671699166297913, -0.786376953125, -0.08251953125, 0.1484375, 
151, 3331492959, 0.5141074061393738, -0.4400487542152405, -0.4669354259967804, -0.5692117214202881, 9.691082954406738, 0.8702974319458008, 1.7405445575714111, 2.0463852882385254, 1.3824131488800049, -0.9509028792381287, -0.785400390625, -0.082763671875, 0.148193359375, 
152, 3331501292, 0.5141647458076477, -0.4399104118347168, -0.4670059382915497, -0.5692089796066284, 9.678771018981934, 0.8594687581062317, 1.7369410991668701, 1.437662959098816, 1.225628137588501, -0.9308212995529175, -0.785888671875, -0.07958984375, 0.146484375, 
153, 3331509625, 0.514193058013916, -0.43979448080062866, -0.46706393361091614, -0.5692253708839417, 9.681946754455566, 0.8762043714523315, 1.7375752925872803, 0.7839877009391785, 1.0708926916122437, -1.0837894678115845, -0.785400390625, -0.080078125, 0.14697265625, 
154, 3331517958, 0.5142055749893188, -0.4397031366825104, -0.46708840131759644, -0.5692645311355591, 9.70019245147705, 0.8676255345344543, 1.7193002700805664, 0.20423509180545807, 1.1481194496154785, -0.9977511763572693, -0.785400390625, -0.082275390625, 0.1484375, 
155, 3331526291, 0.5141961574554443, -0.439630925655365, -0.4671134352684021, -0.5693081617355347, 9.711193084716797, 0.8341431021690369, 1.7181915044784546, -0.20004718005657196, 0.8826280832290649, -1.0929850339889526, -0.786865234375, -0.08154296875, 0.146484375, 
156, 3331534624, 0.5141745805740356, -0.43958359956741333, -0.4671038091182709, -0.5693721175193787, 9.70279598236084, 0.8370829224586487, 1.7125837802886963, -0.739021897315979, 0.9755821824073792, -0.9519786238670349, -0.785400390625, -0.0810546875, 0.14599609375, 
157, 3331542957, 0.5141347050666809, -0.4395642876625061, -0.4670740067958832, -0.56944739818573, 9.698904037475586, 0.8262127637863159, 1.6993229389190674, -1.2435197830200195, 0.8637503981590271, -0.8566424250602722, -0.786865234375, -0.08056640625, 0.14501953125, 
158, 3331551290, 0.5140877366065979, -0.43957293033599854, -0.4670220911502838, -0.5695257186889648, 9.706640243530273, 0.8102932572364807, 1.7066142559051514, -1.7110564708709717, 0.7602434158325195, -0.6360527276992798, -0.785400390625, -0.08251953125, 0.145751953125, 
159, 3331559623, 0.5140340328216553, -0.4395933449268341, -0.46695423126220703, -0.5696141719818115, 9.727612495422363, 0.7984627485275269, 1.7262643575668335, -1.9393815994262695, 0.8161334991455078, -0.5626935362815857, -0.786865234375, -0.0830078125, 0.14697265625, 
160, 3331567956, 0.513985812664032, -0.4396229386329651, -0.46687304973602295, -0.5697013735771179, 9.724785804748535, 0.7958754897117615, 1.7392680644989014, -2.1544647216796875, 0.8503286242485046, -0.3959192633628845, -0.785400390625, -0.0810546875, 0.1474609375, 
161, 3331576289, 0.5139411091804504, -0.43965357542037964, -0.4667934775352478, -0.5697833299636841, 9.72399616241455, 0.7917267084121704, 1.7532247304916382, -1.9618967771530151, 0.8390327095985413, -0.3036823868751526, -0.786865234375, -0.08203125, 0.14599609375, 
162, 3331584622, 0.5139056444168091, -0.4396872818470001, -0.46670690178871155, -0.5698602795600891, 9.729530334472656, 0.8086186647415161, 1.7334703207015991, -2.081566572189331, 0.8758916258811951, -0.1645202487707138, -0.785888671875, -0.08154296875, 0.14501953125, 
163, 3331592955, 0.5138920545578003, -0.43971768021583557, -0.46662262082099915, -0.5699178576469421, 9.70071029663086, 0.8221862316131592, 1.7753123044967651, -1.9781363010406494, 0.9035806655883789, 0.0778544694185257, -0.786376953125, -0.08203125, 0.146484375, 
164, 3331601288, 0.5138657093048096, -0.43975529074668884, -0.46653446555137634, -0.5699848532676697, 9.700478553771973, 0.8264760971069336, 1.7578402757644653, -2.0032379627227783, 0.8537097573280334, 0.011436755768954754, -0.786376953125, -0.0810546875, 0.1435546875, 
165, 3331609621, 0.5138412714004517, -0.4397857189178467, -0.4664594233036041, -0.5700448155403137, 9.66633415222168, 0.8154277801513672, 1.7853223085403442, -2.1085126399993896, 0.7725637555122375, -0.10212395340204239, -0.786376953125, -0.08056640625, 0.14794921875, 
166, 3331617954, 0.5138102769851685, -0.43982553482055664, -0.46637457609176636, -0.5701115131378174, 9.669195175170898, 0.8079431056976318, 1.7923550605773926, -2.0184786319732666, 0.7825276851654053, -0.028636716306209564, -0.78662109375, -0.07958984375, 0.146484375, 
167, 3331626287, 0.5138081312179565, -0.4398486018180847, -0.4663096070289612, -0.5701488852500916, 9.669343948364258, 0.791547954082489, 1.7710565328598022, -1.74455988407135, 0.7611909508705139, 0.11361194401979446, -0.785888671875, -0.080078125, 0.146484375, 
168, 3331634620, 0.5137996077537537, -0.43986448645591736, -0.4662501811981201, -0.570192813873291, 9.662553787231445, 0.7921702265739441, 1.754542350769043, -1.3693368434906006, 0.7978449463844299, 0.0010629906319081783, -0.787353515625, -0.08203125, 0.14453125, 
169, 3331642953, 0.5138280391693115, -0.43984395265579224, -0.46622395515441895, -0.5702045559883118, 9.672524452209473, 0.7641525268554688, 1.7472678422927856, -1.0142213106155396, 0.8528899550437927, -0.02351386845111847, -0.784912109375, -0.0810546875, 0.1435546875, 
170, 3331651286, 0.513850212097168, -0.43981993198394775, -0.46619632840156555, -0.5702255964279175, 9.693933486938477, 0.7418356537818909, 1.7556509971618652, -0.5043442845344543, 0.9424629211425781, -0.04374910891056061, -0.7880859375, -0.0810546875, 0.14404296875, 
171, 3331659619, 0.513875424861908, -0.43979382514953613, -0.46617835760116577, -0.5702376365661621, 9.744710922241211, 0.7438169717788696, 1.7495996952056885, -0.1672353595495224, 0.879964292049408, 0.0103865722194314, -0.786376953125, -0.08251953125, 0.14404296875, 
172, 3331667952, 0.5139214992523193, -0.43975308537483215, -0.46616366505622864, -0.5702396631240845, 9.755117416381836, 0.746692419052124, 1.7493276596069336, -0.01938997581601143, 1.0202789306640625, 0.09122509509325027, -0.788330078125, -0.08203125, 0.14697265625, 
173, 3331676285, 0.5139833092689514, -0.4397088885307312, -0.46615201234817505, -0.5702273845672607, 9.74526309967041, 0.7874062657356262, 1.7361525297164917, 0.05354655534029007, 1.0370820760726929, 0.25195443630218506, -0.785400390625, -0.080322265625, 0.14208984375, 
174, 3331684618, 0.5140251517295837, -0.43967992067337036, -0.46614232659339905, -0.5702200531959534, 9.706043243408203, 0.8062756061553955, 1.742368221282959, -0.029277073219418526, 0.8089359998703003, 0.16829833388328552, -0.785400390625, -0.080078125, 0.146484375, 
175, 3331692951, 0.5140488147735596, -0.4396827816963196, -0.4661313593387604, -0.5702054500579834, 9.696136474609375, 0.8222550749778748, 1.766108512878418, -0.3025040626525879, 0.42095711827278137, 0.3047453463077545, -0.785888671875, -0.08154296875, 0.14599609375, 
176, 3331701284, 0.5140540599822998, -0.439702570438385, -0.46611201763153076, -0.5702012777328491, 9.675865173339844, 0.8265542387962341, 1.721203327178955, -0.6903292536735535, 0.2790799140930176, 0.22987495362758636, -0.787353515625, -0.081787109375, 0.1435546875, 
177, 3331709617, 0.5140413045883179, -0.43972766399383545, -0.46607786417007446, -0.5702213644981384, 9.642740249633789, 0.7907828688621521, 1.743891954421997, -0.9329472780227661, 0.3970334231853485, 0.08407872915267944, -0.786376953125, -0.08203125, 0.146484375, 
178, 3331717950, 0.5140306353569031, -0.4397444725036621, -0.46604210138320923, -0.5702472925186157, 9.638227462768555, 0.7922489047050476, 1.7087068557739258, -1.0886049270629883, 0.49995145201683044, -0.02740723080933094, -0.786376953125, -0.08056640625, 0.14306640625, 
179, 3331726283, 0.5140002369880676, -0.43977659940719604, -0.4659808278083801, -0.5702999234199524, 9.658748626708984, 0.7812696695327759, 1.6943870782852173, -1.362011194229126, 0.627817690372467, -0.047232650220394135, -0.784912109375, -0.08154296875, 0.1435546875, 
180, 3331734616, 0.5139769911766052, -0.4398171603679657, -0.4659145176410675, -0.5703437328338623, 9.690404891967773, 0.7490081787109375, 1.7306866645812988, -1.6844944953918457, 0.5567125678062439, 0.08666576445102692, -0.785400390625, -0.08251953125, 0.143798828125, 
181, 3331742949, 0.5139375925064087, -0.4398828446865082, -0.4658350348472595, -0.570393443107605, 9.752933502197266, 0.7346813678741455, 1.7586373090744019, -2.0488314628601074, 0.39864712953567505, 0.17411275207996368, -0.787353515625, -0.0810546875, 0.14404296875, 
182, 3331751282, 0.5139099359512329, -0.43995141983032227, -0.46575191617012024, -0.5704333782196045, 9.758768081665039, 0.7270099520683289, 1.7525609731674194, -2.0158915519714355, 0.40323206782341003, 0.35994401574134827, -0.788330078125, -0.083740234375, 0.1435546875, 
183, 3331759615, 0.5138381123542786, -0.44005364179611206, -0.4656491279602051, -0.5705031156539917, 9.767871856689453, 0.7360418438911438, 1.768568992614746, -1.5053741931915283, 0.28909510374069214, 0.4056398570537567, -0.784912109375, -0.0810546875, 0.14404296875, 
184, 3331767948, 0.5138492584228516, -0.440091997385025, -0.46560707688331604, -0.5704977512359619, 9.775818824768066, 0.7294397950172424, 1.7678751945495605, -0.9559745192527771, 0.3254416882991791, 0.5424454808235168, -0.785400390625, -0.08251953125, 0.144287109375, 
185, 3331776281, 0.5138524770736694, -0.44012969732284546, -0.46556392312049866, -0.5705009698867798, 9.759517669677734, 0.7726572751998901, 1.7706934213638306, -0.6103359460830688, 0.3846873641014099, 0.5172922611236572, -0.784423828125, -0.08154296875, 0.14501953125, 
186, 3331784614, 0.5138735175132751, -0.4401482045650482, -0.4655456244945526, -0.5704827308654785, 9.731657028198242, 0.7939798831939697, 1.7826958894729614, -0.48705461621284485, 0.29765018820762634, 0.44039833545684814, -0.787353515625, -0.081298828125, 0.142578125, 
187, 3331792947, 0.5138567090034485, -0.44019222259521484, -0.465501606464386, -0.5705000162124634, 9.704447746276855, 0.8353229761123657, 1.7845122814178467, -0.5682518482208252, 0.3198065161705017, 0.3648107349872589, -0.784912109375, -0.080078125, 0.14501953125, 
188, 3331801280, 0.5138685703277588, -0.4402082562446594, -0.4654931128025055, -0.5704838633537292, 9.685314178466797, 0.8059537410736084, 1.7791194915771484, -0.4612868130207062, 0.20111018419265747, 0.2766209542751312, -0.785400390625, -0.081787109375, 0.142578125, 
189, 3331809613, 0.5138760805130005, -0.4402288794517517, -0.4654848575592041, -0.5704678297042847, 9.68405532836914, 0.8127063512802124, 1.7737268209457397, -0.552345335483551, 0.14422093331813812, 0.2715493142604828, -0.785888671875, -0.081298828125, 0.14208984375, 
190, 3331817946, 0.5138812065124512, -0.440236896276474, -0.4654809236526489, -0.5704602599143982, 9.679577827453613, 0.8413174152374268, 1.7592417001724243, -0.4647446572780609, 0.24129889905452728, 0.08551312237977982, -0.785400390625, -0.08203125, 0.14501953125, 
191, 3331826279, 0.5138739347457886, -0.44026264548301697, -0.46546679735183716, -0.5704585909843445, 9.662232398986816, 0.8505445718765259, 1.7672100067138672, -0.6798273324966431, 0.14883150160312653, 0.14967678487300873, -0.786865234375, -0.082275390625, 0.14306640625, 
192, 3331834612, 0.5138655304908752, -0.4402821958065033, -0.4654633700847626, -0.5704538226127625, 9.684584617614746, 0.8644139170646667, 1.7684259414672852, -0.6424050331115723, 0.07903272658586502, 0.03072427213191986, -0.7861328125, -0.07958984375, 0.14501953125, 
193, 3331842945, 0.5138673782348633, -0.44029536843299866, -0.46545276045799255, -0.5704505443572998, 9.689255714416504, 0.8292791247367859, 1.7472964525222778, -0.5614128708839417, 0.2663496136665344, 0.11822248995304108, -0.786865234375, -0.0830078125, 0.146484375, 
194, 3331851278, 0.5138722062110901, -0.44030654430389404, -0.4654271602630615, -0.5704584717750549, 9.717466354370117, 0.834007203578949, 1.7368748188018799, -0.7577459812164307, 0.460761696100235, 0.12429308891296387, -0.785888671875, -0.0791015625, 0.142578125, 
195, 3331859611, 0.5138911008834839, -0.4402982294559479, -0.46541357040405273, -0.5704590678215027, 9.71108627319336, 0.8229917883872986, 1.734829068183899, -0.8879173994064331, 0.5468510985374451, 0.002190016908571124, -0.785400390625, -0.080078125, 0.14404296875, 
196, 3331867944, 0.513873815536499, -0.4403234124183655, -0.4653666913509369, -0.5704933404922485, 9.705957412719727, 0.813077986240387, 1.7262599468231201, -1.3271502256393433, 0.5208526253700256, -0.01623942330479622, -0.785888671875, -0.08056640625, 0.14453125, 
197, 3331876277, 0.5138576030731201, -0.4403557777404785, -0.46532273292541504, -0.5705187916755676, 9.705592155456543, 0.8160249590873718, 1.7296003103256226, -1.6114425659179688, 0.38066595792770386, 0.02826530486345291, -0.786376953125, -0.081298828125, 0.14306640625, 
198, 3331884610, 0.5138148069381714, -0.4404130280017853, -0.4652608335018158, -0.5705637335777283, 9.72566032409668, 0.7780613899230957, 1.7166975736618042, -1.893660545349121, 0.2764672636985779, 0.004111084621399641, -0.785888671875, -0.08251953125, 0.14404296875, 
199, 3331892943, 0.5137604475021362, -0.4404909014701843, -0.46519505977630615, -0.5706061124801636, 9.717069625854492, 0.7739561796188354, 1.7209187746047974, -1.959437608718872, 0.07437093555927277, 0.12752047181129456, -0.788330078125, -0.08203125, 0.14404296875, 
200, 3331901276, 0.5137214064598083, -0.4405601918697357, -0.46513956785202026, -0.5706331133842468, 9.715192794799805, 0.7638334035873413, 1.7320951223373413, -1.7917413711547852, 0.050267934799194336, 0.19844627380371094, -0.785400390625, -0.081298828125, 0.142578125, 
201, 3331909609, 0.513729453086853, -0.440584272146225, -0.46511349081993103, -0.5706285238265991, 9.705141067504883, 0.7775843739509583, 1.7479571104049683, -1.6812926530838013, 0.24985402822494507, 0.1536213755607605, -0.786865234375, -0.082275390625, 0.14306640625, 
202, 3331917942, 0.5137044787406921, -0.44064050912857056, -0.4650532603263855, -0.5706565976142883, 9.696115493774414, 0.788918137550354, 1.7465550899505615, -1.6581374406814575, 0.28310132026672363, 0.2457045316696167, -0.787841796875, -0.081787109375, 0.142578125, 
203, 3331926275, 0.51373690366745, -0.4406551122665405, -0.4650477170944214, -0.5706206560134888, 9.717880249023438, 0.788270890712738, 1.7406073808670044, -1.674274206161499, 0.10188061743974686, 0.2712419331073761, -0.786865234375, -0.083251953125, 0.142333984375, 
204, 3331934608, 0.5137110352516174, -0.44071027636528015, -0.4649823009967804, -0.5706546902656555, 9.720247268676758, 0.8035332560539246, 1.751665711402893, -1.7342629432678223, 0.359047532081604, 0.22178085148334503, -0.786865234375, -0.0810546875, 0.14404296875, 
205, 3331942941, 0.513680100440979, -0.4407595992088318, -0.4649144411087036, -0.5706996917724609, 9.706713676452637, 0.8062637448310852, 1.7508724927902222, -1.7246575355529785, 0.47408103942871094, 0.1084122434258461, -0.786376953125, -0.0810546875, 0.14599609375, 
206, 3331951274, 0.5136380195617676, -0.4408213496208191, -0.46485573053359985, -0.5707376599311829, 9.688087463378906, 0.8142436146736145, 1.7368801832199097, -1.8521908521652222, 0.18002964556217194, 0.06806983053684235, -0.784912109375, -0.080078125, 0.142578125, 
207, 3331959607, 0.513590931892395, -0.4408828616142273, -0.46480289101600647, -0.57077556848526, 9.684961318969727, 0.8151553273200989, 1.7488532066345215, -2.312145948410034, 0.08172222226858139, -0.09290283918380737, -0.78857421875, -0.081298828125, 0.14208984375, 
208, 3331967940, 0.5135093927383423, -0.440962016582489, -0.46472734212875366, -0.5708492994308472, 9.677862167358398, 0.808965802192688, 1.772692084312439, -2.5746147632598877, 0.12918537855148315, -0.27873408794403076, -0.785888671875, -0.0810546875, 0.14453125, 
209, 3331976273, 0.5134193301200867, -0.4410463869571686, -0.464647501707077, -0.5709300637245178, 9.69395923614502, 0.7479946613311768, 1.766695499420166, -2.7787346839904785, 0.11174209415912628, -0.3380054533481598, -0.786376953125, -0.081298828125, 0.14306640625, 
210, 3331984606, 0.5133216381072998, -0.441133975982666, -0.4645678997039795, -0.5710151195526123, 9.739241600036621, 0.7144657969474792, 1.7775592803955078, -2.8359313011169434, 0.055467624217271805, -0.4084445834159851, -0.784423828125, -0.08251953125, 0.144287109375, 
211, 3331992939, 0.5132369995117188, -0.44120484590530396, -0.46449968218803406, -0.5710917711257935, 9.75084400177002, 0.6786303520202637, 1.7774168252944946, -2.549973964691162, 0.14593710005283356, -0.4240436553955078, -0.785888671875, -0.080322265625, 0.142578125, 
212, 3332001272, 0.5131750106811523, -0.4412592351436615, -0.4644428491592407, -0.5711517333984375, 9.761033058166504, 0.6690540909767151, 1.776586651802063, -2.046602725982666, 0.2307458370923996, -0.30122336745262146, -0.785400390625, -0.08154296875, 0.1435546875, 
213, 3332009605, 0.5131234526634216, -0.4412960410118103, -0.46442297101020813, -0.5711857080459595, 9.762779235839844, 0.6610514521598816, 1.7602932453155518, -1.3744597434997559, 0.029674090445041656, -0.35944458842277527, -0.785400390625, -0.080810546875, 0.14208984375, 
214, 3332017938, 0.5131062269210815, -0.4413067102432251, -0.46443551778793335, -0.5711828470230103, 9.748359680175781, 0.6872881650924683, 1.8170653581619263, -0.5211472511291504, -0.010348151437938213, -0.20711670815944672, -0.786376953125, -0.08251953125, 0.14453125, 
215, 3332026271, 0.5131240487098694, -0.4412788152694702, -0.4644870162010193, -0.571146547794342, 9.747636795043945, 0.7320791482925415, 1.774334192276001, 0.2722665071487427, 0.03413096442818642, -0.2109588235616684, -0.785400390625, -0.08251953125, 0.143310546875, 
216, 3332034604, 0.5131543874740601, -0.4412480294704437, -0.4645348787307739, -0.5711041688919067, 9.740641593933105, 0.7381304502487183, 1.792001724243164, 0.5898829698562622, 0.13000504672527313, -0.03247884660959244, -0.783935546875, -0.08203125, 0.142333984375, 
217, 3332042937, 0.5131780505180359, -0.4412069320678711, -0.46458134055137634, -0.5710769295692444, 9.715956687927246, 0.7716630101203918, 1.787795901298523, 0.6765615940093994, 0.2927066683769226, -0.21070268750190735, -0.785888671875, -0.08251953125, 0.14599609375, 
218, 3332051270, 0.5132002234458923, -0.44115737080574036, -0.4646449089050293, -0.5710436105728149, 9.703754425048828, 0.7838513851165771, 1.7945988178253174, 0.7392651438713074, 0.16881059110164642, -0.37837347388267517, -0.785888671875, -0.084228515625, 0.141845703125, 
219, 3332059603, 0.513168454170227, -0.4411517381668091, -0.46467986702919006, -0.5710480213165283, 9.72298812866211, 0.8083499670028687, 1.7950992584228516, 0.5497198700904846, -0.01129587646573782, -0.42814192175865173, -0.785888671875, -0.08203125, 0.1435546875, 
220, 3332067936, 0.5131656527519226, -0.44112032651901245, -0.4647228717803955, -0.5710398554801941, 9.686558723449707, 0.8286640048027039, 1.7832609415054321, 0.13720263540744781, 0.16540393233299255, -0.5094159245491028, -0.786865234375, -0.080810546875, 0.14306640625, 
221, 3332076269, 0.5131759643554688, -0.4410756528377533, -0.46477997303009033, -0.5710185170173645, 9.672188758850098, 0.8244009017944336, 1.7819234132766724, -0.1820915788412094, 0.13277137279510498, -0.6083893179893494, -0.785400390625, -0.084716796875, 0.143798828125, 
222, 3332084602, 0.5131405591964722, -0.4410669207572937, -0.46480631828308105, -0.5710357427597046, 9.656245231628418, 0.8207958936691284, 1.7864296436309814, -0.5129250288009644, 0.04998617619276047, -0.6979366540908813, -0.785400390625, -0.083740234375, 0.142822265625, 
223, 3332092935, 0.5131314396858215, -0.44105201959609985, -0.4648246765136719, -0.5710403323173523, 9.682860374450684, 0.7869271636009216, 1.7915868759155273, -0.9329472780227661, 0.2076161652803421, -0.5094414949417114, -0.783935546875, -0.083251953125, 0.142822265625, 
224, 3332101268, 0.5130959153175354, -0.44106143712997437, -0.4648211598396301, -0.5710678696632385, 9.717323303222656, 0.7651610970497131, 1.7989327907562256, -0.9441919922828674, 0.1818738728761673, -0.4758357107639313, -0.785888671875, -0.08203125, 0.14501953125, 
225, 3332109601, 0.5130579471588135, -0.4410688281059265, -0.46480971574783325, -0.5711055397987366, 9.73586368560791, 0.7176588177680969, 1.7679399251937866, -0.81276535987854, 0.3281823992729187, -0.4719679355621338, -0.788818359375, -0.0830078125, 0.14501953125, 
226, 3332117934, 0.5130577683448792, -0.4410519599914551, -0.46480610966682434, -0.5711216926574707, 9.769667625427246, 0.7157348990440369, 1.7450504302978516, -0.4688172936439514, 0.5434187650680542, -0.28498396277427673, -0.785400390625, -0.081787109375, 0.14208984375, 
227, 3332126267, 0.5130682587623596, -0.4410087466239929, -0.46482425928115845, -0.5711308717727661, 9.742429733276367, 0.689684271812439, 1.7345143556594849, -0.1278662532567978, 0.6245390772819519, -0.4697650372982025, -0.785888671875, -0.082275390625, 0.14306640625, 
228, 3332134600, 0.5130802989006042, -0.440961629152298, -0.4648588299751282, -0.5711283087730408, 9.749138832092285, 0.7217146754264832, 1.729957938194275, 0.23589429259300232, 0.4770779311656952, -0.4818037450313568, -0.784912109375, -0.08203125, 0.143798828125, 
229, 3332142933, 0.5130992531776428, -0.44090813398361206, -0.4649064242839813, -0.5711137652397156, 9.738130569458008, 0.7366854548454285, 1.7624179124832153, 0.46309253573417664, 0.414092481136322, -0.4635663330554962, -0.785400390625, -0.083251953125, 0.141845703125, 
230, 3332151266, 0.5131257176399231, -0.440854012966156, -0.4649515748023987, -0.5710949897766113, 9.739718437194824, 0.7714553475379944, 1.7684693336486816, 0.5612975358963013, 0.4509001672267914, -0.36046910285949707, -0.784912109375, -0.083251953125, 0.142333984375, 
231, 3332159599, 0.513205349445343, -0.44076550006866455, -0.46502768993377686, -0.5710298418998718, 9.742249488830566, 0.7840878367424011, 1.7466737031936646, 0.3300522267818451, 0.47203192114830017, -0.2757115960121155, -0.785400390625, -0.085205078125, 0.143310546875, 
232, 3332167932, 0.5132218599319458, -0.4407395124435425, -0.46504658460617065, -0.5710196495056152, 9.73691463470459, 0.7830861210823059, 1.7501075267791748, 0.038254860788583755, 0.4049738347530365, -0.16423846781253815, -0.783935546875, -0.0830078125, 0.143310546875, 
233, 3332176265, 0.5132434964179993, -0.4407217800617218, -0.46505314111709595, -0.571008563041687, 9.720547676086426, 0.7540953755378723, 1.7591627836227417, -0.18252705037593842, 0.4539739191532135, -0.0025870378594845533, -0.787353515625, -0.08544921875, 0.144775390625, 
234, 3332184598, 0.5132659077644348, -0.44070854783058167, -0.46504250168800354, -0.5710073113441467, 9.726929664611816, 0.7986366152763367, 1.7436772584915161, -0.30345186591148376, 0.6038171648979187, 0.08100501447916031, -0.785888671875, -0.08154296875, 0.14501953125, 
235, 3332192931, 0.5132493376731873, -0.44072383642196655, -0.4650072753429413, -0.5710391998291016, 9.694369316101074, 0.7920128703117371, 1.7457729578018188, -0.6663286089897156, 0.5515897274017334, -0.027253545820713043, -0.783935546875, -0.0830078125, 0.143310546875, 
236, 3332201264, 0.5132471919059753, -0.4407432973384857, -0.4649680256843567, -0.5710579752922058, 9.719146728515625, 0.8039581179618835, 1.7548928260803223, -1.0355833768844604, 0.5142185091972351, 0.1309015303850174, -0.783935546875, -0.0810546875, 0.14501953125, 
237, 3332209597, 0.5132644176483154, -0.44075047969818115, -0.46491920948028564, -0.5710768103599548, 9.706668853759766, 0.7973566055297852, 1.7576435804367065, -1.5904392004013062, 0.7601409554481506, 0.13336053490638733, -0.786865234375, -0.0810546875, 0.14453125, 
238, 3332217930, 0.5132386684417725, -0.44079142808914185, -0.4648359417915344, -0.5711361169815063, 9.736307144165039, 0.7996774911880493, 1.7674434185028076, -1.9364873170852661, 0.7515856027603149, 0.06228100135922432, -0.784912109375, -0.08056640625, 0.14501953125, 
239, 3332226263, 0.513185441493988, -0.44085636734962463, -0.46473050117492676, -0.5712195038795471, 9.733572006225586, 0.8029194474220276, 1.7647229433059692, -2.020348310470581, 0.7427999973297119, 0.08482153713703156, -0.783935546875, -0.08154296875, 0.142822265625, 
240, 3332234596, 0.5131642818450928, -0.4409047067165375, -0.46463876962661743, -0.5712759494781494, 9.74948501586914, 0.7702120542526245, 1.7839723825454712, -2.0086171627044678, 0.7635219097137451, 0.21571029722690582, -0.785400390625, -0.08251953125, 0.143310546875, 
241, 3332242929, 0.5131606459617615, -0.4409223198890686, -0.4645765423774719, -0.571316123008728, 9.734983444213867, 0.7756185531616211, 1.7714158296585083, -1.4519685506820679, 0.814443051815033, 0.0825674831867218, -0.785888671875, -0.081787109375, 0.142578125, 
242, 3332251262, 0.5131644606590271, -0.4409363269805908, -0.4645310342311859, -0.5713390111923218, 9.743617057800293, 0.7471787929534912, 1.8009642362594604, -1.0357115268707275, 0.6614236235618591, 0.1476532518863678, -0.785888671875, -0.0849609375, 0.144287109375, 
243, 3332259595, 0.5131858587265015, -0.44093209505081177, -0.4644896686077118, -0.5713567137718201, 9.721851348876953, 0.758258581161499, 1.7737691402435303, -0.5886919498443604, 0.8803996443748474, 0.22021837532520294, -0.786376953125, -0.082763671875, 0.142822265625, 
244, 3332267928, 0.5132275223731995, -0.4409042298793793, -0.46446502208709717, -0.5713608264923096, 9.726091384887695, 0.7567992210388184, 1.7551214694976807, -0.22765929996967316, 0.9733537435531616, 0.18540863692760468, -0.783447265625, -0.08203125, 0.144775390625, 
245, 3332276261, 0.5132489204406738, -0.4408929944038391, -0.46442312002182007, -0.5713841915130615, 9.722895622253418, 0.7849386930465698, 1.7648638486862183, -0.10939839482307434, 1.0092391967773438, 0.2300030142068863, -0.785888671875, -0.084228515625, 0.142822265625, 
246, 3332284594, 0.5132958292961121, -0.44087058305740356, -0.4643975794315338, -0.5713801383972168, 9.695698738098145, 0.7771992683410645, 1.7638336420059204, -0.19000639021396637, 0.9210237860679626, 0.32362306118011475, -0.786376953125, -0.081787109375, 0.14111328125, 
247, 3332292927, 0.5133737921714783, -0.44082438945770264, -0.46439653635025024, -0.5713465809822083, 9.701272010803223, 0.7905822992324829, 1.766430377960205, -0.2694873511791229, 0.9025815725326538, 0.32687604427337646, -0.785400390625, -0.08203125, 0.14306640625, 
248, 3332301260, 0.5134099721908569, -0.4408150911331177, -0.4643622934818268, -0.571349024772644, 9.718231201171875, 0.8060967922210693, 1.7781682014465332, -0.4564456343650818, 0.8509176969528198, 0.33238309621810913, -0.7880859375, -0.0810546875, 0.14501953125, 
249, 3332309593, 0.5134391784667969, -0.44080036878585815, -0.4643312096595764, -0.5713594555854797, 9.701136589050293, 0.7959969639778137, 1.786200761795044, -0.7223213911056519, 0.8671314716339111, 0.1297745257616043, -0.786376953125, -0.081298828125, 0.14208984375, 
250, 3332317926, 0.5134515762329102, -0.4407954216003418, -0.4642946720123291, -0.5713818669319153, 9.69102954864502, 0.77882981300354, 1.773347020149231, -0.7776737809181213, 0.8020969033241272, 0.045682985335588455, -0.784423828125, -0.084228515625, 0.141845703125, 
251, 3332326259, 0.5134829878807068, -0.4407665729522705, -0.46428561210632324, -0.5713832378387451, 9.72424030303955, 0.7670780420303345, 1.75371253490448, -0.7447851300239563, 0.7526358366012573, -0.08634558320045471, -0.785400390625, -0.08154296875, 0.14306640625, 
252, 3332334592, 0.5134873986244202, -0.4407631456851959, -0.46425360441207886, -0.5714078545570374, 9.744467735290527, 0.7800461649894714, 1.7831679582595825, -0.8155316114425659, 0.720848560333252, -0.050383199006319046, -0.786376953125, -0.08203125, 0.1435546875, 
253, 3332342925, 0.5134832859039307, -0.4407697319984436, -0.4642155170440674, -0.5714374780654907, 9.804566383361816, 0.7707259654998779, 1.7847988605499268, -1.0794349908828735, 0.6651632189750671, -0.057170964777469635, -0.787353515625, -0.082275390625, 0.14111328125, 
254, 3332351258, 0.5134853720664978, -0.44076818227767944, -0.46417224407196045, -0.5714719891548157, 9.81749153137207, 0.7572149038314819, 1.7924811840057373, -0.9957020878791809, 0.8304006457328796, -0.05773448199033737, -0.785400390625, -0.082275390625, 0.140380859375, 
255, 3332359591, 0.513541579246521, -0.4407225251197815, -0.46416088938713074, -0.5714659094810486, 9.814180374145508, 0.7808254957199097, 1.7594847679138184, -1.0048720836639404, 0.971586287021637, -0.041904885321855545, -0.787841796875, -0.083251953125, 0.14306640625, 
256, 3332367924, 0.5135557651519775, -0.44069796800613403, -0.4641346335411072, -0.5714935064315796, 9.776241302490234, 0.7991728186607361, 1.7558298110961914, -0.581058919429779, 0.9266332983970642, -0.16423846781253815, -0.784912109375, -0.081298828125, 0.140625, 
257, 3332376257, 0.5135495662689209, -0.44069206714630127, -0.4641004800796509, -0.5715311765670776, 9.739246368408203, 0.8308385014533997, 1.794641137123108, -0.7920689582824707, 0.7887263298034668, -0.18967340886592865, -0.783447265625, -0.083251953125, 0.140869140625, 
258, 3332384590, 0.5135373473167419, -0.4406898617744446, -0.4640670418739319, -0.5715709924697876, 9.703725814819336, 0.8637272715568542, 1.797924280166626, -1.0313314199447632, 0.7056336998939514, -0.2715364992618561, -0.786376953125, -0.082763671875, 0.140869140625, 
259, 3332392923, 0.5135011672973633, -0.44069457054138184, -0.46403777599334717, -0.5716236233711243, 9.690629005432129, 0.8309452533721924, 1.7948986291885376, -0.868911623954773, 0.5895756483078003, -0.4460206627845764, -0.786865234375, -0.084228515625, 0.140380859375, 
260, 3332401256, 0.513489305973053, -0.44066816568374634, -0.464031845331192, -0.5716594457626343, 9.775818824768066, 0.849314272403717, 1.776859164237976, -0.6169444918632507, 0.6796865463256836, -0.5615409016609192, -0.788330078125, -0.081298828125, 0.1416015625, 
261, 3332409589, 0.5134987831115723, -0.4406043291091919, -0.46406012773513794, -0.5716772079467773, 10.013243675231934, 0.8519392609596252, 1.738541603088379, 0.36222365498542786, 0.7850122451782227, -0.6666616797447205, -0.787353515625, -0.082275390625, 0.14111328125, 
262, 3332417922, 0.5135447382926941, -0.4405076503753662, -0.4640885591506958, -0.5716873407363892, 10.37378215789795, 0.816969096660614, 1.735751748085022, 0.662909209728241, 1.2031903266906738, -0.5828519463539124, -0.787353515625, -0.083740234375, 0.142822265625, 
263, 3332426255, 0.513656735420227, -0.44036442041397095, -0.46410152316093445, -0.5716866254806519, 10.753637313842773, 0.826165497303009, 1.7220656871795654, 0.7242809534072876, 1.9998700618743896, -0.3015051782131195, -0.786865234375, -0.082763671875, 0.14306640625, 
264, 3332434588, 0.5138015151023865, -0.44022005796432495, -0.4640409052371979, -0.5717169046401978, 11.079732894897461, 0.9185048341751099, 1.7874425649642944, 0.7697718143463135, 2.960941791534424, 0.2864055633544922, -0.786376953125, -0.082763671875, 0.142822265625, 
265, 3332442921, 0.513925313949585, -0.44013968110084534, -0.46389612555503845, -0.5717850923538208, 11.341057777404785, 1.0332103967666626, 1.8704041242599487, -0.2113942801952362, 3.195158004760742, 0.8768904805183411, -0.786865234375, -0.083740234375, 0.139892578125, 
266, 3332451254, 0.5140272378921509, -0.44013845920562744, -0.4636186957359314, -0.571919322013855, 11.379472732543945, 1.1713382005691528, 1.9558355808258057, -2.8688714504241943, 3.7229654788970947, 1.4411977529525757, -0.786865234375, -0.082763671875, 0.1416015625, 
267, 3332459587, 0.5140247344970703, -0.4402642250061035, -0.4632169306278229, -0.5721502304077148, 11.210639953613281, 1.2625936269760132, 2.0724377632141113, -5.95269775390625, 3.5361862182617188, 1.5133788585662842, -0.785400390625, -0.084716796875, 0.139892578125, 
268, 3332467920, 0.5138794183731079, -0.4404929280281067, -0.46276551485061646, -0.5724700093269348, 11.103381156921387, 1.310153841972351, 2.1692657470703125, -8.5427827835083, 2.6906344890594482, 0.7022783160209656, -0.787841796875, -0.080810546875, 0.14208984375, 
269, 3332476253, 0.5136052370071411, -0.4407213032245636, -0.4622824788093567, -0.5729303359985352, 10.969143867492676, 1.2826324701309204, 2.215743064880371, -9.975797653198242, 2.9962382316589355, -1.0118649005889893, -0.786376953125, -0.082763671875, 0.1396484375, 
270, 3332484586, 0.5132685899734497, -0.4408523142337799, -0.4618738293647766, -0.5734604597091675, 10.800187110900879, 1.1860004663467407, 2.1854360103607178, -10.012554168701172, 3.2173917293548584, -3.1684300899505615, -0.787353515625, -0.08349609375, 0.137451171875, 
271, 3332492919, 0.5128687620162964, -0.44085952639579773, -0.4615734815597534, -0.5740542411804199, 10.737170219421387, 1.0123687982559204, 2.125764846801758, -8.134237289428711, 3.4941024780273438, -5.3654656410217285, -0.785888671875, -0.08544921875, 0.135986328125, 
272, 3332501252, 0.512556791305542, -0.44061774015426636, -0.46143001317977905, -0.5746335983276367, 10.678621292114258, 0.9057261347770691, 2.092911720275879, -5.453399181365967, 4.742898941040039, -7.296395778656006, -0.787353515625, -0.0859375, 0.135498046875, 
273, 3332509585, 0.5122802257537842, -0.440219908952713, -0.46140149235725403, -0.5752079486846924, 10.595501899719238, 0.8576110005378723, 2.0806190967559814, -2.7631359100341797, 5.402977466583252, -8.57462215423584, -0.786376953125, -0.08642578125, 0.137451171875, 
274, 3332517918, 0.5120952129364014, -0.43966883420944214, -0.46154606342315674, -0.5756779313087463, 10.768061637878418, 0.8650448322296143, 2.0689992904663086, 0.46670427918434143, 5.301852703094482, -9.227785110473633, -0.788818359375, -0.08740234375, 0.137451171875, 
275, 3332526251, 0.5120545625686646, -0.43890437483787537, -0.46181416511535645, -0.5760819911956787, 11.227781295776367, 0.9535694718360901, 2.019498348236084, 4.196342468261719, 6.645908832550049, -9.723062515258789, -0.786376953125, -0.088623046875, 0.13427734375, 
276, 3332534584, 0.5121721625328064, -0.43790942430496216, -0.4620707631111145, -0.5765287280082703, 11.714340209960938, 1.0182294845581055, 1.9404963254928589, 6.454365253448486, 9.80821704864502, -10.163858413696289, -0.78466796875, -0.09033203125, 0.1298828125, 
277, 3332542917, 0.5124733448028564, -0.4367285370826721, -0.46232420206069946, -0.5769537687301636, 12.407849311828613, 1.0130797624588013, 1.915793538093567, 7.402708530426025, 12.221670150756836, -10.033945083618164, -0.786376953125, -0.090087890625, 0.13330078125, 
278, 3332551250, 0.5128446817398071, -0.4354943037033081, -0.4625036120414734, -0.5774125456809998, 13.267152786254883, 1.0187612771987915, 1.9180843830108643, 8.977547645568848, 13.933673858642578, -9.296278953552246, -0.7861328125, -0.091552734375, 0.1328125, 
279, 3332559583, 0.5133914947509766, -0.4340943694114685, -0.46255940198898315, -0.5779359340667725, 13.873490333557129, 1.1718850135803223, 1.8907127380371094, 9.512734413146973, 17.612140655517578, -8.721343994140625, -0.78662109375, -0.091796875, 0.12939453125, 
280, 3332567916, 0.5139708518981934, -0.43268489837646484, -0.46232694387435913, -0.5786635875701904, 14.026531219482422, 1.437537431716919, 1.9006786346435547, 6.475704193115234, 21.161865234375, -8.193561553955078, -0.78662109375, -0.0927734375, 0.126953125, 
281, 3332576249, 0.5144246816635132, -0.4313886761665344, -0.4618585407733917, -0.5796011090278625, 13.85909366607666, 1.7920379638671875, 1.914386510848999, 2.432751417160034, 22.456613540649414, -8.389793395996094, -0.78662109375, -0.093505859375, 0.12548828125, 
282, 3332584582, 0.5147960782051086, -0.4301062524318695, -0.4612162709236145, -0.58073490858078, 13.436507225036621, 2.1460978984832764, 1.8144903182983398, -1.5035821199417114, 24.141263961791992, -9.47924518585205, -0.7861328125, -0.09619140625, 0.121826171875, 
283, 3332592915, 0.5149778723716736, -0.42890265583992004, -0.4602160155773163, -0.582255482673645, 12.682373046875, 2.4182217121124268, 1.8462092876434326, -7.745339870452881, 27.214515686035156, -10.936747550964355, -0.78662109375, -0.094970703125, 0.114990234375, 
284, 3332601248, 0.5148400068283081, -0.427869975566864, -0.4589684009552002, -0.5841190814971924, 11.613306999206543, 2.4135146141052246, 2.1461405754089355, -15.741934776306152, 27.514877319335938, -13.561009407043457, -0.787109375, -0.098388671875, 0.115478515625, 
285, 3332609581, 0.5142748355865479, -0.4269968867301941, -0.45774126052856445, -0.5862149000167847, 10.732014656066895, 2.1402180194854736, 2.4729549884796143, -21.274389266967773, 24.716550827026367, -17.874021530151367, -0.78955078125, -0.09912109375, 0.112060546875, 
286, 3332617914, 0.5133829712867737, -0.42612478137016296, -0.4566226005554199, -0.5884993076324463, 10.165796279907227, 1.7900986671447754, 2.685746669769287, -22.925947189331055, 23.03394889831543, -22.350624084472656, -0.786376953125, -0.103759765625, 0.10693359375, 
287, 3332626247, 0.5124062299728394, -0.4250216484069824, -0.45571237802505493, -0.590848982334137, 10.017378807067871, 1.466513752937317, 2.7116222381591797, -20.613264083862305, 23.284513473510742, -26.1762752532959, -0.786376953125, -0.10595703125, 0.103759765625, 
288, 3332634580, 0.5115249156951904, -0.4235187768936157, -0.4549797773361206, -0.5932515263557434, 10.027410507202148, 1.2022212743759155, 2.634896755218506, -16.02777099609375, 26.184280395507812, -29.310462951660156, -0.785400390625, -0.109130859375, 0.099609375, 
289, 3332642913, 0.5108765363693237, -0.4215141236782074, -0.45441797375679016, -0.5956637859344482, 9.95681095123291, 0.9936398863792419, 2.5669920444488525, -10.371376991271973, 30.54412078857422, -31.732894897460938, -0.788818359375, -0.11474609375, 0.0947265625, 
290, 3332651246, 0.5103467702865601, -0.41914016008377075, -0.4539242088794708, -0.5981643199920654, 9.25327205657959, 0.8318090438842773, 2.5027058124542236, -6.520885467529297, 34.38888168334961, -33.96441650390625, -0.787109375, -0.117431640625, 0.091552734375, 
291, 3332659579, 0.5098604559898376, -0.41661787033081055, -0.45356860756874084, -0.6006056070327759, 8.289409637451172, 0.8318287134170532, 2.5331368446350098, -2.964008331298828, 34.67443084716797, -34.69870376586914, -0.78564453125, -0.12158203125, 0.08642578125, 
292, 3332667912, 0.5094863176345825, -0.4139638841152191, -0.4534930884838104, -0.602811336517334, 7.941169738769531, 0.8618664145469666, 2.6572751998901367, 1.6265454292297363, 33.0433349609375, -34.76070785522461, -0.785888671875, -0.126708984375, 0.081298828125, 
293, 3332676245, 0.5091447234153748, -0.4112301468849182, -0.45357054471969604, -0.6049091815948486, 8.32734489440918, 0.9299346208572388, 2.7841103076934814, 4.309180736541748, 32.23551559448242, -35.0850944519043, -0.783447265625, -0.132080078125, 0.07421875, 
294, 3332684578, 0.5088591575622559, -0.4083746075630188, -0.4536455571651459, -0.6070241332054138, 8.567408561706543, 1.0588029623031616, 2.708881378173828, 5.353322505950928, 33.698402404785156, -35.50314712524414, -0.781982421875, -0.134033203125, 0.0751953125, 
295, 3332692911, 0.5086556077003479, -0.4053425192832947, -0.4536265730857849, -0.6092370748519897, 8.222393989562988, 1.266592025756836, 2.6007468700408936, 5.654163837432861, 36.902706146240234, -36.0602912902832, -0.78271484375, -0.1416015625, 0.0693359375, 
296, 3332701244, 0.5083968043327332, -0.40231266617774963, -0.45357653498649597, -0.6114946007728577, 7.697745323181152, 1.3916497230529785, 2.6170480251312256, 4.790399074554443, 36.995765686035156, -36.66468811035156, -0.78125, -0.14501953125, 0.062744140625, 
297, 3332709577, 0.5079393982887268, -0.39946824312210083, -0.45341169834136963, -0.6138570308685303, 7.602616786956787, 1.3932818174362183, 2.756666660308838, 0.7767150402069092, 35.58968734741211, -37.25916290283203, -0.780029296875, -0.149169921875, 0.057861328125, 
298, 3332717910, 0.5072692632675171, -0.3968952000141144, -0.45300889015197754, -0.6163724660873413, 7.924504280090332, 1.2763066291809082, 2.875835418701172, -5.25221061706543, 34.46501922607422, -37.142086029052734, -0.779541015625, -0.1533203125, 0.05322265625, 
299, 3332726243, 0.5064387321472168, -0.39448559284210205, -0.45236721634864807, -0.6190675497055054, 8.595288276672363, 1.0908766984939575, 2.9549572467803955, -10.41085433959961, 34.73788833618164, -37.4170036315918, -0.77783203125, -0.158447265625, 0.049560546875, 
300, 3332734576, 0.5055930614471436, -0.3920804262161255, -0.45155519247055054, -0.621873140335083, 9.295926094055176, 0.7877206802368164, 2.9288077354431152, -12.661276817321777, 36.38067626953125, -37.37915802001953, -0.77734375, -0.16259765625, 0.04443359375, 
301, 3332742909, 0.5049533843994141, -0.38951659202575684, -0.45068755745887756, -0.6246275901794434, 9.81513786315918, 0.46860504150390625, 2.909783124923706, -10.60539722442627, 39.137596130371094, -35.9318962097168, -0.777099609375, -0.168701171875, 0.040283203125, 
302, 3332751242, 0.5044768452644348, -0.38678470253944397, -0.4498622715473175, -0.6272993087768555, 9.687440872192383, 0.3945859670639038, 3.001340866088867, -7.686542987823486, 40.844390869140625, -35.23991775512695, -0.774658203125, -0.172607421875, 0.03369140625, 
303, 3332759575, 0.5041425824165344, -0.38402438163757324, -0.44915178418159485, -0.6297683715820312, 8.98755168914795, 0.6675511002540588, 3.075275182723999, -4.492363452911377, 40.10523986816406, -33.38208770751953, -0.77294921875, -0.17578125, 0.026123046875, 
304, 3332767908, 0.5039925575256348, -0.38135701417922974, -0.4486350119113922, -0.6318742036819458, 8.45832347869873, 1.1768171787261963, 3.15557861328125, -0.23877637088298798, 37.16716003417969, -29.727787017822266, -0.77294921875, -0.1796875, 0.0205078125, 
305, 3332776241, 0.5039620399475098, -0.3787471055984497, -0.44826897978782654, -0.6337251663208008, 8.395599365234375, 1.4859611988067627, 3.2847230434417725, 2.8672497272491455, 35.033355712890625, -27.350492477416992, -0.769287109375, -0.185546875, 0.020263671875, 
306, 3332784574, 0.5041213631629944, -0.37596291303634644, -0.44800540804862976, -0.6354404091835022, 8.670419692993164, 1.4156466722488403, 3.223694324493408, 6.798709392547607, 36.29611587524414, -26.371084213256836, -0.770263671875, -0.188720703125, 0.01318359375, 
307, 3332792907, 0.5044646263122559, -0.37286117672920227, -0.4480239152908325, -0.6369807124137878, 8.742120742797852, 1.142991304397583, 3.084606170654297, 13.490775108337402, 37.350711822509766, -26.959239959716797, -0.770263671875, -0.19091796875, 0.00927734375, 
308, 3332801240, 0.5049659013748169, -0.3694850504398346, -0.44846993684768677, -0.6382358074188232, 8.381397247314453, 1.0718886852264404, 2.929882526397705, 21.70779037475586, 36.293514251708984, -27.48705291748047, -0.769287109375, -0.193603515625, 0.005126953125, 
309, 3332809573, 0.5056751370429993, -0.36596718430519104, -0.4493490159511566, -0.639082133769989, 7.8924784660339355, 1.3055998086929321, 2.870220184326172, 30.070167541503906, 33.74141311645508, -25.892288208007812, -0.767578125, -0.19775390625, 0.001953125, 
310, 3332817906, 0.5064590573310852, -0.36257970333099365, -0.4504525661468506, -0.6396151781082153, 7.553686141967773, 1.7684297561645508, 3.1198575496673584, 33.44912338256836, 29.91335678100586, -23.385923385620117, -0.76513671875, -0.2001953125, -0.00048828125, 
311, 3332826239, 0.5072407126426697, -0.35943853855133057, -0.4515252113342285, -0.6400122046470642, 7.4533467292785645, 2.2498910427093506, 3.2929162979125977, 32.29186248779297, 27.2772274017334, -20.771493911743164, -0.765625, -0.199951171875, -0.00244140625, 
312, 3332834572, 0.5080611705780029, -0.35649141669273376, -0.4524083137512207, -0.6403861045837402, 7.559946060180664, 2.5674989223480225, 3.2698662281036377, 29.605554580688477, 27.010726928710938, -18.136625289916992, -0.763916015625, -0.205322265625, -0.0048828125, 
313, 3332842905, 0.5088428258895874, -0.35373619198799133, -0.453092098236084, -0.6408097147941589, 7.582293510437012, 2.5290961265563965, 3.1229398250579834, 26.022037506103516, 26.724637985229492, -16.640029907226562, -0.762451171875, -0.2080078125, -0.0087890625, 
314, 3332851238, 0.5095603466033936, -0.35107165575027466, -0.4537201225757599, -0.6412604451179504, 7.602320194244385, 2.095714569091797, 2.935675859451294, 24.403573989868164, 26.038816452026367, -16.57217788696289, -0.761474609375, -0.208984375, -0.009033203125, 
315, 3332859571, 0.5101234316825867, -0.3484862446784973, -0.4545819163322449, -0.6416123509407043, 7.64168119430542, 1.673553228378296, 2.7074661254882812, 25.7817440032959, 22.266801834106445, -17.86661720275879, -0.763427734375, -0.212158203125, -0.011962890625, 
316, 3332867904, 0.5106383562088013, -0.3458181619644165, -0.4557890295982361, -0.6417899131774902, 7.798489570617676, 1.4090933799743652, 2.378392219543457, 30.267349243164062, 19.43430519104004, -19.249919891357422, -0.76025390625, -0.212890625, -0.013916015625, 
317, 3332876237, 0.5111265182495117, -0.3429166078567505, -0.45735010504722595, -0.6418478488922119, 7.759222984313965, 1.4457921981811523, 2.0799291133880615, 35.65266036987305, 18.27751922607422, -21.78384780883789, -0.76025390625, -0.2158203125, -0.01513671875, 
318, 3332884570, 0.5115442276000977, -0.3399335741996765, -0.4591609239578247, -0.6418088674545288, 7.328092098236084, 1.7206896543502808, 1.8620975017547607, 38.70842361450195, 16.33542251586914, -23.421524047851562, -0.75732421875, -0.21875, -0.013427734375, 
319, 3332892903, 0.5118800401687622, -0.3371199667453766, -0.46101340651512146, -0.641697347164154, 6.935844898223877, 2.216841220855713, 1.9805816411972046, 37.95771408081055, 13.698248863220215, -22.753856658935547, -0.75830078125, -0.22216796875, -0.013916015625, 
320, 3332901236, 0.5120925307273865, -0.3347630798816681, -0.4625205099582672, -0.6416771411895752, 6.825870990753174, 2.804457902908325, 2.37945818901062, 30.545589447021484, 11.733933448791504, -19.99477767944336, -0.757568359375, -0.224365234375, -0.01123046875, 
321, 3332909569, 0.512105405330658, -0.33305326104164124, -0.4632769525051117, -0.6420108675956726, 7.031447887420654, 3.216967821121216, 2.8068974018096924, 16.193904876708984, 11.679112434387207, -16.668292999267578, -0.755126953125, -0.22705078125, -0.015869140625, 
322, 3332917902, 0.5117630362510681, -0.3321085572242737, -0.46307966113090515, -0.6429150104522705, 7.488884449005127, 3.0619537830352783, 3.119351387023926, -2.874506711959839, 11.978717803955078, -14.589359283447266, -0.754150390625, -0.230712890625, -0.017822265625, 
323, 3332926235, 0.5110670328140259, -0.33169347047805786, -0.46220648288726807, -0.6443095207214355, 8.086280822753906, 2.4151060581207275, 3.0392448902130127, -17.317638397216797, 12.051311492919922, -14.69397258758545, -0.752685546875, -0.227783203125, -0.017822265625, 
324, 3332934568, 0.5102016925811768, -0.3314621150493622, -0.4611356258392334, -0.6458798050880432, 8.505446434020996, 1.6223504543304443, 2.815804958343506, -22.245849609375, 11.526555061340332, -15.373470306396484, -0.752685546875, -0.229736328125, -0.019287109375, 
325, 3332942901, 0.5092713236808777, -0.3312970995903015, -0.4603092670440674, -0.6472867131233215, 8.425764083862305, 1.1985009908676147, 2.8037891387939453, -19.80586051940918, 8.075777053833008, -15.486886978149414, -0.7509765625, -0.232666015625, -0.0205078125, 
326, 3332951234, 0.508360743522644, -0.3311423361301422, -0.4599699378013611, -0.6483221054077148, 8.22961139678955, 1.0511761903762817, 3.044018268585205, -13.096896171569824, 2.997058629989624, -14.874038696289062, -0.7509765625, -0.23681640625, -0.024658203125, 
327, 3332959567, 0.5075716972351074, -0.3309497833251953, -0.46003860235214233, -0.6489896774291992, 8.094976425170898, 1.3642727136611938, 3.227633237838745, -6.318596839904785, -0.41464322805404663, -13.309464454650879, -0.75, -0.237060546875, -0.027099609375, 
328, 3332967900, 0.5070556998252869, -0.33059176802635193, -0.46033546328544617, -0.6493648290634155, 7.988869667053223, 1.935479998588562, 3.371234655380249, -0.03096761368215084, -0.14472045004367828, -10.923089027404785, -0.75, -0.23974609375, -0.023681640625, 
329, 3332976233, 0.506870448589325, -0.33005765080451965, -0.4606432020664215, -0.6495629549026489, 7.855717182159424, 2.418303966522217, 3.480348587036133, 3.913663387298584, 2.6505229473114014, -7.894487380981445, -0.7490234375, -0.239013671875, -0.026611328125, 
330, 3332984566, 0.5069286823272705, -0.32948583364486694, -0.4607750177383423, -0.6497142910957336, 7.768553733825684, 2.6312203407287598, 3.7672102451324463, 4.012380123138428, 5.534992218017578, -4.838016986846924, -0.75, -0.241455078125, -0.02490234375, 
331, 3332992899, 0.5069090723991394, -0.32918816804885864, -0.4607768952846527, -0.649878978729248, 7.79827880859375, 2.7079055309295654, 3.7963247299194336, 0.5002588033676147, 3.56551456451416, -3.294887065887451, -0.74951171875, -0.24267578125, -0.0234375, 
332, 3333001232, 0.5065845251083374, -0.32919788360595703, -0.46084004640579224, -0.6500823497772217, 7.945710182189941, 2.4824631214141846, 3.6461126804351807, -2.719386339187622, -1.3733583688735962, -4.627416133880615, -0.75, -0.242919921875, -0.02490234375, 
333, 3333009565, 0.5059743523597717, -0.3293764889240265, -0.46091681718826294, -0.6504126191139221, 7.8719377517700195, 2.0009164810180664, 3.6210734844207764, -5.873856544494629, -4.207189559936523, -7.048192501068115, -0.748046875, -0.2412109375, -0.0244140625, 
334, 3333017898, 0.5050650835037231, -0.32968732714653015, -0.4612142741680145, -0.6507508754730225, 7.60040283203125, 1.8343863487243652, 3.5065932273864746, -6.2229533195495605, -8.790397644042969, -9.946649551391602, -0.749755859375, -0.245849609375, -0.023681640625, 
335, 3333026231, 0.5040332674980164, -0.3300233781337738, -0.46169400215148926, -0.6510404348373413, 7.385865211486816, 1.9325153827667236, 3.4454312324523926, -5.0142693519592285, -11.27392864227295, -11.365139961242676, -0.747802734375, -0.2431640625, -0.0224609375, 
336, 3333034564, 0.503122091293335, -0.330294132232666, -0.4622529149055481, -0.6512112617492676, 7.341484546661377, 2.029831647872925, 3.452305793762207, -2.550589084625244, -11.018067359924316, -10.242980003356934, -0.745361328125, -0.2470703125, -0.021728515625, 
337, 3333042897, 0.502409040927887, -0.33048000931739807, -0.46279963850975037, -0.6512789726257324, 7.370638370513916, 2.2261807918548584, 3.3267104625701904, -0.5197897553443909, -9.378320693969727, -8.23459529876709, -0.745361328125, -0.24755859375, -0.022705078125, 
338, 3333051230, 0.5018218755722046, -0.3307293951511383, -0.46320316195487976, -0.6513183116912842, 7.573905944824219, 2.404715061187744, 3.184157133102417, -1.483704686164856, -8.289997100830078, -5.860896110534668, -0.746337890625, -0.25, -0.02099609375, 
339, 3333059563, 0.5013912916183472, -0.3310622274875641, -0.4633885324001312, -0.651348888874054, 8.026217460632324, 2.4931249618530273, 3.174680471420288, -3.24737286567688, -6.570307731628418, -2.867206573486328, -0.745361328125, -0.25146484375, -0.0185546875, 
340, 3333067896, 0.5011148452758789, -0.33148616552352905, -0.4633674621582031, -0.6513611078262329, 8.667130470275879, 2.395575761795044, 3.340705633163452, -4.906252384185791, -5.068390846252441, 0.15292976796627045, -0.745361328125, -0.248291015625, -0.015869140625, 
341, 3333076229, 0.5009909272193909, -0.3319951891899109, -0.46311527490615845, -0.651376485824585, 9.162028312683105, 2.282522439956665, 3.3430354595184326, -6.889716625213623, -3.246117353439331, 3.0985665321350098, -0.743896484375, -0.247802734375, -0.01806640625, 
342, 3333084562, 0.5010268688201904, -0.3325396180152893, -0.46268928050994873, -0.6513740420341492, 9.224696159362793, 2.1774942874908447, 3.334157705307007, -7.842155933380127, -1.4347813129425049, 5.668340682983398, -0.744873046875, -0.250244140625, -0.0166015625, 
343, 3333092895, 0.5011591911315918, -0.3331352472305298, -0.4622378647327423, -0.6512882709503174, 9.31266975402832, 2.0991299152374268, 3.3102564811706543, -7.457252502441406, -1.481399416923523, 7.549989700317383, -0.744873046875, -0.247802734375, -0.017333984375, 
344, 3333101228, 0.5013659596443176, -0.3337026834487915, -0.4618162214756012, -0.6511378884315491, 9.565796852111816, 2.299969434738159, 3.2608683109283447, -6.240960121154785, -1.2609889507293701, 8.34349250793457, -0.746826171875, -0.246826171875, -0.017822265625, 
345, 3333109561, 0.5016518831253052, -0.3342065215110779, -0.4615132212638855, -0.6508737206459045, 9.8051118850708, 2.6728017330169678, 3.215632438659668, -3.656816244125366, -1.5242518186569214, 8.889431953430176, -0.744873046875, -0.244873046875, -0.019775390625, 
346, 3333117894, 0.5019965171813965, -0.3345995843410492, -0.4613238275051117, -0.6505403518676758, 9.765859603881836, 3.0437252521514893, 3.161194324493408, -1.1644229888916016, -1.2668544054031372, 8.665897369384766, -0.747314453125, -0.248779296875, -0.017822265625, 
347, 3333126227, 0.502241849899292, -0.33504849672317505, -0.4612216651439667, -0.650192379951477, 9.403952598571777, 3.291609764099121, 3.162560224533081, -1.138014793395996, -3.0593385696411133, 7.833511829376221, -0.747802734375, -0.244384765625, -0.01708984375, 
348, 3333134560, 0.5023378729820251, -0.3355887532234192, -0.46117103099823, -0.6498754620552063, 9.08672046661377, 3.363856077194214, 3.164651870727539, -2.1878912448883057, -5.041854381561279, 6.625596523284912, -0.746337890625, -0.243408203125, -0.01708984375, 
349, 3333142893, 0.5023974776268005, -0.3361576199531555, -0.46110641956329346, -0.6495810747146606, 8.853249549865723, 3.4181270599365234, 3.3074023723602295, -2.824737787246704, -5.321767330169678, 6.39340353012085, -0.74853515625, -0.241455078125, -0.0166015625, 
350, 3333151226, 0.5024423003196716, -0.3367519974708557, -0.46098342537879944, -0.6493259072303772, 8.737207412719727, 3.491097927093506, 3.50323748588562, -3.8357317447662354, -5.065496921539307, 6.4153289794921875, -0.7490234375, -0.240478515625, -0.015625, 
351, 3333159559, 0.5024707913398743, -0.33735430240631104, -0.4607725739479065, -0.6491407752037048, 8.860099792480469, 3.4125633239746094, 3.759474515914917, -5.200279235839844, -4.299119472503662, 6.251347064971924, -0.74853515625, -0.240966796875, -0.01611328125, 
352, 3333167892, 0.5025521516799927, -0.3378064036369324, -0.46050775051116943, -0.6490306854248047, 9.240497589111328, 3.312778949737549, 3.79996919631958, -4.870316982269287, -1.9112833738327026, 5.497288703918457, -0.74853515625, -0.23876953125, -0.014404296875, 
353, 3333176225, 0.5025650858879089, -0.3381831645965576, -0.46025216579437256, -0.6490055918693542, 9.379563331604004, 3.13399076461792, 3.7502541542053223, -5.125484466552734, -1.3341172933578491, 3.788306951522827, -0.74951171875, -0.23828125, -0.014404296875, 
354, 3333184558, 0.5023701786994934, -0.33860793709754944, -0.46002525091171265, -0.649095892906189, 9.402714729309082, 2.78997802734375, 3.8864312171936035, -6.896453380584717, -2.7463581562042236, 1.2951709032058716, -0.74951171875, -0.23828125, -0.014892578125, 
355, 3333192891, 0.5019993782043457, -0.33901435136795044, -0.46003833413124084, -0.6491615176200867, 9.242883682250977, 2.363567590713501, 3.9527132511138916, -5.2906718254089355, -5.462723255157471, -1.3280982971191406, -0.75048828125, -0.239013671875, -0.017822265625, 
356, 3333201224, 0.5016204118728638, -0.3392260670661926, -0.4605157971382141, -0.6490052938461304, 8.960624694824219, 2.0131232738494873, 3.8428993225097656, 1.5639413595199585, -8.022737503051758, -3.2751386165618896, -0.75048828125, -0.240234375, -0.013916015625, 
357, 3333209557, 0.5013817548751831, -0.33912962675094604, -0.46144354343414307, -0.64858078956604, 8.656256675720215, 1.969491958618164, 3.6662096977233887, 10.062439918518066, -8.73427677154541, -4.21566915512085, -0.748046875, -0.23779296875, -0.013427734375, 
358, 3333217890, 0.5014092326164246, -0.3386825919151306, -0.46261066198349, -0.6479616165161133, 8.428744316101074, 2.0738167762756348, 3.552764654159546, 17.09096336364746, -6.484425067901611, -3.847566843032837, -0.74658203125, -0.24169921875, -0.01025390625, 
359, 3333226223, 0.5017035603523254, -0.33801183104515076, -0.463839054107666, -0.6472054123878479, 8.235777854919434, 2.299316883087158, 3.400646686553955, 21.29559326171875, -3.8471314907073975, -2.22772216796875, -0.7490234375, -0.2412109375, -0.01123046875, 
360, 3333234556, 0.502230703830719, -0.33722108602523804, -0.46504294872283936, -0.6463446617126465, 8.224333763122559, 2.6169815063476562, 3.1364457607269287, 23.65395164489746, -1.6174372434616089, -0.0931590124964714, -0.75146484375, -0.238525390625, -0.007080078125, 
361, 3333242889, 0.5029370784759521, -0.3364326059818268, -0.4660641849040985, -0.6454697847366333, 8.265666007995605, 2.855928897857666, 2.8556625843048096, 22.934240341186523, 0.7115253806114197, 2.4666903018951416, -0.748046875, -0.240966796875, -0.005859375, 
362, 3333251222, 0.5036765933036804, -0.33581244945526123, -0.4668077826499939, -0.6446785926818848, 8.11256217956543, 2.944796562194824, 2.7404022216796875, 18.92348289489746, 1.7317662239074707, 4.537985801696777, -0.74755859375, -0.240234375, -0.00439453125, 
363, 3333259555, 0.5042021870613098, -0.33560776710510254, -0.4672671854496002, -0.6440409421920776, 7.980294227600098, 2.9159953594207764, 2.75434947013855, 11.551472663879395, -0.6434810161590576, 5.563604831695557, -0.74853515625, -0.239501953125, -0.005126953125, 
364, 3333267888, 0.5043947696685791, -0.3359115421772003, -0.4674719572067261, -0.6435830593109131, 7.996798992156982, 2.719627618789673, 2.751776695251465, 3.0814316272735596, -4.696832180023193, 5.804225444793701, -0.7490234375, -0.240234375, -0.00390625, 
365, 3333276221, 0.5042721033096313, -0.33663129806518555, -0.4674631357192993, -0.6433094143867493, 8.107012748718262, 2.5452418327331543, 2.695530414581299, -4.33615779876709, -8.06556510925293, 5.406154155731201, -0.75146484375, -0.23681640625, -0.003662109375, 
366, 3333284554, 0.5038918852806091, -0.3376234471797943, -0.46733710169792175, -0.6431790590286255, 8.048042297363281, 2.3383116722106934, 2.636150598526001, -9.374914169311523, -10.661417007446289, 4.418956279754639, -0.75048828125, -0.23974609375, -0.003173828125, 
367, 3333292887, 0.5033619403839111, -0.3388153910636902, -0.4671972393989563, -0.6430686712265015, 7.768531799316406, 2.2112417221069336, 2.6294000148773193, -11.705350875854492, -13.19589614868164, 4.3131184577941895, -0.75, -0.23779296875, -0.000244140625, 
368, 3333301220, 0.5028069019317627, -0.3401413559913635, -0.46708497405052185, -0.6428845524787903, 7.38902473449707, 2.2996745109558105, 2.652390480041504, -12.033622741699219, -15.081716537475586, 5.325572967529297, -0.7509765625, -0.236572265625, 0.003662109375, 
369, 3333309553, 0.5022599101066589, -0.3415873050689697, -0.46697214245796204, -0.6426272988319397, 6.977818012237549, 2.501500368118286, 2.629443883895874, -12.361485481262207, -16.42323875427246, 6.6845622062683105, -0.752197265625, -0.236083984375, 0.0029296875, 
370, 3333317886, 0.5016964077949524, -0.3431684076786041, -0.4668203592300415, -0.6423354148864746, 6.581474304199219, 2.6762187480926514, 2.6126487255096436, -13.490869522094727, -17.624725341796875, 7.8191962242126465, -0.75, -0.237548828125, 0.002685546875, 
371, 3333326219, 0.5010730624198914, -0.34491658210754395, -0.4666574001312256, -0.6420039534568787, 6.548849105834961, 2.6921944618225098, 2.591135263442993, -14.774889945983887, -19.58580780029297, 8.700098037719727, -0.749755859375, -0.23291015625, 0.0048828125, 
372, 3333334552, 0.5004196763038635, -0.34680241346359253, -0.46637260913848877, -0.6417045593261719, 7.070584774017334, 2.6241021156311035, 2.568364143371582, -17.143798828125, -20.010955810546875, 9.664090156555176, -0.752685546875, -0.23291015625, 0.0048828125, 
373, 3333342885, 0.49971693754196167, -0.34886568784713745, -0.4657965302467346, -0.6415520906448364, 7.9645915031433105, 2.5645830631256104, 2.692821741104126, -22.116756439208984, -19.180057525634766, 10.759023666381836, -0.750244140625, -0.231689453125, 0.00927734375, 
374, 3333351218, 0.49887025356292725, -0.35124197602272034, -0.4647792875766754, -0.6416521668434143, 8.750054359436035, 2.393397808074951, 2.7434120178222656, -30.46347999572754, -18.628435134887695, 11.859954833984375, -0.753173828125, -0.23046875, 0.008544921875, 
375, 3333359551, 0.4977264404296875, -0.3540269732475281, -0.4633980095386505, -0.6420090198516846, 9.040570259094238, 2.1403534412384033, 2.67879581451416, -39.55713653564453, -20.388381958007812, 11.861936569213867, -0.751220703125, -0.2294921875, 0.008056640625, 
376, 3333367884, 0.49627214670181274, -0.3571835458278656, -0.46193209290504456, -0.6424424648284912, 8.926005363464355, 2.072053909301758, 2.7201285362243652, -44.84712600708008, -24.701915740966797, 11.363462448120117, -0.753662109375, -0.227783203125, 0.009521484375, 
377, 3333376217, 0.4945337474346161, -0.36060240864753723, -0.46062466502189636, -0.6428117752075195, 8.606914520263672, 2.1886274814605713, 2.8543014526367188, -46.22782897949219, -30.213584899902344, 10.19061279296875, -0.754150390625, -0.228759765625, 0.010986328125, 
378, 3333384550, 0.4925633370876312, -0.3642217516899109, -0.45942264795303345, -0.6431443691253662, 8.125288963317871, 2.1604177951812744, 3.113980531692505, -47.576927185058594, -34.361167907714844, 9.123985290527344, -0.753173828125, -0.22607421875, 0.013671875, 
379, 3333392883, 0.4903934895992279, -0.3680490553379059, -0.45823684334754944, -0.6434695720672607, 7.591983318328857, 1.8726308345794678, 3.3892643451690674, -49.79303741455078, -37.600311279296875, 8.65734577178955, -0.754150390625, -0.22705078125, 0.015869140625, 
380, 3333401216, 0.488056480884552, -0.3719770610332489, -0.45719262957572937, -0.6437304615974426, 7.047618865966797, 1.5579043626785278, 3.466710090637207, -49.6611328125, -40.832183837890625, 7.515282154083252, -0.75537109375, -0.2275390625, 0.0166015625, 
381, 3333409549, 0.48572635650634766, -0.3758377134799957, -0.45634207129478455, -0.6438536643981934, 6.799875259399414, 1.197251796722412, 3.393317937850952, -46.592689514160156, -42.19345474243164, 7.098484516143799, -0.75341796875, -0.225830078125, 0.021484375, 
382, 3333417882, 0.48369988799095154, -0.3792816698551178, -0.45577383041381836, -0.6437622904777527, 6.910918712615967, 0.803350567817688, 3.1890485286712646, -38.39374542236328, -39.5960807800293, 7.135542869567871, -0.7568359375, -0.225830078125, 0.02197265625, 
383, 3333426215, 0.48236823081970215, -0.3819645047187805, -0.45565229654312134, -0.643261194229126, 7.353219509124756, 0.47353020310401917, 2.990272283554077, -23.18143081665039, -33.6097412109375, 8.922591209411621, -0.75390625, -0.224609375, 0.02783203125, 
384, 3333434548, 0.481712281703949, -0.38401851058006287, -0.45602425932884216, -0.6422653794288635, 8.21452808380127, 0.25091397762298584, 2.7482285499572754, -7.997693061828613, -29.689151763916016, 11.636210441589355, -0.75390625, -0.222412109375, 0.02978515625, 
385, 3333442881, 0.4815232753753662, -0.3857231140136719, -0.45668715238571167, -0.6409133672714233, 9.055204391479492, 0.5422279834747314, 2.359778881072998, 1.5873794555664062, -27.48076629638672, 14.399961471557617, -0.75732421875, -0.22216796875, 0.036865234375, 
386, 3333451214, 0.48170205950737, -0.3872905969619751, -0.4573703408241272, -0.6393445134162903, 9.825270652770996, 1.1011579036712646, 1.8917030096054077, 5.986755847930908, -25.249969482421875, 18.10089111328125, -0.7568359375, -0.219482421875, 0.037841796875, 
387, 3333459547, 0.48209482431411743, -0.38888680934906006, -0.4576514959335327, -0.6378767490386963, 10.24241828918457, 1.8105194568634033, 1.6260673999786377, 2.764354705810547, -20.949953079223633, 21.640628814697266, -0.754638671875, -0.217041015625, 0.040283203125, 
388, 3333467880, 0.48235952854156494, -0.39097529649734497, -0.45721742510795593, -0.6367099285125732, 10.074234962463379, 2.675006151199341, 1.6560226678848267, -9.35207462310791, -19.726924896240234, 25.43791961669922, -0.759033203125, -0.212890625, 0.045166015625, 
389, 3333476213, 0.48209601640701294, -0.39396563172340393, -0.45607948303222656, -0.6358819007873535, 9.799762725830078, 3.2464842796325684, 1.8468190431594849, -26.467649459838867, -24.44734764099121, 28.027265548706055, -0.757568359375, -0.2138671875, 0.04443359375, 
390, 3333484546, 0.48109933733940125, -0.397786408662796, -0.4544614553451538, -0.6354165077209473, 9.644157409667969, 3.3143486976623535, 2.1742398738861084, -42.417999267578125, -31.166912078857422, 27.01617431640625, -0.7607421875, -0.208984375, 0.0458984375, 
391, 3333492879, 0.4793051481246948, -0.4021852910518646, -0.45253947377204895, -0.6353749632835388, 9.352315902709961, 2.875903367996216, 2.2552289962768555, -55.91133117675781, -36.86483383178711, 22.526702880859375, -0.7607421875, -0.20751953125, 0.05078125, 
392, 3333501212, 0.47711998224258423, -0.4065682590007782, -0.4508928060531616, -0.6354010105133057, 9.122162818908691, 2.3129827976226807, 2.2729413509368896, -55.98322677612305, -40.607276916503906, 17.036373138427734, -0.759765625, -0.20458984375, 0.0537109375, 
393, 3333509545, 0.474982351064682, -0.4105065166950226, -0.44985097646713257, -0.6352086663246155, 9.343032836914062, 1.6647804975509644, 2.354203701019287, -46.16096115112305, -41.60837173461914, 12.7535400390625, -0.7607421875, -0.201904296875, 0.056396484375, 
394, 3333517878, 0.47309616208076477, -0.41393834352493286, -0.44926178455352783, -0.6348063945770264, 9.764652252197266, 1.2242735624313354, 2.4601383209228516, -36.18041229248047, -39.77875518798828, 10.624927520751953, -0.7626953125, -0.200927734375, 0.058349609375, 
395, 3333526211, 0.47164687514305115, -0.4168602228164673, -0.44894272089004517, -0.6341979503631592, 9.917762756347656, 1.0649166107177734, 2.597073554992676, -26.746793746948242, -35.55070114135742, 11.099603652954102, -0.761474609375, -0.19921875, 0.062744140625, 
396, 3333534544, 0.4705968499183655, -0.41936713457107544, -0.4489007294178009, -0.6333544254302979, 9.787022590637207, 1.0545202493667603, 2.6391892433166504, -17.89364242553711, -32.620208740234375, 11.947686195373535, -0.76318359375, -0.201171875, 0.064208984375, 
397, 3333542877, 0.46983179450035095, -0.42155569791793823, -0.44906842708587646, -0.6323498487472534, 9.42490005493164, 1.2932238578796387, 2.6074888706207275, -11.375832557678223, -30.365068435668945, 12.30320930480957, -0.760986328125, -0.198974609375, 0.067626953125, 
398, 3333551210, 0.4691919684410095, -0.42362046241760254, -0.44942280650138855, -0.6311925649642944, 9.141582489013672, 1.6343013048171997, 2.524221658706665, -7.279163360595703, -30.61623764038086, 12.526949882507324, -0.762451171875, -0.19580078125, 0.07275390625, 
399, 3333559543, 0.4685218334197998, -0.4257621765136719, -0.45000118017196655, -0.6298353672027588, 9.50598430633545, 1.8900998830795288, 2.4924957752227783, -4.7748823165893555, -34.07268142700195, 12.72976303100586, -0.761962890625, -0.195068359375, 0.0751953125, 
400, 3333567876, 0.46777546405792236, -0.42800474166870117, -0.4506084620952606, -0.6284345388412476, 10.144628524780273, 2.1122143268585205, 2.2757956981658936, -5.348642826080322, -35.86606979370117, 12.799256324768066, -0.760009765625, -0.193359375, 0.0791015625, 
401, 3333576209, 0.4668981432914734, -0.43033480644226074, -0.45102816820144653, -0.6271935701370239, 10.416142463684082, 2.4617316722869873, 1.777509093284607, -9.29495620727539, -35.27989196777344, 12.292222023010254, -0.761474609375, -0.192626953125, 0.082763671875, 
402, 3333584542, 0.4658340811729431, -0.43280497193336487, -0.4512478709220886, -0.6261259913444519, 10.289003372192383, 2.7099335193634033, 1.454331398010254, -14.098221778869629, -35.343849182128906, 11.616236686706543, -0.761962890625, -0.1904296875, 0.088134765625, 
403, 3333592875, 0.46438348293304443, -0.43563008308410645, -0.4513600468635559, -0.625162661075592, 10.412298202514648, 2.6900932788848877, 1.4309120178222656, -20.246631622314453, -39.47972869873047, 10.4684419631958, -0.76220703125, -0.189697265625, 0.091552734375, 
404, 3333601208, 0.4624950885772705, -0.43877822160720825, -0.4513140916824341, -0.6243935823440552, 10.632405281066895, 2.6072840690612793, 1.4656322002410889, -27.496767044067383, -42.81017303466797, 8.409211158752441, -0.7626953125, -0.18994140625, 0.097900390625, 
405, 3333609541, 0.460345596075058, -0.4419986605644226, -0.4510456323623657, -0.6239045858383179, 10.612014770507812, 2.5082170963287354, 1.4013104438781738, -33.18094253540039, -41.93396759033203, 6.189042568206787, -0.7607421875, -0.189208984375, 0.102294921875, 
406, 3333617874, 0.4580741226673126, -0.4451826810836792, -0.45080408453941345, -0.6234869956970215, 10.718484878540039, 2.376976490020752, 1.4817233085632324, -33.902984619140625, -42.12712097167969, 4.288435459136963, -0.7607421875, -0.187744140625, 0.10546875, 
407, 3333626207, 0.4557419419288635, -0.4482497274875641, -0.45066389441490173, -0.6230997443199158, 11.000812530517578, 2.2109627723693848, 1.6679470539093018, -32.85871505737305, -41.93946838378906, 2.246028184890747, -0.76220703125, -0.19091796875, 0.109130859375, 
408, 3333634540, 0.45345696806907654, -0.4510992169380188, -0.4506596624851227, -0.6227135062217712, 10.875221252441406, 2.1232407093048096, 1.8895598649978638, -30.04482078552246, -40.6428108215332, 0.4426789879798889, -0.7587890625, -0.190185546875, 0.112548828125, 
409, 3333642873, 0.4512549340724945, -0.4536404013633728, -0.45091837644577026, -0.6222795844078064, 10.251687049865723, 2.267482042312622, 1.952241063117981, -25.06201171875, -39.409339904785156, -2.0752179622650146, -0.759765625, -0.19189453125, 0.117919921875, 
410, 3333651206, 0.4490702748298645, -0.45595410466194153, -0.45140010118484497, -0.6218196749687195, 9.601085662841797, 2.3469691276550293, 2.1991019248962402, -21.469938278198242, -38.914798736572266, -4.584161758422852, -0.756103515625, -0.193359375, 0.1201171875, 
411, 3333659539, 0.4468151330947876, -0.45823439955711365, -0.45198893547058105, -0.6213397979736328, 9.191970825195312, 2.3246097564697266, 2.4230968952178955, -20.66860008239746, -39.838584899902344, -5.92499303817749, -0.754638671875, -0.193115234375, 0.12451171875, 
412, 3333667872, 0.44446349143981934, -0.46047160029411316, -0.45249539613723755, -0.6210038661956787, 9.011648178100586, 2.0908401012420654, 2.4070870876312256, -22.605499267578125, -38.673851013183594, -7.396943092346191, -0.7578125, -0.1943359375, 0.12890625, 
413, 3333676205, 0.4420120418071747, -0.46254199743270874, -0.45291510224342346, -0.6209089756011963, 8.858678817749023, 1.4940848350524902, 2.3341760635375977, -24.462915420532227, -35.79782485961914, -10.193970680236816, -0.754638671875, -0.196533203125, 0.131103515625, 
414, 3333684538, 0.43954768776893616, -0.4643489718437195, -0.4534778892993927, -0.6208989024162292, 8.68140697479248, 0.9171943068504333, 2.151003122329712, -22.248048782348633, -33.97357177734375, -13.390068054199219, -0.753173828125, -0.197265625, 0.136474609375, 
415, 3333692871, 0.43729251623153687, -0.4657893776893616, -0.4542846381664276, -0.6208226084709167, 8.727972984313965, 0.5340924263000488, 2.1066389083862305, -16.202713012695312, -31.4263973236084, -15.03104019165039, -0.752197265625, -0.2001953125, 0.138916015625, 
416, 3333701204, 0.43531739711761475, -0.4669700264930725, -0.4553772509098053, -0.6205232739448547, 9.02404499053955, 0.36271002888679504, 2.285722017288208, -9.010123252868652, -30.617877960205078, -14.767953872680664, -0.75048828125, -0.20458984375, 0.1396484375, 
417, 3333709537, 0.4336279034614563, -0.4680039584636688, -0.4568171799182892, -0.6198683977127075, 9.552851676940918, 0.19857437908649445, 2.468709945678711, -1.1119663715362549, -31.930763244628906, -13.338113784790039, -0.74853515625, -0.205322265625, 0.143798828125, 
418, 3333717870, 0.4322514533996582, -0.4688645005226135, -0.4586678445339203, -0.618812084197998, 10.327101707458496, 0.1640632599592209, 2.35731840133667, 7.9643073081970215, -33.52730178833008, -12.021926879882812, -0.7470703125, -0.20849609375, 0.148681640625, 
419, 3333726203, 0.4312809109687805, -0.46934974193573, -0.46080219745635986, -0.6175344586372375, 10.993718147277832, 0.3526061773300171, 1.900150179862976, 16.623876571655273, -30.88007164001465, -11.43700122833252, -0.74658203125, -0.208740234375, 0.154296875, 
420, 3333734536, 0.43077343702316284, -0.4693801999092102, -0.46306541562080383, -0.6161709427833557, 11.151468276977539, 0.6493389010429382, 1.620581865310669, 23.94578742980957, -25.40852928161621, -10.721336364746094, -0.7451171875, -0.20849609375, 0.15673828125, 
421, 3333742869, 0.4306258261203766, -0.4691222310066223, -0.46550655364990234, -0.6146292090415955, 10.965030670166016, 0.8674260377883911, 1.6830923557281494, 30.61961555480957, -22.87290382385254, -9.593235969543457, -0.7431640625, -0.208740234375, 0.16357421875, 
422, 3333751202, 0.43065258860588074, -0.4688577950000763, -0.46801111102104187, -0.6129078269004822, 10.721020698547363, 1.1122807264328003, 1.6978960037231445, 33.47105407714844, -23.2407283782959, -7.513921737670898, -0.7431640625, -0.2109375, 0.16845703125, 
423, 3333759535, 0.4307304918766022, -0.46865224838256836, -0.47036296129226685, -0.6112076044082642, 10.41528034210205, 1.2829831838607788, 1.6580978631973267, 32.03019332885742, -22.361665725708008, -5.835621356964111, -0.7431640625, -0.21240234375, 0.171142578125, 
424, 3333767868, 0.4308980107307434, -0.4684513807296753, -0.4726288914680481, -0.6094931960105896, 10.046628952026367, 1.3253017663955688, 1.7639826536178589, 31.947229385375977, -21.408327102661133, -4.424455165863037, -0.74072265625, -0.2109375, 0.17626953125, 
425, 3333776201, 0.43117958307266235, -0.4682043790817261, -0.474850058555603, -0.6077549457550049, 9.741628646850586, 1.3419325351715088, 1.8703378438949585, 32.7375373840332, -20.16691017150879, -3.332749605178833, -0.73974609375, -0.21142578125, 0.180419921875, 
426, 3333784534, 0.4316581189632416, -0.46777066588401794, -0.4770324230194092, -0.6060379147529602, 9.457806587219238, 1.3195887804031372, 1.864237666130066, 34.64945602416992, -16.956439971923828, -2.7849881649017334, -0.73974609375, -0.210205078125, 0.1845703125, 
427, 3333792867, 0.43253257870674133, -0.4669521450996399, -0.47927626967430115, -0.6042726039886475, 9.246220588684082, 1.1887569427490234, 1.848061442375183, 40.30442810058594, -11.826699256896973, -2.114867687225342, -0.7373046875, -0.20947265625, 0.188232421875, 
428, 3333801200, 0.43387603759765625, -0.46571171283721924, -0.48171496391296387, -0.6023245453834534, 8.987178802490234, 0.9032379984855652, 1.7914490699768066, 48.65107345581055, -7.561696529388428, -1.169702172279358, -0.73876953125, -0.207763671875, 0.19091796875, 
429, 3333809533, 0.4355367124080658, -0.46427634358406067, -0.48431551456451416, -0.6001445651054382, 8.828742980957031, 0.736731231212616, 1.8627256155014038, 54.7279167175293, -6.299709796905518, 0.5177803039550781, -0.7392578125, -0.205810546875, 0.193359375, 
430, 3333817866, 0.43738073110580444, -0.4628114104270935, -0.4868975579738617, -0.5978415012359619, 8.984029769897461, 0.9236345887184143, 1.5670074224472046, 56.74043273925781, -5.508227825164795, 2.6882851123809814, -0.73681640625, -0.2080078125, 0.19775390625, 
431, 3333826199, 0.43958592414855957, -0.4611608684062958, -0.48945489525794983, -0.5954062342643738, 9.257734298706055, 1.2575534582138062, 1.3380411863327026, 60.83708953857422, -2.2581839561462402, 5.3650593757629395, -0.7373046875, -0.205810546875, 0.2001953125, 
432, 3333834532, 0.44200724363327026, -0.459364116191864, -0.49204179644584656, -0.592864990234375, 9.457087516784668, 1.4301129579544067, 1.4654998779296875, 64.04740905761719, -0.4551922082901001, 6.606357574462891, -0.736572265625, -0.20068359375, 0.203369140625, 
433, 3333842865, 0.4445681571960449, -0.4574110507965088, -0.4946981966495514, -0.5902437567710876, 9.640509605407715, 1.6442128419876099, 1.3521889448165894, 66.98933410644531, 0.8318383693695068, 6.73179292678833, -0.737548828125, -0.197021484375, 0.20849609375, 
434, 3333851198, 0.44727954268455505, -0.4553002417087555, -0.4972841739654541, -0.5876487493515015, 9.956844329833984, 1.9808841943740845, 0.9218380451202393, 68.1475601196289, 3.73714542388916, 7.16524076461792, -0.739013671875, -0.193115234375, 0.209228515625, 
435, 3333859531, 0.4500260353088379, -0.45314666628837585, -0.4997086524963379, -0.5851545333862305, 10.18911075592041, 2.4891488552093506, 0.7075687646865845, 66.6351547241211, 5.9399518966674805, 7.5454840660095215, -0.73974609375, -0.19091796875, 0.211669921875, 
436, 3333867864, 0.45261460542678833, -0.4511065185070038, -0.5019087791442871, -0.5828468203544617, 10.482871055603027, 2.8346498012542725, 0.6985526084899902, 61.86211013793945, 6.499492645263672, 7.297584056854248, -0.73681640625, -0.190673828125, 0.215576171875, 
437, 3333876197, 0.45484450459480286, -0.44939616322517395, -0.5035531520843506, -0.5810108780860901, 10.77764892578125, 2.839235544204712, 0.8217124342918396, 49.876033782958984, 7.760682106018066, 7.213305473327637, -0.741943359375, -0.182861328125, 0.218505859375, 
438, 3333884530, 0.4564770758152008, -0.44839999079704285, -0.5045549273490906, -0.5796295404434204, 10.882692337036133, 2.929497480392456, 0.8807313442230225, 33.43277359008789, 4.750945568084717, 8.51170825958252, -0.740966796875, -0.181884765625, 0.217529296875, 
439, 3333892863, 0.45775362849235535, -0.44783854484558105, -0.5051748752593994, -0.5785156488418579, 11.04342269897461, 2.8883070945739746, 0.8506553173065186, 23.614530563354492, 2.858895778656006, 9.370755195617676, -0.741455078125, -0.18017578125, 0.218994140625, 
440, 3333901196, 0.45907098054885864, -0.44719627499580383, -0.5055844783782959, -0.5776100754737854, 11.256681442260742, 2.3778879642486572, 1.1279046535491943, 21.24864387512207, 6.395787715911865, 9.111716270446777, -0.742431640625, -0.1787109375, 0.2197265625, 
441, 3333909529, 0.46049171686172485, -0.4463742971420288, -0.5058770775794983, -0.5768582820892334, 11.166112899780273, 1.7434278726577759, 1.2707593441009521, 21.023880004882812, 10.223068237304688, 8.441316604614258, -0.741943359375, -0.17626953125, 0.21875, 
442, 3333917862, 0.4621281623840332, -0.44530239701271057, -0.5063790082931519, -0.575937032699585, 11.110419273376465, 1.4140199422836304, 1.4056950807571411, 26.766910552978516, 11.343952178955078, 8.193986892700195, -0.742919921875, -0.17333984375, 0.220458984375, 
443, 3333926195, 0.46388646960258484, -0.44404491782188416, -0.507084846496582, -0.5748722553253174, 11.268867492675781, 1.0914306640625, 1.306054711341858, 31.313474655151367, 11.48386001586914, 7.535549640655518, -0.742919921875, -0.1728515625, 0.217041015625, 
444, 3333934528, 0.46614935994148254, -0.4424040615558624, -0.5080937743186951, -0.5734146237373352, 11.279088973999023, 1.0870441198349, 0.9628639221191406, 41.96783447265625, 13.704704284667969, 9.502091407775879, -0.74267578125, -0.1689453125, 0.218994140625, 
445, 3333942861, 0.4690493941307068, -0.4402729868888855, -0.5094928741455078, -0.5714449286460876, 11.110318183898926, 1.0063503980636597, 0.9789932370185852, 55.6451301574707, 16.401803970336914, 12.010998725891113, -0.744140625, -0.16552734375, 0.21728515625, 
446, 3333951194, 0.4720771312713623, -0.43810945749282837, -0.5109467506408691, -0.569312334060669, 10.880972862243652, 1.432515263557434, 0.6349506378173828, 58.197208404541016, 16.215261459350586, 13.504600524902344, -0.74462890625, -0.16455078125, 0.21826171875, 
