sep=,
PacketCounter,SampleTimeFine,Quat_W,Quat_X,Quat_Y,Quat_Z,Acc_X,Acc_Y,Acc_Z,Gyr_X,Gyr_Y,Gyr_Z,Mag_X,Mag_Y,Mag_Z,
0, 3636555756, 0.46199557185173035, -0.4860040545463562, -0.39936238527297974, -0.625182569026947, 0, 0, 0, 0, 0, 0, -0.80029296875, -0.083251953125, 0.106201171875, 
1, 3636564089, 0.4620462656021118, -0.4860875904560089, -0.39918893575668335, -0.6251909136772156, 9.770397186279297, 0.42217665910720825, 1.9696710109710693, -2.1774535179138184, 1.1511037349700928, 1.9206067323684692, -0.80224609375, -0.082763671875, 0.106201171875, 
2, 3636572422, 0.46210333704948425, -0.48614558577537537, -0.39901554584503174, -0.6252144575119019, 9.782655715942383, 0.4316933751106262, 1.9611250162124634, -2.048306465148926, 1.367774486541748, 1.747761845588684, -0.80224609375, -0.082763671875, 0.106201171875, 
3, 3636580755, 0.4621466398239136, -0.48620161414146423, -0.3988489806652069, -0.6252448558807373, 9.76586627960205, 0.4372391104698181, 1.9683476686477661, -2.1135458946228027, 1.4517379999160767, 1.5172592401504517, -0.80224609375, -0.081298828125, 0.104736328125, 
4, 3636589088, 0.4621829688549042, -0.4862591326236725, -0.39868709444999695, -0.6252766847610474, 9.786877632141113, 0.4300571084022522, 2.0048553943634033, -2.1297338008880615, 1.2413170337677002, 1.4372659921646118, -0.80078125, -0.081298828125, 0.103759765625, 
5, 3636597421, 0.4622024893760681, -0.4863361716270447, -0.3985336422920227, -0.6253001093864441, 9.785279273986816, 0.42550551891326904, 2.0301380157470703, -2.255167007446289, 1.011608600616455, 1.3841677904129028, -0.80322265625, -0.082763671875, 0.104248046875, 
6, 3636605754, 0.46221598982810974, -0.4864034354686737, -0.39841219782829285, -0.625315248966217, 9.827966690063477, 0.4111553132534027, 2.0369510650634766, -1.906198501586914, 0.6625634431838989, 1.1313295364379883, -0.80419921875, -0.082275390625, 0.104736328125, 
7, 3636614087, 0.46225282549858093, -0.48645490407943726, -0.3983241021633148, -0.6253039240837097, 9.821541786193848, 0.4183303415775299, 2.005077600479126, -1.222349762916565, 0.6769074201583862, 1.1765388250350952, -0.8017578125, -0.080810546875, 0.104736328125, 
8, 3636622420, 0.46230024099349976, -0.4864891469478607, -0.39824122190475464, -0.6252950429916382, 9.843955993652344, 0.4390133321285248, 2.0076229572296143, -1.0072925090789795, 0.7272393107414246, 1.1351972818374634, -0.8037109375, -0.081787109375, 0.10498046875, 
9, 3636630753, 0.4623211920261383, -0.4865434765815735, -0.39817044138908386, -0.625282347202301, 9.846868515014648, 0.4900054931640625, 2.0177884101867676, -1.1908951997756958, 0.44604623317718506, 0.948699951171875, -0.80126953125, -0.081298828125, 0.105712890625, 
10, 3636639086, 0.4623338580131531, -0.48660537600517273, -0.3980754017829895, -0.6252854466438293, 9.861898422241211, 0.5124747157096863, 2.052767038345337, -1.584944725036621, 0.4569579064846039, 0.9940371513366699, -0.80322265625, -0.083251953125, 0.104248046875, 
11, 3636647419, 0.4623403549194336, -0.4866732656955719, -0.3979652523994446, -0.6252978444099426, 9.833558082580566, 0.5132807493209839, 2.025014638900757, -1.8500266075134277, 0.6675068736076355, 1.0029765367507935, -0.8017578125, -0.081298828125, 0.103759765625, 
12, 3636655752, 0.46236351132392883, -0.48672735691070557, -0.39783376455307007, -0.6253224015235901, 9.812684059143066, 0.4914085268974304, 1.9853886365890503, -1.8959016799926758, 0.9561026096343994, 1.149618148803711, -0.80419921875, -0.0810546875, 0.103515625, 
13, 3636664085, 0.4623855650424957, -0.48677441477775574, -0.3977115750312805, -0.6253471374511719, 9.790376663208008, 0.4812258780002594, 1.986242651939392, -1.7849922180175781, 1.0907310247421265, 1.0248767137527466, -0.80224609375, -0.082275390625, 0.104736328125, 
14, 3636672418, 0.46241262555122375, -0.4868019223213196, -0.3975971043109894, -0.6253786683082581, 9.755389213562012, 0.4820585250854492, 2.004333972930908, -1.5921168327331543, 1.1452380418777466, 0.879439115524292, -0.80419921875, -0.079833984375, 0.10595703125, 
15, 3636680751, 0.4624338150024414, -0.48682278394699097, -0.39751067757606506, -0.625401496887207, 9.712563514709473, 0.48006778955459595, 1.9709182977676392, -1.3046993017196655, 1.0703675746917725, 0.6471179723739624, -0.8046875, -0.080078125, 0.10302734375, 
16, 3636689084, 0.46247386932373047, -0.48681095242500305, -0.3974458575248718, -0.6254223585128784, 9.645485877990723, 0.45155155658721924, 1.9194650650024414, -0.7694131731987, 1.1661649942398071, 0.5105686187744141, -0.802734375, -0.082275390625, 0.103759765625, 
17, 3636697417, 0.46253156661987305, -0.4867611527442932, -0.3974231779575348, -0.6254327297210693, 9.613592147827148, 0.46339693665504456, 1.9033571481704712, 0.003355465130880475, 1.3918520212173462, 0.22704458236694336, -0.80029296875, -0.079833984375, 0.104248046875, 
18, 3636705750, 0.4625719487667084, -0.4866892397403717, -0.3974058926105499, -0.6254698038101196, 9.592955589294434, 0.5214064121246338, 1.8723851442337036, -0.06543156504631042, 1.4911071062088013, -0.23658588528633118, -0.80224609375, -0.079833984375, 0.10400390625, 
19, 3636714083, 0.4626055359840393, -0.4866161346435547, -0.39740118384361267, -0.6255048513412476, 9.604989051818848, 0.48804566264152527, 1.888837218284607, 0.010860435664653778, 1.5096005201339722, -0.3836115896701813, -0.80126953125, -0.080322265625, 0.104736328125, 
20, 3636722416, 0.46261951327323914, -0.48656314611434937, -0.39739006757736206, -0.6255427598953247, 9.664427757263184, 0.4796839654445648, 1.9061682224273682, -0.3149654269218445, 1.1524869203567505, -0.4063570201396942, -0.8046875, -0.081298828125, 0.10498046875, 
21, 3636730749, 0.46261605620384216, -0.48653629422187805, -0.3973587155342102, -0.6255860924720764, 9.698833465576172, 0.5374932289123535, 1.9189075231552124, -0.805631697177887, 1.1347874402999878, -0.32464760541915894, -0.8017578125, -0.0791015625, 0.1025390625, 
22, 3636739082, 0.462606281042099, -0.4865075349807739, -0.39729630947113037, -0.6256553530693054, 9.71928596496582, 0.5920108556747437, 1.902539849281311, -1.2393319606781006, 1.3501776456832886, -0.3351750373840332, -0.80029296875, -0.080322265625, 0.102294921875, 
23, 3636747415, 0.46256935596466064, -0.4864962100982666, -0.39722228050231934, -0.6257385015487671, 9.718934059143066, 0.6138545870780945, 1.897316575050354, -1.7135026454925537, 1.3561456203460693, -0.4931124448776245, -0.80419921875, -0.08154296875, 0.103515625, 
24, 3636755748, 0.4625082015991211, -0.48650118708610535, -0.3971128761768341, -0.6258493065834045, 9.725725173950195, 0.628974199295044, 1.8602182865142822, -2.428652286529541, 1.3558382987976074, -0.5431627035140991, -0.802734375, -0.079833984375, 0.103515625, 
25, 3636764081, 0.46242085099220276, -0.4865235984325409, -0.39696452021598816, -0.6259905099868774, 9.705784797668457, 0.6279877424240112, 1.8305872678756714, -3.222949266433716, 1.6536037921905518, -0.614395797252655, -0.80224609375, -0.08251953125, 0.102294921875, 
26, 3636772414, 0.4622943699359894, -0.4865654706954956, -0.39679449796676636, -0.6261592507362366, 9.645857810974121, 0.621762216091156, 1.8431154489517212, -3.9397385120391846, 1.4527113437652588, -0.8649287223815918, -0.8017578125, -0.080078125, 0.10009765625, 
27, 3636780747, 0.46214786171913147, -0.4866233468055725, -0.39663460850715637, -0.6263238191604614, 9.607573509216309, 0.6009295582771301, 1.8788466453552246, -4.070191860198975, 1.256403923034668, -1.000274419784546, -0.80322265625, -0.079833984375, 0.09814453125, 
28, 3636789080, 0.4620026648044586, -0.48665809631347656, -0.39650630950927734, -0.6264851689338684, 9.577499389648438, 0.5737211108207703, 1.8726747035980225, -3.6191246509552, 1.0988250970840454, -1.2984752655029297, -0.8037109375, -0.083984375, 0.100341796875, 
29, 3636797413, 0.4618542790412903, -0.48668810725212097, -0.3963971436023712, -0.626640260219574, 9.553544044494629, 0.5960840582847595, 1.839403510093689, -3.419666290283203, 1.101847529411316, -1.4460387229919434, -0.80224609375, -0.0810546875, 0.101806640625, 
30, 3636805746, 0.46170875430107117, -0.4867074191570282, -0.3962712585926056, -0.6268121600151062, 9.556070327758789, 0.5923444628715515, 1.856333613395691, -3.5599303245544434, 1.2827608585357666, -1.4680414199829102, -0.80126953125, -0.08203125, 0.102783203125, 
31, 3636814079, 0.4615580141544342, -0.48673102259635925, -0.3961530923843384, -0.626979410648346, 9.560574531555176, 0.5744321942329407, 1.8727892637252808, -3.537543535232544, 1.2849892377853394, -1.5165802240371704, -0.80078125, -0.08203125, 0.099853515625, 
32, 3636822412, 0.4614103436470032, -0.4867590665817261, -0.39601442217826843, -0.6271539330482483, 9.561898231506348, 0.5852989554405212, 1.8366281986236572, -3.754906415939331, 1.2953886985778809, -1.3702720403671265, -0.80126953125, -0.08203125, 0.101806640625, 
33, 3636830745, 0.46124690771102905, -0.4868137538433075, -0.39585819840431213, -0.6273303627967834, 9.57046890258789, 0.5522236227989197, 1.8274060487747192, -4.19795560836792, 1.251076102256775, -1.2597465515136719, -0.80322265625, -0.08251953125, 0.099365234375, 
34, 3636839078, 0.46106815338134766, -0.4868922829627991, -0.3956676125526428, -0.6275210380554199, 9.609169960021973, 0.5072017908096313, 1.8393739461898804, -4.81933069229126, 1.1287168264389038, -1.1193292140960693, -0.802734375, -0.083251953125, 0.098876953125, 
35, 3636847411, 0.46086159348487854, -0.4870189428329468, -0.39545005559921265, -0.6277113556861877, 9.595010757446289, 0.4968477487564087, 1.8304386138916016, -5.549388408660889, 0.8785169720649719, -0.9166181087493896, -0.80224609375, -0.0830078125, 0.099365234375, 
36, 3636855744, 0.46067193150520325, -0.48714643716812134, -0.39521995186805725, -0.6278966665267944, 9.634725570678711, 0.4680182933807373, 1.8289707899093628, -5.51270866394043, 0.8604590892791748, -0.6469771265983582, -0.800048828125, -0.08447265625, 0.099365234375, 
37, 3636864077, 0.4605019688606262, -0.48728272318840027, -0.3950040340423584, -0.6280514001846313, 9.659831047058105, 0.4256426990032196, 1.8107259273529053, -5.156363487243652, 0.7449131608009338, -0.3338431417942047, -0.8017578125, -0.0830078125, 0.099853515625, 
38, 3636872410, 0.4603573977947235, -0.4874124825000763, -0.394778311252594, -0.6281986236572266, 9.674795150756836, 0.4185863733291626, 1.827157974243164, -4.982544898986816, 0.8045943975448608, -0.03341376781463623, -0.802734375, -0.08447265625, 0.101318359375, 
39, 3636880743, 0.46020835638046265, -0.4875689446926117, -0.39456650614738464, -0.6283194422721863, 9.69660758972168, 0.4313912093639374, 1.8746553659439087, -4.9239654541015625, 0.4336490333080292, 0.14361901581287384, -0.80517578125, -0.083251953125, 0.097900390625, 
40, 3636889076, 0.46008023619651794, -0.48771584033966064, -0.3943672776222229, -0.628424346446991, 9.764439582824707, 0.4255903959274292, 1.8879679441452026, -4.52138614654541, 0.29579320549964905, 0.291361927986145, -0.80322265625, -0.084228515625, 0.099365234375, 
41, 3636897409, 0.45996370911598206, -0.48786020278930664, -0.39418739080429077, -0.628510594367981, 9.780665397644043, 0.43681880831718445, 1.912553310394287, -4.166244983673096, 0.2806808054447174, 0.36349165439605713, -0.8037109375, -0.083740234375, 0.099365234375, 
42, 3636905742, 0.45986300706863403, -0.4879888594150543, -0.39400869607925415, -0.6285964250564575, 9.78731918334961, 0.45456448197364807, 1.9393218755722046, -3.940967559814453, 0.34320512413978577, 0.4118768870830536, -0.8017578125, -0.083740234375, 0.095947265625, 
43, 3636914075, 0.45973044633865356, -0.48813915252685547, -0.39381393790245056, -0.6286985278129578, 9.798436164855957, 0.45405033230781555, 1.9686564207077026, -4.526867866516113, 0.3437430262565613, 0.2571156919002533, -0.802734375, -0.085205078125, 0.099365234375, 
44, 3636922408, 0.4595576226711273, -0.4883146286010742, -0.3935832381248474, -0.6288331151008606, 9.80657958984375, 0.44042253494262695, 2.016026496887207, -5.434661865234375, 0.20481142401695251, 0.08263152837753296, -0.802734375, -0.083740234375, 0.098388671875, 
45, 3636930741, 0.45932286977767944, -0.48854562640190125, -0.3933190703392029, -0.6289905309677124, 9.765402793884277, 0.43401339650154114, 2.029513359069824, -6.621932029724121, -0.09688583761453629, -0.07319267839193344, -0.8017578125, -0.083251953125, 0.097900390625, 
46, 3636939074, 0.4590286314487457, -0.48881417512893677, -0.39302095770835876, -0.6291831135749817, 9.748202323913574, 0.40206560492515564, 2.0594418048858643, -7.734053134918213, -0.4434209167957306, -0.37682390213012695, -0.802734375, -0.083251953125, 0.094970703125, 
47, 3636947407, 0.45867371559143066, -0.48910632729530334, -0.3926975131034851, -0.6294167637825012, 9.735356330871582, 0.3633776009082794, 2.0896148681640625, -8.740973472595215, -0.38914427161216736, -0.8649543523788452, -0.8037109375, -0.084716796875, 0.096923828125, 
48, 3636955740, 0.4582860469818115, -0.4893893301486969, -0.39236003160476685, -0.629689633846283, 9.723827362060547, 0.27017128467559814, 2.078310012817383, -9.229924201965332, -0.2855091094970703, -1.349319577217102, -0.8017578125, -0.084716796875, 0.097900390625, 
49, 3636964073, 0.45787209272384644, -0.48966556787490845, -0.392054945230484, -0.6299659609794617, 9.740585327148438, 0.23228758573532104, 2.1190690994262695, -9.108256340026855, -0.398211807012558, -1.8560975790023804, -0.80078125, -0.083740234375, 0.096923828125, 
50, 3636972406, 0.457460880279541, -0.48990342020988464, -0.39181071519851685, -0.6302317380905151, 9.731266021728516, 0.1672694832086563, 2.176258087158203, -8.25629997253418, -0.6559677720069885, -2.3797800540924072, -0.802490234375, -0.086181640625, 0.095947265625, 
51, 3636980739, 0.45708927512168884, -0.4900907278060913, -0.39166927337646484, -0.6304435133934021, 9.745710372924805, 0.15301388502120972, 2.2208518981933594, -6.495859622955322, -0.866747260093689, -2.6662495136260986, -0.801513671875, -0.085693359375, 0.096923828125, 
52, 3636989072, 0.45681124925613403, -0.49018019437789917, -0.39164724946022034, -0.6305892467498779, 9.702696800231934, 0.16053834557533264, 2.196051836013794, -3.856235980987549, -0.8577823638916016, -2.7659149169921875, -0.801025390625, -0.086181640625, 0.09765625, 
53, 3636997405, 0.45661330223083496, -0.4901781678199768, -0.3917497396469116, -0.6306703090667725, 9.662148475646973, 0.18398573994636536, 2.199049711227417, -1.315816044807434, -0.7045579552650452, -3.0057151317596436, -0.802734375, -0.085693359375, 0.098388671875, 
54, 3637005738, 0.45650702714920044, -0.4900897145271301, -0.39194294810295105, -0.6306959986686707, 9.668777465820312, 0.2046019732952118, 2.189058303833008, 0.9352268576622009, -0.5512567758560181, -2.9324071407318115, -0.801025390625, -0.085693359375, 0.09765625, 
55, 3637014071, 0.45645585656166077, -0.4899555444717407, -0.3921981453895569, -0.6306785345077515, 9.676301956176758, 0.25087326765060425, 2.154463052749634, 2.357226848602295, -0.3932425081729889, -2.859022378921509, -0.802978515625, -0.088134765625, 0.09716796875, 
56, 3637022404, 0.4564536511898041, -0.4897700846195221, -0.3924804925918579, -0.6306487321853638, 9.685296058654785, 0.2810671627521515, 2.121671438217163, 3.3169150352478027, -0.08195274323225021, -2.8045666217803955, -0.802001953125, -0.087158203125, 0.09765625, 
57, 3637030737, 0.4564669132232666, -0.48958006501197815, -0.3927716612815857, -0.6306052207946777, 9.690293312072754, 0.33172205090522766, 2.0762808322906494, 3.5935494899749756, 0.03639782592654228, -2.6810293197631836, -0.801513671875, -0.085693359375, 0.094970703125, 
58, 3637039070, 0.45648372173309326, -0.489378422498703, -0.39304500818252563, -0.6305792927742004, 9.653621673583984, 0.3857477009296417, 2.061206817626953, 3.4489057064056396, 0.24287419021129608, -2.6914029121398926, -0.803466796875, -0.086669921875, 0.095947265625, 
59, 3637047403, 0.45647132396698, -0.4891975224018097, -0.3933011591434479, -0.6305688619613647, 9.653594017028809, 0.4047045111656189, 2.045807123184204, 2.882241725921631, 0.26021501421928406, -2.827439785003662, -0.800537109375, -0.087158203125, 0.09912109375, 
60, 3637055736, 0.45641273260116577, -0.4890585243701935, -0.3935047686100006, -0.6305921077728271, 9.648880958557129, 0.4466218948364258, 2.0679469108581543, 1.6767334938049316, 0.061243630945682526, -2.84511399269104, -0.802978515625, -0.089111328125, 0.09619140625, 
61, 3637064069, 0.4563101828098297, -0.4889792501926422, -0.39366909861564636, -0.6306251883506775, 9.659860610961914, 0.4652705490589142, 2.0721771717071533, 0.6077233552932739, -0.24124769866466522, -2.7148656845092773, -0.803466796875, -0.088134765625, 0.09765625, 
62, 3637072402, 0.45618584752082825, -0.48891159892082214, -0.393804132938385, -0.6306832432746887, 9.667580604553223, 0.4437132179737091, 2.0324270725250244, 0.0006659700884483755, -0.2465498149394989, -2.7883527278900146, -0.802001953125, -0.088623046875, 0.09765625, 
63, 3637080735, 0.45605576038360596, -0.4888450503349304, -0.39393675327301025, -0.6307461261749268, 9.656925201416016, 0.41913339495658875, 2.025001287460327, -0.09445250034332275, -0.10172693431377411, -2.85874080657959, -0.802978515625, -0.090087890625, 0.0966796875, 
64, 3637089068, 0.4559304416179657, -0.48877987265586853, -0.3940489888191223, -0.6308170557022095, 9.640485763549805, 0.42681020498275757, 2.047462224960327, -0.2856883704662323, -0.04599035531282425, -2.710050344467163, -0.801513671875, -0.089111328125, 0.09814453125, 
65, 3637097401, 0.4558144509792328, -0.4887295961380005, -0.3941618502140045, -0.6308695077896118, 9.686216354370117, 0.43314069509506226, 2.039966106414795, -0.21717031300067902, -0.11330458521842957, -2.450654983520508, -0.801513671875, -0.091552734375, 0.099365234375, 
66, 3637105734, 0.455714613199234, -0.48867905139923096, -0.3942544758319855, -0.6309229135513306, 9.68741226196289, 0.48495402932167053, 2.036652088165283, -0.28187182545661926, -0.029084963724017143, -2.1686418056488037, -0.801513671875, -0.089599609375, 0.09765625, 
67, 3637114067, 0.45561882853507996, -0.4886486530303955, -0.3943324387073517, -0.6309670209884644, 9.692038536071777, 0.4920292794704437, 2.052239418029785, -0.4625547230243683, -0.014100637286901474, -1.8804819583892822, -0.801025390625, -0.091064453125, 0.09765625, 
68, 3637122400, 0.4555446207523346, -0.4885997772216797, -0.3944004476070404, -0.6310158371925354, 9.678174018859863, 0.5123817920684814, 2.0539610385894775, -0.3094327449798584, 0.21959082782268524, -1.7429845333099365, -0.802001953125, -0.091552734375, 0.09912109375, 
69, 3637130733, 0.4554975926876068, -0.4885449707508087, -0.39445963501930237, -0.6310551762580872, 9.662117958068848, 0.4966934025287628, 2.0552406311035156, -0.12065586447715759, 0.5479397773742676, -1.433923363685608, -0.801513671875, -0.093505859375, 0.096923828125, 
70, 3637139066, 0.45545825362205505, -0.4884839951992035, -0.39451202750205994, -0.6310980319976807, 9.639544486999512, 0.4780532419681549, 2.078423023223877, -0.10036937892436981, 0.5684567093849182, -1.3633816242218018, -0.800048828125, -0.091552734375, 0.097412109375, 
71, 3637147399, 0.45542508363723755, -0.48843052983283997, -0.39457830786705017, -0.631121814250946, 9.637762069702148, 0.48111453652381897, 2.082836389541626, 0.10970576852560043, 0.46341270208358765, -1.2581583261489868, -0.801025390625, -0.09228515625, 0.095458984375, 
72, 3637155732, 0.4554091989994049, -0.48835644125938416, -0.394670695066452, -0.631132960319519, 9.624879837036133, 0.4665584862232208, 2.0583951473236084, 0.6572868824005127, 0.34568968415260315, -1.2993460893630981, -0.799072265625, -0.092529296875, 0.095947265625, 
73, 3637164065, 0.45542481541633606, -0.48826172947883606, -0.3948080837726593, -0.6311089992523193, 9.650381088256836, 0.5103738903999329, 2.05121111869812, 1.5732520818710327, 0.317923903465271, -1.2374110221862793, -0.801025390625, -0.092529296875, 0.098388671875, 
74, 3637172398, 0.45547470450401306, -0.48813390731811523, -0.3949749767780304, -0.6310674548149109, 9.69064712524414, 0.5168051719665527, 2.010316848754883, 2.367370128631592, 0.3508894145488739, -1.1914845705032349, -0.798583984375, -0.092041015625, 0.097900390625, 
75, 3637180731, 0.4555591940879822, -0.4879803955554962, -0.3951508402824402, -0.6310150623321533, 9.730740547180176, 0.5604935884475708, 2.005363702774048, 2.893281936645508, 0.7700920104980469, -1.0391055345535278, -0.801025390625, -0.094482421875, 0.098876953125, 
76, 3637189064, 0.455672949552536, -0.48781314492225647, -0.395304799079895, -0.6309659481048584, 9.71211051940918, 0.596322774887085, 1.9865880012512207, 2.972224712371826, 1.0692662000656128, -0.7180566787719727, -0.802001953125, -0.093505859375, 0.099853515625, 
77, 3637197397, 0.4557713270187378, -0.48768559098243713, -0.3954204320907593, -0.6309208869934082, 9.686695098876953, 0.6320995092391968, 1.9685288667678833, 2.2594573497772217, 1.0467513799667358, -0.4183957576751709, -0.802490234375, -0.092041015625, 0.098388671875, 
78, 3637205730, 0.45585116744041443, -0.4875968098640442, -0.39546361565589905, -0.6309047937393188, 9.642168045043945, 0.6333842277526855, 1.964134931564331, 1.1126824617385864, 1.1192651987075806, -0.04990933835506439, -0.802001953125, -0.092041015625, 0.098876953125, 
79, 3637214063, 0.455882728099823, -0.4875781536102295, -0.39543360471725464, -0.6309152841567993, 9.583436012268066, 0.6367389559745789, 1.9555729627609253, -0.43622320890426636, 1.0227763652801514, 0.22345857322216034, -0.800537109375, -0.093017578125, 0.097412109375, 
80, 3637222396, 0.4558640420436859, -0.4876236915588379, -0.39531973004341125, -0.6309648752212524, 9.530207633972168, 0.6346602439880371, 1.9681329727172852, -2.1097805500030518, 0.8448855876922607, 0.4675622582435608, -0.800537109375, -0.093017578125, 0.098388671875, 
81, 3637230729, 0.4557933211326599, -0.4877300262451172, -0.3951471149921417, -0.6310420036315918, 9.482202529907227, 0.586890697479248, 1.9949777126312256, -3.5057566165924072, 0.723730206489563, 0.5553422570228577, -0.800048828125, -0.091552734375, 0.097900390625, 
82, 3637239062, 0.4556911587715149, -0.4878855347633362, -0.39493197202682495, -0.6311302185058594, 9.45322036743164, 0.5402214527130127, 2.0012717247009277, -4.449410438537598, 0.33116641640663147, 0.7773920893669128, -0.802001953125, -0.092529296875, 0.099853515625, 
83, 3637247395, 0.45557671785354614, -0.48805490136146545, -0.39472705125808716, -0.6312100887298584, 9.480881690979004, 0.4895457327365875, 1.9877688884735107, -4.487601280212402, 0.15919247269630432, 0.717890202999115, -0.801513671875, -0.092529296875, 0.100341796875, 
84, 3637255728, 0.45548292994499207, -0.48821893334388733, -0.394531786441803, -0.6312731504440308, 9.50393295288086, 0.4805535078048706, 1.9871515035629272, -4.136711597442627, 0.008427083492279053, 0.9209855198860168, -0.800537109375, -0.092041015625, 0.100341796875, 
85, 3637264061, 0.45542237162590027, -0.4883604347705841, -0.3943774700164795, -0.631303608417511, 9.57116985321045, 0.48438525199890137, 1.9619437456130981, -3.2441582679748535, 0.04349296912550926, 1.0043854713439941, -0.801025390625, -0.092529296875, 0.099365234375, 
86, 3637272394, 0.4554067850112915, -0.4884660542011261, -0.3942306935787201, -0.631324827671051, 9.59847640991211, 0.5379582047462463, 1.9511017799377441, -2.5967583656311035, 0.35460343956947327, 1.2194936275482178, -0.801513671875, -0.092041015625, 0.097900390625, 
87, 3637280727, 0.45540010929107666, -0.48859113454818726, -0.39408788084983826, -0.6313220262527466, 9.651463508605957, 0.5594106912612915, 1.9681092500686646, -2.5009868144989014, 0.1858568787574768, 1.5138013362884521, -0.802490234375, -0.091552734375, 0.09765625, 
88, 3637289060, 0.45539820194244385, -0.488724946975708, -0.39392802119255066, -0.6313197016716003, 9.713837623596191, 0.5647822618484497, 1.9783692359924316, -2.668196678161621, 0.1075797826051712, 1.7269374132156372, -0.800537109375, -0.090576171875, 0.09716796875, 
89, 3637297393, 0.4553840160369873, -0.48888272047042847, -0.3937666714191437, -0.6313082575798035, 9.748003959655762, 0.5379860401153564, 1.984065055847168, -2.869370698928833, -0.0829773098230362, 1.8054448366165161, -0.802001953125, -0.090087890625, 0.0986328125, 
90, 3637305726, 0.4553765654563904, -0.48903945088386536, -0.3935976028442383, -0.6312977075576782, 9.74036979675293, 0.5290104150772095, 1.990081548690796, -2.8844573497772217, -0.11837619543075562, 1.916457176208496, -0.801025390625, -0.091552734375, 0.097900390625, 
91, 3637314059, 0.455371230840683, -0.4892039895057678, -0.39342933893203735, -0.6312788724899292, 9.793740272521973, 0.5116209387779236, 2.007021903991699, -2.8729310035705566, -0.09762866050004959, 2.0109481811523438, -0.800537109375, -0.092041015625, 0.096435546875, 
92, 3637322392, 0.4553619623184204, -0.489350825548172, -0.3932814598083496, -0.6312640905380249, 9.785564422607422, 0.4859667420387268, 1.9901049137115479, -2.6262660026550293, -0.20474739372730255, 1.7311636209487915, -0.801025390625, -0.091552734375, 0.097412109375, 
93, 3637330725, 0.4553501605987549, -0.4894763231277466, -0.3931838274002075, -0.6312359571456909, 9.784210205078125, 0.48052987456321716, 2.00783634185791, -2.007554292678833, -0.30059584975242615, 1.326638102531433, -0.801513671875, -0.08984375, 0.09521484375, 
94, 3637339058, 0.455354243516922, -0.48956534266471863, -0.3931276798248291, -0.631199061870575, 9.780223846435547, 0.49338752031326294, 1.9947116374969482, -1.260412335395813, -0.3525158762931824, 1.05635666847229, -0.802001953125, -0.092529296875, 0.096435546875, 
95, 3637347391, 0.4553416967391968, -0.48963820934295654, -0.3931008279323578, -0.6311681866645813, 9.782363891601562, 0.5168288350105286, 1.9907857179641724, -1.053218960762024, -0.30981695652008057, 0.5758079290390015, -0.802001953125, -0.088623046875, 0.10009765625, 
96, 3637355724, 0.4553295373916626, -0.48969462513923645, -0.3930853605270386, -0.6311429142951965, 9.781763076782227, 0.5196610689163208, 1.9999711513519287, -0.8751487135887146, -0.33440661430358887, 0.3926405906677246, -0.801025390625, -0.090087890625, 0.0986328125, 
97, 3637364057, 0.4553152620792389, -0.48973363637924194, -0.39309871196746826, -0.631114661693573, 9.769775390625, 0.5373644828796387, 1.9642994403839111, -0.5191108584403992, -0.2573077976703644, 0.091673344373703, -0.803466796875, -0.089599609375, 0.09814453125, 
98, 3637372390, 0.45528921484947205, -0.48975372314453125, -0.39313268661499023, -0.6310966610908508, 9.7490816116333, 0.5428078174591064, 1.9895203113555908, -0.3513376712799072, -0.35354048013687134, -0.304642915725708, -0.799560546875, -0.08984375, 0.10009765625, 
99, 3637380723, 0.45525017380714417, -0.48977869749069214, -0.3931906223297119, -0.6310693621635437, 9.752250671386719, 0.49906817078590393, 1.9990694522857666, -0.21635062992572784, -0.5443921685218811, -0.5041778087615967, -0.802001953125, -0.091064453125, 0.09619140625, 
100, 3637389056, 0.455206036567688, -0.4898029863834381, -0.3932456970214844, -0.6310480237007141, 9.737151145935059, 0.47413334250450134, 1.990850806236267, -0.2980344295501709, -0.6435447931289673, -0.559786319732666, -0.802978515625, -0.093505859375, 0.098876953125, 
101, 3637397389, 0.4551658630371094, -0.48982903361320496, -0.39331626892089844, -0.6310128569602966, 9.690622329711914, 0.45921236276626587, 1.9436922073364258, -0.07818745076656342, -0.6904956698417664, -0.5449299812316895, -0.802490234375, -0.091064453125, 0.09814453125, 
102, 3637405722, 0.45514440536499023, -0.48981887102127075, -0.3933817744255066, -0.6309953927993774, 9.688833236694336, 0.4628247022628784, 1.8936436176300049, 0.1397000402212143, -0.2619183659553528, -0.6426995396614075, -0.800537109375, -0.091064453125, 0.098388671875, 
103, 3637414055, 0.4551190137863159, -0.4898030161857605, -0.3934561610221863, -0.630979597568512, 9.676244735717773, 0.44352632761001587, 1.882399320602417, 0.21195775270462036, -0.14071178436279297, -0.790673017501831, -0.799560546875, -0.0908203125, 0.100341796875, 
104, 3637422388, 0.4550814628601074, -0.4897918701171875, -0.3935100734233856, -0.6309816837310791, 9.703217506408691, 0.4201079308986664, 1.9182851314544678, -0.16988641023635864, -0.13369351625442505, -0.832475483417511, -0.801025390625, -0.089599609375, 0.09814453125, 
105, 3637430721, 0.455049991607666, -0.4898052215576172, -0.3935664892196655, -0.6309589743614197, 9.717617988586426, 0.37034544348716736, 1.93881356716156, -0.12898047268390656, -0.360302597284317, -0.5216979384422302, -0.800048828125, -0.091552734375, 0.099365234375, 
106, 3637439054, 0.45503684878349304, -0.4898025393486023, -0.3936549723148346, -0.6309152245521545, 9.756999969482422, 0.3923407793045044, 1.9072484970092773, 0.4893343448638916, -0.6024083495140076, -0.5205196738243103, -0.802001953125, -0.091064453125, 0.1005859375, 
107, 3637447387, 0.4550643563270569, -0.4897936284542084, -0.3937470316886902, -0.6308448910713196, 9.766377449035645, 0.42655977606773376, 1.9115471839904785, 0.9747240543365479, -0.38973337411880493, -0.07444777339696884, -0.802001953125, -0.090087890625, 0.10009765625, 
108, 3637455720, 0.45515498518943787, -0.48975899815559387, -0.3938494026660919, -0.6307424902915955, 9.789302825927734, 0.49632689356803894, 1.9060524702072144, 1.8262436389923096, -0.24488487839698792, 0.47998514771461487, -0.800048828125, -0.091064453125, 0.098876953125, 
109, 3637464053, 0.4552806317806244, -0.48970749974250793, -0.3939499855041504, -0.6306290030479431, 9.794748306274414, 0.57338947057724, 1.8730130195617676, 2.208869218826294, 0.1658521443605423, 0.7599999308586121, -0.801513671875, -0.091064453125, 0.1005859375, 
110, 3637472386, 0.4554072618484497, -0.48966071009635925, -0.39399346709251404, -0.6305468082427979, 9.741107940673828, 0.5902301073074341, 1.8283509016036987, 1.5256351232528687, 0.5603370070457458, 0.9973672032356262, -0.799072265625, -0.090087890625, 0.097900390625, 
111, 3637480719, 0.4554826319217682, -0.48965486884117126, -0.39396148920059204, -0.6305167078971863, 9.711350440979004, 0.5977487564086914, 1.8356555700302124, -0.015919247642159462, 0.8910678625106812, 0.9417073130607605, -0.800537109375, -0.091064453125, 0.099365234375, 
112, 3637489052, 0.4554911255836487, -0.48970651626586914, -0.3938349783420563, -0.630549430847168, 9.640083312988281, 0.6056577563285828, 1.870148777961731, -1.9828873872756958, 0.9046435356140137, 0.9304627180099487, -0.801513671875, -0.090576171875, 0.10009765625, 
113, 3637497385, 0.4553932249546051, -0.489847332239151, -0.39363789558410645, -0.6306339502334595, 9.61053466796875, 0.6071547269821167, 1.9534008502960205, -4.154129505157471, 0.4880792796611786, 0.628701388835907, -0.802001953125, -0.090576171875, 0.1005859375, 
114, 3637505718, 0.4552052617073059, -0.49004867672920227, -0.3933829963207245, -0.6307722330093384, 9.605024337768555, 0.5613599419593811, 1.9985613822937012, -5.926966667175293, 0.05811869353055954, 0.24095308780670166, -0.802490234375, -0.091552734375, 0.0986328125, 
115, 3637514051, 0.4549540579319, -0.49027401208877563, -0.39312195777893066, -0.6309410333633423, 9.579341888427734, 0.47654029726982117, 2.021423578262329, -6.73038387298584, -0.10523609071969986, -0.3390684723854065, -0.801025390625, -0.091552734375, 0.097900390625, 
116, 3637522384, 0.45468559861183167, -0.49047526717185974, -0.3928745687007904, -0.6311323046684265, 9.63353443145752, 0.4046727120876312, 2.0535221099853516, -6.6901445388793945, -0.06763438880443573, -0.8400060534477234, -0.802001953125, -0.089111328125, 0.09765625, 
117, 3637530717, 0.4544113874435425, -0.49065378308296204, -0.3926788568496704, -0.6313127279281616, 9.639328956604004, 0.3157612085342407, 2.0539565086364746, -6.086339950561523, -0.15444104373455048, -1.3054168224334717, -0.801513671875, -0.090576171875, 0.099609375, 
118, 3637539050, 0.454176127910614, -0.49078384041786194, -0.39250409603118896, -0.6314895153045654, 9.666213989257812, 0.3038173317909241, 2.0528008937835693, -5.313096523284912, 0.17901788651943207, -1.3348474502563477, -0.803466796875, -0.090087890625, 0.09765625, 
119, 3637547383, 0.453986257314682, -0.4908771216869354, -0.3923523426055908, -0.6316478848457336, 9.649815559387207, 0.30626380443573, 2.0108466148376465, -4.484169006347656, 0.6153051853179932, -1.1924835443496704, -0.802978515625, -0.089599609375, 0.1005859375, 
120, 3637555716, 0.45385175943374634, -0.4909321367740631, -0.3922078013420105, -0.6317915320396423, 9.648343086242676, 0.3329448997974396, 2.0125627517700195, -3.7246811389923096, 0.9625829458236694, -0.8630331754684448, -0.802490234375, -0.09033203125, 0.09521484375, 
121, 3637564049, 0.45375633239746094, -0.4909757673740387, -0.3920857906341553, -0.6319018602371216, 9.624088287353516, 0.3468439280986786, 1.9940216541290283, -3.0180869102478027, 1.0459829568862915, -0.5430601835250854, -0.800537109375, -0.092041015625, 0.096435546875, 
122, 3637572382, 0.4536873400211334, -0.49101752042770386, -0.39196497201919556, -0.63199383020401, 9.640727996826172, 0.38465437293052673, 1.9783228635787964, -2.7145581245422363, 0.9344584941864014, -0.2035435140132904, -0.800048828125, -0.091552734375, 0.097900390625, 
123, 3637580715, 0.45363399386405945, -0.49105608463287354, -0.3918648660182953, -0.6320643424987793, 9.685189247131348, 0.3775652348995209, 2.0000545978546143, -2.2963547706604004, 0.9093822836875916, -0.10351993888616562, -0.801513671875, -0.091552734375, 0.097900390625, 
124, 3637589048, 0.4536014795303345, -0.4910619258880615, -0.39179107546806335, -0.6321288347244263, 9.72418212890625, 0.4325369894504547, 1.9881067276000977, -1.6871967315673828, 0.965246856212616, -0.2256229817867279, -0.800048828125, -0.0927734375, 0.094970703125, 
125, 3637597381, 0.4535837769508362, -0.4910621643066406, -0.391726016998291, -0.632181704044342, 9.711483001708984, 0.45387840270996094, 1.9760326147079468, -1.4179145097732544, 1.096673607826233, -0.12800715863704681, -0.802001953125, -0.093994140625, 0.097412109375, 
126, 3637605714, 0.453535258769989, -0.49108457565307617, -0.391622394323349, -0.6322633028030396, 9.76071834564209, 0.45664024353027344, 2.011826515197754, -2.250300407409668, 1.0365312099456787, -0.18043948709964752, -0.801513671875, -0.093505859375, 0.097900390625, 
127, 3637614047, 0.4534388780593872, -0.49115240573883057, -0.3915083706378937, -0.6323503851890564, 9.796639442443848, 0.43738797307014465, 2.053161382675171, -2.9815099239349365, 0.6220161318778992, -0.3308206796646118, -0.802001953125, -0.0927734375, 0.096435546875, 
128, 3637622380, 0.4533218741416931, -0.49123603105545044, -0.39140138030052185, -0.6324355602264404, 9.820236206054688, 0.38819143176078796, 2.0977985858917236, -3.1414194107055664, 0.17904351651668549, -0.4459822177886963, -0.800048828125, -0.093017578125, 0.098388671875, 
129, 3637630713, 0.45320433378219604, -0.49132394790649414, -0.3913179039955139, -0.632503092288971, 9.825288772583008, 0.3748214542865753, 2.1219844818115234, -2.878617286682129, 0.011936232447624207, -0.4909864366054535, -0.801025390625, -0.092529296875, 0.096923828125, 
130, 3637639046, 0.45311886072158813, -0.4913727939128876, -0.39126038551330566, -0.6325620412826538, 9.801522254943848, 0.4090512990951538, 2.0968215465545654, -2.1407480239868164, 0.1649300456047058, -0.5296638607978821, -0.802001953125, -0.0927734375, 0.094970703125, 
131, 3637647379, 0.4530577063560486, -0.49138256907463074, -0.391237735748291, -0.6326121687889099, 9.77704906463623, 0.4071255028247833, 2.1168479919433594, -1.3862038850784302, 0.4975309371948242, -0.7253310680389404, -0.802978515625, -0.093505859375, 0.097900390625, 
132, 3637655712, 0.453017920255661, -0.49134671688079834, -0.39125609397888184, -0.6326571106910706, 9.764846801757812, 0.43761807680130005, 2.0892953872680664, -0.5695196986198425, 0.580136775970459, -1.0134912729263306, -0.802001953125, -0.093017578125, 0.097900390625, 
133, 3637664045, 0.4529918134212494, -0.4912565350532532, -0.39132171869277954, -0.6327053308486938, 9.758092880249023, 0.4303112328052521, 2.0558342933654785, 0.2515830099582672, 0.9910914897918701, -1.5424251556396484, -0.799072265625, -0.092529296875, 0.096923828125, 
134, 3637672378, 0.4529857039451599, -0.49112680554389954, -0.39141809940338135, -0.6327508687973022, 9.758742332458496, 0.42323699593544006, 2.0591976642608643, 0.9178348779678345, 1.0973906517028809, -1.7569955587387085, -0.801513671875, -0.092041015625, 0.096923828125, 
135, 3637680711, 0.45298001170158386, -0.49097657203674316, -0.39155706763267517, -0.6327853798866272, 9.777091979980469, 0.4222528636455536, 2.0842676162719727, 1.4745091199874878, 1.0726218223571777, -2.099304437637329, -0.799560546875, -0.092041015625, 0.095947265625, 
136, 3637689044, 0.4529900848865509, -0.4908008575439453, -0.39172759652137756, -0.6328089833259583, 9.772677421569824, 0.4216000735759735, 2.0959396362304688, 2.0788512229919434, 0.9738532900810242, -2.226325273513794, -0.801513671875, -0.09423828125, 0.094970703125, 
137, 3637697377, 0.45302051305770874, -0.4905968904495239, -0.3919467329978943, -0.6328096985816956, 9.774280548095703, 0.4193054437637329, 2.1195170879364014, 2.9325737953186035, 1.0065370798110962, -2.405522346496582, -0.801025390625, -0.09375, 0.096435546875, 
138, 3637705710, 0.4530860483646393, -0.49036526679992676, -0.3921909034252167, -0.6327910423278809, 9.790307998657227, 0.40306833386421204, 2.0921993255615234, 3.6692395210266113, 1.0166802406311035, -2.2792186737060547, -0.801513671875, -0.094970703125, 0.097900390625, 
139, 3637714043, 0.4531700611114502, -0.49013301730155945, -0.3924391567707062, -0.6327569484710693, 9.789825439453125, 0.40148574113845825, 2.0836005210876465, 3.910576581954956, 1.1245673894882202, -2.072486162185669, -0.802001953125, -0.09423828125, 0.096923828125, 
140, 3637722376, 0.4532702565193176, -0.4898937940597534, -0.39269497990608215, -0.63271164894104, 9.809372901916504, 0.3921785354614258, 2.0511670112609863, 4.194612979888916, 1.0173718929290771, -1.9311213493347168, -0.801513671875, -0.093017578125, 0.097900390625, 
141, 3637730709, 0.45338621735572815, -0.4896562099456787, -0.39297813177108765, -0.6326367855072021, 9.782105445861816, 0.411181777715683, 2.0314834117889404, 4.6857404708862305, 0.8503158092498779, -1.8038442134857178, -0.802490234375, -0.09375, 0.096435546875, 
142, 3637739042, 0.45351293683052063, -0.489416241645813, -0.3932780623435974, -0.6325452923774719, 9.782033920288086, 0.4332895874977112, 2.007920980453491, 5.010451793670654, 0.5810332894325256, -1.7148089408874512, -0.800537109375, -0.094970703125, 0.098388671875, 
143, 3637747375, 0.45365482568740845, -0.4891755282878876, -0.3935844898223877, -0.6324389576911926, 9.776226043701172, 0.45826947689056396, 1.9993351697921753, 5.251430511474609, 0.6601556539535522, -1.5580753087997437, -0.799560546875, -0.094482421875, 0.097412109375, 
144, 3637755708, 0.45381349325180054, -0.48891961574554443, -0.39388570189476013, -0.6323356032371521, 9.73559856414795, 0.49454426765441895, 1.9948257207870483, 5.401734828948975, 0.8058239221572876, -1.4568482637405396, -0.804443359375, -0.094970703125, 0.099365234375, 
145, 3637764041, 0.4539852440357208, -0.4886665344238281, -0.39416784048080444, -0.632232129573822, 9.715052604675293, 0.5351201891899109, 1.990000605583191, 5.302838325500488, 1.1008998155593872, -1.2202492952346802, -0.798583984375, -0.093994140625, 0.097900390625, 
146, 3637772374, 0.4541758596897125, -0.4883948564529419, -0.39442190527915955, -0.6321467161178589, 9.690359115600586, 0.5438600182533264, 1.9857536554336548, 5.207322597503662, 1.5298614501953125, -1.060288429260254, -0.802490234375, -0.0947265625, 0.094970703125, 
147, 3637780707, 0.4543529152870178, -0.48814958333969116, -0.3946691155433655, -0.6320545077323914, 9.641687393188477, 0.5881035923957825, 1.9694339036941528, 4.925975799560547, 1.3557615280151367, -0.9667963981628418, -0.801513671875, -0.094970703125, 0.097900390625, 
148, 3637789040, 0.45451781153678894, -0.4879239797592163, -0.39488762617111206, -0.6319738030433655, 9.609793663024902, 0.6095335483551025, 1.9717369079589844, 4.411693572998047, 1.2425978183746338, -0.8232799768447876, -0.801513671875, -0.09619140625, 0.096923828125, 
149, 3637797373, 0.4546634554862976, -0.4877263605594635, -0.39506229758262634, -0.6319124102592468, 9.58080005645752, 0.6033504605293274, 1.975807785987854, 3.6183435916900635, 1.4304524660110474, -0.6870890259742737, -0.800048828125, -0.094970703125, 0.097412109375, 
150, 3637805706, 0.45481398701667786, -0.48753228783607483, -0.39519691467285156, -0.6318695545196533, 9.581656455993652, 0.6081415414810181, 1.9509652853012085, 3.1836445331573486, 1.670867919921875, -0.4513612687587738, -0.801025390625, -0.094482421875, 0.097412109375, 
151, 3637814039, 0.454950213432312, -0.48735958337783813, -0.3953110873699188, -0.6318333745002747, 9.608890533447266, 0.5934688448905945, 1.9370019435882568, 2.7369577884674072, 1.7101343870162964, -0.38548141717910767, -0.799072265625, -0.09619140625, 0.09619140625, 
152, 3637822372, 0.4550582766532898, -0.4872018098831177, -0.3953838050365448, -0.631831705570221, 9.600942611694336, 0.5674250721931458, 1.9565633535385132, 1.9106940031051636, 1.7890263795852661, -0.46708837151527405, -0.801513671875, -0.09423828125, 0.094482421875, 
153, 3637830705, 0.45513755083084106, -0.487087219953537, -0.39544644951820374, -0.6318237781524658, 9.61364459991455, 0.5454708337783813, 1.9967299699783325, 1.39003324508667, 1.4084498882293701, -0.3937804102897644, -0.801513671875, -0.094970703125, 0.097412109375, 
154, 3637839038, 0.4552055299282074, -0.4869765341281891, -0.39549490809440613, -0.6318299174308777, 9.594160079956055, 0.515717625617981, 1.9960111379623413, 1.0941376686096191, 1.3628309965133667, -0.4453931152820587, -0.799072265625, -0.094482421875, 0.096923828125, 
155, 3637847371, 0.45527923107147217, -0.48688119649887085, -0.3955322504043579, -0.6318266987800598, 9.614407539367676, 0.5558675527572632, 1.996070384979248, 0.9872750639915466, 1.3996385335922241, -0.19844627380371094, -0.801513671875, -0.093505859375, 0.099853515625, 
156, 3637855704, 0.4553365409374237, -0.48680129647254944, -0.395560622215271, -0.6318292617797852, 9.603092193603516, 0.55491042137146, 2.019512176513672, 0.6748326420783997, 1.1400638818740845, -0.21314884722232819, -0.802001953125, -0.09423828125, 0.093017578125, 
157, 3637864037, 0.4553949236869812, -0.48672568798065186, -0.39558207988739014, -0.6318320035934448, 9.634772300720215, 0.5443814396858215, 2.0142834186553955, 0.588717520236969, 1.2845793962478638, -0.15567050874233246, -0.801513671875, -0.093994140625, 0.097412109375, 
158, 3637872370, 0.4554698169231415, -0.4866349697113037, -0.3955904245376587, -0.6318426728248596, 9.62440013885498, 0.5132594108581543, 1.9874675273895264, 0.6425586938858032, 1.509831190109253, -0.036538705229759216, -0.802001953125, -0.09375, 0.096435546875, 
159, 3637880703, 0.45556655526161194, -0.48654091358184814, -0.3956093490123749, -0.6318334341049194, 9.654723167419434, 0.5236307382583618, 2.0051748752593994, 1.0022082328796387, 1.589440107345581, 0.16956621408462524, -0.800537109375, -0.09521484375, 0.096435546875, 
160, 3637889036, 0.45567965507507324, -0.4864342212677002, -0.395615816116333, -0.6318300366401672, 9.679886817932129, 0.5548796057701111, 2.011835813522339, 1.0586875677108765, 1.7729147672653198, 0.30926623940467834, -0.801025390625, -0.09716796875, 0.09521484375, 
161, 3637897369, 0.4558045268058777, -0.48633435368537903, -0.39562150835990906, -0.6318132877349854, 9.66238021850586, 0.5647245049476624, 2.0239057540893555, 1.1559191942214966, 1.8237336874008179, 0.5177149772644043, -0.801513671875, -0.0947265625, 0.096923828125, 
162, 3637905702, 0.45591846108436584, -0.4862329363822937, -0.3956460654735565, -0.6317937970161438, 9.711816787719727, 0.5908520817756653, 1.981743335723877, 1.2743338346481323, 1.5115985870361328, 0.32635098695755005, -0.801513671875, -0.09375, 0.094482421875, 
163, 3637914035, 0.4560326635837555, -0.4861440360546112, -0.3956592381000519, -0.6317715048789978, 9.698513984680176, 0.608205258846283, 1.9613795280456543, 1.1138861179351807, 1.58744215965271, 0.47020047903060913, -0.801025390625, -0.09423828125, 0.096435546875, 
164, 3637922368, 0.4561334550380707, -0.48605501651763916, -0.3956490755081177, -0.6317735910415649, 9.665900230407715, 0.625278115272522, 1.9805790185928345, 0.690457284450531, 1.6935875415802002, 0.37591448426246643, -0.802490234375, -0.092041015625, 0.098388671875, 
165, 3637930701, 0.45619839429855347, -0.48601269721984863, -0.39561131596565247, -0.6317828893661499, 9.651939392089844, 0.637368381023407, 1.9747639894485474, -0.12198779731988907, 1.446743130683899, 0.4381570816040039, -0.802001953125, -0.09326171875, 0.095458984375, 
166, 3637939034, 0.45621222257614136, -0.4860016703605652, -0.39554354548454285, -0.6318237781524658, 9.649506568908691, 0.6099587082862854, 2.0060505867004395, -1.09274160861969, 1.1648584604263306, 0.18608741462230682, -0.801513671875, -0.09326171875, 0.093017578125, 
167, 3637947367, 0.456184059381485, -0.4860247075557709, -0.3954564332962036, -0.6318809390068054, 9.621947288513184, 0.583949625492096, 2.0098230838775635, -1.8435460329055786, 1.0011067390441895, 0.015547839924693108, -0.800048828125, -0.09521484375, 0.095947265625, 
168, 3637955700, 0.45614999532699585, -0.4860491454601288, -0.3953936696052551, -0.6319261193275452, 9.58654499053955, 0.5392630696296692, 2.039236545562744, -1.6143499612808228, 0.5926365256309509, -0.09724444150924683, -0.802490234375, -0.092041015625, 0.097900390625, 
169, 3637964033, 0.456121027469635, -0.48607292771339417, -0.39536261558532715, -0.6319481134414673, 9.595739364624023, 0.5090535283088684, 2.0540246963500977, -1.1779602766036987, 0.4031936824321747, -0.14145462214946747, -0.800537109375, -0.0947265625, 0.094482421875, 
170, 3637972366, 0.45611101388931274, -0.48606646060943604, -0.3953533172607422, -0.6319661736488342, 9.595932006835938, 0.48878952860832214, 2.0883727073669434, -0.6468490958213806, 0.47522082924842834, -0.24365539848804474, -0.801025390625, -0.093505859375, 0.096923828125, 
171, 3637980699, 0.4561266601085663, -0.4860537648200989, -0.3953835666179657, -0.6319455504417419, 9.599393844604492, 0.4889896512031555, 2.0682730674743652, 0.11400895565748215, 0.29200229048728943, -0.09450371563434601, -0.801513671875, -0.095703125, 0.093017578125, 
172, 3637989032, 0.4561625123023987, -0.48601624369621277, -0.3954295814037323, -0.6319196820259094, 9.618943214416504, 0.5197041034698486, 2.028181552886963, 0.5741686820983887, 0.354962021112442, -0.10994909703731537, -0.802490234375, -0.09326171875, 0.095947265625, 
173, 3637997365, 0.4562205970287323, -0.4859665036201477, -0.3954671323299408, -0.6318926811218262, 9.634407043457031, 0.5036316514015198, 1.996008038520813, 0.7263172268867493, 0.7577459216117859, 0.06326716393232346, -0.801025390625, -0.09375, 0.095458984375, 
174, 3638005698, 0.45628589391708374, -0.4859136939048767, -0.39548665285110474, -0.6318739652633667, 9.635838508605957, 0.5305768251419067, 2.0197768211364746, 0.5971446633338928, 0.8610994219779968, 0.1970759481191635, -0.802001953125, -0.095703125, 0.093017578125, 
175, 3638014031, 0.45633745193481445, -0.4858870506286621, -0.39548832178115845, -0.6318561434745789, 9.634872436523438, 0.5280371904373169, 2.020477771759033, 0.17912033200263977, 0.8068227171897888, 0.3130571246147156, -0.801513671875, -0.09423828125, 0.096435546875, 
176, 3638022364, 0.456358402967453, -0.48588207364082336, -0.3954668939113617, -0.631858229637146, 9.653849601745605, 0.5215212106704712, 2.0384747982025146, -0.46906062960624695, 0.6004488468170166, 0.21418622136116028, -0.804443359375, -0.09375, 0.093994140625, 
177, 3638030697, 0.45636656880378723, -0.48590242862701416, -0.39542144536972046, -0.6318650841712952, 9.601468086242676, 0.5101908445358276, 2.0266435146331787, -0.9501472115516663, 0.6234760284423828, 0.3525542914867401, -0.799560546875, -0.094482421875, 0.097900390625, 
178, 3638039030, 0.45637980103492737, -0.4859309792518616, -0.3953533470630646, -0.6318762302398682, 9.550104141235352, 0.4687114953994751, 2.02594256401062, -1.1861822605133057, 0.6191985011100769, 0.5858487486839294, -0.802001953125, -0.09375, 0.093994140625, 
179, 3638047363, 0.4564041495323181, -0.48597028851509094, -0.3952835500240326, -0.6318721175193787, 9.523695945739746, 0.4350716769695282, 1.963505506515503, -1.112899899482727, 0.6251409649848938, 0.8268530368804932, -0.801025390625, -0.0927734375, 0.092041015625, 
180, 3638055696, 0.45649486780166626, -0.4859766662120819, -0.3952445089817047, -0.6318261027336121, 9.477873802185059, 0.4436837136745453, 1.9393861293792725, 0.03496342897415161, 0.6709136366844177, 1.301741123199463, -0.801513671875, -0.0927734375, 0.095947265625, 
181, 3638064029, 0.4566166400909424, -0.48599526286125183, -0.3952462375164032, -0.6317226886749268, 9.499436378479004, 0.45318740606307983, 1.9103246927261353, 0.8310796022415161, 0.2215375304222107, 1.7078036069869995, -0.800537109375, -0.09326171875, 0.094970703125, 
182, 3638072362, 0.45674458146095276, -0.4860308766365051, -0.39529094099998474, -0.6315749287605286, 9.547163963317871, 0.5033517479896545, 1.9390419721603394, 1.3820160627365112, -0.5881156921386719, 1.8636661767959595, -0.802978515625, -0.09326171875, 0.093994140625, 
183, 3638080695, 0.45685893297195435, -0.48608601093292236, -0.39535582065582275, -0.6314089894294739, 9.61022663116455, 0.5364964008331299, 1.90629243850708, 1.4394174814224243, -0.9482772350311279, 1.810106635093689, -0.803955078125, -0.0908203125, 0.0947265625, 
184, 3638089028, 0.4569845199584961, -0.48614466190338135, -0.39539510011672974, -0.6312484741210938, 9.650078773498535, 0.6098087430000305, 1.8854345083236694, 1.2427003383636475, -0.8510201573371887, 2.085127115249634, -0.801513671875, -0.09228515625, 0.095458984375, 
185, 3638097361, 0.45710331201553345, -0.4862386882305145, -0.3953852951526642, -0.6310959458351135, 9.737763404846191, 0.6965583562850952, 1.8968048095703125, 0.5013730525970459, -0.7039945125579834, 2.4753599166870117, -0.804443359375, -0.091796875, 0.09423828125, 
186, 3638105694, 0.4572128355503082, -0.48635464906692505, -0.39527571201324463, -0.6309959292411804, 9.745779991149902, 0.7378857731819153, 1.917076587677002, -0.8445398211479187, -0.0957588255405426, 2.87214994430542, -0.803466796875, -0.0908203125, 0.09375, 
187, 3638114027, 0.45728206634521484, -0.4865201413631439, -0.3951171934604645, -0.630917489528656, 9.72072982788086, 0.7289039492607117, 1.9198644161224365, -1.975075364112854, -0.16204847395420074, 2.963644027709961, -0.802978515625, -0.091796875, 0.0966796875, 
188, 3638122360, 0.45727089047431946, -0.48675432801246643, -0.394885778427124, -0.630889892578125, 9.684282302856445, 0.700026273727417, 1.9151244163513184, -3.8473734855651855, -0.527384340763092, 2.82773494720459, -0.801513671875, -0.092041015625, 0.096435546875, 
189, 3638130693, 0.4571755528450012, -0.4870641231536865, -0.39461565017700195, -0.6308890581130981, 9.652173042297363, 0.6468968987464905, 1.9651399850845337, -5.369909763336182, -1.0854930877685547, 2.581531047821045, -0.802490234375, -0.0908203125, 0.095703125, 
190, 3638139026, 0.45699602365493774, -0.48740968108177185, -0.39435532689094543, -0.6309149861335754, 9.660652160644531, 0.6795971989631653, 1.9503511190414429, -6.21661376953125, -1.8664199113845825, 1.8272939920425415, -0.802978515625, -0.0908203125, 0.09619140625, 
191, 3638147359, 0.4566620886325836, -0.4878697693347931, -0.39408600330352783, -0.6309692859649658, 9.678467750549316, 0.6610291004180908, 1.946424126625061, -8.206122398376465, -3.320462942123413, 0.975723147392273, -0.801025390625, -0.090576171875, 0.095703125, 
192, 3638155692, 0.4562492072582245, -0.48838552832603455, -0.3937342166900635, -0.6310887932777405, 9.716153144836426, 0.5471503734588623, 2.021759271621704, -10.150320053100586, -3.4061427116394043, 0.7513680458068848, -0.803466796875, -0.09130859375, 0.09619140625, 
193, 3638164025, 0.45588740706443787, -0.4888250231742859, -0.3934239149093628, -0.6312034130096436, 9.708874702453613, 0.5065539479255676, 2.0943965911865234, -8.947040557861328, -2.6305181980133057, 0.5201483368873596, -0.803466796875, -0.090576171875, 0.0966796875, 
194, 3638172358, 0.4555455148220062, -0.48920828104019165, -0.39321190118789673, -0.6312854290008545, 9.676057815551758, 0.5779933929443359, 2.2080042362213135, -7.4266815185546875, -3.0001060962677, -0.05521148815751076, -0.802978515625, -0.0908203125, 0.09521484375, 
195, 3638180691, 0.45507001876831055, -0.4896593689918518, -0.39295458793640137, -0.6314385533332825, 9.790939331054688, 0.5446193218231201, 2.24457049369812, -9.530019760131836, -3.419795274734497, -0.9999414086341858, -0.802490234375, -0.092529296875, 0.098388671875, 
196, 3638189024, 0.45466476678848267, -0.4899551272392273, -0.39263689517974854, -0.6316989064216614, 9.86480712890625, 0.377882182598114, 2.1794214248657227, -9.186585426330566, -0.7213097214698792, -1.4815915822982788, -0.801513671875, -0.09033203125, 0.09423828125, 
197, 3638197357, 0.4544910490512848, -0.4899783134460449, -0.3925052285194397, -0.6318877339363098, 9.778018951416016, 0.233860045671463, 2.123561143875122, -3.929236650466919, 1.3800437450408936, -1.7628101110458374, -0.803466796875, -0.091064453125, 0.0966796875, 
198, 3638205690, 0.45458313822746277, -0.4897267818450928, -0.3927299976348877, -0.6318769454956055, 9.71911907196045, 0.29548516869544983, 2.14043927192688, 3.762782335281372, 1.5004308223724365, -2.0750222206115723, -0.803466796875, -0.092041015625, 0.09716796875, 
199, 3638214023, 0.45482203364372253, -0.48933151364326477, -0.3931116461753845, -0.6317737698554993, 9.760791778564453, 0.341711163520813, 2.258265733718872, 7.504100799560547, 2.0670948028564453, -2.071078062057495, -0.802001953125, -0.09130859375, 0.09521484375, 
200, 3638222356, 0.4551462233066559, -0.4888405203819275, -0.39355653524398804, -0.631643533706665, 9.880789756774902, 0.2680360972881317, 2.318925142288208, 9.379830360412598, 2.654147148132324, -2.0878801345825195, -0.801513671875, -0.09130859375, 0.094970703125, 
201, 3638230689, 0.4556505084037781, -0.48819226026535034, -0.39413729310035706, -0.6314190030097961, 9.975531578063965, 0.28274092078208923, 2.3515496253967285, 13.263951301574707, 3.637171506881714, -1.7142460346221924, -0.802978515625, -0.09375, 0.094970703125, 
202, 3638239022, 0.45625531673431396, -0.4873908758163452, -0.3946657180786133, -0.6312711834907532, 9.961557388305664, 0.19741849601268768, 2.32198166847229, 14.030481338500977, 6.227973937988281, -1.7843775749206543, -0.802001953125, -0.09130859375, 0.0947265625, 
203, 3638247355, 0.45679575204849243, -0.4866902828216553, -0.3952438533306122, -0.6310592293739319, 10.067806243896484, 0.13706424832344055, 2.3552300930023193, 13.74239730834961, 4.385848522186279, -1.7462633848190308, -0.803466796875, -0.0908203125, 0.09521484375, 
204, 3638255688, 0.4573058485984802, -0.4860193431377411, -0.3958019018173218, -0.6308571100234985, 10.170316696166992, 0.32071828842163086, 2.440537691116333, 13.129220008850098, 4.032501697540283, -1.7564839124679565, -0.802490234375, -0.0927734375, 0.096435546875, 
205, 3638264021, 0.4575730264186859, -0.48554158210754395, -0.3962712585926056, -0.6307365894317627, 10.156572341918945, 0.4815928339958191, 2.3993537425994873, 9.074559211730957, 2.2586119174957275, -2.7554895877838135, -0.804931640625, -0.09375, 0.096435546875, 
206, 3638272354, 0.4577941596508026, -0.48501142859458923, -0.39666178822517395, -0.6307384967803955, 10.112207412719727, 0.7186377644538879, 2.3892507553100586, 7.7470269203186035, 3.654101848602295, -3.6601340770721436, -0.802001953125, -0.0927734375, 0.093505859375, 
207, 3638280687, 0.4579978287220001, -0.48437103629112244, -0.39692550897598267, -0.6309168338775635, 10.099747657775879, 0.975226640701294, 2.5718119144439697, 6.262399673461914, 6.60960054397583, -4.70142936706543, -0.802001953125, -0.09130859375, 0.09521484375, 
208, 3638289020, 0.4581194818019867, -0.48365578055381775, -0.3969963490962982, -0.631332516670227, 10.128837585449219, 1.1174520254135132, 2.7330238819122314, 3.218198299407959, 9.486974716186523, -6.009881019592285, -0.802978515625, -0.09375, 0.093017578125, 
209, 3638297353, 0.45806196331977844, -0.4827924966812134, -0.3969046473503113, -0.6320924162864685, 9.938034057617188, 1.172834873199463, 2.8254554271698, -0.3334333896636963, 13.223069190979004, -9.479740142822266, -0.802001953125, -0.094482421875, 0.091552734375, 
210, 3638305686, 0.45777836441993713, -0.481880784034729, -0.3966435492038727, -0.633156418800354, 9.801040649414062, 1.2348359823226929, 2.884742498397827, -4.657911777496338, 15.381659507751465, -12.481372833251953, -0.802490234375, -0.09619140625, 0.087646484375, 
211, 3638314019, 0.4574129581451416, -0.4808880686759949, -0.396222323179245, -0.6344375610351562, 9.84516429901123, 1.3577827215194702, 3.011547565460205, -7.285908222198486, 18.195568084716797, -13.957062721252441, -0.80029296875, -0.096923828125, 0.09033203125, 
212, 3638322352, 0.4569653570652008, -0.4797874391078949, -0.39555612206459045, -0.6360073685646057, 9.806615829467773, 1.2711540460586548, 3.0007474422454834, -10.844396591186523, 22.031435012817383, -15.442180633544922, -0.79931640625, -0.10009765625, 0.08544921875, 
213, 3638330685, 0.4564882516860962, -0.47862234711647034, -0.3948512673377991, -0.6376636028289795, 9.830174446105957, 0.996771514415741, 3.070038080215454, -11.453274726867676, 23.349443435668945, -16.349977493286133, -0.80126953125, -0.100341796875, 0.08154296875, 
214, 3638339018, 0.4561469256877899, -0.47726795077323914, -0.39422813057899475, -0.6393066048622131, 9.93494701385498, 0.6713655591011047, 3.067135810852051, -8.571798324584961, 25.0435733795166, -16.629634857177734, -0.80029296875, -0.10400390625, 0.078857421875, 
215, 3638347351, 0.4559148848056793, -0.47566157579421997, -0.39361971616744995, -0.6410418152809143, 9.94418716430664, 0.29674944281578064, 2.882051944732666, -6.650038719177246, 28.462539672851562, -17.719831466674805, -0.80224609375, -0.105224609375, 0.072998046875, 
216, 3638355684, 0.4556962251663208, -0.47401121258735657, -0.3930686116218567, -0.6427555680274963, 9.979846954345703, 0.23788131773471832, 2.7320315837860107, -5.65989351272583, 28.32509422302246, -18.070362091064453, -0.80224609375, -0.106689453125, 0.071044921875, 
217, 3638364017, 0.4555145800113678, -0.4724244475364685, -0.3924746811389923, -0.644413411617279, 10.18027114868164, 0.24246972799301147, 2.73432993888855, -5.902716159820557, 27.96070671081543, -16.783166885375977, -0.801025390625, -0.1103515625, 0.0693359375, 
218, 3638372350, 0.45536181330680847, -0.4708881676197052, -0.39177241921424866, -0.6460710167884827, 10.351197242736816, 0.25707733631134033, 2.86500883102417, -6.9806671142578125, 28.253196716308594, -15.537751197814941, -0.800048828125, -0.1103515625, 0.05908203125, 
219, 3638380683, 0.45520251989364624, -0.4693116247653961, -0.390952467918396, -0.6478244662284851, 10.385744094848633, 0.46007198095321655, 2.9625840187072754, -8.333536148071289, 30.024805068969727, -15.664159774780273, -0.801513671875, -0.113037109375, 0.056396484375, 
220, 3638389016, 0.4550817012786865, -0.46766602993011475, -0.38981688022613525, -0.6497809290885925, 10.386011123657227, 0.7458507418632507, 3.014174461364746, -11.555761337280273, 34.041259765625, -14.911742210388184, -0.799560546875, -0.11474609375, 0.051513671875, 
221, 3638397349, 0.45497867465019226, -0.465910404920578, -0.38823848962783813, -0.6520552635192871, 10.078661918640137, 1.13799250125885, 3.071434497833252, -16.41702651977539, 40.024906158447266, -14.501026153564453, -0.8017578125, -0.118896484375, 0.0478515625, 
222, 3638405682, 0.4548034965991974, -0.46405932307243347, -0.3862536549568176, -0.6546710133552551, 9.825539588928223, 1.0791865587234497, 3.1041862964630127, -21.7468318939209, 45.13745880126953, -15.174100875854492, -0.80126953125, -0.12060546875, 0.0400390625, 
223, 3638414015, 0.4544188380241394, -0.46232396364212036, -0.3838379979133606, -0.6575802564620972, 9.613836288452148, 1.0188279151916504, 3.375734329223633, -29.244407653808594, 47.63651657104492, -15.543928146362305, -0.80029296875, -0.120849609375, 0.03515625, 
224, 3638422348, 0.4539194405078888, -0.46062973141670227, -0.3811621367931366, -0.660663366317749, 9.61555290222168, 1.242692470550537, 3.506035566329956, -33.50095748901367, 49.30223846435547, -15.78384017944336, -0.79833984375, -0.122802734375, 0.026123046875, 
225, 3638430681, 0.45338359475135803, -0.4588790833950043, -0.3781827390193939, -0.6639535427093506, 9.735611915588379, 1.226250171661377, 3.6029202938079834, -37.228965759277344, 52.91322326660156, -15.791891098022461, -0.80078125, -0.124755859375, 0.018798828125, 
226, 3638439014, 0.45272791385650635, -0.45716413855552673, -0.37489768862724304, -0.6674379110336304, 9.931699752807617, 1.0190281867980957, 3.72501277923584, -42.002803802490234, 55.012420654296875, -15.970251083374023, -0.800537109375, -0.127685546875, 0.009033203125, 
227, 3638447347, 0.45205795764923096, -0.4553925096988678, -0.37134239077568054, -0.6710807085037231, 10.148652076721191, 1.0287829637527466, 3.951221227645874, -45.044639587402344, 58.21492004394531, -15.690988540649414, -0.798583984375, -0.12939453125, 0.00048828125, 
228, 3638455680, 0.4513934552669525, -0.45360320806503296, -0.3673866391181946, -0.6749061346054077, 10.335596084594727, 1.1321841478347778, 4.252918720245361, -49.520572662353516, 61.962799072265625, -14.34875202178955, -0.796142578125, -0.1298828125, -0.009765625, 
229, 3638464013, 0.4506545662879944, -0.45189347863197327, -0.3630143404006958, -0.6789008975028992, 10.379586219787598, 1.0962923765182495, 4.4436821937561035, -55.20409393310547, 64.56065368652344, -13.09611701965332, -0.79833984375, -0.130859375, -0.0185546875, 
230, 3638472346, 0.44993260502815247, -0.4501020014286041, -0.35832399129867554, -0.6830489635467529, 10.359906196594238, 1.1031150817871094, 4.492498874664307, -58.32278823852539, 68.2629623413086, -12.31342887878418, -0.798828125, -0.13427734375, -0.028564453125, 
231, 3638480679, 0.44939354062080383, -0.4479425847530365, -0.35342249274253845, -0.687363862991333, 10.38754940032959, 1.0190463066101074, 4.506448268890381, -57.72589874267578, 75.02204132080078, -12.138849258422852, -0.79736328125, -0.132568359375, -0.041259765625, 
232, 3638489012, 0.4490756392478943, -0.44535595178604126, -0.3484376072883606, -0.69178307056427, 10.197999954223633, 0.9870228171348572, 4.762450695037842, -55.012969970703125, 81.2300796508789, -12.251252174377441, -0.795654296875, -0.1357421875, -0.056640625, 
233, 3638497345, 0.44894060492515564, -0.44235050678253174, -0.3434002697467804, -0.6963030099868774, 9.93740463256836, 0.9751297831535339, 4.98694372177124, -52.295413970947266, 87.08868408203125, -12.82164192199707, -0.793212890625, -0.13720703125, -0.0693359375, 
234, 3638505678, 0.4489673376083374, -0.43901190161705017, -0.3383444547653198, -0.7008589506149292, 9.954608917236328, 0.9570375084877014, 5.071382522583008, -49.59413528442383, 91.31815338134766, -12.952666282653809, -0.793701171875, -0.137939453125, -0.0830078125, 
235, 3638514011, 0.4490342438220978, -0.43542420864105225, -0.3332371413707733, -0.7054857611656189, 9.97533130645752, 0.9166115522384644, 5.060662269592285, -48.6428337097168, 94.70356750488281, -13.852922439575195, -0.795654296875, -0.13720703125, -0.09716796875, 
236, 3638522344, 0.4491308331489563, -0.43163812160491943, -0.3279782235622406, -0.7101997137069702, 9.90208625793457, 1.1970305442810059, 4.987273216247559, -49.107460021972656, 98.16887664794922, -14.10226058959961, -0.79150390625, -0.13818359375, -0.110595703125, 
237, 3638530677, 0.44928595423698425, -0.4277060031890869, -0.3225157558917999, -0.7149661183357239, 10.06959056854248, 1.3599313497543335, 5.201838970184326, -50.08622360229492, 101.47554779052734, -13.30506706237793, -0.78955078125, -0.138671875, -0.128662109375, 
238, 3638539010, 0.4494534730911255, -0.42361506819725037, -0.3167423903942108, -0.7198606729507446, 10.262340545654297, 1.128769040107727, 5.336137294769287, -52.653831481933594, 105.71981811523438, -12.851500511169434, -0.78857421875, -0.1376953125, -0.139892578125, 
239, 3638547343, 0.44958940148353577, -0.4194173216819763, -0.31063008308410645, -0.7248797416687012, 10.132572174072266, 1.02862548828125, 5.451030254364014, -56.08170700073242, 109.50537109375, -12.420063018798828, -0.785888671875, -0.137451171875, -0.158203125, 
240, 3638555676, 0.44962093234062195, -0.4152753949165344, -0.3041076362133026, -0.7299926280975342, 10.085906028747559, 1.2542109489440918, 5.561335563659668, -61.51041793823242, 111.53400421142578, -11.441571235656738, -0.781494140625, -0.13916015625, -0.17333984375, 
241, 3638564009, 0.4495178759098053, -0.41110703349113464, -0.29703474044799805, -0.7353083491325378, 9.995198249816895, 1.3295916318893433, 5.741810321807861, -68.49834442138672, 115.83970642089844, -11.007087707519531, -0.7802734375, -0.137451171875, -0.19140625, 
242, 3638572342, 0.4493201971054077, -0.406891405582428, -0.28961557149887085, -0.7407137751579285, 9.682283401489258, 1.414675235748291, 5.98805570602417, -72.60059356689453, 118.5386962890625, -10.760019302368164, -0.775390625, -0.136962890625, -0.211669921875, 
243, 3638580675, 0.449136883020401, -0.4025501608848572, -0.2818942070007324, -0.7461555600166321, 9.631460189819336, 1.3523424863815308, 6.402461051940918, -74.97794342041016, 121.9854736328125, -9.63744068145752, -0.772216796875, -0.13427734375, -0.227783203125, 
244, 3638589008, 0.44890615344047546, -0.3979252278804779, -0.2737274467945099, -0.7517946362495422, 9.80877685546875, 1.1796027421951294, 6.450235843658447, -78.81420135498047, 128.5170135498047, -9.986717224121094, -0.768798828125, -0.134033203125, -0.247314453125, 
245, 3638597341, 0.44885897636413574, -0.3927103877067566, -0.2653282880783081, -0.7575541138648987, 9.645848274230957, 1.0044660568237305, 6.546390056610107, -77.03498840332031, 137.43435668945312, -9.767114639282227, -0.7626953125, -0.13330078125, -0.26513671875, 
246, 3638605674, 0.4489126205444336, -0.3871542513370514, -0.25698477029800415, -0.7632372379302979, 9.46194076538086, 0.8178514838218689, 6.510322570800781, -73.51567840576172, 140.56744384765625, -9.80587100982666, -0.75732421875, -0.12890625, -0.28759765625, 
247, 3638614007, 0.4490983486175537, -0.3812589943408966, -0.2488647997379303, -0.7687664031982422, 9.332357406616211, 0.634113073348999, 6.622633457183838, -67.83879089355469, 142.42813110351562, -9.841501235961914, -0.752685546875, -0.1279296875, -0.3115234375, 
248, 3638622340, 0.4492312967777252, -0.37533703446388245, -0.24081599712371826, -0.7741474509239197, 9.340025901794434, 0.42520999908447266, 6.952789783477783, -66.68012237548828, 141.28001403808594, -9.964882850646973, -0.745849609375, -0.1259765625, -0.330322265625, 
249, 3638630673, 0.4492456614971161, -0.36950254440307617, -0.2326096147298813, -0.7794371247291565, 9.266348838806152, 0.5055433511734009, 7.0344157218933105, -69.22245788574219, 140.48912048339844, -9.542571067810059, -0.73681640625, -0.121826171875, -0.350341796875, 
250, 3638639006, 0.44928741455078125, -0.36353063583374023, -0.22428153455257416, -0.7846447229385376, 9.019013404846191, 0.5954496264457703, 7.238576889038086, -69.2602310180664, 142.35568237304688, -8.581303596496582, -0.7314453125, -0.11962890625, -0.370361328125, 
251, 3638647339, 0.44931691884994507, -0.35731109976768494, -0.21596576273441315, -0.789800763130188, 8.705031394958496, 0.48454582691192627, 7.645409107208252, -67.51705932617188, 144.68357849121094, -9.201467514038086, -0.724365234375, -0.114990234375, -0.389404296875, 
252, 3638655672, 0.44938090443611145, -0.3507664203643799, -0.20770840346813202, -0.7948963642120361, 8.770031929016113, 0.2434339076280594, 7.935959339141846, -64.50784301757812, 147.63177490234375, -9.724321365356445, -0.715087890625, -0.111083984375, -0.412109375, 
253, 3638664005, 0.44946998357772827, -0.34396833181381226, -0.19982491433620453, -0.7998222708702087, 9.158869743347168, -0.049107082188129425, 8.10090160369873, -58.26528549194336, 147.37185668945312, -10.911585807800293, -0.7080078125, -0.107421875, -0.4306640625, 
254, 3638672338, 0.4497147798538208, -0.336440771818161, -0.19247452914714813, -0.8046744465827942, 9.188986778259277, -0.2534070611000061, 8.059042930603027, -46.937591552734375, 152.15049743652344, -13.286081314086914, -0.697998046875, -0.10595703125, -0.448486328125, 
255, 3638680671, 0.44999563694000244, -0.32819420099258423, -0.18590524792671204, -0.809453547000885, 8.671884536743164, -0.3684598505496979, 8.332112312316895, -33.502723693847656, 155.06491088867188, -17.936296463012695, -0.6875, -0.10546875, -0.47021484375, 
256, 3638689004, 0.4503841698169708, -0.31911709904670715, -0.1803014874458313, -0.8141209483146667, 8.35672378540039, -0.25146597623825073, 8.594149589538574, -16.828460693359375, 158.07606506347656, -22.544431686401367, -0.677978515625, -0.105224609375, -0.490478515625, 
257, 3638697337, 0.4508682191371918, -0.30912116169929504, -0.17555208504199982, -0.8187347054481506, 8.165008544921875, -0.42638298869132996, 8.36291790008545, -1.0354931354522705, 163.10398864746094, -27.15554428100586, -0.662109375, -0.106689453125, -0.5078125, 
258, 3638705670, 0.45139405131340027, -0.29854315519332886, -0.17156602442264557, -0.8232033848762512, 7.692883014678955, -0.6270108222961426, 8.081746101379395, 11.712883949279785, 164.37742614746094, -30.450454711914062, -0.653076171875, -0.1083984375, -0.525146484375, 
259, 3638714003, 0.4519861042499542, -0.2878127694129944, -0.1682262122631073, -0.8273787498474121, 7.290893077850342, -0.47773662209510803, 7.892301082611084, 20.92622947692871, 161.07763671875, -30.88237190246582, -0.63916015625, -0.11376953125, -0.54638671875, 
260, 3638722336, 0.4525620639324188, -0.2770755887031555, -0.16528265178203583, -0.8313131332397461, 6.998467445373535, -0.15459409356117249, 7.5629401206970215, 25.982460021972656, 157.6659393310547, -31.16238021850586, -0.62548828125, -0.1181640625, -0.5615234375, 
261, 3638730669, 0.45304274559020996, -0.2664973735809326, -0.16232597827911377, -0.8350837826728821, 6.737165451049805, 0.1819826066493988, 7.238078594207764, 24.843114852905273, 155.12884521484375, -30.813735961914062, -0.612060546875, -0.12158203125, -0.576171875, 
262, 3638739002, 0.45341867208480835, -0.25612154603004456, -0.15924903750419617, -0.8387110233306885, 6.5058183670043945, 0.5420292019844055, 7.17218017578125, 22.146652221679688, 152.75498962402344, -30.23807144165039, -0.598876953125, -0.126953125, -0.590087890625, 
263, 3638747335, 0.45366066694259644, -0.24587172269821167, -0.15602049231529236, -0.8422468900680542, 6.584857940673828, 0.6802576780319214, 7.4788408279418945, 19.32955551147461, 151.67832946777344, -30.396329879760742, -0.5849609375, -0.131591796875, -0.605712890625, 
264, 3638755668, 0.45372307300567627, -0.23570822179317474, -0.15248312056064606, -0.8457595109939575, 6.703730583190918, 0.4175800085067749, 7.506709575653076, 14.66840648651123, 152.09449768066406, -31.10860252380371, -0.5693359375, -0.134521484375, -0.62158203125, 
265, 3638764001, 0.4536249339580536, -0.2257375717163086, -0.14846478402614594, -0.8492400646209717, 6.398802280426025, 0.41705235838890076, 7.270390510559082, 7.404130935668945, 152.46849060058594, -30.80616569519043, -0.555908203125, -0.137451171875, -0.6357421875, 
266, 3638772334, 0.45350924134254456, -0.21582774817943573, -0.14425797760486603, -0.8525963425636292, 5.953680038452148, 0.6127460598945618, 7.099401950836182, 5.036812782287598, 152.45675659179688, -29.5339298248291, -0.538818359375, -0.142822265625, -0.653076171875, 
267, 3638780667, 0.4532901644706726, -0.2060970813035965, -0.1397714465856552, -0.8558616042137146, 5.406503200531006, 0.6228968501091003, 7.135659694671631, 0.4964142143726349, 151.69085693359375, -28.987476348876953, -0.5244140625, -0.144287109375, -0.665771484375, 
268, 3638789000, 0.45283564925193787, -0.19698351621627808, -0.13495899736881256, -0.8590148687362671, 5.039794445037842, 0.6466358304023743, 6.802779674530029, -7.621753692626953, 145.62301635742188, -28.954986572265625, -0.510986328125, -0.147216796875, -0.679931640625, 
269, 3638797333, 0.4521830081939697, -0.18860477209091187, -0.12983949482440948, -0.8620230555534363, 4.94208288192749, 0.8291686773300171, 6.806977272033691, -16.1092472076416, 138.1674346923828, -28.19213104248047, -0.494873046875, -0.1474609375, -0.693115234375, 
270, 3638805666, 0.4514547288417816, -0.18054090440273285, -0.12445365637540817, -0.8649208545684814, 5.065768718719482, 0.9202341437339783, 7.115355491638184, -21.207706451416016, 135.59603881835938, -27.152563095092773, -0.47998046875, -0.1474609375, -0.7060546875, 
271, 3638813999, 0.45063337683677673, -0.17274120450019836, -0.11869391053915024, -0.8677470088005066, 5.219750881195068, 0.6946346163749695, 7.632589817047119, -27.42341423034668, 134.5220184326172, -26.431028366088867, -0.465576171875, -0.148193359375, -0.71826171875, 
272, 3638822332, 0.449847012758255, -0.16470195353031158, -0.11264456063508987, -0.8705201745033264, 4.981625556945801, 0.6542573571205139, 7.809772491455078, -29.205589294433594, 139.0214385986328, -25.391586303710938, -0.451171875, -0.1474609375, -0.72900390625, 
273, 3638830665, 0.44905713200569153, -0.15653422474861145, -0.10663583129644394, -0.8731878399848938, 4.453033447265625, 0.3897627592086792, 8.312353134155273, -27.7908992767334, 140.15968322753906, -25.067670822143555, -0.435302734375, -0.146484375, -0.743408203125, 
274, 3638838998, 0.44831913709640503, -0.14867356419563293, -0.10059604048728943, -0.8756539225578308, 4.075348377227783, 0.26064854860305786, 8.386295318603516, -29.630517959594727, 136.20977783203125, -22.687835693359375, -0.42041015625, -0.144775390625, -0.757080078125, 
275, 3638847331, 0.44790923595428467, -0.14079692959785461, -0.09461845457553864, -0.8778291940689087, 4.188844203948975, 0.27004262804985046, 7.986563682556152, -27.733020782470703, 135.98060607910156, -17.089509963989258, -0.405517578125, -0.1416015625, -0.76708984375, 
276, 3638855664, 0.4476821720600128, -0.13275259733200073, -0.08886691182851791, -0.8797973990440369, 4.018942356109619, 0.009518465027213097, 7.9248833656311035, -23.323888778686523, 136.34837341308594, -14.265157699584961, -0.38916015625, -0.140869140625, -0.7783203125, 
277, 3638863997, 0.4473414123058319, -0.12491929531097412, -0.0831998735666275, -0.8816699981689453, 3.4813127517700195, 0.1400710493326187, 8.004794120788574, -23.714672088623047, 133.068603515625, -14.946983337402344, -0.374755859375, -0.138916015625, -0.787353515625, 
278, 3638872330, 0.4468543529510498, -0.11721967905759811, -0.07753145694732666, -0.8834890723228455, 3.2835795879364014, 0.5530238151550293, 8.129453659057617, -24.720035552978516, 131.08975219726562, -16.239131927490234, -0.3564453125, -0.13671875, -0.798583984375, 
279, 3638880663, 0.44623473286628723, -0.10976821184158325, -0.07184422016143799, -0.8852386474609375, 3.431098222732544, 0.8663734197616577, 8.188652992248535, -26.6385555267334, 128.0494384765625, -17.125286102294922, -0.343017578125, -0.13427734375, -0.8125, 
280, 3638888996, 0.4455021917819977, -0.10234441608190536, -0.06599311530590057, -0.8869507908821106, 3.5287210941314697, 0.6428725123405457, 8.459373474121094, -28.912477493286133, 128.43714904785156, -17.997316360473633, -0.32763671875, -0.1328125, -0.818115234375, 
281, 3638897329, 0.4446393847465515, -0.09508872032165527, -0.05985135957598686, -0.88862544298172, 3.186622381210327, 0.373534619808197, 8.74126148223877, -33.66302490234375, 128.1173858642578, -18.793136596679688, -0.312255859375, -0.12890625, -0.833984375, 
282, 3638905662, 0.44371873140335083, -0.08808664232492447, -0.053415119647979736, -0.8902161121368408, 2.7042043209075928, 0.2608349919319153, 8.686297416687012, -38.793663024902344, 126.54073333740234, -18.394344329833984, -0.2978515625, -0.12646484375, -0.83447265625, 
283, 3638913995, 0.442874014377594, -0.08136988431215286, -0.04669591411948204, -0.8916525840759277, 2.324364423751831, 0.25844401121139526, 8.482004165649414, -43.8217887878418, 124.76986694335938, -15.968278884887695, -0.281494140625, -0.123291015625, -0.845947265625, 
284, 3638922328, 0.44209620356559753, -0.07491429150104523, -0.03988630697131157, -0.8929340243339539, 2.189906597137451, 0.2546667158603668, 8.516868591308594, -46.316368103027344, 121.8607406616211, -13.938618659973145, -0.2666015625, -0.11669921875, -0.85595703125, 
285, 3638930661, 0.44139498472213745, -0.06882604211568832, -0.03259749338030815, -0.8940659165382385, 1.9439908266067505, 0.2676566541194916, 8.677175521850586, -54.30459213256836, 120.28109741210938, -11.389686584472656, -0.250244140625, -0.11328125, -0.864990234375, 
286, 3638938994, 0.44075310230255127, -0.06295253336429596, -0.02470220811665058, -0.8950679898262024, 1.4495683908462524, 0.5493910908699036, 8.465619087219238, -62.92095184326172, 121.0967025756836, -9.20520305633545, -0.23583984375, -0.10693359375, -0.869384765625, 
287, 3638947327, 0.44003164768218994, -0.057190194725990295, -0.016482967883348465, -0.8959984183311462, 1.1715028285980225, 0.5992690324783325, 8.39056396484375, -67.65961456298828, 121.73416137695312, -9.427083969116211, -0.21923828125, -0.097900390625, -0.88330078125, 
288, 3638955660, 0.43909528851509094, -0.051599010825157166, -0.008090570569038391, -0.8969117403030396, 0.9241399168968201, 0.1928682178258896, 9.064563751220703, -70.95915985107422, 120.4788589477539, -11.801695823669434, -0.204833984375, -0.091552734375, -0.89013671875, 
289, 3638963993, 0.4380735456943512, -0.045950740575790405, 0.0003066029166802764, -0.8977546691894531, 1.027228593826294, -0.4780583679676056, 9.412464141845703, -70.7666244506836, 121.28394317626953, -12.426131248474121, -0.191162109375, -0.0830078125, -0.89697265625, 
290, 3638972326, 0.43710416555404663, -0.03990873321890831, 0.008503383025527, -0.8984755873680115, 1.0519835948944092, -1.227345585823059, 9.258397102355957, -65.84806823730469, 124.72911834716797, -11.175955772399902, -0.17578125, -0.07421875, -0.90185546875, 
291, 3638980659, 0.43622255325317383, -0.033649712800979614, 0.01599813625216484, -0.8990578055381775, 0.8181765079498291, -1.8453000783920288, 9.347527503967285, -55.87380599975586, 123.23575592041016, -9.610474586486816, -0.1591796875, -0.065673828125, -0.909423828125, 
292, 3638988992, 0.4354054629802704, -0.027201006188988686, 0.02271859534084797, -0.8995273113250732, 0.6717454195022583, -1.9730017185211182, 9.58691120147705, -45.12250900268555, 120.73729705810547, -8.460749626159668, -0.142333984375, -0.060546875, -0.91748046875, 
293, 3638997325, 0.4346637725830078, -0.02074424922466278, 0.029025191441178322, -0.8998766541481018, 0.5438894629478455, -1.6646391153335571, 9.346800804138184, -39.98928451538086, 118.4240493774414, -6.952478885650635, -0.12451171875, -0.056884765625, -0.922607421875, 
294, 3639005658, 0.4340208172798157, -0.01431687269359827, 0.034952662885189056, -0.9001015424728394, 0.27276939153671265, -1.0475096702575684, 8.979452133178711, -35.467838287353516, 115.5859375, -5.11447286605835, -0.110107421875, -0.050537109375, -0.927734375, 
295, 3639013991, 0.4333767592906952, -0.00814057607203722, 0.040848568081855774, -0.9002404808998108, 0.0444265678524971, -0.5939114093780518, 8.963765144348145, -36.63983154296875, 112.40795135498047, -4.7325310707092285, -0.095703125, -0.0458984375, -0.932373046875, 
296, 3639022324, 0.43269866704940796, -0.0022922055795788765, 0.047011591494083405, -0.9002998471260071, -0.07412093877792358, -0.4190252423286438, 8.758570671081543, -41.92902374267578, 109.81395721435547, -4.844209671020508, -0.0810546875, -0.043701171875, -0.93408203125, 
297, 3639030657, 0.43196091055870056, 0.0032457695342600346, 0.053523119539022446, -0.9002876281738281, -0.3659786581993103, -0.23575906455516815, 8.483962059020996, -48.16010284423828, 108.21830749511719, -5.335779666900635, -0.066650390625, -0.035888671875, -0.94189453125, 
298, 3639038990, 0.43111974000930786, 0.00865431223064661, 0.06031735986471176, -0.9002254605293274, -0.6009941697120667, -0.41575944423675537, 8.29526138305664, -52.43942642211914, 108.23754119873047, -6.438027858734131, -0.05126953125, -0.029296875, -0.945068359375, 
299, 3639047323, 0.43020474910736084, 0.013581032864749432, 0.06740716844797134, -0.9000994563102722, -0.7836955785751343, -0.6812285780906677, 8.431239128112793, -59.02556610107422, 104.22601318359375, -7.396730422973633, -0.037109375, -0.02099609375, -0.952392578125, 
300, 3639055656, 0.42930153012275696, 0.01825176551938057, 0.07465122640132904, -0.8998764157295227, -0.6585305333137512, -0.9487780332565308, 8.298142433166504, -62.515716552734375, 101.8466567993164, -6.954954624176025, -0.023681640625, -0.015869140625, -0.951416015625, 
301, 3639063989, 0.42845892906188965, 0.02265544980764389, 0.08202401548624039, -0.8995359539985657, -0.7359147667884827, -1.2544277906417847, 8.27938461303711, -65.84883880615234, 99.39881896972656, -5.804347515106201, -0.010498046875, -0.006591796875, -0.958251953125, 
302, 3639072322, 0.4277099668979645, 0.026490468531847, 0.08941759169101715, -0.8990830779075623, -0.9124917984008789, -1.174753189086914, 8.295025825500488, -69.58370208740234, 92.28443908691406, -4.644863128662109, 0.003662109375, 0.000732421875, -0.958984375, 
303, 3639080655, 0.42701318860054016, 0.02960876189172268, 0.09703587740659714, -0.8985267877578735, -0.8829048871994019, -0.9637898206710815, 8.173074722290039, -76.75155639648438, 84.85111236572266, -4.340575218200684, 0.0166015625, 0.01220703125, -0.960693359375, 
304, 3639088988, 0.42629939317703247, 0.031993426382541656, 0.10475724190473557, -0.8979167938232422, -0.9372532963752747, -1.0104010105133057, 7.97266149520874, -82.37112426757812, 76.30329132080078, -5.2711100578308105, 0.02685546875, 0.022705078125, -0.962890625, 
305, 3639097321, 0.4254550337791443, 0.033579353243112564, 0.11270469427108765, -0.8972966074943542, -1.2128143310546875, -1.2484408617019653, 8.275761604309082, -89.830810546875, 68.08905029296875, -8.055996894836426, 0.03759765625, 0.03271484375, -0.9638671875, 
306, 3639105654, 0.42444565892219543, 0.03437093645334244, 0.12125728279352188, -0.8966294527053833, -1.4504631757736206, -1.3763517141342163, 8.739866256713867, -101.91445922851562, 61.97465896606445, -11.344265937805176, 0.044677734375, 0.0458984375, -0.96923828125, 
307, 3639113987, 0.4232282042503357, 0.03523360565304756, 0.13002122938632965, -0.8959431052207947, -1.6721678972244263, -1.4969325065612793, 9.323203086853027, -104.06979370117188, 64.571533203125, -13.759627342224121, 0.052490234375, 0.059326171875, -0.970947265625, 
308, 3639122320, 0.42204582691192627, 0.03698303923010826, 0.1383669078350067, -0.8951801657676697, -1.6904571056365967, -2.449828863143921, 9.995899200439453, -93.87799835205078, 72.9073257446289, -11.113221168518066, 0.0625, 0.074951171875, -0.972412109375, 
309, 3639130653, 0.4212576150894165, 0.03974849358201027, 0.14589880406856537, -0.8942364454269409, -1.3213684558868408, -3.809483528137207, 10.061717987060547, -78.54010009765625, 80.16202545166016, -2.8422255516052246, 0.07421875, 0.0859375, -0.97265625, 
310, 3639138986, 0.4208035469055176, 0.04335790127515793, 0.15197759866714478, -0.8932695984840393, -1.3530722856521606, -4.337356090545654, 9.257951736450195, -55.97786331176758, 81.33665466308594, 3.8655028343200684, 0.086181640625, 0.09423828125, -0.97265625, 
311, 3639147319, 0.4204848110675812, 0.04719149321317673, 0.15661977231502533, -0.892423152923584, -1.9915663003921509, -3.4093220233917236, 8.619136810302734, -36.882720947265625, 75.55245208740234, 6.18418550491333, 0.097412109375, 0.1005859375, -0.97509765625, 
312, 3639155652, 0.42026740312576294, 0.050643760710954666, 0.1605846881866455, -0.8916313648223877, -2.147629499435425, -2.2340903282165527, 8.455374717712402, -30.70261001586914, 66.5719985961914, 6.703533172607422, 0.106201171875, 0.104736328125, -0.974853515625, 
313, 3639163985, 0.4200746417045593, 0.053675323724746704, 0.16438354551792145, -0.890852153301239, -1.8066238164901733, -1.6741446256637573, 8.116877555847168, -31.10399627685547, 60.51951217651367, 6.14756965637207, 0.115234375, 0.109375, -0.976806640625, 
314, 3639172318, 0.41986188292503357, 0.056386448442935944, 0.16832125186920166, -0.8900494575500488, -1.801855206489563, -1.5500175952911377, 8.187932014465332, -34.678932189941406, 57.33005905151367, 5.182574272155762, 0.1220703125, 0.113037109375, -0.974853515625, 
315, 3639180651, 0.41943037509918213, 0.05897194519639015, 0.1728149652481079, -0.8892238736152649, -2.1376075744628906, -1.858336091041565, 8.400739669799805, -42.113441467285156, 59.656158447265625, 1.9441548585891724, 0.13037109375, 0.116455078125, -0.978271484375, 
316, 3639188984, 0.41877081990242004, 0.06130502372980118, 0.17801371216773987, -0.8883509635925293, -2.6630303859710693, -2.2535362243652344, 8.150372505187988, -52.096561431884766, 61.08522415161133, -1.771836280822754, 0.138671875, 0.124755859375, -0.972412109375, 
317, 3639197317, 0.4180736541748047, 0.06370557099580765, 0.1832764595746994, -0.8874396085739136, -2.8719499111175537, -2.7885854244232178, 8.207867622375488, -52.5760383605957, 62.53241729736328, -1.8694403171539307, 0.14697265625, 0.13134765625, -0.9755859375, 
318, 3639205650, 0.4177648723125458, 0.0659065842628479, 0.1881449669599533, -0.8864049315452576, -2.563797950744629, -3.4942522048950195, 8.449447631835938, -49.539432525634766, 56.8300895690918, 3.392712116241455, 0.156982421875, 0.136474609375, -0.976318359375, 
319, 3639213983, 0.417849600315094, 0.06763438135385513, 0.19243696331977844, -0.8853127360343933, -2.2897369861602783, -3.6768300533294678, 8.593979835510254, -45.7551383972168, 46.908843994140625, 7.848679542541504, 0.16455078125, 0.14501953125, -0.9755859375, 
320, 3639222316, 0.41821354627609253, 0.06891398131847382, 0.1963089555501938, -0.8841914534568787, -2.4424755573272705, -2.701753616333008, 8.73906135559082, -43.53504943847656, 38.202903747558594, 10.588573455810547, 0.16943359375, 0.149658203125, -0.97412109375, 
321, 3639230649, 0.41863158345222473, 0.07029896229505539, 0.19999977946281433, -0.8830567598342896, -2.274129629135132, -2.2045631408691406, 8.561298370361328, -40.82781219482422, 38.4349365234375, 11.814727783203125, 0.173828125, 0.156494140625, -0.973876953125, 
322, 3639238982, 0.41894638538360596, 0.07161956280469894, 0.20375825464725494, -0.8819413781166077, -2.646726608276367, -2.367825746536255, 8.100711822509766, -41.85262680053711, 38.18074035644531, 10.171672821044922, 0.18017578125, 0.1611328125, -0.972900390625, 
323, 3639247315, 0.4191350042819977, 0.07308463752269745, 0.20752866566181183, -0.880851686000824, -3.1477694511413574, -2.3782804012298584, 7.917337417602539, -40.98649215698242, 40.457828521728516, 8.9216947555542, 0.18359375, 0.167236328125, -0.97314453125, 
324, 3639255648, 0.419333279132843, 0.07484283298254013, 0.2112579494714737, -0.879722535610199, -3.3467557430267334, -2.222639322280884, 7.565278053283691, -38.90317153930664, 43.65382385253906, 10.109957695007324, 0.1904296875, 0.171630859375, -0.97412109375, 
325, 3639263981, 0.41955840587615967, 0.0765625536441803, 0.21492084860801697, -0.8785790801048279, -3.4279088973999023, -2.315830945968628, 7.19931697845459, -38.4106559753418, 42.86569595336914, 10.507655143737793, 0.198486328125, 0.175048828125, -0.97216796875, 
326, 3639272314, 0.4198305308818817, 0.07798849791288376, 0.21853402256965637, -0.8774316906929016, -3.497591495513916, -2.5188164710998535, 7.103370666503906, -39.54700469970703, 38.773231506347656, 10.247810363769531, 0.201904296875, 0.179931640625, -0.97216796875, 
327, 3639280647, 0.42014598846435547, 0.0793982744216919, 0.22165565192699432, -0.8763706088066101, -3.300835609436035, -2.86112117767334, 7.124719142913818, -33.515865325927734, 35.6313362121582, 10.785064697265625, 0.208251953125, 0.1865234375, -0.969970703125, 
328, 3639288980, 0.4203897714614868, 0.08126898109912872, 0.22375208139419556, -0.8755490183830261, -2.8818299770355225, -3.369049310684204, 6.928264141082764, -17.669824600219727, 35.10641860961914, 11.02687931060791, 0.213134765625, 0.187255859375, -0.97021484375, 
329, 3639297313, 0.42049917578697205, 0.08318027853965759, 0.2251017689704895, -0.8749709129333496, -3.0484888553619385, -3.6520915031433105, 6.858634948730469, -7.559970855712891, 31.529624938964844, 8.99520206451416, 0.218017578125, 0.190185546875, -0.97265625, 
330, 3639305646, 0.42057886719703674, 0.08500158786773682, 0.22600021958351135, -0.8745259046554565, -3.4915874004364014, -3.268123149871826, 6.813969135284424, -2.1901981830596924, 27.668046951293945, 8.072064399719238, 0.220947265625, 0.19091796875, -0.9697265625, 
331, 3639313979, 0.4207662045955658, 0.08664442598819733, 0.22629272937774658, -0.8741986155509949, -3.7415900230407715, -3.1039297580718994, 6.78143835067749, 4.296444416046143, 21.649892807006836, 8.873505592346191, 0.225341796875, 0.189453125, -0.968994140625, 
332, 3639322312, 0.4211641848087311, 0.0880117192864418, 0.22627589106559753, -0.8738747835159302, -3.867985486984253, -3.0788493156433105, 6.698445796966553, 6.190489292144775, 15.781488418579102, 10.862552642822266, 0.227783203125, 0.19091796875, -0.969970703125, 
333, 3639330645, 0.42175281047821045, 0.08892441540956497, 0.2261328548192978, -0.8735355138778687, -3.958503246307373, -2.790116548538208, 6.706375598907471, 4.787032127380371, 9.111152648925781, 12.013936996459961, 0.22802734375, 0.190185546875, -0.966552734375, 
334, 3639338978, 0.42235416173934937, 0.08973398804664612, 0.22594806551933289, -0.8732099533081055, -3.973926067352295, -2.4449141025543213, 6.419007301330566, 4.725762844085693, 7.475399494171143, 11.785148620605469, 0.23095703125, 0.1875, -0.96923828125, 
335, 3639347311, 0.4228903651237488, 0.09020640701055527, 0.22595416009426117, -0.872900128364563, -4.022838115692139, -2.3330790996551514, 6.270313739776611, 0.6004360914230347, 4.807318210601807, 9.658602714538574, 0.23193359375, 0.187744140625, -0.96630859375, 
336, 3639355644, 0.4233699142932892, 0.0900680422782898, 0.2261410802602768, -0.8726333975791931, -3.949766159057617, -2.3285086154937744, 6.335258483886719, -4.913629531860352, -1.43864905834198, 6.575058460235596, 0.23388671875, 0.185546875, -0.969482421875, 
337, 3639363977, 0.42381176352500916, 0.08942592144012451, 0.2262604981660843, -0.8724539279937744, -3.678845167160034, -2.3258063793182373, 6.595068454742432, -6.723724365234375, -7.788149833679199, 4.157037258148193, 0.2294921875, 0.190185546875, -0.967041015625, 
338, 3639372310, 0.42413097620010376, 0.08842525631189346, 0.22618113458156586, -0.8724215030670166, -3.3280692100524902, -2.681877613067627, 6.996370792388916, -5.814291000366211, -13.126105308532715, 0.9337670207023621, 0.22998046875, 0.1884765625, -0.96923828125, 
339, 3639380643, 0.424303263425827, 0.08710361272096634, 0.22580000758171082, -0.8725693225860596, -3.4140419960021973, -2.9701149463653564, 7.045217514038086, -3.3321568965911865, -18.42734718322754, -2.4893970489501953, 0.2275390625, 0.1884765625, -0.968994140625, 
340, 3639388976, 0.4243561029434204, 0.08576910197734833, 0.22504903376102448, -0.8728699088096619, -3.8925578594207764, -2.891993284225464, 7.184741497039795, 1.6530026197433472, -20.624975204467773, -4.434133052825928, 0.225341796875, 0.18896484375, -0.970947265625, 
341, 3639397309, 0.424413800239563, 0.08455567806959152, 0.22400988638401031, -0.8732272982597351, -3.9831056594848633, -2.865941286087036, 7.197835922241211, 5.986701965332031, -20.867488861083984, -3.9701311588287354, 0.221435546875, 0.18701171875, -0.968017578125, 
342, 3639405642, 0.424564391374588, 0.08348165452480316, 0.22260577976703644, -0.8736165165901184, -3.775053024291992, -3.0421440601348877, 7.163346767425537, 11.175098419189453, -21.713298797607422, -2.2099716663360596, 0.220458984375, 0.188232421875, -0.969970703125, 
343, 3639413975, 0.42477789521217346, 0.08232154697179794, 0.22098655998706818, -0.8740339279174805, -3.6693973541259766, -3.139011859893799, 6.90300989151001, 13.270116806030273, -24.169017791748047, -1.6131855249404907, 0.214111328125, 0.1865234375, -0.97216796875, 
344, 3639422308, 0.4250774085521698, 0.08075210452079773, 0.2193881720304489, -0.8744372725486755, -3.791806936264038, -2.9401209354400635, 6.694595813751221, 10.490049362182617, -29.272790908813477, -1.7870041131973267, 0.210205078125, 0.18505859375, -0.97119140625, 
345, 3639430641, 0.4255327582359314, 0.07853606343269348, 0.21787986159324646, -0.874794602394104, -3.7412521839141846, -2.552856206893921, 6.7377777099609375, 5.318455696105957, -36.888023376464844, -1.6738665103912354, 0.206787109375, 0.1826171875, -0.97216796875, 
346, 3639438974, 0.4260598123073578, 0.07572152465581894, 0.2164820432662964, -0.875133216381073, -3.333645820617676, -2.3714044094085693, 6.93712043762207, 0.3493403196334839, -43.689300537109375, -2.635734796524048, 0.20166015625, 0.182373046875, -0.971435546875, 
347, 3639447307, 0.4264623522758484, 0.0724267065525055, 0.21524609625339508, -0.875520646572113, -3.034177303314209, -2.5349860191345215, 7.365569591522217, -4.133582592010498, -48.15573501586914, -6.000787258148193, 0.193359375, 0.183349609375, -0.97265625, 
348, 3639455640, 0.42661356925964355, 0.06900813430547714, 0.2140512466430664, -0.8760160207748413, -3.1320576667785645, -2.8506205081939697, 7.535603046417236, -4.788604259490967, -48.81280517578125, -10.082283973693848, 0.187255859375, 0.18408203125, -0.97265625, 
349, 3639463973, 0.4266107678413391, 0.06565496325492859, 0.21261358261108398, -0.8766249418258667, -3.5333921909332275, -2.9448916912078857, 7.54384708404541, -0.9941418170928955, -49.06171417236328, -12.167531967163086, 0.180908203125, 0.184814453125, -0.974853515625, 
350, 3639472306, 0.4266226887702942, 0.06231933832168579, 0.21082493662834167, -0.8772943019866943, -3.7380785942077637, -3.065565824508667, 7.43343448638916, 3.4980292320251465, -51.050025939941406, -11.990434646606445, 0.17431640625, 0.184326171875, -0.97509765625, 
351, 3639480639, 0.42677220702171326, 0.058820758014917374, 0.20871201157569885, -0.8779681921005249, -3.694948434829712, -3.1351442337036133, 7.418118476867676, 6.358405113220215, -55.28662872314453, -10.538338661193848, 0.16748046875, 0.183349609375, -0.972412109375, 
352, 3639488972, 0.42712703347206116, 0.0550934374332428, 0.2063065767288208, -0.878605842590332, -3.460052013397217, -3.061204195022583, 7.587700366973877, 8.267546653747559, -60.35752868652344, -8.280596733093262, 0.15966796875, 0.18212890625, -0.974853515625, 
353, 3639497305, 0.42765364050865173, 0.05102727934718132, 0.20364655554294586, -0.8792154788970947, -3.167236804962158, -2.877793312072754, 7.574685573577881, 9.156678199768066, -66.38877868652344, -6.796406269073486, 0.149658203125, 0.182373046875, -0.97412109375, 
354, 3639505638, 0.42827194929122925, 0.046768687665462494, 0.200797900557518, -0.8798063397407532, -2.8677690029144287, -2.657291889190674, 7.556362152099609, 10.176824569702148, -70.0946273803711, -5.996857643127441, 0.14013671875, 0.1806640625, -0.976806640625, 
355, 3639513971, 0.42895787954330444, 0.04207952320575714, 0.19778181612491608, -0.8803920149803162, -2.4401893615722656, -2.4687159061431885, 7.9208855628967285, 9.620782852172852, -76.4524154663086, -6.218719959259033, 0.1318359375, 0.178955078125, -0.97607421875, 
356, 3639522304, 0.4296383857727051, 0.03725958615541458, 0.19453507661819458, -0.8810004591941833, -1.6872495412826538, -2.3820931911468506, 7.516834259033203, 11.694758415222168, -79.41596221923828, -6.651426315307617, 0.119384765625, 0.178466796875, -0.974853515625, 
357, 3639530637, 0.43013209104537964, 0.03251861035823822, 0.19135317206382751, -0.8816439509391785, -1.679320216178894, -2.367231845855713, 7.477854251861572, 11.576879501342773, -77.57182312011719, -8.935050964355469, 0.110107421875, 0.1767578125, -0.9755859375, 
358, 3639538970, 0.4304530918598175, 0.027537740767002106, 0.18837709724903107, -0.8822975754737854, -2.362325429916382, -2.103208541870117, 7.5766072273254395, 7.754523754119873, -78.83562469482422, -11.820563316345215, 0.09765625, 0.17626953125, -0.976806640625, 
359, 3639547303, 0.43071600794792175, 0.022130174562335014, 0.18549656867980957, -0.882931649684906, -2.685511350631714, -1.958147406578064, 7.494035720825195, 4.050570964813232, -83.26961517333984, -13.542460441589355, 0.087158203125, 0.173828125, -0.97509765625, 
360, 3639555636, 0.4310213327407837, 0.016413599252700806, 0.1827310472726822, -0.8834838271141052, -2.5717406272888184, -1.9449597597122192, 7.481266498565674, 0.5924996733665466, -86.44306945800781, -13.375741004943848, 0.076904296875, 0.173583984375, -0.974365234375, 
361, 3639563969, 0.43135517835617065, 0.010384376160800457, 0.18032751977443695, -0.8839061260223389, -2.3495869636535645, -2.109553098678589, 7.767494201660156, -5.985191345214844, -88.12511444091797, -13.119112014770508, 0.0615234375, 0.173828125, -0.974853515625, 
362, 3639572302, 0.4317237436771393, 0.003904358483850956, 0.17819376289844513, -0.8842112421989441, -2.086383104324341, -2.3331947326660156, 7.9162678718566895, -12.23978042602539, -92.08724212646484, -13.164743423461914, 0.049560546875, 0.173583984375, -0.97412109375, 
363, 3639580635, 0.43215861916542053, -0.0030566942878067493, 0.17600758373737335, -0.8844399452209473, -1.7503000497817993, -2.5390021800994873, 7.987934112548828, -14.646145820617676, -98.39801025390625, -13.078360557556152, 0.03662109375, 0.177001953125, -0.97119140625, 
364, 3639588968, 0.43263494968414307, -0.010121763683855534, 0.17350967228412628, -0.8846480250358582, -1.1837737560272217, -2.6817638874053955, 7.894659519195557, -11.524131774902344, -101.62540435791016, -12.718405723571777, 0.023193359375, 0.17919921875, -0.9716796875, 
365, 3639597301, 0.43294793367385864, -0.016815008595585823, 0.17053179442882538, -0.8849720358848572, -0.7062740921974182, -2.96260142326355, 8.144891738891602, -3.2177658081054688, -99.54290008544922, -14.574041366577148, 0.01025390625, 0.178955078125, -0.96533203125, 
366, 3639605634, 0.43303290009498596, -0.023246673867106438, 0.16712114214897156, -0.8854355812072754, -0.4287147521972656, -3.324815511703491, 8.38029670715332, 3.87872052192688, -98.37672424316406, -17.668228149414062, -0.003662109375, 0.180908203125, -0.9677734375, 
367, 3639613967, 0.43289294838905334, -0.02917586639523506, 0.1634133905172348, -0.8860201835632324, -0.5923216938972473, -3.35988712310791, 8.067389488220215, 10.702123641967773, -93.46343231201172, -20.063369750976562, -0.01708984375, 0.177734375, -0.966796875, 
368, 3639622300, 0.43255189061164856, -0.03477461263537407, 0.15956561267375946, -0.8866857290267944, -1.047074556350708, -3.092076301574707, 8.055726051330566, 14.469771385192871, -89.79606628417969, -22.31479263305664, -0.029541015625, 0.17578125, -0.96240234375, 
369, 3639630633, 0.4322209060192108, -0.04046085849404335, 0.15546967089176178, -0.8873333930969238, -1.24740731716156, -3.029414176940918, 8.049619674682617, 16.950408935546875, -92.36054992675781, -22.391260147094727, -0.039794921875, 0.172607421875, -0.9609375, 
370, 3639638966, 0.4320586323738098, -0.04645109921693802, 0.1510913223028183, -0.8878751397132874, -0.9220573902130127, -3.2121119499206543, 8.226306915283203, 18.44877052307129, -98.17613983154297, -20.51384925842285, -0.0556640625, 0.170166015625, -0.95654296875, 
371, 3639647299, 0.432037353515625, -0.052684225142002106, 0.14657029509544373, -0.8882952928543091, -0.41331639885902405, -3.301412582397461, 8.455378532409668, 18.596424102783203, -102.3564224243164, -18.662626266479492, -0.067626953125, 0.16796875, -0.956298828125, 
372, 3639655632, 0.4320456385612488, -0.05910250172019005, 0.14195725321769714, -0.8886364102363586, -0.10113779455423355, -3.146821975708008, 8.556439399719238, 18.470945358276367, -105.28601837158203, -18.27485466003418, -0.081787109375, 0.16259765625, -0.950927734375, 
373, 3639663965, 0.4320381283760071, -0.06569123268127441, 0.13722124695777893, -0.8889214396476746, -0.0020987316966056824, -2.726344585418701, 8.721329689025879, 18.853944778442383, -108.10897064208984, -18.566024780273438, -0.09716796875, 0.161865234375, -0.950439453125, 
374, 3639672298, 0.4320130944252014, -0.07246018946170807, 0.13234275579452515, -0.8891474008560181, 0.27263814210891724, -2.185624361038208, 8.650542259216309, 19.381284713745117, -111.18578338623047, -18.899065017700195, -0.112548828125, 0.1591796875, -0.9462890625, 
375, 3639680631, 0.4318038821220398, -0.07913035154342651, 0.12737122178077698, -0.8894065618515015, 0.8331388235092163, -2.3817577362060547, 8.458478927612305, 20.996919631958008, -110.15436553955078, -21.25925064086914, -0.1279296875, 0.154541015625, -0.944580078125, 
376, 3639688964, 0.4312847852706909, -0.08587393909692764, 0.12253131717443466, -0.8897127509117126, 1.0137014389038086, -2.7438180446624756, 8.8905611038208, 18.682262420654297, -109.6845703125, -25.316181182861328, -0.140869140625, 0.15087890625, -0.9365234375, 
377, 3639697297, 0.43060868978500366, -0.09264551103115082, 0.11768508702516556, -0.8900149464607239, 0.9634495973587036, -2.6235921382904053, 9.207656860351562, 18.4148006439209, -109.79234313964844, -27.265426635742188, -0.1552734375, 0.14990234375, -0.930908203125, 
378, 3639705630, 0.4299684166908264, -0.09936802089214325, 0.11256929486989975, -0.8902611136436462, 1.1212847232818604, -2.692509174346924, 9.091089248657227, 21.947154998779297, -110.93029022216797, -26.761524200439453, -0.172119140625, 0.14404296875, -0.9306640625, 
379, 3639713963, 0.42940396070480347, -0.10592571645975113, 0.10730478167533875, -0.89042729139328, 1.3615254163742065, -2.8689920902252197, 8.904518127441406, 24.73426628112793, -110.00350189208984, -25.30722427368164, -0.186767578125, 0.13916015625, -0.926513671875, 
380, 3639722296, 0.4288371205329895, -0.11245198547840118, 0.10195576399564743, -0.8905287384986877, 1.479761004447937, -3.0880227088928223, 8.980422019958496, 25.84168815612793, -110.2217025756836, -25.032894134521484, -0.19873046875, 0.1357421875, -0.91650390625, 
381, 3639730629, 0.4282626807689667, -0.11910945177078247, 0.0963970422744751, -0.8905587792396545, 1.2927910089492798, -3.05189847946167, 9.0834321975708, 27.54064178466797, -113.14729309082031, -25.209014892578125, -0.213134765625, 0.1318359375, -0.914306640625, 
382, 3639738962, 0.4277620315551758, -0.12590286135673523, 0.0905022844672203, -0.890483558177948, 1.1999528408050537, -2.772167682647705, 9.00815200805664, 30.821741104125977, -117.08015441894531, -24.42046546936035, -0.227783203125, 0.125, -0.912353515625, 
383, 3639747295, 0.4273739755153656, -0.13292419910430908, 0.08436539769172668, -0.8902518153190613, 1.4400759935379028, -2.487157106399536, 8.781234741210938, 32.462921142578125, -121.6889877319336, -22.820343017578125, -0.24169921875, 0.119384765625, -0.90234375, 
384, 3639755628, 0.42702752351760864, -0.14018869400024414, 0.07813259959220886, -0.8898726105690002, 1.8496334552764893, -2.250042200088501, 8.45853042602539, 32.09584045410156, -125.56568145751953, -21.90497398376465, -0.258056640625, 0.11572265625, -0.891357421875, 
385, 3639763961, 0.42654913663864136, -0.1475941240787506, 0.07202602922916412, -0.889419674873352, 2.1390178203582764, -2.0055630207061768, 8.367883682250977, 29.406587600708008, -126.53095245361328, -22.9923152923584, -0.2763671875, 0.108154296875, -0.888671875, 
386, 3639772294, 0.42583179473876953, -0.15537159144878387, 0.06630752235651016, -0.8888832330703735, 2.341270923614502, -1.8104864358901978, 8.497047424316406, 21.892650604248047, -128.75572204589844, -25.008249282836914, -0.28955078125, 0.105224609375, -0.882080078125, 
387, 3639780627, 0.4249216616153717, -0.16342312097549438, 0.06088181212544441, -0.888262927532196, 2.731076240539551, -1.682960033416748, 8.600720405578613, 16.236249923706055, -130.3733367919922, -26.49518394470215, -0.307373046875, 0.101806640625, -0.87158203125, 
388, 3639788960, 0.42411452531814575, -0.17116712033748627, 0.055166494101285934, -0.8875631093978882, 3.440661907196045, -1.7950383424758911, 8.56481647491455, 21.7202091217041, -128.5950469970703, -25.169872283935547, -0.32275390625, 0.096435546875, -0.864501953125, 
389, 3639797293, 0.4233863353729248, -0.17836588621139526, 0.049205515533685684, -0.8868435025215149, 4.044882297515869, -2.3328208923339844, 8.83786392211914, 28.079938888549805, -123.45125579833984, -24.251285552978516, -0.338134765625, 0.0927734375, -0.853515625, 
390, 3639805626, 0.42264312505722046, -0.18525338172912598, 0.04308634251356125, -0.8861042261123657, 4.284339904785156, -2.699432134628296, 8.763790130615234, 31.762460708618164, -120.64337921142578, -24.499584197998047, -0.35205078125, 0.0869140625, -0.846435546875, 
391, 3639813959, 0.42196890711784363, -0.19163145124912262, 0.03649726137518883, -0.8853647112846375, 4.084405899047852, -2.8605215549468994, 8.717994689941406, 40.63533020019531, -117.169189453125, -24.548198699951172, -0.3662109375, 0.081298828125, -0.837646484375, 
392, 3639822292, 0.42138218879699707, -0.19771261513233185, 0.0293577928096056, -0.8845722079277039, 3.582348346710205, -2.969541072845459, 8.780303955078125, 49.2525634765625, -116.97028350830078, -24.482200622558594, -0.379150390625, 0.073974609375, -0.828857421875, 
393, 3639830625, 0.42084476351737976, -0.20388613641262054, 0.0216941237449646, -0.8836473226547241, 3.0401577949523926, -2.7994914054870605, 8.548701286315918, 55.19206619262695, -121.46696472167969, -24.574132919311523, -0.39208984375, 0.067626953125, -0.81982421875, 
394, 3639838958, 0.42031604051589966, -0.21045798063278198, 0.013598405756056309, -0.8825191259384155, 2.9859602451324463, -2.48294734954834, 8.163443565368652, 58.08218765258789, -129.42520141601562, -24.62609100341797, -0.40869140625, 0.056396484375, -0.81005859375, 
395, 3639847291, 0.4197841286659241, -0.21761593222618103, 0.005530588328838348, -0.8811226487159729, 3.435372829437256, -1.929263949394226, 8.059183120727539, 54.31819534301758, -137.10977172851562, -23.142799377441406, -0.419921875, 0.04736328125, -0.800048828125, 
396, 3639855624, 0.4191305935382843, -0.2255399525165558, -0.0020552733913064003, -0.8794546127319336, 3.9901020526885986, -1.2972911596298218, 8.158928871154785, 43.65164566040039, -144.45654296875, -21.663875579833984, -0.436767578125, 0.043212890625, -0.785888671875, 
397, 3639863957, 0.4180586636066437, -0.23418334126472473, -0.008866358548402786, -0.8776615262031555, 4.552831649780273, -0.7778449058532715, 8.109768867492676, 28.858980178833008, -149.0458221435547, -23.580585479736328, -0.4541015625, 0.03564453125, -0.775146484375, 
398, 3639872290, 0.4166209101676941, -0.24313098192214966, -0.014909354969859123, -0.8758283853530884, 5.291877746582031, -0.5540699362754822, 8.13554859161377, 16.64751625061035, -148.52137756347656, -25.25472640991211, -0.469482421875, 0.029541015625, -0.76025390625, 
399, 3639880623, 0.4149949550628662, -0.25210657715797424, -0.02006218396127224, -0.8739578127861023, 6.050111293792725, -0.6003785133361816, 8.394393920898438, 5.156422138214111, -143.8693389892578, -24.321006774902344, -0.48291015625, 0.02734375, -0.749267578125, 
400, 3639888956, 0.41325643658638, -0.260880708694458, -0.024277670308947563, -0.8720976114273071, 6.2987494468688965, -0.9029956459999084, 8.116153717041016, -5.365209102630615, -136.14453125, -22.54388999938965, -0.499755859375, 0.0224609375, -0.734375, 
401, 3639897289, 0.41146719455718994, -0.26912733912467957, -0.028023652732372284, -0.8703234791755676, 6.046824932098389, -1.2856498956680298, 7.353110313415527, -8.200825691223145, -126.7943344116211, -22.124465942382812, -0.51318359375, 0.02099609375, -0.7255859375, 
402, 3639905622, 0.40947428345680237, -0.277461975812912, -0.031550243496894836, -0.868523895740509, 5.433653354644775, -1.6387557983398438, 7.390351295471191, -12.077637672424316, -126.8449478149414, -23.579395294189453, -0.524169921875, 0.0205078125, -0.714599609375, 
403, 3639913955, 0.4071608781814575, -0.28636714816093445, -0.035111203789711, -0.866581916809082, 5.116092681884766, -1.7145934104919434, 7.781431198120117, -16.032384872436523, -134.4620819091797, -26.479530334472656, -0.53662109375, 0.019287109375, -0.70263671875, 
404, 3639922288, 0.40479031205177307, -0.2952996492385864, -0.038930732756853104, -0.8645290732383728, 5.2375030517578125, -1.6732043027877808, 7.927817344665527, -13.28306770324707, -136.7700958251953, -27.555723190307617, -0.55029296875, 0.01708984375, -0.689697265625, 
405, 3639930621, 0.40246835350990295, -0.3039132058620453, -0.043231651186943054, -0.8624211549758911, 5.469090461730957, -1.801783561706543, 7.783283710479736, -5.552094459533691, -135.78399658203125, -28.786880493164062, -0.561279296875, 0.01513671875, -0.6748046875, 
406, 3639938954, 0.40022313594818115, -0.3122274875640869, -0.04812557250261307, -0.8602340817451477, 5.813307762145996, -2.150934934616089, 7.976565837860107, 3.500962257385254, -135.8744659423828, -30.104961395263672, -0.57568359375, 0.0126953125, -0.661376953125, 
407, 3639947287, 0.39808645844459534, -0.32035911083221436, -0.053342144936323166, -0.8579249382019043, 6.496396541595459, -2.1815104484558105, 8.649981498718262, 8.876790046691895, -135.8679656982422, -29.646074295043945, -0.585205078125, 0.0087890625, -0.6474609375, 
408, 3639955620, 0.39605453610420227, -0.32852232456207275, -0.05882055684924126, -0.8554165363311768, 7.240471839904785, -1.9564332962036133, 8.962824821472168, 12.392334938049316, -138.54957580566406, -28.458189010620117, -0.596923828125, 0.004150390625, -0.6337890625, 
409, 3639963953, 0.39438125491142273, -0.336311936378479, -0.0648476853966713, -0.8527225852012634, 8.013154983520508, -2.419079303741455, 8.240072250366211, 22.66362190246582, -137.6168975830078, -26.003070831298828, -0.60986328125, 0.001220703125, -0.618896484375, 
410, 3639972286, 0.3931598365306854, -0.3428244888782501, -0.07139314711093903, -0.8501664400100708, 8.086124420166016, -2.8724238872528076, 7.715005397796631, 37.6231803894043, -124.48580169677734, -24.994693756103516, -0.621337890625, -0.006591796875, -0.602294921875, 
411, 3639980619, 0.3922928273677826, -0.3479149043560028, -0.07850770652294159, -0.8478686809539795, 7.32294225692749, -2.5408782958984375, 7.792916774749756, 53.39867401123047, -109.2863540649414, -26.324838638305664, -0.630615234375, -0.014404296875, -0.589111328125, 
412, 3639988952, 0.3916492462158203, -0.352493554353714, -0.08642464876174927, -0.845501720905304, 6.592639923095703, -1.3293113708496094, 7.678353786468506, 66.64325714111328, -107.8213882446289, -27.74127769470215, -0.636474609375, -0.023681640625, -0.580078125, 
413, 3639997285, 0.39113321900367737, -0.35712844133377075, -0.09494496881961823, -0.8428778052330017, 6.689186096191406, -0.6144980192184448, 7.248180866241455, 74.29823303222656, -112.73399353027344, -27.732704162597656, -0.645263671875, -0.0302734375, -0.56103515625, 
414, 3640005618, 0.3908105194568634, -0.36183252930641174, -0.1036175861954689, -0.8399947285652161, 7.076230525970459, -0.5901387929916382, 7.165641784667969, 76.9610366821289, -115.46211242675781, -24.754247665405273, -0.654296875, -0.038818359375, -0.54736328125, 
415, 3640013951, 0.39055222272872925, -0.3666042983531952, -0.11206910014152527, -0.8369551301002502, 7.483129501342773, -0.7740330100059509, 7.383797645568848, 74.60089111328125, -115.65728759765625, -21.97319984436035, -0.66259765625, -0.049072265625, -0.531982421875, 
416, 3640022284, 0.39013317227363586, -0.37148648500442505, -0.11994048953056335, -0.8339013457298279, 7.561412334442139, -0.594618022441864, 7.151713848114014, 66.52713012695312, -114.2169189453125, -20.652454376220703, -0.669921875, -0.056396484375, -0.51708984375, 
417, 3640030617, 0.3895662724971771, -0.37646180391311646, -0.12712718546390533, -0.8308649659156799, 7.626956939697266, -0.07215302437543869, 6.8964667320251465, 57.40385437011719, -111.68003845214844, -18.789859771728516, -0.6767578125, -0.065185546875, -0.50341796875, 
418, 3640038950, 0.38888782262802124, -0.38180240988731384, -0.13361111283302307, -0.8277225494384766, 8.018122673034668, 0.4465274214744568, 6.794940948486328, 47.014530181884766, -112.9183120727539, -15.218836784362793, -0.685302734375, -0.068115234375, -0.490234375, 
419, 3640047283, 0.38810715079307556, -0.3878670036792755, -0.1393459290266037, -0.8243168592453003, 8.957401275634766, 0.481818288564682, 6.902918815612793, 34.56692886352539, -118.63297271728516, -9.707657814025879, -0.691650390625, -0.074951171875, -0.4755859375, 
420, 3640055616, 0.38714951276779175, -0.3947642743587494, -0.14441856741905212, -0.8206114768981934, 9.830122947692871, -0.01070599164813757, 7.039626121520996, 22.242597579956055, -126.5666275024414, -4.989840507507324, -0.699462890625, -0.077880859375, -0.4599609375, 
421, 3640063949, 0.38607653975486755, -0.40180504322052, -0.14920766651630402, -0.8168340921401978, 10.274160385131836, -0.5941106081008911, 6.72866153717041, 17.7952880859375, -127.19898223876953, -4.075425148010254, -0.70751953125, -0.079345703125, -0.445068359375, 
422, 3640072282, 0.38512346148490906, -0.40825146436691284, -0.1543370485305786, -0.8131259679794312, 10.18809986114502, -0.7719887495040894, 6.710822582244873, 25.29383659362793, -121.79779052734375, -6.205376148223877, -0.71484375, -0.08349609375, -0.429443359375, 
423, 3640080615, 0.3842780590057373, -0.41391685605049133, -0.16033470630645752, -0.8094930648803711, 9.620858192443848, -0.6546320915222168, 6.736786842346191, 39.583980560302734, -116.90736389160156, -11.922396659851074, -0.721923828125, -0.08544921875, -0.412841796875, 
424, 3640088948, 0.38381877541542053, -0.41883036494255066, -0.16714715957641602, -0.8057973384857178, 9.207416534423828, -0.34728527069091797, 6.653949737548828, 54.96329879760742, -112.45243835449219, -13.596416473388672, -0.726806640625, -0.090576171875, -0.397705078125, 
425, 3640097281, 0.38359886407852173, -0.42338597774505615, -0.17434263229370117, -0.8019876480102539, 9.106799125671387, -0.3687840700149536, 6.7174530029296875, 62.73805618286133, -110.50898742675781, -13.363896369934082, -0.732666015625, -0.095947265625, -0.380126953125, 
426, 3640105614, 0.38363921642303467, -0.4276745617389679, -0.1816110759973526, -0.7980702519416809, 9.038209915161133, -0.5346957445144653, 6.707661151885986, 66.725341796875, -108.05760192871094, -10.997922897338867, -0.73779296875, -0.1015625, -0.364501953125, 
427, 3640113947, 0.38410836458206177, -0.43176060914993286, -0.18900728225708008, -0.7939162850379944, 8.922772407531738, -0.6837867498397827, 6.506600856781006, 72.3082046508789, -106.72579956054688, -6.295443534851074, -0.7421875, -0.10400390625, -0.349365234375, 
428, 3640122280, 0.3848986029624939, -0.4356911778450012, -0.19658614695072174, -0.7895338535308838, 8.998004913330078, -0.7345694899559021, 6.333016395568848, 77.62409210205078, -106.61965942382812, -3.076713800430298, -0.74755859375, -0.10986328125, -0.3349609375, 
429, 3640130613, 0.38605421781539917, -0.43932387232780457, -0.20416130125522614, -0.7850210070610046, 9.119172096252441, -0.6224985122680664, 6.20601749420166, 81.70375061035156, -103.05598449707031, 0.7979211807250977, -0.75146484375, -0.116455078125, -0.318359375, 
430, 3640138946, 0.38756492733955383, -0.44270452857017517, -0.21164356172084808, -0.7803822755813599, 9.36868667602539, -0.4343251883983612, 5.960834503173828, 84.53605651855469, -99.70832824707031, 5.153149604797363, -0.7548828125, -0.1181640625, -0.30224609375, 
431, 3640147279, 0.38940876722335815, -0.44606855511665344, -0.21936042606830597, -0.7754017114639282, 9.945938110351562, -0.14064718782901764, 5.524054050445557, 90.16834259033203, -101.79399108886719, 9.070302963256836, -0.75732421875, -0.123291015625, -0.284912109375, 
432, 3640155612, 0.3914092183113098, -0.44956541061401367, -0.22773554921150208, -0.7699411511421204, 10.312433242797852, -0.11180287599563599, 5.558746337890625, 98.88382720947266, -109.30445098876953, 9.675347328186035, -0.764404296875, -0.123779296875, -0.27197265625, 
433, 3640163945, 0.3933137059211731, -0.453018456697464, -0.23654302954673767, -0.7642703056335449, 10.327993392944336, -0.24846205115318298, 5.588783264160156, 103.76394653320312, -112.66829681396484, 6.975950241088867, -0.766357421875, -0.128173828125, -0.24951171875, 
434, 3640172278, 0.39533311128616333, -0.45579108595848083, -0.24543699622154236, -0.7587555050849915, 9.979260444641113, 0.011501368135213852, 5.568211078643799, 108.56016540527344, -104.74212646484375, 4.59349250793457, -0.7705078125, -0.1318359375, -0.231689453125, 
435, 3640180611, 0.3973487317562103, -0.4578460454940796, -0.25435560941696167, -0.7535102367401123, 9.333460807800293, 0.25674137473106384, 5.4138407707214355, 111.78857421875, -95.60824584960938, 0.5003324151039124, -0.7763671875, -0.13525390625, -0.21630859375, 
436, 3640188944, 0.399077832698822, -0.45961377024650574, -0.26296699047088623, -0.7485477328300476, 8.846248626708984, 0.41881564259529114, 4.927360534667969, 107.37732696533203, -90.2752914428711, -3.073031425476074, -0.775390625, -0.138427734375, -0.199462890625, 
437, 3640197277, 0.4002356231212616, -0.4617267847061157, -0.2709115147590637, -0.743780791759491, 8.661540031433105, 0.48301371932029724, 4.754994869232178, 94.30142211914062, -90.9045639038086, -4.575911521911621, -0.77880859375, -0.142578125, -0.182861328125, 
438, 3640205610, 0.40086835622787476, -0.46439141035079956, -0.2779764235019684, -0.7391600012779236, 8.726762771606445, 0.5753182172775269, 4.861065864562988, 78.38787078857422, -92.82857513427734, -3.0976338386535645, -0.7783203125, -0.145751953125, -0.16943359375, 
439, 3640213943, 0.4012977182865143, -0.4672858417034149, -0.2843468189239502, -0.7346659302711487, 8.881004333496094, 0.5593439936637878, 4.892505645751953, 68.27833557128906, -91.21179962158203, -0.5649924278259277, -0.7802734375, -0.146728515625, -0.15478515625, 
440, 3640222276, 0.40178152918815613, -0.4699110984802246, -0.290395587682724, -0.7303484678268433, 9.01077651977539, 0.3382119834423065, 4.913249492645264, 66.1734619140625, -85.46347045898438, 0.04065020754933357, -0.782958984375, -0.14697265625, -0.13818359375, 
441, 3640230609, 0.40246397256851196, -0.472145140171051, -0.29637542366981506, -0.7261174917221069, 9.081454277038574, 0.1116059347987175, 4.877426624298096, 68.58251953125, -79.71540832519531, 0.42507243156433105, -0.783935546875, -0.1484375, -0.126953125, 
442, 3640238942, 0.40340644121170044, -0.4740096926689148, -0.3022376298904419, -0.7219513654708862, 9.122336387634277, -0.15151852369308472, 4.568874359130859, 70.87429809570312, -73.97691345214844, 1.9358391761779785, -0.786865234375, -0.151611328125, -0.11376953125, 
443, 3640247275, 0.4046611189842224, -0.4755789339542389, -0.30813542008399963, -0.7177115678787231, 9.36010456085205, -0.21334388852119446, 4.217517375946045, 75.21096801757812, -70.34929656982422, 3.9638657569885254, -0.786865234375, -0.151123046875, -0.099609375, 
444, 3640255608, 0.4062484800815582, -0.4770381450653076, -0.3143089711666107, -0.7131549715995789, 10.16061782836914, 0.06592022627592087, 3.8044886589050293, 82.0593490600586, -71.53807067871094, 6.761613368988037, -0.787353515625, -0.15087890625, -0.08544921875, 
445, 3640263941, 0.40822649002075195, -0.47813719511032104, -0.32036706805229187, -0.7085789442062378, 10.9392671585083, 0.849742591381073, 3.1920127868652344, 85.59127044677734, -65.7248306274414, 9.876312255859375, -0.787353515625, -0.1533203125, -0.07470703125, 
