sep=,
PacketCounter,SampleTimeFine,Quat_W,Quat_X,Quat_Y,Quat_Z,Acc_X,Acc_Y,Acc_Z,Gyr_X,Gyr_Y,Gyr_Z,Mag_X,Mag_Y,Mag_Z,
0, 3733035230, 0.47826820611953735, -0.48313000798225403, -0.19801394641399384, -0.7061304450035095, 0, 0, 0, 0, 0, 0, -0.808837890625, 0.055908203125, -0.208740234375, 
1, 3733043563, 0.4780609905719757, -0.48317402601242065, -0.19781631231307983, -0.7062960267066956, 8.613741874694824, -1.8451095819473267, 4.43952751159668, -4.23220157623291, 1.5978161096572876, -1.6227003335952759, -0.807373046875, 0.054931640625, -0.208251953125, 
2, 3733051896, 0.4778658449649811, -0.48321017622947693, -0.19763915240764618, -0.7064530849456787, 8.600446701049805, -1.929386019706726, 4.408454895019531, -4.123213291168213, 1.6130564212799072, -1.7245678901672363, -0.808349609375, 0.054931640625, -0.205322265625, 
3, 3733060229, 0.47767943143844604, -0.4832403361797333, -0.19747693836688995, -0.7066037058830261, 8.633610725402832, -1.999576210975647, 4.412496566772461, -3.6382334232330322, 1.4607287645339966, -1.6070499420166016, -0.805419921875, 0.056396484375, -0.208251953125, 
4, 3733068562, 0.47754034399986267, -0.4832462966442108, -0.19737321138381958, -0.7067225575447083, 8.63289737701416, -1.9875434637069702, 4.421928405761719, -2.7374064922332764, 1.323769450187683, -1.4994447231292725, -0.806396484375, 0.055908203125, -0.209228515625, 
5, 3733076895, 0.47740641236305237, -0.4832654297351837, -0.19728225469589233, -0.7068253755569458, 8.621613502502441, -1.9600878953933716, 4.4542951583862305, -2.6199393272399902, 1.0206503868103027, -1.3916085958480835, -0.807373046875, 0.054931640625, -0.208740234375, 
6, 3733085228, 0.47722846269607544, -0.4833395183086395, -0.19717979431152344, -0.7069233655929565, 8.599327087402344, -1.9106686115264893, 4.464874744415283, -3.150973320007324, 0.3147733211517334, -1.4616634845733643, -0.806396484375, 0.0537109375, -0.210693359375, 
7, 3733093561, 0.4770091772079468, -0.48346176743507385, -0.19703732430934906, -0.7070275545120239, 8.677803993225098, -1.9232523441314697, 4.490752220153809, -4.180512428283691, 0.04679721221327782, -1.522676706314087, -0.808349609375, 0.055908203125, -0.206298828125, 
8, 3733101894, 0.4767746329307556, -0.4836041033267975, -0.19688695669174194, -0.7071302533149719, 8.797237396240234, -1.9678610563278198, 4.529358863830566, -4.67512321472168, -0.0626908466219902, -1.6409119367599487, -0.805908203125, 0.056396484375, -0.208251953125, 
9, 3733110227, 0.4765227138996124, -0.48373666405677795, -0.19672246277332306, -0.7072551250457764, 8.918235778808594, -1.9884968996047974, 4.543229579925537, -4.924759387969971, 0.22691652178764343, -1.8882943391799927, -0.807373046875, 0.05517578125, -0.210693359375, 
10, 3733118560, 0.4762542247772217, -0.4838472306728363, -0.19655786454677582, -0.7074061036109924, 8.996197700500488, -2.014394760131836, 4.5430908203125, -4.7291693687438965, 0.4730437099933624, -2.1707682609558105, -0.806396484375, 0.054443359375, -0.206787109375, 
11, 3733126893, 0.47600257396698, -0.48391062021255493, -0.19640745222568512, -0.7075740098953247, 8.9832124710083, -2.031693935394287, 4.558742046356201, -4.238015651702881, 1.0046159029006958, -2.3522706031799316, -0.808349609375, 0.054443359375, -0.209228515625, 
12, 3733135226, 0.47576791048049927, -0.48391446471214294, -0.19632601737976074, -0.7077517509460449, 8.894640922546387, -2.0111584663391113, 4.53470516204834, -3.3009448051452637, 1.3313255310058594, -2.966397762298584, -0.805908203125, 0.053466796875, -0.207275390625, 
13, 3733143559, 0.47554850578308105, -0.48388025164604187, -0.19628070294857025, -0.707935094833374, 8.781733512878418, -2.0142822265625, 4.548511028289795, -2.3885912895202637, 1.4529930353164673, -3.0946476459503174, -0.805908203125, 0.054931640625, -0.210205078125, 
14, 3733151892, 0.4753575325012207, -0.4838201701641083, -0.19628475606441498, -0.7081032991409302, 8.683187484741211, -1.9757264852523804, 4.565744400024414, -1.7350953817367554, 1.4508159160614014, -3.2207977771759033, -0.803955078125, 0.053955078125, -0.209228515625, 
15, 3733160225, 0.4752030372619629, -0.4836950898170471, -0.19630202651023865, -0.7082876563072205, 8.634001731872559, -1.9203450679779053, 4.5807390213012695, -0.7572207450866699, 2.1117656230926514, -3.1332740783691406, -0.807373046875, 0.0537109375, -0.210205078125, 
16, 3733168558, 0.4751356840133667, -0.4834873080253601, -0.19638299942016602, -0.7084523439407349, 8.538339614868164, -1.8504047393798828, 4.513920783996582, 0.812534749507904, 2.6961801052093506, -2.90366792678833, -0.807861328125, 0.053466796875, -0.209716796875, 
17, 3733176891, 0.47513169050216675, -0.4832289218902588, -0.19648241996765137, -0.7086035013198853, 8.476811408996582, -1.7925299406051636, 4.496464252471924, 2.0101542472839355, 3.0583655834198, -2.3540894985198975, -0.805908203125, 0.05224609375, -0.21142578125, 
18, 3733185224, 0.47518211603164673, -0.48294851183891296, -0.19658829271793365, -0.7087317109107971, 8.452662467956543, -1.7528436183929443, 4.514913558959961, 2.412323474884033, 3.3165314197540283, -1.8790220022201538, -0.803955078125, 0.0517578125, -0.21142578125, 
19, 3733193557, 0.4752658009529114, -0.4826778173446655, -0.19664888083934784, -0.7088429927825928, 8.480557441711426, -1.7019222974777222, 4.529802322387695, 2.3812787532806396, 3.40861439704895, -1.0245566368103027, -0.806396484375, 0.0537109375, -0.212158203125, 
20, 3733201890, 0.4753952622413635, -0.48240846395492554, -0.19666409492492676, -0.7089354991912842, 8.527341842651367, -1.6522773504257202, 4.494536876678467, 2.0762643814086914, 3.7779202461242676, -0.24370664358139038, -0.805419921875, 0.0537109375, -0.212158203125, 
21, 3733210223, 0.4755008816719055, -0.48216307163238525, -0.19660340249538422, -0.709048330783844, 8.607909202575684, -1.6716688871383667, 4.490734100341797, 1.2270500659942627, 4.0141096115112305, 0.07876378297805786, -0.805419921875, 0.05322265625, -0.211669921875, 
22, 3733218556, 0.4756288528442383, -0.4819220304489136, -0.1965065449476242, -0.7091531157493591, 8.66976547241211, -1.6787809133529663, 4.45280647277832, 0.7539805769920349, 4.31228494644165, 0.48080483078956604, -0.804931640625, 0.052734375, -0.2109375, 
23, 3733226889, 0.4757304787635803, -0.4817124009132385, -0.19637873768806458, -0.7092628479003906, 8.681264877319336, -1.664355754852295, 4.424544811248779, 0.2890438139438629, 4.078874588012695, 0.5874752402305603, -0.808349609375, 0.0517578125, -0.211181640625, 
24, 3733235222, 0.4758215546607971, -0.4815343916416168, -0.19623218476772308, -0.7093632221221924, 8.698198318481445, -1.637663722038269, 4.435883045196533, -0.37436482310295105, 3.8939015865325928, 0.6488853693008423, -0.805908203125, 0.05078125, -0.21240234375, 
25, 3733243555, 0.47588515281677246, -0.48138919472694397, -0.19609642028808594, -0.709456741809845, 8.674910545349121, -1.5783592462539673, 4.427331447601318, -0.6474637985229492, 3.3833584785461426, 0.4437922239303589, -0.804443359375, 0.0517578125, -0.21435546875, 
26, 3733251888, 0.4759089946746826, -0.48126542568206787, -0.19594858586788177, -0.7095654010772705, 8.637980461120605, -1.5059071779251099, 4.463681221008301, -0.9893627166748047, 3.158133029937744, 0.1960001289844513, -0.805419921875, 0.05224609375, -0.2138671875, 
27, 3733260221, 0.475898802280426, -0.4811958074569702, -0.19576701521873474, -0.7096695899963379, 8.603738784790039, -1.4685823917388916, 4.51365327835083, -1.887474536895752, 2.7290685176849365, 0.26333993673324585, -0.803955078125, 0.0517578125, -0.21142578125, 
28, 3733268554, 0.4758545160293579, -0.48116594552993774, -0.1955416202545166, -0.7097815871238708, 8.570648193359375, -1.4494401216506958, 4.491127014160156, -3.0397565364837646, 2.6776609420776367, 0.17425362765789032, -0.8037109375, 0.05029296875, -0.21484375, 
29, 3733276887, 0.4757760167121887, -0.4811849594116211, -0.19527770578861237, -0.7098940014839172, 8.503130912780762, -1.4970921277999878, 4.462151050567627, -3.9642767906188965, 2.3614275455474854, 0.2229975461959839, -0.803955078125, 0.052734375, -0.2119140625, 
30, 3733285220, 0.47567927837371826, -0.48121970891952515, -0.19495747983455658, -0.7100234031677246, 8.497405052185059, -1.6080673933029175, 4.451526165008545, -4.57781457901001, 2.5545589923858643, 0.4467635154724121, -0.803466796875, 0.0517578125, -0.21533203125, 
31, 3733293553, 0.47558578848838806, -0.48125290870666504, -0.19464866816997528, -0.7101480960845947, 8.496302604675293, -1.7379021644592285, 4.4683074951171875, -4.387756824493408, 2.4673166275024414, 0.44855645298957825, -0.805419921875, 0.052734375, -0.213623046875, 
32, 3733301886, 0.47552141547203064, -0.48126429319381714, -0.19437143206596375, -0.7102594375610352, 8.488077163696289, -1.8338631391525269, 4.4948506355285645, -3.9474997520446777, 2.554405450820923, 0.43685081601142883, -0.803955078125, 0.052734375, -0.21484375, 
33, 3733310219, 0.4754713773727417, -0.48127543926239014, -0.19411960244178772, -0.7103542685508728, 8.524327278137207, -1.9033071994781494, 4.518256664276123, -3.340134859085083, 2.2312815189361572, 0.6205304265022278, -0.805908203125, 0.0537109375, -0.214599609375, 
34, 3733318552, 0.47546547651290894, -0.48125383257865906, -0.19395330548286438, -0.7104184031486511, 8.536725044250488, -1.9271972179412842, 4.521036624908447, -2.1355485916137695, 1.995707392692566, 0.4943547546863556, -0.803955078125, 0.05517578125, -0.214599609375, 
35, 3733326885, 0.4754907786846161, -0.4811909794807434, -0.193861186504364, -0.7104690074920654, 8.570072174072266, -1.8960840702056885, 4.544496536254883, -0.674717366695404, 1.8181496858596802, 0.39320409297943115, -0.805419921875, 0.053466796875, -0.218505859375, 
36, 3733335218, 0.4755529463291168, -0.48111748695373535, -0.19383302330970764, -0.7104848027229309, 8.573203086853027, -1.8777356147766113, 4.596931457519531, 0.13255363702774048, 1.4603955745697021, 0.42227625846862793, -0.805908203125, 0.052001953125, -0.216796875, 
37, 3733343551, 0.475588858127594, -0.48104622960090637, -0.1937927007675171, -0.7105200886726379, 8.55394172668457, -1.823710322380066, 4.647716999053955, -0.022220348939299583, 1.492771863937378, 0.22169120609760284, -0.807861328125, 0.055419921875, -0.215576171875, 
38, 3733351884, 0.47562676668167114, -0.48098301887512207, -0.19377151131629944, -0.7105432748794556, 8.541102409362793, -1.7846343517303467, 4.658796787261963, -0.04645141214132309, 1.3000503778457642, 0.1184658333659172, -0.804443359375, 0.054931640625, -0.217041015625, 
39, 3733360217, 0.4756481647491455, -0.4809357225894928, -0.19373078644275665, -0.7105721235275269, 8.559635162353516, -1.741552710533142, 4.664912700653076, -0.4661918878555298, 1.263575792312622, 0.09141720831394196, -0.804443359375, 0.053955078125, -0.217529296875, 
40, 3733368550, 0.475620836019516, -0.48092228174209595, -0.1936473697423935, -0.710622251033783, 8.594462394714355, -1.704485297203064, 4.648051738739014, -1.2641009092330933, 1.135325312614441, -0.04540122672915459, -0.803955078125, 0.05419921875, -0.214599609375, 
41, 3733376883, 0.47554147243499756, -0.48095372319221497, -0.19347968697547913, -0.7106996774673462, 8.630949020385742, -1.746128797531128, 4.684216022491455, -2.793501377105713, 1.2895232439041138, -0.053316034376621246, -0.805419921875, 0.054931640625, -0.216552734375, 
42, 3733385216, 0.4754396677017212, -0.48098936676979065, -0.19326037168502808, -0.7108033895492554, 8.637847900390625, -1.8038967847824097, 4.658614158630371, -3.7673544883728027, 1.789794683456421, -0.19977819919586182, -0.802978515625, 0.054931640625, -0.219482421875, 
43, 3733393549, 0.4753076136112213, -0.4810281991958618, -0.19301873445510864, -0.710931122303009, 8.647562980651855, -1.8623348474502563, 4.672934532165527, -4.051851749420166, 1.894300937652588, -0.3905274569988251, -0.805419921875, 0.053466796875, -0.218017578125, 
44, 3733401882, 0.475199818611145, -0.48107099533081055, -0.19280189275741577, -0.7110331058502197, 8.622485160827637, -1.8930069208145142, 4.679638862609863, -3.826446294784546, 1.6762466430664062, -0.24534595012664795, -0.805908203125, 0.054931640625, -0.218505859375, 
45, 3733410215, 0.47513020038604736, -0.4810838997364044, -0.19260266423225403, -0.7111249566078186, 8.624948501586914, -1.8653373718261719, 4.674102306365967, -3.177304744720459, 1.8854637145996094, -0.0004738633579108864, -0.805908203125, 0.054931640625, -0.219970703125, 
46, 3733418548, 0.47509080171585083, -0.48103731870651245, -0.19243919849395752, -0.7112269997596741, 8.55718994140625, -1.8663661479949951, 4.634114742279053, -2.069796562194824, 2.298954486846924, -0.07104107737541199, -0.803955078125, 0.054931640625, -0.217041015625, 
47, 3733426881, 0.4750848710536957, -0.48094677925109863, -0.19232752919197083, -0.7113221883773804, 8.476693153381348, -1.8541052341461182, 4.598654270172119, -0.9943318963050842, 2.4236702919006348, -0.1374075710773468, -0.803466796875, 0.054443359375, -0.220947265625, 
48, 3733435214, 0.47515130043029785, -0.4808019697666168, -0.1922827661037445, -0.7113878726959229, 8.458834648132324, -1.8185794353485107, 4.60067892074585, 0.33198612928390503, 2.6067609786987305, 0.062114521861076355, -0.807373046875, 0.053955078125, -0.218994140625, 
49, 3733443547, 0.4752531945705414, -0.48062795400619507, -0.19225673377513885, -0.7114443778991699, 8.456500053405762, -1.7697227001190186, 4.612870216369629, 1.181226134300232, 2.715160369873047, 0.37145766615867615, -0.806884765625, 0.054443359375, -0.218505859375, 
50, 3733451880, 0.47538483142852783, -0.48047515749931335, -0.19223371148109436, -0.7114660143852234, 8.48308277130127, -1.7331739664077759, 4.5890793800354, 1.1444438695907593, 2.425898313522339, 0.8233951330184937, -0.805419921875, 0.054443359375, -0.218994140625, 
51, 3733460213, 0.47552675008773804, -0.48032045364379883, -0.19218280911445618, -0.7114893794059753, 8.537391662597656, -1.712593913078308, 4.55805778503418, 1.183044672012329, 2.5714900493621826, 1.2062256336212158, -0.804931640625, 0.055419921875, -0.219970703125, 
52, 3733468546, 0.4756643772125244, -0.4801707863807678, -0.19210374355316162, -0.7115197777748108, 8.611724853515625, -1.7464054822921753, 4.542375564575195, 0.5922011137008667, 2.832882881164551, 1.2021015882492065, -0.803466796875, 0.0537109375, -0.2216796875, 
53, 3733476879, 0.4757678806781769, -0.4800187051296234, -0.19198018312454224, -0.7115864753723145, 8.639023780822754, -1.7888985872268677, 4.526941299438477, 0.0767146423459053, 3.208439350128174, 1.02851402759552, -0.803466796875, 0.05517578125, -0.221923828125, 
54, 3733485212, 0.47585785388946533, -0.479862242937088, -0.19187796115875244, -0.7116594314575195, 8.574763298034668, -1.7880080938339233, 4.480747222900391, -0.017481716349720955, 3.2077219486236572, 0.5935330986976624, -0.804443359375, 0.054931640625, -0.221435546875, 
55, 3733493545, 0.47591009736061096, -0.4797341227531433, -0.19177748262882233, -0.711737871170044, 8.535229682922363, -1.7452564239501953, 4.48516845703125, -0.2559758722782135, 2.772202968597412, 0.34499818086624146, -0.804443359375, 0.054931640625, -0.220947265625, 
56, 3733501878, 0.4759315252304077, -0.47963690757751465, -0.1916930079460144, -0.711811900138855, 8.531368255615234, -1.7373905181884766, 4.4995598793029785, -0.6860389113426208, 2.3359928131103516, -0.04565737396478653, -0.805419921875, 0.052734375, -0.22119140625, 
57, 3733510211, 0.4759075939655304, -0.47958269715309143, -0.19160990417003632, -0.7118867635726929, 8.600299835205078, -1.6949658393859863, 4.493651390075684, -1.0521430969238281, 1.7096476554870605, -0.29150283336639404, -0.802490234375, 0.057373046875, -0.222412109375, 
58, 3733518544, 0.47586262226104736, -0.47955816984176636, -0.19150909781455994, -0.71196049451828, 8.671951293945312, -1.7061411142349243, 4.488207817077637, -1.7600566148757935, 1.555719017982483, -0.3941006362438202, -0.802978515625, 0.054931640625, -0.219970703125, 
59, 3733526877, 0.4757711589336395, -0.47955408692359924, -0.19136269390583038, -0.712063729763031, 8.74563217163086, -1.7387135028839111, 4.521695613861084, -2.4858107566833496, 1.6349952220916748, -0.5703778266906738, -0.804443359375, 0.0546875, -0.223388671875, 
60, 3733535210, 0.475660115480423, -0.47956007719039917, -0.19120265543460846, -0.712177038192749, 8.827192306518555, -1.821157693862915, 4.5479583740234375, -3.0788185596466064, 1.7309588193893433, -0.8295042514801025, -0.806396484375, 0.055419921875, -0.220947265625, 
61, 3733543543, 0.47551432251930237, -0.47957172989845276, -0.1909816414117813, -0.7123256325721741, 8.816760063171387, -1.85341215133667, 4.587159633636475, -3.822194814682007, 2.132641315460205, -0.8787091970443726, -0.805908203125, 0.05517578125, -0.221923828125, 
62, 3733551876, 0.4753551483154297, -0.47957172989845276, -0.19075563549995422, -0.7124925851821899, 8.757357597351074, -1.8834434747695923, 4.579784870147705, -4.143038749694824, 2.4496686458587646, -1.2319039106369019, -0.804443359375, 0.054931640625, -0.221435546875, 
63, 3733560209, 0.47515222430229187, -0.47957539558410645, -0.1905178725719452, -0.7126889228820801, 8.645425796508789, -1.8686403036117554, 4.566710472106934, -4.421669960021973, 2.481917142868042, -1.6528226137161255, -0.806396484375, 0.0537109375, -0.222900390625, 
64, 3733568542, 0.4749298393726349, -0.47958338260650635, -0.19027671217918396, -0.7128961086273193, 8.49942398071289, -1.8379552364349365, 4.639979839324951, -4.867126941680908, 2.568467378616333, -1.9937736988067627, -0.804443359375, 0.05615234375, -0.222412109375, 
65, 3733576875, 0.4746980369091034, -0.4795888662338257, -0.19005870819091797, -0.7131049036979675, 8.391934394836426, -1.775756597518921, 4.6275739669799805, -4.68918514251709, 2.4298689365386963, -2.255525827407837, -0.805419921875, 0.0546875, -0.222412109375, 
66, 3733585208, 0.4744875729084015, -0.479574054479599, -0.18988820910453796, -0.713300347328186, 8.320725440979004, -1.7447896003723145, 4.588587760925293, -3.7087109088897705, 2.2033238410949707, -2.2234182357788086, -0.80322265625, 0.05322265625, -0.224609375, 
67, 3733593541, 0.4743069112300873, -0.4795365333557129, -0.1897653341293335, -0.7134785056114197, 8.26133918762207, -1.7716648578643799, 4.5820159912109375, -2.8515684604644775, 2.077211856842041, -2.1903371810913086, -0.8017578125, 0.05419921875, -0.2236328125, 
68, 3733601874, 0.47417008876800537, -0.4794844388961792, -0.18969646096229553, -0.7136228680610657, 8.254060745239258, -1.8199316263198853, 4.566852569580078, -2.0553505420684814, 1.8437896966934204, -2.0376765727996826, -0.802734375, 0.0517578125, -0.2255859375, 
69, 3733610207, 0.4740826189517975, -0.4794227182865143, -0.1896723061800003, -0.7137287259101868, 8.279753684997559, -1.8789055347442627, 4.555662631988525, -0.9130833745002747, 1.4365488290786743, -1.5138909816741943, -0.806396484375, 0.052490234375, -0.226318359375, 
70, 3733618540, 0.47406572103500366, -0.4793563187122345, -0.18968559801578522, -0.71378093957901, 8.32391357421875, -1.9217042922973633, 4.542176723480225, -0.1256762444972992, 1.153357744216919, -0.8396474123001099, -0.805908203125, 0.0537109375, -0.222900390625, 
71, 3733626873, 0.4740902781486511, -0.4792855381965637, -0.18973155319690704, -0.7137999534606934, 8.374541282653809, -1.8861117362976074, 4.509953498840332, 0.7992153167724609, 0.7877657413482666, -0.3339455723762512, -0.80224609375, 0.05224609375, -0.22412109375, 
72, 3733635206, 0.47414618730545044, -0.4792300760746002, -0.189805269241333, -0.7137804627418518, 8.40136432647705, -1.8378658294677734, 4.5267767906188965, 1.0630931854248047, 0.36904987692832947, -0.027087053284049034, -0.80322265625, 0.05126953125, -0.224609375, 
73, 3733643539, 0.47419390082359314, -0.47921302914619446, -0.189822718501091, -0.7137554883956909, 8.458501815795898, -1.7564806938171387, 4.546761989593506, 0.4239412248134613, 0.22202420234680176, 0.5005021691322327, -0.80322265625, 0.05126953125, -0.2255859375, 
74, 3733651872, 0.474231094121933, -0.4792410433292389, -0.18982933461666107, -0.7137101888656616, 8.462178230285645, -1.6946730613708496, 4.520961761474609, -0.19542378187179565, -0.23123250901699066, 0.618020236492157, -0.8037109375, 0.053955078125, -0.22705078125, 
75, 3733660205, 0.47424328327178955, -0.47933709621429443, -0.18977950513362885, -0.7136508226394653, 8.461360931396484, -1.6495023965835571, 4.540042400360107, -1.3219634294509888, -0.6894455552101135, 1.0135554075241089, -0.80322265625, 0.0537109375, -0.22314453125, 
76, 3733668538, 0.47417163848876953, -0.4795142710208893, -0.18966352939605713, -0.7136104106903076, 8.485031127929688, -1.5899884700775146, 4.581120014190674, -2.901439905166626, -1.2281643152236938, 0.813585102558136, -0.803466796875, 0.0537109375, -0.224609375, 
77, 3733676871, 0.4740256071090698, -0.47978106141090393, -0.18947172164916992, -0.7135788798332214, 8.48167610168457, -1.5785478353500366, 4.580484867095947, -4.731217861175537, -1.7508738040924072, 0.768170952796936, -0.803955078125, 0.0546875, -0.224853515625, 
78, 3733685204, 0.4738370478153229, -0.480103075504303, -0.189248189330101, -0.7135468125343323, 8.47289752960205, -1.608620524406433, 4.5857319831848145, -5.894412994384766, -2.117849349975586, 0.6012430191040039, -0.80224609375, 0.0546875, -0.224609375, 
79, 3733693537, 0.47359567880630493, -0.48047035932540894, -0.18899443745613098, -0.7135273218154907, 8.4609956741333, -1.6735807657241821, 4.604490280151367, -6.667065620422363, -2.499936580657959, 0.41863909363746643, -0.806396484375, 0.05419921875, -0.224365234375, 
80, 3733701870, 0.47333845496177673, -0.48086637258529663, -0.18874597549438477, -0.7134969830513, 8.489481925964355, -1.7377336025238037, 4.603832244873047, -7.079250812530518, -2.848392963409424, 0.2717927098274231, -0.805419921875, 0.05419921875, -0.223388671875, 
81, 3733710203, 0.4730716645717621, -0.48125162720680237, -0.18849292397499084, -0.713481068611145, 8.537856101989746, -1.7905827760696411, 4.615200996398926, -6.934375762939453, -2.7272884845733643, 0.1987408548593521, -0.803955078125, 0.05517578125, -0.223388671875, 
82, 3733718536, 0.4728330373764038, -0.48159700632095337, -0.18827220797538757, -0.7134645581245422, 8.56699275970459, -1.8358023166656494, 4.645971298217773, -6.391917705535889, -2.3926897048950195, 0.05058811604976654, -0.804443359375, 0.0576171875, -0.223388671875, 
83, 3733726869, 0.4726168215274811, -0.48189467191696167, -0.18807867169380188, -0.7134578824043274, 8.619545936584473, -1.9060862064361572, 4.658184051513672, -5.457996368408203, -2.0659801959991455, 0.02059384621679783, -0.804931640625, 0.05419921875, -0.223876953125, 
84, 3733735202, 0.4724563956260681, -0.4821401834487915, -0.18795925378799438, -0.7134295701980591, 8.658677101135254, -1.9427857398986816, 4.687475681304932, -4.198185920715332, -1.9474376440048218, -0.0362057238817215, -0.803955078125, 0.0537109375, -0.22412109375, 
85, 3733743535, 0.47233137488365173, -0.48233503103256226, -0.18789143860340118, -0.7133984565734863, 8.681476593017578, -1.9608711004257202, 4.70031213760376, -2.9506194591522217, -1.7864265441894531, -0.0578753687441349, -0.804931640625, 0.054443359375, -0.219970703125, 
86, 3733751868, 0.4722677767276764, -0.4824592173099518, -0.1878998726606369, -0.7133544683456421, 8.643071174621582, -1.9442797899246216, 4.6974897384643555, -1.4735740423202515, -1.4417355060577393, -0.14447708427906036, -0.804931640625, 0.0556640625, -0.223876953125, 
87, 3733760201, 0.4722248315811157, -0.4825247526168823, -0.18795253336429596, -0.7133246064186096, 8.616307258605957, -1.9338712692260742, 4.717893600463867, -0.37079164385795593, -1.0845065116882324, -0.3861601948738098, -0.805908203125, 0.05419921875, -0.222412109375, 
88, 3733768534, 0.4722096920013428, -0.48254767060279846, -0.18807445466518402, -0.7132869362831116, 8.566473960876465, -1.938234567642212, 4.708158493041992, 0.6032152771949768, -1.0163600444793701, -0.7254592180252075, -0.805419921875, 0.05419921875, -0.222412109375, 
89, 3733776867, 0.47218748927116394, -0.4825570285320282, -0.18822334706783295, -0.7132561802864075, 8.586894035339355, -1.9079012870788574, 4.727795124053955, 1.1017194986343384, -1.1161786317825317, -0.9479443430900574, -0.805908203125, 0.055908203125, -0.220458984375, 
90, 3733785200, 0.472187340259552, -0.48253634572029114, -0.1884000152349472, -0.7132235765457153, 8.587474822998047, -1.8619718551635742, 4.691102504730225, 1.5087553262710571, -0.8726130127906799, -1.0882335901260376, -0.805419921875, 0.0537109375, -0.222412109375, 
91, 3733793533, 0.47217485308647156, -0.48251405358314514, -0.18856973946094513, -0.7132020592689514, 8.601869583129883, -1.849141001701355, 4.687757968902588, 1.5146209001541138, -0.8462302684783936, -1.1540364027023315, -0.805908203125, 0.05419921875, -0.221435546875, 
92, 3733801866, 0.4721734821796417, -0.4824769198894501, -0.18873439729213715, -0.713184654712677, 8.663105964660645, -1.8481546640396118, 4.702335357666016, 1.4505341053009033, -0.5365029573440552, -1.1613109111785889, -0.805419921875, 0.05224609375, -0.220703125, 
93, 3733810199, 0.4721510112285614, -0.48242831230163574, -0.18886932730674744, -0.7131966352462769, 8.67210578918457, -1.839123010635376, 4.701595306396484, 1.2412657737731934, -0.1767510175704956, -1.2800331115722656, -0.805908203125, 0.0546875, -0.221923828125, 
94, 3733818532, 0.47215157747268677, -0.48232465982437134, -0.18900419771671295, -0.7132307291030884, 8.697752952575684, -1.8536841869354248, 4.66100549697876, 1.4700266122817993, 0.6560830473899841, -1.4518276453018188, -0.805419921875, 0.0556640625, -0.221923828125, 
95, 3733826865, 0.47215521335601807, -0.4821959435939789, -0.18911169469356537, -0.713286817073822, 8.65988540649414, -1.838365077972412, 4.64290189743042, 1.3261768817901611, 1.233811855316162, -1.4487025737762451, -0.806396484375, 0.05224609375, -0.22216796875, 
96, 3733835198, 0.47213953733444214, -0.4820762574672699, -0.18916907906532288, -0.7133628726005554, 8.58934497833252, -1.8344932794570923, 4.661503314971924, 0.8370730876922607, 1.4633409976959229, -1.2898943424224854, -0.804931640625, 0.0546875, -0.222412109375, 
97, 3733843531, 0.47213566303253174, -0.4819756746292114, -0.18921615183353424, -0.7134208679199219, 8.529918670654297, -1.8664891719818115, 4.645267963409424, 0.7008311152458191, 1.2608606815338135, -0.9580108523368835, -0.805419921875, 0.0517578125, -0.22216796875, 
98, 3733851864, 0.4721546173095703, -0.48188814520835876, -0.18927490711212158, -0.7134518623352051, 8.524314880371094, -1.8631011247634888, 4.611537933349609, 0.7486016154289246, 1.0208808183670044, -0.7042761445045471, -0.804931640625, 0.054443359375, -0.220458984375, 
99, 3733860197, 0.4721704125404358, -0.4817917048931122, -0.18930451571941376, -0.7134986519813538, 8.567275047302246, -1.8355482816696167, 4.599871635437012, 0.6633830666542053, 1.310782790184021, -0.5659592747688293, -0.803955078125, 0.053466796875, -0.220703125, 
100, 3733868530, 0.47219786047935486, -0.4816846549510956, -0.18934553861618042, -0.7135419249534607, 8.60235595703125, -1.871612548828125, 4.585532188415527, 0.7262915968894958, 1.430554986000061, -0.6330685615539551, -0.804931640625, 0.052978515625, -0.220703125, 
101, 3733876863, 0.47220277786254883, -0.4815944731235504, -0.18936677277088165, -0.7135939002037048, 8.574700355529785, -1.8410418033599854, 4.571711540222168, 0.46699872612953186, 1.3078114986419678, -0.6283043026924133, -0.803955078125, 0.052978515625, -0.21923828125, 
102, 3733885196, 0.4722123146057129, -0.48151877522468567, -0.18940424919128418, -0.7136287689208984, 8.576436042785645, -1.8459699153900146, 4.551081657409668, 0.390540212392807, 1.0434470176696777, -0.6494617462158203, -0.806396484375, 0.052734375, -0.221923828125, 
103, 3733893529, 0.4721949100494385, -0.4814658463001251, -0.18943236768245697, -0.7136684656143188, 8.605284690856934, -1.8002920150756836, 4.596259593963623, 0.1580142080783844, 0.7621515393257141, -0.7256385087966919, -0.805908203125, 0.0517578125, -0.2216796875, 
104, 3733901862, 0.47216665744781494, -0.4814331829547882, -0.18944989144802094, -0.713704526424408, 8.62100601196289, -1.7626324892044067, 4.609364032745361, -0.3379285931587219, 0.6603733897209167, -0.7842310667037964, -0.803955078125, 0.0537109375, -0.22265625, 
105, 3733910195, 0.4720935523509979, -0.4814338684082031, -0.1894199252128601, -0.7137603759765625, 8.627151489257812, -1.758354902267456, 4.590980529785156, -1.156802773475647, 0.5719402432441711, -0.8456411361694336, -0.803955078125, 0.052978515625, -0.22119140625, 
106, 3733918528, 0.4720131754875183, -0.48145708441734314, -0.1893528699874878, -0.7138156890869141, 8.615373611450195, -1.7669132947921753, 4.614223957061768, -1.9254860877990723, 0.6531373262405396, -0.715930700302124, -0.80419921875, 0.05224609375, -0.22216796875, 
107, 3733926861, 0.47189345955848694, -0.48151540756225586, -0.18925581872463226, -0.713881254196167, 8.533803939819336, -1.77346932888031, 4.62453031539917, -2.5219132900238037, 0.38531494140625, -0.7697974443435669, -0.8017578125, 0.0546875, -0.22265625, 
108, 3733935194, 0.4717797636985779, -0.4815911054611206, -0.18916146457195282, -0.7139303684234619, 8.505807876586914, -1.7855169773101807, 4.649821758270264, -2.7402493953704834, 0.18519091606140137, -0.6854497194290161, -0.80517578125, 0.0517578125, -0.22412109375, 
109, 3733943527, 0.47167113423347473, -0.481664776802063, -0.18903748691082, -0.7139852643013, 8.487090110778809, -1.7954477071762085, 4.669932842254639, -2.812788963317871, 0.3728407919406891, -0.38842707872390747, -0.804443359375, 0.052734375, -0.2236328125, 
110, 3733951860, 0.47159498929977417, -0.4817175269126892, -0.1889338493347168, -0.7140274047851562, 8.509358406066895, -1.795282244682312, 4.636738300323486, -2.41428279876709, 0.5238879919052124, -0.26911595463752747, -0.806884765625, 0.0537109375, -0.223876953125, 
111, 3733960193, 0.47151994705200195, -0.4817664623260498, -0.1888173371553421, -0.7140747308731079, 8.512079238891602, -1.8293297290802002, 4.635084629058838, -2.2812421321868896, 0.5923036336898804, -0.09427318722009659, -0.804931640625, 0.052734375, -0.2236328125, 
112, 3733968526, 0.47147315740585327, -0.48179304599761963, -0.18873003125190735, -0.7141108512878418, 8.528521537780762, -1.881009817123413, 4.579249382019043, -1.8754615783691406, 0.7101802825927734, -0.11745408177375793, -0.80224609375, 0.05224609375, -0.22314453125, 
113, 3733976859, 0.4714491665363312, -0.4818214774131775, -0.18867003917694092, -0.7141233682632446, 8.566380500793457, -1.9120407104492188, 4.578256607055664, -1.2168298959732056, 0.341015100479126, 0.1770584136247635, -0.80419921875, 0.052734375, -0.22216796875, 
114, 3733985192, 0.4714507460594177, -0.48184895515441895, -0.1886788308620453, -0.7141013741493225, 8.646577835083008, -1.8976707458496094, 4.562884330749512, -0.4652954339981079, -0.18028581142425537, 0.0987941101193428, -0.804443359375, 0.052734375, -0.2236328125, 
115, 3733993525, 0.4714670777320862, -0.48186996579170227, -0.18872931599617004, -0.7140630483627319, 8.700775146484375, -1.8854464292526245, 4.50581169128418, 0.12543290853500366, -0.45748308300971985, 0.05704290419816971, -0.807373046875, 0.05419921875, -0.223388671875, 
116, 3734001858, 0.47145435214042664, -0.48188498616218567, -0.18878424167633057, -0.7140467762947083, 8.720368385314941, -1.8576719760894775, 4.489232063293457, 0.132681742310524, -0.4310491383075714, -0.3290276527404785, -0.806396484375, 0.0537109375, -0.221923828125, 
117, 3734010191, 0.4714103639125824, -0.48189446330070496, -0.18883028626441956, -0.7140572667121887, 8.638903617858887, -1.8125518560409546, 4.47725772857666, -0.18738093972206116, -0.22324082255363464, -0.7629584074020386, -0.80322265625, 0.05078125, -0.224609375, 
118, 3734018524, 0.4713283181190491, -0.48193126916885376, -0.18890990316867828, -0.7140656113624573, 8.525580406188965, -1.7791838645935059, 4.4948320388793945, -0.4634768068790436, -0.747103214263916, -1.3628182411193848, -0.80419921875, 0.05224609375, -0.22412109375, 
119, 3734026857, 0.4711850583553314, -0.4820405840873718, -0.18893848359584808, -0.7140787243843079, 8.456807136535645, -1.6995431184768677, 4.561417579650879, -1.658457636833191, -1.3352060317993164, -1.3717832565307617, -0.80419921875, 0.0498046875, -0.22265625, 
120, 3734035190, 0.4709858298301697, -0.4822492003440857, -0.18887948989868164, -0.714085042476654, 8.463386535644531, -1.6776150465011597, 4.596626281738281, -3.7091078758239746, -1.8531771898269653, -1.1359273195266724, -0.806396484375, 0.05322265625, -0.221923828125, 
121, 3734043523, 0.47073766589164734, -0.4825144112110138, -0.18868185579776764, -0.7141217589378357, 8.499310493469238, -1.6495457887649536, 4.593134880065918, -5.62886905670166, -1.5190907716751099, -0.6401894092559814, -0.8046875, 0.0517578125, -0.22265625, 
122, 3734051856, 0.47046858072280884, -0.48281532526016235, -0.18840914964675903, -0.7141676545143127, 8.520340919494629, -1.6967244148254395, 4.60892391204834, -6.972181797027588, -1.2953245639801025, -0.4211876392364502, -0.80419921875, 0.051025390625, -0.21923828125, 
123, 3734060189, 0.470179945230484, -0.4831100404262543, -0.1880931854248047, -0.7142415642738342, 8.529006958007812, -1.7354406118392944, 4.619701862335205, -7.351426601409912, -0.9000202417373657, -0.41875436902046204, -0.805908203125, 0.05322265625, -0.221923828125, 
124, 3734068522, 0.4699130058288574, -0.4833987355232239, -0.18776920437812805, -0.7143071889877319, 8.548503875732422, -1.814538836479187, 4.637077808380127, -7.4332122802734375, -0.7064789533615112, -0.21888643503189087, -0.804931640625, 0.0537109375, -0.220947265625, 
125, 3734076855, 0.4696650803089142, -0.4836346209049225, -0.18746061623096466, -0.7143916487693787, 8.490445137023926, -1.8882180452346802, 4.661139965057373, -6.661276340484619, -0.1942199319601059, -0.29093924164772034, -0.804931640625, 0.05322265625, -0.22265625, 
126, 3734085188, 0.4694748818874359, -0.4838200807571411, -0.18727219104766846, -0.7144404649734497, 8.442076683044434, -1.9347472190856934, 4.677278518676758, -4.880728721618652, -0.4813811779022217, -0.5241057872772217, -0.804443359375, 0.053466796875, -0.220947265625, 
127, 3734093521, 0.46933239698410034, -0.4839537441730499, -0.18718498945236206, -0.7144664525985718, 8.464461326599121, -1.956453800201416, 4.697434425354004, -2.988835573196411, -0.7346803545951843, -0.6208761930465698, -0.8056640625, 0.05029296875, -0.220703125, 
128, 3734101854, 0.46924763917922974, -0.48405033349990845, -0.18720155954360962, -0.71445232629776, 8.488940238952637, -1.9327123165130615, 4.6794867515563965, -1.4297993183135986, -1.0797553062438965, -0.6750759482383728, -0.8046875, 0.05126953125, -0.22314453125, 
129, 3734110187, 0.46919578313827515, -0.4840918481349945, -0.18728789687156677, -0.7144355773925781, 8.545193672180176, -1.969435214996338, 4.671786785125732, 0.03101883828639984, -1.0000437498092651, -0.8442067503929138, -0.804931640625, 0.05224609375, -0.220703125, 
130, 3734118520, 0.4691954255104065, -0.48409807682037354, -0.18745577335357666, -0.7143875360488892, 8.560992240905762, -1.9824994802474976, 4.660510540008545, 1.2893438339233398, -1.177140712738037, -0.8678999543190002, -0.805908203125, 0.0517578125, -0.220703125, 
131, 3734126853, 0.4692297875881195, -0.4840720295906067, -0.18768629431724548, -0.7143222093582153, 8.550766944885254, -1.999631404876709, 4.648641109466553, 2.5730271339416504, -1.36735200881958, -0.8223322033882141, -0.805908203125, 0.051513671875, -0.21923828125, 
132, 3734135186, 0.4693011939525604, -0.4840385913848877, -0.1879810392856598, -0.7142204642295837, 8.562549591064453, -1.9609954357147217, 4.659637451171875, 3.4082300662994385, -1.7773332595825195, -0.7627022862434387, -0.804931640625, 0.051513671875, -0.21923828125, 
133, 3734143519, 0.4693702757358551, -0.48398566246032715, -0.18826110661029816, -0.7141371369361877, 8.62454605102539, -1.895843744277954, 4.6679182052612305, 3.5242624282836914, -1.457078456878662, -0.7587064504623413, -0.8056640625, 0.05029296875, -0.22216796875, 
134, 3734151852, 0.4694347083568573, -0.4839193820953369, -0.1885359287261963, -0.7140671610832214, 8.651241302490234, -1.9037373065948486, 4.6944475173950195, 3.2942981719970703, -1.1334172487258911, -0.988824725151062, -0.80615234375, 0.05029296875, -0.22021484375, 
135, 3734160185, 0.4694857597351074, -0.4838275611400604, -0.18876923620700836, -0.7140341997146606, 8.654428482055664, -1.8539713621139526, 4.697398662567139, 2.868051528930664, -0.4024636447429657, -1.1480684280395508, -0.805908203125, 0.052490234375, -0.219970703125, 
136, 3734168518, 0.46950674057006836, -0.4837392270565033, -0.18897870182991028, -0.7140248417854309, 8.617952346801758, -1.826127290725708, 4.69378137588501, 2.5453124046325684, -0.2843564450740814, -1.3330544233322144, -0.806884765625, 0.050048828125, -0.21875, 
137, 3734176851, 0.46952927112579346, -0.48362329602241516, -0.18917930126190186, -0.7140355706214905, 8.582446098327637, -1.7629555463790894, 4.659193992614746, 2.6127543449401855, 0.17819824814796448, -1.4498554468154907, -0.80517578125, 0.049560546875, -0.21923828125, 
138, 3734185184, 0.46956291794776917, -0.483487993478775, -0.1894068866968155, -0.7140446305274963, 8.556975364685059, -1.6892883777618408, 4.637547492980957, 2.867628812789917, 0.29503753781318665, -1.6671282052993774, -0.804931640625, 0.0537109375, -0.220947265625, 
139, 3734193517, 0.4695699214935303, -0.48335838317871094, -0.18963977694511414, -0.7140659689903259, 8.544434547424316, -1.668108582496643, 4.652781963348389, 2.8657848834991455, 0.13748441636562347, -1.9318257570266724, -0.80615234375, 0.0498046875, -0.220703125, 
140, 3734201850, 0.46958011388778687, -0.4832325875759125, -0.18986478447914124, -0.7140846848487854, 8.583463668823242, -1.6909613609313965, 4.609907627105713, 2.599179267883301, 0.22158876061439514, -1.915778398513794, -0.80517578125, 0.048828125, -0.220703125, 
141, 3734210183, 0.46957650780677795, -0.4830962121486664, -0.19007472693920135, -0.7141234278678894, 8.60604190826416, -1.7426211833953857, 4.570164203643799, 2.549717903137207, 0.4435361325740814, -2.023050546646118, -0.806396484375, 0.050537109375, -0.21875, 
142, 3734218516, 0.46959176659584045, -0.48294129967689514, -0.19032908976078033, -0.7141504287719727, 8.587156295776367, -1.7805460691452026, 4.538941860198975, 3.0877187252044678, 0.3870566487312317, -2.190772533416748, -0.806396484375, 0.049560546875, -0.2177734375, 
143, 3734226849, 0.46961817145347595, -0.4827800989151001, -0.19061368703842163, -0.7141661643981934, 8.601109504699707, -1.8500044345855713, 4.531317710876465, 3.7612199783325195, 0.11900375038385391, -2.109370708465576, -0.802734375, 0.0478515625, -0.220947265625, 
144, 3734235182, 0.46967050433158875, -0.4826267957687378, -0.19092844426631927, -0.7141512632369995, 8.657635688781738, -1.8481519222259521, 4.565081596374512, 4.0268778800964355, -0.20153281092643738, -1.9528292417526245, -0.8046875, 0.048095703125, -0.21923828125, 
145, 3734243515, 0.46972882747650146, -0.4824667274951935, -0.19124078750610352, -0.7141375541687012, 8.730612754821777, -1.8186979293823242, 4.565921306610107, 4.277270317077637, -0.17313942313194275, -1.8071997165679932, -0.8056640625, 0.04833984375, -0.220703125, 
146, 3734251848, 0.4698113203048706, -0.4822803735733032, -0.19155296683311462, -0.7141255140304565, 8.740633010864258, -1.7643146514892578, 4.588680267333984, 4.4083638191223145, 0.2381867915391922, -1.7441630363464355, -0.80615234375, 0.046142578125, -0.217529296875, 
147, 3734260181, 0.46987423300743103, -0.4820937216281891, -0.19184836745262146, -0.714130699634552, 8.671525955200195, -1.6482603549957275, 4.597559452056885, 4.27478551864624, 0.33275455236434937, -1.8351705074310303, -0.8056640625, 0.048095703125, -0.21875, 
148, 3734268514, 0.4699500799179077, -0.48191729187965393, -0.19213488698005676, -0.7141228318214417, 8.622774124145508, -1.5726237297058105, 4.58532190322876, 4.036983013153076, 0.3172066807746887, -1.6404767036437988, -0.80517578125, 0.047119140625, -0.218994140625, 
149, 3734276847, 0.4700218439102173, -0.481765478849411, -0.19238866865634918, -0.7141096591949463, 8.623631477355957, -1.5846447944641113, 4.560235500335693, 3.743213176727295, 0.16195879876613617, -1.2636654376983643, -0.8037109375, 0.047119140625, -0.219482421875, 
150, 3734285180, 0.4700865149497986, -0.4816529154777527, -0.1926402896642685, -0.7140753269195557, 8.593711853027344, -1.604721188545227, 4.539680480957031, 3.276675224304199, -0.28960734605789185, -1.1793177127838135, -0.8046875, 0.048828125, -0.22021484375, 
151, 3734293513, 0.47009778022766113, -0.4815739393234253, -0.19287109375, -0.7140588760375977, 8.584489822387695, -1.5885344743728638, 4.548967361450195, 2.669541358947754, -0.5892939567565918, -1.483410120010376, -0.80712890625, 0.046875, -0.220703125, 
152, 3734301846, 0.4700653851032257, -0.48153772950172424, -0.19308535754680634, -0.7140467762947083, 8.575484275817871, -1.6006120443344116, 4.534054279327393, 1.7147705554962158, -0.9068849086761475, -1.826128602027893, -0.80615234375, 0.046630859375, -0.217529296875, 
153, 3734310179, 0.4699724316596985, -0.4815632402896881, -0.1932576298713684, -0.7140440940856934, 8.578754425048828, -1.6152396202087402, 4.516384124755859, 0.7067736387252808, -1.4249072074890137, -1.9230527877807617, -0.80615234375, 0.046630859375, -0.215576171875, 
154, 3734318512, 0.4698500335216522, -0.4816299378871918, -0.19340001046657562, -0.7140412330627441, 8.615097045898438, -1.6254146099090576, 4.548815727233887, -0.27639034390449524, -1.6329458951950073, -2.020284414291382, -0.8037109375, 0.047607421875, -0.218994140625, 
155, 3734326845, 0.4697202742099762, -0.4816904664039612, -0.19347940385341644, -0.7140643000602722, 8.605077743530273, -1.6523627042770386, 4.564195156097412, -0.9728670716285706, -1.0101613998413086, -1.8595036268234253, -0.80322265625, 0.042724609375, -0.2177734375, 
156, 3734335178, 0.4695638418197632, -0.48176273703575134, -0.1935308426618576, -0.7141042351722717, 8.54762077331543, -1.6833009719848633, 4.596177101135254, -1.3387665748596191, -0.9846240878105164, -1.9072999954223633, -0.80712890625, 0.044677734375, -0.217041015625, 
157, 3734343511, 0.4694296717643738, -0.48181548714637756, -0.19354574382305145, -0.7141528129577637, 8.556180000305176, -1.7170852422714233, 4.591560363769531, -1.4516994953155518, -0.44039833545684814, -1.556231141090393, -0.80517578125, 0.046875, -0.218994140625, 
158, 3734351844, 0.4693411886692047, -0.48183849453926086, -0.19354870915412903, -0.714194655418396, 8.578908920288086, -1.7183653116226196, 4.625013828277588, -1.2576972246170044, 0.0832974836230278, -1.1696867942810059, -0.8037109375, 0.046142578125, -0.218017578125, 
159, 3734360177, 0.4692656993865967, -0.48184722661972046, -0.19354961812496185, -0.7142381072044373, 8.529043197631836, -1.7061032056808472, 4.620350360870361, -0.8710121512413025, 0.19972701370716095, -0.9563074707984924, -0.80517578125, 0.043701171875, -0.216064453125, 
160, 3734368510, 0.46923303604125977, -0.4818456172943115, -0.19356928765773773, -0.7142553925514221, 8.55150318145752, -1.670997142791748, 4.649948596954346, -0.4996952712535858, 0.20401738584041595, -0.638934314250946, -0.8037109375, 0.044189453125, -0.217529296875, 
161, 3734376843, 0.4692264795303345, -0.48182323575019836, -0.19357328116893768, -0.7142736315727234, 8.589585304260254, -1.6736433506011963, 4.615959167480469, -0.15485084056854248, 0.5090060234069824, -0.23832763731479645, -0.8037109375, 0.044677734375, -0.215576171875, 
162, 3734385176, 0.46924346685409546, -0.48178088665008545, -0.19357839226722717, -0.7142897248268127, 8.593568801879883, -1.7247507572174072, 4.644248008728027, -0.048244409263134, 0.8229085206985474, -0.1550813764333725, -0.80615234375, 0.044189453125, -0.216064453125, 
163, 3734393509, 0.4692586064338684, -0.48172518610954285, -0.19360116124153137, -0.7143113017082214, 8.628353118896484, -1.7627251148223877, 4.622946739196777, 0.38915708661079407, 0.7918128371238708, -0.25541236996650696, -0.80419921875, 0.044677734375, -0.217529296875, 
164, 3734401842, 0.4692672789096832, -0.48166805505752563, -0.19367145001888275, -0.7143250703811646, 8.660576820373535, -1.7963147163391113, 4.631365776062012, 0.6387165784835815, 0.5102611184120178, -0.6928521990776062, -0.80517578125, 0.044677734375, -0.216552734375, 
165, 3734410175, 0.4692545533180237, -0.4816157817840576, -0.19375261664390564, -0.7143465876579285, 8.69450855255127, -1.7865009307861328, 4.6026177406311035, 0.5517818331718445, 0.386544406414032, -1.0130301713943481, -0.8046875, 0.045654296875, -0.216552734375, 
166, 3734418508, 0.4692261219024658, -0.4815615713596344, -0.1938413828611374, -0.7143776416778564, 8.695526123046875, -1.7246074676513672, 4.6141557693481445, 0.7450412511825562, 0.2928219139575958, -1.1619256734848022, -0.80419921875, 0.042236328125, -0.2177734375, 
167, 3734426841, 0.4691920876502991, -0.48151129484176636, -0.19391490519046783, -0.7144138813018799, 8.682371139526367, -1.6788581609725952, 4.627123832702637, 0.48959046602249146, 0.3772720396518707, -1.1531144380569458, -0.80419921875, 0.043212890625, -0.216064453125, 
168, 3734435174, 0.4691762924194336, -0.4814547598361969, -0.19398458302021027, -0.7144435048103333, 8.667342185974121, -1.6247752904891968, 4.647087574005127, 0.42511942982673645, 0.548528790473938, -1.0300379991531372, -0.8046875, 0.044189453125, -0.216064453125, 
169, 3734443507, 0.46915918588638306, -0.4813891351222992, -0.19398190081119537, -0.7144997119903564, 8.634247779846191, -1.5935674905776978, 4.68215799331665, -0.09514407813549042, 1.1960054636001587, -0.6497947573661804, -0.80517578125, 0.0419921875, -0.219482421875, 
170, 3734451840, 0.469161719083786, -0.48129481077194214, -0.19392208755016327, -0.7145777344703674, 8.61050796508789, -1.5781362056732178, 4.651697635650635, -0.6111171841621399, 2.124854326248169, -0.40576791763305664, -0.802734375, 0.04248046875, -0.21923828125, 
171, 3734460173, 0.4691665470600128, -0.48120012879371643, -0.19378623366355896, -0.7146751880645752, 8.541766166687012, -1.622782826423645, 4.675433158874512, -1.2049832344055176, 2.6767642498016357, 0.093133345246315, -0.80615234375, 0.043701171875, -0.216064453125, 
172, 3734468506, 0.469184011220932, -0.48112162947654724, -0.19365157186985016, -0.7147531509399414, 8.536385536193848, -1.6615393161773682, 4.607650279998779, -1.3498060703277588, 2.4909584522247314, 0.27870845794677734, -0.8037109375, 0.045166015625, -0.216552734375, 
173, 3734476839, 0.4691958427429199, -0.4810506999492645, -0.19350317120552063, -0.7148333787918091, 8.577309608459473, -1.7165533304214478, 4.625489234924316, -1.3445806503295898, 2.420929431915283, 0.44258832931518555, -0.80322265625, 0.04150390625, -0.21826171875, 
174, 3734485172, 0.46920904517173767, -0.4809732437133789, -0.1933421492576599, -0.7149204015731812, 8.604310035705566, -1.7724465131759644, 4.625005722045898, -1.6686522960662842, 2.6984598636627197, 0.3548596203327179, -0.80419921875, 0.0439453125, -0.218994140625, 
175, 3734493505, 0.46920931339263916, -0.48086097836494446, -0.19319835305213928, -0.7150346040725708, 8.645695686340332, -1.8488657474517822, 4.628890037536621, -1.2315964698791504, 2.9971983432769775, -0.0458366721868515, -0.80419921875, 0.0458984375, -0.220947265625, 
176, 3734501838, 0.4692423641681671, -0.48068228363990784, -0.1931193768978119, -0.7151543498039246, 8.6455078125, -1.8398710489273071, 4.5870866775512695, -0.16394393146038055, 3.434023857116699, -0.4717502295970917, -0.8037109375, 0.046875, -0.219970703125, 
177, 3734510171, 0.4692836403846741, -0.48048755526542664, -0.1931203454732895, -0.715258002281189, 8.611869812011719, -1.7765419483184814, 4.557887077331543, 1.0288726091384888, 2.9114935398101807, -0.748409628868103, -0.8037109375, 0.043701171875, -0.218017578125, 
178, 3734518504, 0.46933838725090027, -0.48029494285583496, -0.193170964717865, -0.7153376340866089, 8.562580108642578, -1.7107064723968506, 4.594568252563477, 1.450073003768921, 2.5288679599761963, -0.8938727378845215, -0.8056640625, 0.043212890625, -0.222900390625, 
179, 3734526837, 0.46938642859458923, -0.48011553287506104, -0.19320935010910034, -0.7154161334037781, 8.544661521911621, -1.660399317741394, 4.595584392547607, 1.3828870058059692, 2.377129077911377, -0.7409814596176147, -0.8037109375, 0.04248046875, -0.22021484375, 
180, 3734535170, 0.46945881843566895, -0.4799550473690033, -0.19326458871364594, -0.7154614925384521, 8.532502174377441, -1.6313366889953613, 4.58507776260376, 1.4941809177398682, 2.002239227294922, -0.4444453716278076, -0.8056640625, 0.042724609375, -0.223388671875, 
181, 3734543503, 0.46953821182250977, -0.4797939360141754, -0.1932782530784607, -0.7155135869979858, 8.55864429473877, -1.670478105545044, 4.604615688323975, 1.3189538717269897, 2.2613017559051514, -0.03961241617798805, -0.80419921875, 0.042236328125, -0.2236328125, 
182, 3734551836, 0.469622939825058, -0.47963494062423706, -0.19326764345169067, -0.7155674695968628, 8.572306632995605, -1.6825486421585083, 4.5792646408081055, 0.8982143998146057, 2.5022804737091064, 0.06190960854291916, -0.80517578125, 0.04296875, -0.219482421875, 
183, 3734560169, 0.4697166979312897, -0.4794798791408539, -0.19322513043880463, -0.715621292591095, 8.562037467956543, -1.7046271562576294, 4.570019721984863, 0.844885528087616, 2.6086816787719727, 0.4925616979598999, -0.8037109375, 0.04345703125, -0.220947265625, 
184, 3734568502, 0.46981948614120483, -0.4793385863304138, -0.19319458305835724, -0.7156568169593811, 8.520674705505371, -1.7519944906234741, 4.5790324211120605, 0.7544159889221191, 2.3833277225494385, 0.536566972732544, -0.80517578125, 0.04248046875, -0.220458984375, 
185, 3734576835, 0.4699198007583618, -0.47920143604278564, -0.19315680861473083, -0.7156929969787598, 8.503173828125, -1.7182202339172363, 4.546946048736572, 0.6382298469543457, 2.385761022567749, 0.5660489201545715, -0.80322265625, 0.0439453125, -0.221923828125, 
186, 3734585168, 0.4699985086917877, -0.47907426953315735, -0.19313344359397888, -0.715732753276825, 8.514375686645508, -1.711833119392395, 4.56211519241333, 0.8087950348854065, 2.0756237506866455, 0.39215391874313354, -0.80615234375, 0.044921875, -0.220947265625, 
187, 3734593501, 0.47006842494010925, -0.47894856333732605, -0.19312717020511627, -0.7157727479934692, 8.51642894744873, -1.659165620803833, 4.556656837463379, 0.8880454897880554, 1.9330294132232666, 0.1844993233680725, -0.8056640625, 0.04248046875, -0.221435546875, 
188, 3734601834, 0.470150887966156, -0.47881487011909485, -0.193137526512146, -0.7158052921295166, 8.54478931427002, -1.6837379932403564, 4.538372993469238, 0.9808714985847473, 1.970170021057129, 0.10678573697805405, -0.8056640625, 0.04345703125, -0.221923828125, 
189, 3734610167, 0.47019702196121216, -0.4787289798259735, -0.19318389892578125, -0.7158197164535522, 8.525036811828613, -1.7046798467636108, 4.51732063293457, 1.0177814960479736, 0.9783868193626404, -0.14662869274616241, -0.8056640625, 0.043212890625, -0.224853515625, 
190, 3734618500, 0.47025182843208313, -0.4786756634712219, -0.19325672090053558, -0.7157997488975525, 8.527196884155273, -1.6960463523864746, 4.539952278137207, 1.0342003107070923, 0.35562804341316223, -0.024576859548687935, -0.806640625, 0.0458984375, -0.222900390625, 
191, 3734626833, 0.47028958797454834, -0.47865059971809387, -0.19332152605056763, -0.7157742381095886, 8.527204513549805, -1.6621705293655396, 4.542534351348877, 0.6768817901611328, 0.047693707048892975, -0.027163894847035408, -0.80419921875, 0.043212890625, -0.225341796875, 
192, 3734635166, 0.4703090190887451, -0.4786376357078552, -0.19336654245853424, -0.7157579660415649, 8.494659423828125, -1.6469635963439941, 4.5241804122924805, 0.4737608730792999, -0.010386571288108826, 0.00950288213789463, -0.80517578125, 0.04443359375, -0.221435546875, 
193, 3734643499, 0.4703112542629242, -0.4786650836467743, -0.19339507818222046, -0.7157304883003235, 8.497507095336914, -1.6345747709274292, 4.560488700866699, -0.04394121840596199, -0.41924095153808594, 0.12384480237960815, -0.806640625, 0.04248046875, -0.221435546875, 
194, 3734651832, 0.4703145921230316, -0.4787311255931854, -0.1933954656124115, -0.7156839966773987, 8.540787696838379, -1.6532223224639893, 4.569972991943359, -0.7182871699333191, -0.6605526804924011, 0.4351089894771576, -0.8046875, 0.04248046875, -0.221435546875, 
195, 3734660165, 0.4702838063240051, -0.4788118898868561, -0.19336342811584473, -0.7156587839126587, 8.580721855163574, -1.7366173267364502, 4.585036754608154, -1.1960439682006836, -0.6277408599853516, 0.3323702812194824, -0.8046875, 0.04345703125, -0.221435546875, 
196, 3734668498, 0.47028374671936035, -0.4788869023323059, -0.19336169958114624, -0.715609073638916, 8.6113862991333, -1.7797131538391113, 4.5893354415893555, -0.8113693594932556, -0.7671079635620117, 0.4598011374473572, -0.80322265625, 0.040771484375, -0.22412109375, 
197, 3734676831, 0.47028300166130066, -0.4789489209651947, -0.1933850795030594, -0.7155618071556091, 8.58481502532959, -1.7816659212112427, 4.602790832519531, -0.3323575258255005, -0.8542987108230591, 0.32320040464401245, -0.8056640625, 0.04248046875, -0.219482421875, 
198, 3734685164, 0.47030380368232727, -0.4789968729019165, -0.19345375895500183, -0.7154974937438965, 8.578117370605469, -1.7421680688858032, 4.588641166687012, 0.23306390643119812, -0.996688187122345, 0.22461122274398804, -0.8046875, 0.04345703125, -0.221923828125, 
199, 3734693497, 0.47031837701797485, -0.47902342677116394, -0.19352976977825165, -0.7154495716094971, 8.613725662231445, -1.6976271867752075, 4.6226606369018555, 0.5689689517021179, -0.8197194933891296, 0.06459908932447433, -0.80517578125, 0.0419921875, -0.220458984375, 
200, 3734701830, 0.47034144401550293, -0.47902989387512207, -0.19361890852451324, -0.7154059410095215, 8.582732200622559, -1.6931208372116089, 4.637223720550537, 0.6621023416519165, -0.5776394009590149, -0.13274577260017395, -0.80322265625, 0.04248046875, -0.220703125, 
201, 3734710163, 0.47036582231521606, -0.47903016209602356, -0.19372954964637756, -0.7153598070144653, 8.58366870880127, -1.7130558490753174, 4.597740173339844, 0.928490400314331, -0.670106828212738, -0.26166221499443054, -0.802734375, 0.04443359375, -0.219970703125, 
202, 3734718496, 0.47038790583610535, -0.4790215492248535, -0.19383849203586578, -0.7153217196464539, 8.582775115966797, -1.7597135305404663, 4.6165666580200195, 1.1400638818740845, -0.600128710269928, -0.23761044442653656, -0.80517578125, 0.04296875, -0.219482421875, 
203, 3734726829, 0.4704205095767975, -0.4790247082710266, -0.19395679235458374, -0.7152658104896545, 8.556473731994629, -1.7464452981948853, 4.600265026092529, 1.2809678316116333, -0.8664398789405823, -0.04509386047720909, -0.80712890625, 0.043701171875, -0.223388671875, 
204, 3734735162, 0.47046366333961487, -0.47904032468795776, -0.19407092034816742, -0.7151961326599121, 8.571423530578613, -1.7186493873596191, 4.6249494552612305, 1.0509905815124512, -0.948290228843689, 0.09294126182794571, -0.80419921875, 0.04296875, -0.219482421875, 
205, 3734743495, 0.47048765420913696, -0.479078471660614, -0.19413521885871887, -0.7151374220848083, 8.570056915283203, -1.67691969871521, 4.58838415145874, 0.2591135799884796, -0.8268147110939026, 0.22192172706127167, -0.8056640625, 0.0439453125, -0.220947265625, 
206, 3734751828, 0.47048231959342957, -0.47911667823791504, -0.19411997497081757, -0.7151193618774414, 8.59426212310791, -1.682327151298523, 4.605079174041748, -0.6134993433952332, -0.19921471178531647, 0.30806243419647217, -0.80517578125, 0.04296875, -0.219482421875, 
207, 3734760161, 0.47045066952705383, -0.47915488481521606, -0.194060817360878, -0.7151307463645935, 8.598146438598633, -1.6884428262710571, 4.589020729064941, -1.3034700155258179, 0.2103440910577774, 0.14551447331905365, -0.8037109375, 0.0419921875, -0.22119140625, 
208, 3734768494, 0.4704071283340454, -0.4791980981826782, -0.19399835169315338, -0.7151473164558411, 8.625418663024902, -1.6959118843078613, 4.60432243347168, -1.6665133237838745, 0.26020219922065735, -0.0805823802947998, -0.8056640625, 0.04345703125, -0.221923828125, 
209, 3734776827, 0.4703447222709656, -0.47923922538757324, -0.1939060091972351, -0.715185821056366, 8.667830467224121, -1.7122745513916016, 4.6391682624816895, -1.941866397857666, 0.49564820528030396, -0.11608371138572693, -0.8076171875, 0.04345703125, -0.219482421875, 
210, 3734785160, 0.47027915716171265, -0.4792811870574951, -0.19383881986141205, -0.7152191400527954, 8.629063606262207, -1.7462232112884521, 4.627448558807373, -1.894838571548462, 0.3540271520614624, -0.3769646883010864, -0.8056640625, 0.04345703125, -0.220458984375, 
211, 3734793493, 0.4702243506908417, -0.47929584980010986, -0.1937859207391739, -0.7152594923973083, 8.566337585449219, -1.7610657215118408, 4.601194858551025, -1.302983283996582, 0.526756763458252, -0.36486199498176575, -0.80224609375, 0.043212890625, -0.21826171875, 
212, 3734801826, 0.4702191650867462, -0.47929421067237854, -0.1938215047121048, -0.7152543663978577, 8.584163665771484, -1.7104095220565796, 4.600651264190674, -0.09903744608163834, 0.026561960577964783, -0.3276444971561432, -0.80419921875, 0.04248046875, -0.220703125, 
213, 3734810159, 0.4702358543872833, -0.47926679253578186, -0.19390882551670074, -0.715238094329834, 8.595935821533203, -1.6691086292266846, 4.581552505493164, 0.9247249960899353, -0.14007143676280975, -0.35648611187934875, -0.80517578125, 0.04248046875, -0.219970703125, 
214, 3734818492, 0.4702703654766083, -0.4792381227016449, -0.1940147429704666, -0.7152059674263, 8.613768577575684, -1.650811791419983, 4.557419776916504, 1.098799467086792, -0.23361462354660034, -0.2988540828227997, -0.80419921875, 0.04296875, -0.219970703125, 
215, 3734826825, 0.4703061282634735, -0.47921279072761536, -0.19410349428653717, -0.7151752710342407, 8.596035957336426, -1.6771414279937744, 4.5316691398620605, 1.1243367195129395, -0.21924500167369843, -0.06071854010224342, -0.8046875, 0.04296875, -0.218505859375, 
216, 3734835158, 0.4703485071659088, -0.4791991412639618, -0.19418422877788544, -0.7151347398757935, 8.576566696166992, -1.7094365358352661, 4.515382289886475, 0.8299781084060669, -0.25592464208602905, 0.039112940430641174, -0.80517578125, 0.04345703125, -0.219482421875, 
217, 3734843491, 0.4703746438026428, -0.4791947901248932, -0.19425229728221893, -0.7151018381118774, 8.614690780639648, -1.7158238887786865, 4.54445219039917, 0.7360379099845886, -0.33313873410224915, 0.05569816008210182, -0.8046875, 0.041748046875, -0.22314453125, 
218, 3734851824, 0.470399409532547, -0.4792094826698303, -0.19430404901504517, -0.7150616645812988, 8.645541191101074, -1.6557472944259644, 4.581589221954346, 0.24447505176067352, -0.38923385739326477, 0.13136258721351624, -0.80419921875, 0.0439453125, -0.219970703125, 
219, 3734860157, 0.4703748822212219, -0.47925472259521484, -0.19431591033935547, -0.7150442004203796, 8.673051834106445, -1.617443561553955, 4.5834197998046875, -0.5145516395568848, -0.49008992314338684, -0.04132856801152229, -0.8056640625, 0.04345703125, -0.220947265625, 
220, 3734868490, 0.4703347384929657, -0.4793481230735779, -0.19429391622543335, -0.7150140404701233, 8.654875755310059, -1.5565444231033325, 4.577526092529297, -1.4450911283493042, -0.7951042652130127, 0.12346060574054718, -0.80322265625, 0.0419921875, -0.21826171875, 
221, 3734876823, 0.47027844190597534, -0.4794517755508423, -0.19425611197948456, -0.7149918079376221, 8.65814208984375, -1.5627681016921997, 4.602231979370117, -1.7956987619400024, -0.7828095555305481, 0.04449192434549332, -0.80419921875, 0.04296875, -0.220458984375, 
222, 3734885156, 0.4701921045780182, -0.47956064343452454, -0.19417902827262878, -0.7149966359138489, 8.66949462890625, -1.5465775728225708, 4.642368316650391, -2.264643907546997, -0.5580444931983948, -0.034233421087265015, -0.806640625, 0.0439453125, -0.220947265625, 
223, 3734893489, 0.4701107442378998, -0.47964245080947876, -0.19412022829055786, -0.7150111198425293, 8.645480155944824, -1.5711160898208618, 4.643203258514404, -1.922540307044983, -0.3300521969795227, -0.25005897879600525, -0.8056640625, 0.04296875, -0.219970703125, 
224, 3734901822, 0.4700470566749573, -0.4797045588493347, -0.19408151507377625, -0.7150219082832336, 8.610560417175293, -1.628408432006836, 4.608963966369629, -1.6724944114685059, -0.17231976985931396, -0.34603551030158997, -0.80712890625, 0.04443359375, -0.218505859375, 
225, 3734910155, 0.46998584270477295, -0.4797562062740326, -0.1940450221300125, -0.71503746509552, 8.598747253417969, -1.6890294551849365, 4.6211442947387695, -1.5793097019195557, -0.04550368711352348, -0.39582952857017517, -0.8056640625, 0.04443359375, -0.218994140625, 
226, 3734918488, 0.46994277834892273, -0.47980594635009766, -0.1940440833568573, -0.7150325775146484, 8.577059745788574, -1.743727207183838, 4.603025913238525, -0.828069806098938, -0.41760167479515076, -0.2073088139295578, -0.8046875, 0.044189453125, -0.218017578125, 
227, 3734926821, 0.46991580724716187, -0.4798503816127777, -0.19405905902385712, -0.7150164842605591, 8.626765251159668, -1.7575680017471313, 4.617002964019775, -0.521902859210968, -0.4939064681529999, -0.10690100491046906, -0.80322265625, 0.04296875, -0.2197265625, 
228, 3734935154, 0.46992865204811096, -0.47985249757766724, -0.19407254457473755, -0.7150030136108398, 8.634389877319336, -1.7023050785064697, 4.626494407653809, -0.20108455419540405, 0.12517677247524261, 0.05863098427653313, -0.8037109375, 0.04296875, -0.220458984375, 
229, 3734943487, 0.46996355056762695, -0.4798204004764557, -0.19407428801059723, -0.7150009870529175, 8.629661560058594, -1.7198009490966797, 4.62529993057251, 0.2172343134880066, 0.5995011329650879, 0.295332133769989, -0.80615234375, 0.0439453125, -0.220458984375, 
230, 3734951820, 0.47002974152565, -0.4797675609588623, -0.1940966695547104, -0.7149869203567505, 8.554542541503906, -1.7323044538497925, 4.580358982086182, 0.5956590175628662, 0.747551441192627, 0.3820619285106659, -0.80517578125, 0.0439453125, -0.218017578125, 
231, 3734960153, 0.47011610865592957, -0.47969383001327515, -0.19417262077331543, -0.7149590253829956, 8.52818775177002, -1.6751112937927246, 4.579094409942627, 1.642589807510376, 0.4929203391075134, 0.37814298272132874, -0.80419921875, 0.04345703125, -0.218505859375, 
232, 3734968486, 0.4702271819114685, -0.479597806930542, -0.19429892301559448, -0.7149159908294678, 8.545754432678223, -1.6077643632888794, 4.6003217697143555, 2.269728422164917, 0.4291664958000183, 0.20842301845550537, -0.80419921875, 0.043701171875, -0.216552734375, 
233, 3734976819, 0.4703100919723511, -0.4795122444629669, -0.19438844919204712, -0.7148945331573486, 8.570279121398926, -1.5627694129943848, 4.623849868774414, 1.834235429763794, 0.5502193570137024, 0.19231165945529938, -0.80615234375, 0.04345703125, -0.219970703125, 
234, 3734985152, 0.4704008102416992, -0.4794205129146576, -0.19446276128292084, -0.7148762345314026, 8.614192962646484, -1.5622074604034424, 4.6265869140625, 1.5305529832839966, 0.8303366899490356, 0.20373564958572388, -0.80419921875, 0.04248046875, -0.221923828125, 
235, 3734993485, 0.47046220302581787, -0.47933661937713623, -0.1945008635520935, -0.7148817777633667, 8.650834083557129, -1.6478004455566406, 4.613519191741943, 1.0545892715454102, 0.9965986609458923, 0.12530484795570374, -0.8056640625, 0.04296875, -0.219970703125, 
236, 3735001818, 0.4705144166946411, -0.479270875453949, -0.19452475011348724, -0.7148849368095398, 8.667421340942383, -1.6780641078948975, 4.622603416442871, 0.5558032989501953, 0.9407083988189697, 0.08818981796503067, -0.802734375, 0.044921875, -0.219482421875, 
237, 3735010151, 0.470531702041626, -0.4792443513870239, -0.19448372721672058, -0.7149025201797485, 8.64914608001709, -1.6717839241027832, 4.648611068725586, -0.3708045184612274, 0.8990085124969482, 0.31367194652557373, -0.8056640625, 0.04345703125, -0.218994140625, 
238, 3735018484, 0.4705463647842407, -0.4792362153530121, -0.19440273940563202, -0.7149203419685364, 8.655097007751465, -1.6449393033981323, 4.652459621429443, -1.1355173587799072, 1.0481088161468506, 0.4694320857524872, -0.806640625, 0.04541015625, -0.219482421875, 
239, 3735026817, 0.47053396701812744, -0.4792414903640747, -0.19426250457763672, -0.7149629592895508, 8.614791870117188, -1.6799349784851074, 4.5963311195373535, -1.8173682689666748, 1.3140101432800293, 0.5967603325843811, -0.8046875, 0.044921875, -0.220947265625, 
240, 3735035150, 0.470520555973053, -0.47925686836242676, -0.19410280883312225, -0.7150049209594727, 8.591473579406738, -1.7257124185562134, 4.591727256774902, -2.309725284576416, 1.4098585844039917, 0.6187630891799927, -0.8046875, 0.04345703125, -0.219482421875, 
241, 3735043483, 0.47050097584724426, -0.47928768396377563, -0.193948432803154, -0.715039074420929, 8.540148735046387, -1.7098116874694824, 4.580688953399658, -2.3791909217834473, 1.1563289165496826, 0.6150490045547485, -0.8056640625, 0.0439453125, -0.220947265625, 
242, 3735051816, 0.47047361731529236, -0.4793294370174408, -0.19380176067352295, -0.7150688171386719, 8.50255298614502, -1.6726473569869995, 4.5665669441223145, -2.1993660926818848, 0.8751487135887146, 0.6633446216583252, -0.806640625, 0.044189453125, -0.217529296875, 
243, 3735060149, 0.47044283151626587, -0.47939595580101013, -0.19365893304347992, -0.7150831818580627, 8.496576309204102, -1.664592981338501, 4.59179162979126, -2.31292724609375, 0.4978382885456085, 0.7657119631767273, -0.8056640625, 0.04296875, -0.220458984375, 
244, 3735068482, 0.4704069197177887, -0.47948718070983887, -0.19351151585578918, -0.7150856256484985, 8.549581527709961, -1.6546076536178589, 4.54744291305542, -2.723267078399658, 0.26421085000038147, 0.773754894733429, -0.80419921875, 0.044921875, -0.221923828125, 
245, 3735076815, 0.4703601598739624, -0.47955504059791565, -0.19334176182746887, -0.7151168584823608, 8.580750465393066, -1.7239842414855957, 4.55791711807251, -2.940322160720825, 0.8004449009895325, 0.5667150020599365, -0.80517578125, 0.044921875, -0.220947265625, 
246, 3735085148, 0.47031906247138977, -0.4795985817909241, -0.19317546486854553, -0.7151594758033752, 8.587043762207031, -1.8011876344680786, 4.523838043212891, -2.5613341331481934, 1.0402710437774658, 0.56346195936203, -0.8046875, 0.04443359375, -0.219970703125, 
247, 3735093481, 0.4702843427658081, -0.4796447157859802, -0.19305568933486938, -0.7151837348937988, 8.541629791259766, -1.815451741218567, 4.547876358032227, -2.012676954269409, 0.6050850749015808, 0.4527316093444824, -0.8056640625, 0.0439453125, -0.220947265625, 
248, 3735101814, 0.47023525834083557, -0.4797424077987671, -0.19294074177742004, -0.7151814699172974, 8.571871757507324, -1.7415677309036255, 4.628185272216797, -2.520761013031006, -0.07396110147237778, 0.478038489818573, -0.80615234375, 0.04638671875, -0.220458984375, 
249, 3735110147, 0.4701291620731354, -0.47989535331726074, -0.1927396059036255, -0.7152027487754822, 8.61306381225586, -1.7185237407684326, 4.666813373565674, -3.944707155227661, -0.13207978010177612, 0.6019856929779053, -0.802734375, 0.0458984375, -0.221923828125, 
250, 3735118480, 0.46999669075012207, -0.48003438115119934, -0.19248037040233612, -0.7152665257453918, 8.688444137573242, -1.7653164863586426, 4.614986419677734, -4.933698654174805, 0.665790855884552, 0.29284757375717163, -0.80615234375, 0.04638671875, -0.220458984375, 
251, 3735126813, 0.46991509199142456, -0.48006153106689453, -0.19229745864868164, -0.7153509855270386, 8.653517723083496, -1.8962644338607788, 4.4941630363464355, -2.96406626701355, 1.4708973169326782, -0.022271575406193733, -0.8046875, 0.046875, -0.222900390625, 
252, 3735135146, 0.4699690639972687, -0.4799749553203583, -0.19236576557159424, -0.7153552174568176, 8.461563110351562, -2.0553979873657227, 4.427745819091797, 1.1358120441436768, 0.8682457208633423, -0.24880386888980865, -0.8046875, 0.044921875, -0.221435546875, 
253, 3735143479, 0.47009342908859253, -0.4798431098461151, -0.19266478717327118, -0.71528160572052, 8.273774147033691, -2.075500011444092, 4.524152755737305, 4.583693027496338, -0.5779212117195129, -0.5766404867172241, -0.8056640625, 0.0439453125, -0.220458984375, 
254, 3735151812, 0.4702562093734741, -0.4797384738922119, -0.19317395985126495, -0.7151075601577759, 8.301819801330566, -1.9736534357070923, 4.65894889831543, 6.779755592346191, -2.692965507507324, -0.9818833470344543, -0.8046875, 0.0458984375, -0.219970703125, 
255, 3735160145, 0.47061678767204285, -0.47950050234794617, -0.1937737762928009, -0.7148675322532654, 8.57182788848877, -1.980700135231018, 4.624579906463623, 10.014270782470703, -1.87663996219635, 0.4371326267719269, -0.80712890625, 0.0439453125, -0.221923828125, 
256, 3735168478, 0.47127529978752136, -0.4789615869522095, -0.19453591108322144, -0.7145878076553345, 8.671368598937988, -2.1565847396850586, 4.499321937561035, 15.837642669677734, 0.49263864755630493, 1.8650496006011963, -0.80517578125, 0.04541015625, -0.219482421875, 
257, 3735176811, 0.47230586409568787, -0.47799545526504517, -0.1955922394990921, -0.7142660021781921, 8.584355354309082, -2.3565022945404053, 4.2419514656066895, 24.077444076538086, 3.497267246246338, 2.7203097343444824, -0.80615234375, 0.04443359375, -0.218017578125, 
258, 3735185144, 0.473606139421463, -0.4768371880054474, -0.19700577855110168, -0.7137905359268188, 8.54201602935791, -2.5625791549682617, 3.9178805351257324, 30.792078018188477, 2.85711669921875, 3.381901741027832, -0.80517578125, 0.04248046875, -0.218505859375, 
259, 3735193477, 0.47515779733657837, -0.47576454281806946, -0.19858631491661072, -0.7130366563796997, 8.577601432800293, -2.6255767345428467, 3.6472692489624023, 34.506534576416016, -0.2893770933151245, 6.917130470275879, -0.8046875, 0.045166015625, -0.218017578125, 
260, 3735201810, 0.4768035411834717, -0.47504404187202454, -0.20028674602508545, -0.7119420170783997, 8.5274019241333, -2.537562608718872, 3.492013931274414, 34.696746826171875, -6.4245829582214355, 10.126291275024414, -0.8046875, 0.0439453125, -0.219482421875, 
261, 3735210143, 0.4783685803413391, -0.47479814291000366, -0.20185498893260956, -0.7106121182441711, 8.440104484558105, -2.397049903869629, 3.647050380706787, 30.41326904296875, -11.965022087097168, 13.04882526397705, -0.80615234375, 0.044189453125, -0.217041015625, 
262, 3735218476, 0.4796006679534912, -0.47517433762550354, -0.20303669571876526, -0.7091919183731079, 8.337279319763184, -2.105361223220825, 3.9109909534454346, 20.8049259185791, -17.07219886779785, 14.731374740600586, -0.8056640625, 0.044677734375, -0.215576171875, 
263, 3735226809, 0.48039546608924866, -0.4761043190956116, -0.20366047322750092, -0.7078500986099243, 8.349799156188965, -1.6622977256774902, 4.154098987579346, 8.65943431854248, -19.50436782836914, 15.149212837219238, -0.806640625, 0.044921875, -0.211181640625, 
264, 3735235142, 0.4807465076446533, -0.4774562418460846, -0.2035689353942871, -0.7067267894744873, 8.443499565124512, -1.2809640169143677, 4.287460803985596, -4.8193840980529785, -18.640470504760742, 15.15223503112793, -0.808837890625, 0.05078125, -0.209228515625, 
265, 3735243475, 0.4806395471096039, -0.47920429706573486, -0.20277807116508484, -0.7058433294296265, 8.583580017089844, -0.9158563017845154, 4.126413345336914, -17.912057876586914, -17.572134017944336, 14.815694808959961, -0.808837890625, 0.04931640625, -0.20849609375, 
266, 3735251808, 0.47997453808784485, -0.48136746883392334, -0.2012702077627182, -0.7052552103996277, 8.627629280090332, -0.6598716974258423, 4.089725494384766, -31.910343170166016, -16.531614303588867, 13.425768852233887, -0.809326171875, 0.053466796875, -0.205322265625, 
267, 3735260141, 0.47868698835372925, -0.48405081033706665, -0.19912421703338623, -0.7049028277397156, 8.622244834899902, -0.44387704133987427, 4.180572032928467, -46.28007125854492, -17.533714294433594, 11.513676643371582, -0.809814453125, 0.05712890625, -0.20166015625, 
268, 3735268474, 0.47674065828323364, -0.48730096220970154, -0.19635818898677826, -0.7047582864761353, 8.666481971740723, -0.41303423047065735, 4.463557243347168, -61.208885192871094, -19.30122947692871, 9.324333190917969, -0.810546875, 0.056884765625, -0.19775390625, 
269, 3735276807, 0.4741373360157013, -0.4911035895347595, -0.192934051156044, -0.7048206329345703, 8.851764678955078, -0.5637006759643555, 4.666025161743164, -75.92008209228516, -20.79852867126465, 7.630574703216553, -0.81005859375, 0.060302734375, -0.19677734375, 
270, 3735285140, 0.4711281359195709, -0.4950917661190033, -0.18884171545505524, -0.7051567435264587, 9.05838394165039, -0.9418145418167114, 4.802368640899658, -87.32443237304688, -17.399011611938477, 6.789741516113281, -0.8095703125, 0.065185546875, -0.197509765625, 
271, 3735293473, 0.4679218530654907, -0.49894222617149353, -0.18431319296360016, -0.7057754993438721, 9.121912956237793, -1.6171668767929077, 4.8048810958862305, -92.50253295898438, -11.89781379699707, 5.781561374664307, -0.81103515625, 0.06787109375, -0.193359375, 
272, 3735301806, 0.46476152539253235, -0.502512514591217, -0.17976117134094238, -0.706504225730896, 8.950725555419922, -2.344866991043091, 4.738442897796631, -91.12657165527344, -8.084513664245605, 4.848169803619385, -0.813232421875, 0.068359375, -0.1923828125, 
273, 3735310139, 0.4618622660636902, -0.5057634115219116, -0.1756831556558609, -0.7071115970611572, 8.782407760620117, -2.855703592300415, 4.499526023864746, -82.15725708007812, -8.275893211364746, 4.208059310913086, -0.813232421875, 0.072021484375, -0.192626953125, 
274, 3735318472, 0.4594068229198456, -0.5086118578910828, -0.17239105701446533, -0.7074781656265259, 8.685257911682129, -3.154181957244873, 4.308676719665527, -68.50942993164062, -9.883766174316406, 3.5009677410125732, -0.813232421875, 0.07470703125, -0.194091796875, 
275, 3735326805, 0.4575127363204956, -0.5109390020370483, -0.17000600695610046, -0.7076058983802795, 8.612637519836426, -3.169543504714966, 4.1667609214782715, -51.72600555419922, -10.945436477661133, 2.97745680809021, -0.812255859375, 0.075439453125, -0.193603515625, 
276, 3735335138, 0.45618152618408203, -0.5127503871917725, -0.16856227815151215, -0.7075004577636719, 8.589932441711426, -3.1095149517059326, 4.069748878479004, -34.993350982666016, -12.108489990234375, 2.0165083408355713, -0.811767578125, 0.07666015625, -0.18994140625, 
277, 3735343471, 0.45539599657058716, -0.5140929818153381, -0.1679052710533142, -0.7071884274482727, 8.597023963928223, -2.984790086746216, 4.035231113433838, -19.886144638061523, -12.741948127746582, 2.0737037658691406, -0.814208984375, 0.076904296875, -0.1904296875, 
278, 3735351804, 0.45508861541748047, -0.5150346755981445, -0.16787615418434143, -0.7067078948020935, 8.60571575164795, -2.808525800704956, 3.9769649505615234, -7.684489727020264, -12.794837951660156, 2.3285648822784424, -0.811279296875, 0.080078125, -0.1865234375, 
279, 3735360137, 0.45511361956596375, -0.5156971216201782, -0.1683797687292099, -0.7060885429382324, 8.664846420288086, -2.611830472946167, 3.959190845489502, 2.1173243522644043, -13.702966690063477, 2.09837007522583, -0.81640625, 0.07763671875, -0.1845703125, 
280, 3735368470, 0.45541703701019287, -0.5161918997764587, -0.16919127106666565, -0.7053369283676147, 8.785286903381348, -2.4718425273895264, 4.032512664794922, 8.235107421875, -14.2218599319458, 2.9688446521759033, -0.814453125, 0.078369140625, -0.18408203125, 
281, 3735376803, 0.45583397150039673, -0.5166271328926086, -0.17013220489025116, -0.7045221328735352, 8.868992805480957, -2.262913465499878, 4.0910868644714355, 10.815356254577637, -14.640266418457031, 3.409691095352173, -0.8154296875, 0.078857421875, -0.18017578125, 
282, 3735385136, 0.45620763301849365, -0.517021894454956, -0.17095303535461426, -0.703791618347168, 8.990068435668945, -2.005756378173828, 4.176187992095947, 9.5973482131958, -13.066913604736328, 3.3024439811706543, -0.813720703125, 0.076904296875, -0.18017578125, 
283, 3735393469, 0.4564363360404968, -0.5174121856689453, -0.17150606215000153, -0.7032219171524048, 8.946556091308594, -1.7616848945617676, 4.243921279907227, 5.594533443450928, -10.533073425292969, 2.770871162414551, -0.81396484375, 0.0810546875, -0.177490234375, 
284, 3735401802, 0.4564593434333801, -0.5178778171539307, -0.17174601554870605, -0.7028055191040039, 8.87520980834961, -1.5608471632003784, 4.178171157836914, 0.10417310148477554, -8.629141807556152, 2.155822277069092, -0.81494140625, 0.078857421875, -0.173828125, 
285, 3735410135, 0.4562283754348755, -0.5184999704360962, -0.17163628339767456, -0.7025233507156372, 8.809586524963379, -1.4461915493011475, 4.062844753265381, -6.195148468017578, -7.660564422607422, 1.8022176027297974, -0.81494140625, 0.07958984375, -0.175537109375, 
286, 3735418468, 0.4557984471321106, -0.5192686319351196, -0.17123328149318695, -0.7023330330848694, 8.760117530822754, -1.5531874895095825, 3.973313808441162, -11.772753715515137, -6.98132848739624, 1.6574718952178955, -0.81591796875, 0.081787109375, -0.173583984375, 
287, 3735426801, 0.4551905393600464, -0.5201655626296997, -0.17060813307762146, -0.7022156715393066, 8.713037490844727, -1.7846693992614746, 3.8593194484710693, -15.93929672241211, -6.804154872894287, 1.470641851425171, -0.81591796875, 0.080322265625, -0.173095703125, 
288, 3735435134, 0.4544987678527832, -0.5211570262908936, -0.1699787825345993, -0.7020813226699829, 8.626028060913086, -2.0503103733062744, 3.851067304611206, -17.357093811035156, -7.930027484893799, 0.9177070260047913, -0.81787109375, 0.07958984375, -0.174072265625, 
289, 3735443467, 0.45377397537231445, -0.5222033262252808, -0.16940435767173767, -0.7019115090370178, 8.584772109985352, -2.258737802505493, 4.006205081939697, -17.14808464050293, -9.20162296295166, 0.6363347172737122, -0.81640625, 0.081298828125, -0.174072265625, 
290, 3735451800, 0.4530434310436249, -0.5233005285263062, -0.16891206800937653, -0.7016847133636475, 8.675909996032715, -2.450237989425659, 4.148004055023193, -16.757221221923828, -10.561827659606934, 0.3837910294532776, -0.81787109375, 0.08203125, -0.168701171875, 
291, 3735460133, 0.45236408710479736, -0.524372398853302, -0.16845883429050446, -0.7014317512512207, 8.865707397460938, -2.507434368133545, 4.229042053222656, -15.792463302612305, -10.62980842590332, 0.7008184790611267, -0.81787109375, 0.082763671875, -0.169677734375, 
292, 3735468466, 0.45172640681266785, -0.5253462791442871, -0.1680765450000763, -0.701205849647522, 9.075390815734863, -2.465205430984497, 4.228292942047119, -14.073295593261719, -9.904501914978027, 0.28073209524154663, -0.81640625, 0.08251953125, -0.168212890625, 
293, 3735476799, 0.45115038752555847, -0.5261117815971375, -0.16773752868175507, -0.7010836601257324, 9.186861991882324, -2.388792037963867, 4.207018852233887, -12.162345886230469, -7.271152019500732, -0.566932737827301, -0.81884765625, 0.08349609375, -0.16552734375, 
294, 3735485132, 0.4505750834941864, -0.5267594456672668, -0.1673596203327179, -0.7010579109191895, 9.155598640441895, -2.4180984497070312, 4.09959602355957, -12.204633712768555, -5.125370502471924, -1.2294707298278809, -0.81689453125, 0.08203125, -0.166259765625, 
295, 3735493465, 0.4500685930252075, -0.5273249745368958, -0.1670294553041458, -0.701036810874939, 9.021825790405273, -2.5022411346435547, 3.906759738922119, -10.746849060058594, -4.437013149261475, -1.1297285556793213, -0.8203125, 0.0830078125, -0.1669921875, 
296, 3735501798, 0.4496791362762451, -0.5278294086456299, -0.1668301522731781, -0.7009545564651489, 8.882219314575195, -2.6302449703216553, 3.8583343029022217, -7.946343898773193, -4.90055513381958, -0.6353228092193604, -0.81787109375, 0.08203125, -0.166259765625, 
297, 3735510131, 0.44945329427719116, -0.5282267332077026, -0.16680674254894257, -0.7008055448532104, 8.732908248901367, -2.6725101470947266, 3.9345812797546387, -4.233021259307861, -5.068864345550537, -0.16353407502174377, -0.8193359375, 0.082763671875, -0.162109375, 
298, 3735518464, 0.44938406348228455, -0.528519868850708, -0.16696897149085999, -0.7005902528762817, 8.600358009338379, -2.602722406387329, 4.060765266418457, -0.6981799602508545, -5.260741710662842, 0.08639682084321976, -0.81787109375, 0.08203125, -0.164794921875, 
299, 3735526797, 0.449430376291275, -0.528703510761261, -0.1672566533088684, -0.7003533840179443, 8.578499794006348, -2.497274160385132, 4.171910762786865, 2.243947744369507, -4.943419456481934, 0.24209293723106384, -0.8193359375, 0.083740234375, -0.16259765625, 
300, 3735535130, 0.44955581426620483, -0.5288287401199341, -0.16764917969703674, -0.7000845074653625, 8.680455207824707, -2.418241024017334, 4.267399787902832, 4.096702575683594, -5.0095295906066895, 0.233460932970047, -0.81884765625, 0.083251953125, -0.1611328125, 
301, 3735543463, 0.4497506618499756, -0.5288277268409729, -0.16802820563316345, -0.6998692750930786, 8.916891098022461, -2.3612587451934814, 4.399823188781738, 5.128994464874268, -3.1621155738830566, 0.37550467252731323, -0.818359375, 0.084228515625, -0.16162109375, 
302, 3735551796, 0.44997623562812805, -0.5286462306976318, -0.16837044060230255, -0.6997789144515991, 9.018949508666992, -2.3420908451080322, 4.421938896179199, 5.967912197113037, -0.2806679904460907, -0.18602339923381805, -0.818359375, 0.083251953125, -0.16015625, 
303, 3735560129, 0.4502103626728058, -0.5283060073852539, -0.16867713630199432, -0.699811577796936, 9.00029182434082, -2.300287961959839, 4.46177864074707, 6.4148030281066895, 2.3714938163757324, -0.9628005623817444, -0.81884765625, 0.081298828125, -0.160888671875, 
304, 3735568462, 0.4504104256629944, -0.5278867483139038, -0.16890020668506622, -0.6999452114105225, 8.94929313659668, -2.172032117843628, 4.600874423980713, 5.445150852203369, 4.374859809875488, -1.566528081893921, -0.81689453125, 0.082275390625, -0.161376953125, 
305, 3735576795, 0.4505285620689392, -0.5274302959442139, -0.16895633935928345, -0.7001998424530029, 8.907695770263672, -2.0227603912353516, 4.634962558746338, 3.378927230834961, 6.378354072570801, -1.8971309661865234, -0.81689453125, 0.081787109375, -0.162353515625, 
306, 3735585128, 0.45057055354118347, -0.5269051194190979, -0.16883741319179535, -0.7005966901779175, 8.934548377990723, -1.9591424465179443, 4.568756580352783, 1.050055742263794, 9.057451248168945, -2.4830312728881836, -0.8173828125, 0.082275390625, -0.164306640625, 
307, 3735593461, 0.45055854320526123, -0.5262974500656128, -0.16859667003154755, -0.7011189460754395, 9.009613990783691, -2.0868430137634277, 4.499854564666748, -0.1213986799120903, 11.313474655151367, -3.0121700763702393, -0.8173828125, 0.081298828125, -0.163330078125, 
308, 3735601794, 0.4505898654460907, -0.525560736656189, -0.16842083632946014, -0.7016937136650085, 8.910523414611816, -2.301102638244629, 4.283845901489258, 1.3216689825057983, 12.711909294128418, -3.7657411098480225, -0.81689453125, 0.080078125, -0.165771484375, 
309, 3735610127, 0.45072245597839355, -0.5246723294258118, -0.16846440732479095, -0.7022626399993896, 8.83242130279541, -2.5656888484954834, 4.109714508056641, 5.312905311584473, 12.926838874816895, -4.602532863616943, -0.81640625, 0.0791015625, -0.167236328125, 
310, 3735618460, 0.45104455947875977, -0.5235646963119507, -0.16883789002895355, -0.7027925848960876, 8.803730010986328, -2.62192964553833, 4.000476360321045, 11.128159523010254, 13.240413665771484, -5.506537437438965, -0.8173828125, 0.08154296875, -0.168701171875, 
311, 3735626793, 0.45156195759773254, -0.5222926139831543, -0.16954222321510315, -0.7032370567321777, 8.792099952697754, -2.5773894786834717, 3.92901611328125, 17.157445907592773, 12.526314735412598, -5.755636215209961, -0.8173828125, 0.080322265625, -0.171142578125, 
312, 3735635126, 0.4522581994533539, -0.5209532976150513, -0.17048603296279907, -0.7035549283027649, 8.807198524475098, -2.4655182361602783, 3.995464324951172, 21.263002395629883, 11.285764694213867, -5.213690280914307, -0.81640625, 0.0771484375, -0.17431640625, 
313, 3735643459, 0.4530574381351471, -0.5195008516311646, -0.1715143918991089, -0.7038645148277283, 8.776741027832031, -2.302478313446045, 4.065267562866211, 23.739696502685547, 11.949533462524414, -4.943691253662109, -0.81689453125, 0.0771484375, -0.17333984375, 
314, 3735651792, 0.453911691904068, -0.5179935097694397, -0.17254962027072906, -0.7041720151901245, 8.881086349487305, -2.2243359088897705, 4.1627092361450195, 24.349584579467773, 12.6410551071167, -4.669785499572754, -0.81591796875, 0.078125, -0.17626953125, 
315, 3735660125, 0.45468446612358093, -0.5164767503738403, -0.17338517308235168, -0.7045823335647583, 9.083425521850586, -2.181260108947754, 4.34785270690918, 21.649356842041016, 14.515557289123535, -4.700240612030029, -0.81689453125, 0.076171875, -0.17578125, 
316, 3735668458, 0.4552660882472992, -0.515065610408783, -0.17388056218624115, -0.705117404460907, 9.18643569946289, -2.1688787937164307, 4.431025981903076, 16.24422264099121, 15.965360641479492, -4.5660080909729, -0.817138671875, 0.073486328125, -0.17724609375, 
317, 3735676791, 0.4557817280292511, -0.5137906074523926, -0.17400744557380676, -0.7056827545166016, 9.189815521240234, -2.1680891513824463, 4.364211082458496, 11.292680740356445, 17.00248146057129, -2.451603651046753, -0.814208984375, 0.074951171875, -0.1806640625, 
318, 3735685124, 0.4562585651874542, -0.5127084851264954, -0.17390941083431244, -0.7061856985092163, 9.072088241577148, -2.214346170425415, 4.2231011390686035, 7.5560736656188965, 16.099550247192383, -0.49393224716186523, -0.815673828125, 0.072998046875, -0.180908203125, 
319, 3735693457, 0.45672711730003357, -0.5116487741470337, -0.17369109392166138, -0.7067049741744995, 8.843201637268066, -2.2220659255981445, 4.014314651489258, 6.364037990570068, 16.64144515991211, 0.33114093542099, -0.813720703125, 0.07373046875, -0.186279296875, 
320, 3735701790, 0.45714181661605835, -0.5105522871017456, -0.17348769307136536, -0.7072796821594238, 8.555296897888184, -2.154794692993164, 3.87990140914917, 6.015862464904785, 17.25457000732422, -0.8391352891921997, -0.813232421875, 0.0732421875, -0.186279296875, 
321, 3735710123, 0.4573825001716614, -0.5095648765563965, -0.17317914962768555, -0.7079113125801086, 8.421821594238281, -2.0140583515167236, 4.066403388977051, 3.151832342147827, 16.754070281982422, -1.7883222103118896, -0.816162109375, 0.073486328125, -0.1884765625, 
322, 3735718456, 0.45731472969055176, -0.5088861584663391, -0.17259329557418823, -0.7085861563682556, 8.448504447937012, -1.8429841995239258, 4.496547698974609, -3.9556963443756104, 15.148184776306152, -2.4868481159210205, -0.814208984375, 0.072509765625, -0.192138671875, 
323, 3735726789, 0.45695531368255615, -0.5085273385047913, -0.17158299684524536, -0.7093205451965332, 8.614386558532715, -1.748960256576538, 4.899432182312012, -12.111322402954102, 14.343029022216797, -1.8820704221725464, -0.812744140625, 0.070556640625, -0.191650390625, 
324, 3735735122, 0.45634743571281433, -0.5083534121513367, -0.17013493180274963, -0.7101848721504211, 8.850261688232422, -1.8890613317489624, 4.988508224487305, -19.763097763061523, 15.694619178771973, -1.71644926071167, -0.811279296875, 0.07177734375, -0.196044921875, 
325, 3735743455, 0.4556850492954254, -0.5080812573432922, -0.1684325635433197, -0.7112100720405579, 9.016359329223633, -2.2207562923431396, 4.897315502166748, -22.22014617919922, 19.16535186767578, -1.6197301149368286, -0.811279296875, 0.0712890625, -0.197998046875, 
326, 3735751788, 0.4551481008529663, -0.5075278282165527, -0.166844442486763, -0.7123225331306458, 9.072484970092773, -2.4795525074005127, 4.765727996826172, -18.83279037475586, 22.182096481323242, -2.4801130294799805, -0.810546875, 0.070556640625, -0.201171875, 
327, 3735760121, 0.4549308121204376, -0.5065506100654602, -0.16568955779075623, -0.7134255766868591, 9.080772399902344, -2.718292236328125, 4.491999626159668, -9.531229019165039, 24.20866584777832, -3.2027416229248047, -0.81005859375, 0.0712890625, -0.20556640625, 
328, 3735768454, 0.45516911149024963, -0.5050889849662781, -0.1650778204202652, -0.714451014995575, 8.890792846679688, -2.960240602493286, 4.158596992492676, 2.025228977203369, 26.140329360961914, -3.2168936729431152, -0.811279296875, 0.0732421875, -0.208251953125, 
329, 3735776787, 0.455914705991745, -0.5031836628913879, -0.16506347060203552, -0.7153229713439941, 8.535090446472168, -3.3098764419555664, 3.87316632270813, 14.705848693847656, 26.766935348510742, -2.343550682067871, -0.8076171875, 0.07177734375, -0.2099609375, 
330, 3735785120, 0.45718199014663696, -0.5009084939956665, -0.16582000255584717, -0.7159357070922852, 8.238139152526855, -3.4941911697387695, 3.6162564754486084, 28.642921447753906, 25.042068481445312, -1.845776915550232, -0.80810546875, 0.070068359375, -0.212890625, 
331, 3735793453, 0.45888224244117737, -0.49853774905204773, -0.16729505360126495, -0.7161595821380615, 8.070281028747559, -3.4115281105041504, 3.748440980911255, 40.189781188964844, 19.77348518371582, -0.3063596189022064, -0.81005859375, 0.0703125, -0.21728515625, 
332, 3735801786, 0.46077460050582886, -0.4962436854839325, -0.16910414397716522, -0.7161127328872681, 8.176112174987793, -2.868917226791382, 4.1835408210754395, 45.10124969482422, 15.420003890991211, 1.267625331878662, -0.8076171875, 0.071044921875, -0.220703125, 
333, 3735810119, 0.4626520872116089, -0.4941212236881256, -0.1708596646785736, -0.7159531712532043, 8.345739364624023, -2.153268575668335, 4.478427886962891, 43.64922332763672, 13.266020774841309, 2.5951108932495117, -0.80712890625, 0.069091796875, -0.2216796875, 
334, 3735818452, 0.4644872546195984, -0.49204957485198975, -0.17241530120372772, -0.7158188223838806, 8.402438163757324, -1.6334372758865356, 4.415556907653809, 40.84291076660156, 14.1866455078125, 3.4138708114624023, -0.80517578125, 0.06884765625, -0.220458984375, 
335, 3735826785, 0.4662076234817505, -0.4898984730243683, -0.17369486391544342, -0.7158662676811218, 8.456945419311523, -1.4750852584838867, 4.500866413116455, 37.64606857299805, 17.600746154785156, 2.914238452911377, -0.804931640625, 0.066162109375, -0.223876953125, 
336, 3735835118, 0.46773919463157654, -0.487800270318985, -0.17478176951408386, -0.7160356044769287, 8.561336517333984, -1.5076940059661865, 4.633996486663818, 33.625667572021484, 18.77420997619629, 1.5879052877426147, -0.80712890625, 0.067138671875, -0.222900390625, 
337, 3735843451, 0.46900826692581177, -0.48594561219215393, -0.17552359402179718, -0.716284990310669, 8.775496482849121, -1.5337752103805542, 4.865931034088135, 26.899991989135742, 18.42144203186035, 1.487778663635254, -0.805419921875, 0.0673828125, -0.229248046875, 
338, 3735851784, 0.4701167345046997, -0.48430705070495605, -0.17576836049556732, -0.7166081070899963, 8.936655044555664, -1.6355295181274414, 4.836645603179932, 19.16624641418457, 19.683013916015625, 3.17281174659729, -0.805419921875, 0.06640625, -0.229736328125, 
339, 3735860117, 0.47116219997406006, -0.4826492369174957, -0.17563869059085846, -0.7170716524124146, 8.903297424316406, -1.8612829446792603, 4.606958866119385, 15.028650283813477, 22.99755096435547, 4.19397497177124, -0.802490234375, 0.066650390625, -0.231201171875, 
340, 3735868450, 0.47224438190460205, -0.48088106513023376, -0.17553064227104187, -0.7175740599632263, 8.735917091369629, -2.1781415939331055, 4.408297538757324, 15.920387268066406, 24.372604370117188, 3.791140556335449, -0.802490234375, 0.069580078125, -0.235595703125, 
341, 3735876783, 0.473441481590271, -0.4789724051952362, -0.17561472952365875, -0.7180408835411072, 8.469204902648926, -2.382202386856079, 4.479019641876221, 19.778352737426758, 24.471473693847656, 3.663222551345825, -0.802978515625, 0.06787109375, -0.239990234375, 
342, 3735885116, 0.47471553087234497, -0.4771978557109833, -0.1759919822216034, -0.7182888388633728, 8.25913143157959, -2.3715360164642334, 4.732526779174805, 22.630756378173828, 20.06305503845215, 4.124509811401367, -0.801513671875, 0.067626953125, -0.241943359375, 
343, 3735893449, 0.4760150909423828, -0.47566694021224976, -0.17663708329200745, -0.718285858631134, 8.243727684020996, -2.0955588817596436, 4.896395206451416, 24.690093994140625, 14.237480163574219, 4.97554349899292, -0.803955078125, 0.065185546875, -0.244140625, 
344, 3735901782, 0.4773413836956024, -0.4741763174533844, -0.17739981412887573, -0.7182033061981201, 8.292357444763184, -1.7850335836410522, 5.07767915725708, 25.729005813598633, 12.701058387756348, 4.960200309753418, -0.800537109375, 0.066650390625, -0.24462890625, 
345, 3735910115, 0.47866836190223694, -0.47256773710250854, -0.17812862992286682, -0.718200147151947, 8.432047843933105, -1.4988515377044678, 5.489094257354736, 26.21535873413086, 14.518096923828125, 4.515780448913574, -0.799072265625, 0.069580078125, -0.245849609375, 
346, 3735918448, 0.48001202940940857, -0.4706965386867523, -0.1788284182548523, -0.7183581590652466, 8.556707382202148, -1.2476776838302612, 5.688304424285889, 27.13425636291504, 18.481454849243164, 3.0272207260131836, -0.799072265625, 0.066650390625, -0.2470703125, 
347, 3735926781, 0.4813694357872009, -0.46847155690193176, -0.17934714257717133, -0.7187747359275818, 8.832218170166016, -1.440571665763855, 5.692873954772949, 27.318256378173828, 24.797428131103516, 1.870994210243225, -0.800048828125, 0.06640625, -0.2509765625, 
348, 3735935114, 0.48285987973213196, -0.4657922685146332, -0.17960788309574127, -0.7194508910179138, 9.014494895935059, -2.1000542640686035, 5.580857276916504, 27.80829429626465, 33.07668685913086, 1.8970189094543457, -0.79833984375, 0.065185546875, -0.25537109375, 
349, 3735943447, 0.4847301244735718, -0.4625873267650604, -0.1798810213804245, -0.7201924920082092, 9.176613807678223, -2.847757339477539, 5.491016387939453, 33.891815185546875, 39.46973419189453, 3.9681665897369385, -0.79833984375, 0.0654296875, -0.2578125, 
350, 3735951780, 0.4870711863040924, -0.4591098129749298, -0.18055196106433868, -0.7206702828407288, 9.066991806030273, -3.503986358642578, 5.485683441162109, 43.09556579589844, 39.086875915527344, 7.059227466583252, -0.796875, 0.0654296875, -0.26220703125, 
351, 3735960113, 0.4898322820663452, -0.4554905295372009, -0.18163065612316132, -0.7208244204521179, 8.720005989074707, -3.776007652282715, 5.209481239318848, 51.54261016845703, 36.76040267944336, 10.463683128356934, -0.796875, 0.062744140625, -0.265869140625, 
352, 3735968446, 0.4929197132587433, -0.45175132155418396, -0.18338070809841156, -0.7206296324729919, 8.199911117553711, -3.48925518989563, 4.999727249145508, 62.0984001159668, 31.9804630279541, 11.657090187072754, -0.7939453125, 0.06591796875, -0.271240234375, 
353, 3735976779, 0.4962935447692871, -0.4477424919605255, -0.18591514229774475, -0.7201663255691528, 7.749120235443115, -2.6758430004119873, 4.923556804656982, 74.11275482177734, 28.399198532104492, 10.727840423583984, -0.79443359375, 0.062744140625, -0.275634765625, 
354, 3735985112, 0.4998118579387665, -0.44352421164512634, -0.18913571536540985, -0.7195045948028564, 7.497683048248291, -1.6963948011398315, 4.961305141448975, 83.60000610351562, 25.004915237426758, 8.673577308654785, -0.79345703125, 0.063232421875, -0.277099609375, 
355, 3735993445, 0.5032201409339905, -0.4393043518066406, -0.19255639612674713, -0.7188101410865784, 7.645013332366943, -0.8331764340400696, 4.97091007232666, 85.0772705078125, 23.107501983642578, 6.626115322113037, -0.790283203125, 0.062255859375, -0.279296875, 
356, 3736001778, 0.5063406825065613, -0.4352545440196991, -0.1957157999277115, -0.7182287573814392, 7.9473958015441895, -0.4040696620941162, 5.036142826080322, 79.20575714111328, 23.207815170288086, 4.986557483673096, -0.789306640625, 0.059326171875, -0.2841796875, 
357, 3736010111, 0.5090999603271484, -0.4315520226955414, -0.19849294424057007, -0.7177501320838928, 8.27511215209961, -0.32820868492126465, 5.263650894165039, 70.6284408569336, 22.033777236938477, 3.958544969558716, -0.789306640625, 0.05810546875, -0.283935546875, 
358, 3736018444, 0.5114957094192505, -0.42799657583236694, -0.2007516622543335, -0.7175474166870117, 8.611054420471191, -0.48093876242637634, 5.621936321258545, 61.517662048339844, 24.904481887817383, 1.8865467309951782, -0.787841796875, 0.055908203125, -0.284912109375, 
359, 3736026777, 0.5136982798576355, -0.4243527054786682, -0.20251688361167908, -0.7176423072814941, 8.627947807312012, -0.7803467512130737, 5.630010604858398, 55.27758026123047, 30.435604095458984, 0.5284490585327148, -0.787353515625, 0.05419921875, -0.28955078125, 
360, 3736035110, 0.5158641934394836, -0.4204922020435333, -0.20390643179416656, -0.7179674506187439, 8.396380424499512, -1.2173058986663818, 5.547908782958984, 52.278987884521484, 36.50040817260742, 0.14733359217643738, -0.78662109375, 0.048828125, -0.290771484375, 
361, 3736043443, 0.5180712342262268, -0.41649582982063293, -0.20511473715305328, -0.7183634638786316, 8.032912254333496, -1.781912088394165, 5.399381637573242, 51.47824478149414, 39.61916732788086, 0.7148191332817078, -0.7861328125, 0.05078125, -0.29931640625, 
362, 3736051776, 0.5202686786651611, -0.4126315116882324, -0.20647025108337402, -0.7186170816421509, 7.778702735900879, -2.130218029022217, 5.074161529541016, 52.35093688964844, 36.456092834472656, 1.1657078266143799, -0.7861328125, 0.04833984375, -0.301513671875, 
363, 3736060109, 0.5224249958992004, -0.40901926159858704, -0.20813368260860443, -0.7186378836631775, 7.6150946617126465, -2.1492373943328857, 4.7110419273376465, 53.882442474365234, 30.31262969970703, 1.3020271062850952, -0.783935546875, 0.046142578125, -0.30712890625, 
364, 3736068442, 0.5244361758232117, -0.4057781994342804, -0.21025300025939941, -0.7183935046195984, 7.473877429962158, -1.780691385269165, 4.592451095581055, 55.79949951171875, 21.474218368530273, 0.3625450134277344, -0.781005859375, 0.045166015625, -0.306640625, 
365, 3736076775, 0.5262573957443237, -0.4029136002063751, -0.2127281278371811, -0.7179450392723083, 7.50764274597168, -1.1064603328704834, 4.582767009735107, 55.96044921875, 13.495461463928223, -1.0589338541030884, -0.781005859375, 0.04345703125, -0.31005859375, 
366, 3736085108, 0.527840256690979, -0.4003041684627533, -0.2151508331298828, -0.7175207734107971, 7.6191864013671875, -0.5215007066726685, 4.649491310119629, 52.3748893737793, 10.796324729919434, -2.431757688522339, -0.781982421875, 0.0390625, -0.310791015625, 
367, 3736093441, 0.5291019082069397, -0.39801985025405884, -0.21729020774364471, -0.7172175645828247, 7.714466571807861, -0.18441368639469147, 4.9293599128723145, 44.9517822265625, 9.355589866638184, -4.055214881896973, -0.779541015625, 0.037353515625, -0.3125, 
368, 3736101774, 0.5300665497779846, -0.3961159586906433, -0.21900412440299988, -0.7170380353927612, 7.916586875915527, -0.12278874963521957, 5.29189920425415, 36.1336555480957, 8.49368953704834, -4.320882797241211, -0.779541015625, 0.037109375, -0.3115234375, 
369, 3736110107, 0.530813455581665, -0.3945922255516052, -0.22018100321292877, -0.7169651389122009, 8.068670272827148, -0.26070672273635864, 5.560706615447998, 26.320308685302734, 8.592351913452148, -3.340085506439209, -0.77978515625, 0.034423828125, -0.3115234375, 
370, 3736118440, 0.5314329266548157, -0.39323797821998596, -0.22081521153450012, -0.7170552015304565, 8.046188354492188, -0.522803008556366, 5.668790340423584, 18.78782081604004, 11.373570442199707, -2.16290545463562, -0.7783203125, 0.031005859375, -0.313232421875, 
371, 3736126773, 0.5320444107055664, -0.391917884349823, -0.22109541296958923, -0.717238187789917, 7.908513069152832, -0.888922929763794, 5.696767330169678, 14.721529960632324, 14.104482650756836, -0.902043879032135, -0.77783203125, 0.02978515625, -0.317138671875, 
372, 3736135106, 0.5326663851737976, -0.39065611362457275, -0.22106128931045532, -0.7174752354621887, 7.863558769226074, -1.2837131023406982, 5.754918098449707, 10.931571006774902, 16.146657943725586, 0.5742713809013367, -0.77783203125, 0.031494140625, -0.315185546875, 
373, 3736143439, 0.5333322882652283, -0.3894699811935425, -0.22078630328178406, -0.7177101969718933, 7.779016017913818, -1.5822643041610718, 5.627058982849121, 8.191280364990234, 17.292224884033203, 2.507916212081909, -0.7783203125, 0.0322265625, -0.320068359375, 
374, 3736151772, 0.5340442657470703, -0.3883371353149414, -0.2206059694290161, -0.7178500890731812, 7.531697750091553, -1.6884446144104004, 5.462942123413086, 9.477372169494629, 15.702171325683594, 3.4559760093688965, -0.7744140625, 0.03271484375, -0.322021484375, 
375, 3736160105, 0.5347640514373779, -0.38726580142974854, -0.22083443403244019, -0.7178226709365845, 7.234255790710449, -1.4439502954483032, 5.2194437980651855, 13.410513877868652, 11.225953102111816, 2.625331401824951, -0.77587890625, 0.03076171875, -0.319580078125, 
376, 3736168438, 0.5353683233261108, -0.3864159882068634, -0.22149820625782013, -0.7176257967948914, 7.184061527252197, -0.9226507544517517, 5.15980339050293, 16.177440643310547, 4.581849575042725, 1.2255133390426636, -0.7744140625, 0.03271484375, -0.321533203125, 
377, 3736176771, 0.5358214974403381, -0.3857508599758148, -0.22237206995487213, -0.7173749208450317, 7.425919532775879, -0.44123849272727966, 5.112209796905518, 16.06648063659668, 0.4649752080440521, -0.5552270412445068, -0.7734375, 0.030517578125, -0.322265625, 
378, 3736185104, 0.5360388159751892, -0.3853168487548828, -0.22315213084220886, -0.717203676700592, 7.737265110015869, -0.18529386818408966, 5.291074275970459, 12.129057884216309, -1.4227555990219116, -2.1318087577819824, -0.775390625, 0.031005859375, -0.323486328125, 
379, 3736193437, 0.5360569953918457, -0.38517138361930847, -0.2235354483127594, -0.7171487808227539, 7.941737174987793, -0.3116600513458252, 5.535660266876221, 4.4706573486328125, -1.3342070579528809, -2.1103179454803467, -0.775390625, 0.02978515625, -0.319580078125, 
380, 3736201770, 0.535876989364624, -0.3853663504123688, -0.22345174849033356, -0.7172046899795532, 7.969511032104492, -0.5903716683387756, 5.597470760345459, -3.8289310932159424, -1.274116039276123, -1.2164074182510376, -0.77587890625, 0.030029296875, -0.323486328125, 
381, 3736210103, 0.5356061458587646, -0.3857790231704712, -0.22318802773952484, -0.7172673344612122, 7.8779144287109375, -0.8079999089241028, 5.618022441864014, -7.70956563949585, -2.3401808738708496, -0.5386801958084106, -0.7744140625, 0.02978515625, -0.32080078125, 
382, 3736218436, 0.5353458523750305, -0.3863318860530853, -0.22291328012943268, -0.7172494530677795, 7.8452887535095215, -0.9593504071235657, 5.742237091064453, -8.753421783447266, -4.029362201690674, 0.5063165426254272, -0.775390625, 0.029541015625, -0.32177734375, 
383, 3736226769, 0.535116970539093, -0.38690757751464844, -0.22253446280956268, -0.7172274589538574, 7.841535568237305, -0.9539053440093994, 5.811172008514404, -9.74382209777832, -3.416055917739868, 1.4882642030715942, -0.77685546875, 0.029296875, -0.320068359375, 
384, 3736235102, 0.5349164605140686, -0.38745781779289246, -0.22192803025245667, -0.7172680497169495, 7.762444496154785, -0.8872687816619873, 5.7904815673828125, -11.661638259887695, -1.0751705169677734, 2.5622947216033936, -0.77490234375, 0.03125, -0.320068359375, 
385, 3736243435, 0.5347126126289368, -0.3880710005760193, -0.2211834043264389, -0.717318594455719, 7.626668930053711, -0.9164158701896667, 5.701982021331787, -13.723995208740234, -0.627203106880188, 3.255160093307495, -0.7783203125, 0.031494140625, -0.323486328125, 
386, 3736251768, 0.5344443321228027, -0.3888157308101654, -0.22050228714942932, -0.7173248529434204, 7.534804821014404, -0.9492194652557373, 5.5642476081848145, -14.085691452026367, -2.833305835723877, 3.137667179107666, -0.77392578125, 0.03125, -0.320556640625, 
387, 3736260101, 0.5341229438781738, -0.38969266414642334, -0.21998773515224457, -0.7172465324401855, 7.540096759796143, -0.9434677362442017, 5.539486408233643, -13.582962989807129, -5.972126007080078, 2.6514837741851807, -0.77734375, 0.03173828125, -0.318115234375, 
388, 3736268434, 0.5336915850639343, -0.39068254828453064, -0.21955622732639313, -0.717161238193512, 7.544003009796143, -0.8074520826339722, 5.749664306640625, -14.02063274383545, -8.069343566894531, 1.6077289581298828, -0.7783203125, 0.032958984375, -0.321044921875, 
389, 3736276767, 0.5331724882125854, -0.39173147082328796, -0.2191232144832611, -0.7171076536178589, 7.720510482788086, -0.6709805727005005, 5.9303388595581055, -15.171006202697754, -8.732124328613281, 0.6065323352813721, -0.77734375, 0.03369140625, -0.319580078125, 
390, 3736285100, 0.532625138759613, -0.3927384316921234, -0.21856531500816345, -0.7171338796615601, 7.9362945556640625, -0.688536524772644, 6.004373073577881, -16.35282325744629, -7.05954122543335, 0.37964147329330444, -0.7783203125, 0.037109375, -0.3193359375, 
391, 3736293433, 0.5320340991020203, -0.393768846988678, -0.21783140301704407, -0.7172309160232544, 8.017451286315918, -0.8377135396003723, 6.052322864532471, -18.70906639099121, -5.751486778259277, 0.4493250548839569, -0.7802734375, 0.03466796875, -0.31689453125, 
392, 3736301766, 0.5314289331436157, -0.39479514956474304, -0.21697089076042175, -0.7173761129379272, 7.987127780914307, -0.981133222579956, 6.101251125335693, -20.322071075439453, -4.557990550994873, 0.5173820853233337, -0.77783203125, 0.037109375, -0.31787109375, 
393, 3736310099, 0.5308343172073364, -0.39577561616897583, -0.2160993218421936, -0.7175391316413879, 7.916756629943848, -1.05204439163208, 6.119645118713379, -20.068361282348633, -3.9001145362854004, 0.4326757788658142, -0.779541015625, 0.037353515625, -0.314453125, 
394, 3736318432, 0.5302761197090149, -0.39666441082954407, -0.21518361568450928, -0.7177363038063049, 7.906515121459961, -1.1984893083572388, 6.041568756103516, -19.58927345275879, -2.383981227874756, 0.6052132844924927, -0.778564453125, 0.039306640625, -0.317138671875, 
395, 3736326765, 0.5298045873641968, -0.39743608236312866, -0.21435293555259705, -0.7179061770439148, 7.822711944580078, -1.2709131240844727, 5.848508358001709, -17.485034942626953, -1.7362483739852905, 0.7571312189102173, -0.778564453125, 0.038818359375, -0.316162109375, 
396, 3736335098, 0.5293947458267212, -0.39812424778938293, -0.2136813998222351, -0.7180273532867432, 7.750687122344971, -1.2622392177581787, 5.722500324249268, -14.680815696716309, -2.1596264839172363, 0.699140727519989, -0.779052734375, 0.040771484375, -0.317138671875, 
397, 3736343431, 0.5290372967720032, -0.3988240361213684, -0.21322405338287354, -0.7180383801460266, 7.720545768737793, -1.2084139585494995, 5.656535625457764, -12.20191764831543, -4.274670600891113, 0.7745745182037354, -0.779541015625, 0.041748046875, -0.315185546875, 
398, 3736351764, 0.5286704897880554, -0.3995736241340637, -0.21292750537395477, -0.7179799675941467, 7.7555413246154785, -1.042726993560791, 5.647036552429199, -10.663116455078125, -6.3523945808410645, 0.5551885962486267, -0.780029296875, 0.042236328125, -0.314208984375, 
399, 3736360097, 0.5282661318778992, -0.40038588643074036, -0.2127012461423874, -0.717892050743103, 7.822751998901367, -0.913175106048584, 5.663068771362305, -10.694315910339355, -7.74954891204834, 0.10061272233724594, -0.779541015625, 0.039306640625, -0.314697265625, 
400, 3736368430, 0.527787983417511, -0.40126416087150574, -0.21248197555541992, -0.7178183197975159, 7.864348411560059, -0.8002566695213318, 5.703908920288086, -11.402523040771484, -8.595049858093262, -0.479844331741333, -0.779541015625, 0.04248046875, -0.312255859375, 
401, 3736376763, 0.5272576808929443, -0.4021441340446472, -0.21217034757137299, -0.7178077101707458, 7.903759479522705, -0.7453331351280212, 5.731962203979492, -12.941068649291992, -7.740200042724609, -1.0252995491027832, -0.781982421875, 0.04150390625, -0.311767578125, 
402, 3736385096, 0.5266361236572266, -0.40304550528526306, -0.21158409118652344, -0.7179313898086548, 7.992248058319092, -0.8210645914077759, 5.806360244750977, -16.560115814208984, -5.48818302154541, -1.2313531637191772, -0.781005859375, 0.0419921875, -0.311279296875, 
403, 3736393429, 0.5259198546409607, -0.4040175974369049, -0.21068821847438812, -0.718173623085022, 7.9738545417785645, -0.9345797300338745, 5.762880325317383, -21.104103088378906, -3.5650551319122314, -1.1615164279937744, -0.781982421875, 0.044921875, -0.31005859375, 
404, 3736401762, 0.525102972984314, -0.40512514114379883, -0.20969432592391968, -0.7184382081031799, 7.9104180335998535, -1.065974473953247, 5.612314701080322, -23.571189880371094, -4.3578925132751465, -1.3220665454864502, -0.781005859375, 0.04345703125, -0.3115234375, 
405, 3736410095, 0.5242259502410889, -0.40634477138519287, -0.20872780680656433, -0.7186713814735413, 7.885573863983154, -1.2117112874984741, 5.501800060272217, -24.44745445251465, -6.013956546783447, -1.5681426525115967, -0.780517578125, 0.044921875, -0.310546875, 
406, 3736418428, 0.523309588432312, -0.40754398703575134, -0.20778419077396393, -0.7189335823059082, 7.955255508422852, -1.2383108139038086, 5.4307756423950195, -24.28539276123047, -5.927661895751953, -2.3016579151153564, -0.781005859375, 0.044921875, -0.31005859375, 
407, 3736426761, 0.5223923921585083, -0.40867629647254944, -0.20691564679145813, -0.7192081809043884, 7.919755458831787, -1.2231416702270508, 5.379836559295654, -23.16522979736328, -5.742778301239014, -3.04242205619812, -0.781982421875, 0.04638671875, -0.30908203125, 
408, 3736435094, 0.5214154124259949, -0.4099012613296509, -0.20610623061656952, -0.7194525599479675, 7.839943885803223, -1.1835153102874756, 5.254974842071533, -23.430749893188477, -7.418923377990723, -3.4548115730285645, -0.780029296875, 0.046875, -0.3095703125, 
409, 3736443427, 0.5203268527984619, -0.4113660156726837, -0.20527982711791992, -0.7196406722068787, 7.706296920776367, -1.1927862167358398, 5.322595596313477, -25.857881546020508, -10.306572914123535, -3.4127020835876465, -0.781494140625, 0.046875, -0.31005859375, 
410, 3736451760, 0.519100546836853, -0.41305792331695557, -0.20434045791625977, -0.719824492931366, 7.740303039550781, -1.1827284097671509, 5.495699405670166, -29.297704696655273, -12.155028343200684, -3.4318878650665283, -0.782958984375, 0.0458984375, -0.30859375, 
411, 3736460093, 0.5177414417266846, -0.41488873958587646, -0.2032901644706726, -0.7200478315353394, 7.825129985809326, -1.2344900369644165, 5.6373467445373535, -32.24539566040039, -12.904245376586914, -3.986001491546631, -0.782470703125, 0.046630859375, -0.30615234375, 
412, 3736468426, 0.5164015293121338, -0.4166676998138428, -0.20219767093658447, -0.72029048204422, 8.017903327941895, -1.2776950597763062, 5.690290451049805, -32.24885559082031, -11.9103364944458, -3.8617467880249023, -0.78271484375, 0.047119140625, -0.304931640625, 
413, 3736476759, 0.5151163935661316, -0.41819465160369873, -0.20112362504005432, -0.7206263542175293, 8.018043518066406, -1.2861746549606323, 5.628468036651611, -30.164615631103516, -8.881858825683594, -4.731042861938477, -0.78173828125, 0.048583984375, -0.303955078125, 
414, 3736485092, 0.5139049291610718, -0.41953638195991516, -0.2002658247947693, -0.7209502458572388, 7.91606330871582, -1.2773208618164062, 5.4335479736328125, -26.30845832824707, -8.418392181396484, -5.727717399597168, -0.78515625, 0.050537109375, -0.304443359375, 
415, 3736493425, 0.5127453207969666, -0.42088600993156433, -0.1996382623910904, -0.7211633920669556, 7.869869709014893, -1.3435970544815063, 5.277237892150879, -23.50318717956543, -10.630950927734375, -5.738424301147461, -0.78369140625, 0.05126953125, -0.302001953125, 
416, 3736501758, 0.5116592645645142, -0.4222869575023651, -0.19917753338813782, -0.7212430834770203, 7.9291605949401855, -1.4104969501495361, 5.125984191894531, -21.39226531982422, -12.8776273727417, -4.891104698181152, -0.78369140625, 0.05078125, -0.300048828125, 
417, 3736510091, 0.5106611847877502, -0.423677533864975, -0.19889996945858002, -0.7212113738059998, 7.980937957763672, -1.407526969909668, 5.008793830871582, -18.684173583984375, -14.483025550842285, -4.308098793029785, -0.78515625, 0.050048828125, -0.298095703125, 
418, 3736518424, 0.5096873641014099, -0.4251561760902405, -0.19873380661010742, -0.7210760712623596, 7.969554901123047, -1.346815824508667, 5.012473106384277, -17.775915145874023, -16.662029266357422, -3.7668442726135254, -0.78369140625, 0.050537109375, -0.295654296875, 
419, 3736526757, 0.5086550712585449, -0.4268520474433899, -0.19851645827293396, -0.7208628058433533, 8.018118858337402, -1.3053752183914185, 5.211782932281494, -19.892372131347656, -19.091901779174805, -2.863865375518799, -0.78271484375, 0.04833984375, -0.292724609375, 
420, 3736535090, 0.5075806379318237, -0.42878666520118713, -0.19807609915733337, -0.7205930948257446, 8.141189575195312, -1.3703341484069824, 5.4224629402160645, -23.90884780883789, -20.325387954711914, -0.9683597683906555, -0.7880859375, 0.051025390625, -0.29296875, 
421, 3736543423, 0.5064746141433716, -0.430874764919281, -0.19737765192985535, -0.7203174233436584, 8.298948287963867, -1.6188151836395264, 5.544072151184082, -27.706932067871094, -20.166505813598633, 0.6986033320426941, -0.7880859375, 0.05029296875, -0.2900390625, 
422, 3736551756, 0.5053712129592896, -0.43301624059677124, -0.1964377611875534, -0.7200651168823242, 8.360931396484375, -1.9225540161132812, 5.637023448944092, -30.387723922729492, -18.903491973876953, 2.2395575046539307, -0.78857421875, 0.05224609375, -0.2880859375, 
423, 3736560089, 0.5043553113937378, -0.4350506663322449, -0.19540055096149445, -0.7198331356048584, 8.264476776123047, -2.1764979362487793, 5.582135200500488, -30.190956115722656, -16.799179077148438, 3.2230942249298096, -0.788330078125, 0.053466796875, -0.287109375, 
424, 3736568422, 0.503513753414154, -0.4368310868740082, -0.1944529116153717, -0.7196007966995239, 8.11841869354248, -2.2092416286468506, 5.526178359985352, -26.580638885498047, -14.415842056274414, 3.663273811340332, -0.791259765625, 0.0546875, -0.281494140625, 
425, 3736576755, 0.5028690695762634, -0.43833673000335693, -0.19374674558639526, -0.7193265557289124, 7.924144268035889, -2.1615002155303955, 5.414156436920166, -20.907747268676758, -13.120988845825195, 3.782661199569702, -0.789794921875, 0.0546875, -0.281494140625, 
426, 3736585088, 0.502549946308136, -0.4395834803581238, -0.19350667297840118, -0.7188531756401062, 7.832594394683838, -2.030432939529419, 5.141463756561279, -12.0997953414917, -14.088434219360352, 4.814017295837402, -0.790283203125, 0.05712890625, -0.280517578125, 
427, 3736593421, 0.5025474429130554, -0.44061723351478577, -0.1937532126903534, -0.7181552648544312, 7.857358455657959, -1.84848153591156, 4.875226020812988, -3.1204679012298584, -15.905818939208984, 6.114990711212158, -0.791259765625, 0.05859375, -0.2783203125, 
428, 3736601754, 0.5027334690093994, -0.4415869116783142, -0.1943201720714569, -0.717275857925415, 7.96440315246582, -1.682323932647705, 4.73218297958374, 1.9284964799880981, -18.03997039794922, 6.992843151092529, -0.791259765625, 0.058837890625, -0.27490234375, 
429, 3736610087, 0.5029067993164062, -0.44272640347480774, -0.19496095180511475, -0.7162771224975586, 8.118674278259277, -1.5695289373397827, 4.73495626449585, 1.8597733974456787, -21.020727157592773, 7.790495872497559, -0.79345703125, 0.060302734375, -0.2744140625, 
430, 3736618420, 0.5030453205108643, -0.44414466619491577, -0.19544072449207306, -0.7151702046394348, 8.408622741699219, -1.6423306465148926, 4.695542335510254, -1.7121204137802124, -23.368328094482422, 9.829878807067871, -0.7939453125, 0.06201171875, -0.270751953125, 
431, 3736626753, 0.5031261444091797, -0.44581836462020874, -0.19562089443206787, -0.714021623134613, 8.703339576721191, -1.9281089305877686, 4.5553178787231445, -6.555570602416992, -24.2442626953125, 12.143331527709961, -0.794921875, 0.0625, -0.268310546875, 
432, 3736635086, 0.5031222105026245, -0.4478265941143036, -0.1956423670053482, -0.7127608060836792, 8.909296989440918, -2.2349154949188232, 4.39560604095459, -10.756336212158203, -27.32158851623535, 13.884875297546387, -0.79541015625, 0.063720703125, -0.264892578125, 
433, 3736643419, 0.5029173493385315, -0.45020684599876404, -0.1955823451280594, -0.7114211916923523, 8.928712844848633, -2.232550621032715, 4.105525493621826, -15.011046409606934, -31.46019744873047, 14.056594848632812, -0.79638671875, 0.068359375, -0.26123046875, 
434, 3736651752, 0.5025065541267395, -0.45289191603660583, -0.1954425871372223, -0.710044264793396, 8.667074203491211, -1.876286268234253, 3.9832305908203125, -19.21778678894043, -34.64482879638672, 13.519341468811035, -0.796630859375, 0.067138671875, -0.255859375, 
435, 3736660085, 0.5017185211181641, -0.4559376835823059, -0.1950293332338333, -0.7087647914886475, 8.353818893432617, -1.2618900537490845, 4.1797661781311035, -26.752521514892578, -36.73012924194336, 11.982797622680664, -0.799072265625, 0.06884765625, -0.250244140625, 
436, 3736668418, 0.5003431439399719, -0.45963039994239807, -0.19427911937236786, -0.7075571417808533, 8.087230682373047, -0.576059103012085, 4.25881290435791, -38.61599349975586, -41.78776550292969, 9.461977005004883, -0.802978515625, 0.072509765625, -0.24658203125, 
437, 3736676751, 0.4983055591583252, -0.4640651345252991, -0.19284063577651978, -0.7064929008483887, 8.01508617401123, -0.26978859305381775, 4.308620452880859, -54.89240264892578, -45.15132141113281, 8.428196907043457, -0.80322265625, 0.0732421875, -0.240234375, 
438, 3736685084, 0.4955359697341919, -0.46920111775398254, -0.19039058685302734, -0.7057127952575684, 8.084074974060059, -0.4266507029533386, 4.3347625732421875, -75.04598236083984, -45.14663314819336, 7.620926856994629, -0.80419921875, 0.077392578125, -0.234619140625, 
439, 3736693417, 0.49217626452445984, -0.47477760910987854, -0.18711994588375092, -0.705208957195282, 8.156609535217285, -0.9903159141540527, 4.245194435119629, -90.33738708496094, -43.631126403808594, 6.5895514488220215, -0.80615234375, 0.079833984375, -0.227783203125, 
440, 3736701750, 0.4884706437587738, -0.480530321598053, -0.1835428774356842, -0.7048288583755493, 8.181818962097168, -1.8296388387680054, 4.2991943359375, -97.2834243774414, -43.30698776245117, 4.721851348876953, -0.806396484375, 0.083740234375, -0.22705078125, 
441, 3736710083, 0.4845210909843445, -0.4863618016242981, -0.1799353063106537, -0.7044852375984192, 8.197115898132324, -2.4971983432769775, 4.511097431182861, -99.81200408935547, -44.24225616455078, 2.5144989490509033, -0.807373046875, 0.087158203125, -0.219482421875, 
442, 3736718416, 0.480461984872818, -0.4920521676540375, -0.1764327436685562, -0.7041998505592346, 8.233722686767578, -2.693286657333374, 4.673230171203613, -98.3941421508789, -43.5355339050293, 0.2051720768213272, -0.8095703125, 0.08935546875, -0.21337890625, 
443, 3736726749, 0.4765873849391937, -0.49733683466911316, -0.17318789660930634, -0.7039254903793335, 8.335713386535645, -2.563645601272583, 4.634758472442627, -92.09857940673828, -40.761898040771484, -0.8668062686920166, -0.8095703125, 0.089599609375, -0.208984375, 
444, 3736735082, 0.47307971119880676, -0.502155601978302, -0.17049720883369446, -0.7035272717475891, 8.485251426696777, -2.4439404010772705, 4.416308403015137, -81.10960388183594, -39.80159378051758, -1.5379793643951416, -0.81005859375, 0.09375, -0.2041015625, 
445, 3736743415, 0.46994295716285706, -0.506594717502594, -0.1683223396539688, -0.7029705047607422, 8.759373664855957, -2.4203922748565674, 4.269253253936768, -70.52706909179688, -39.75745391845703, -1.2629811763763428, -0.8134765625, 0.096435546875, -0.197998046875, 
446, 3736751748, 0.46700751781463623, -0.5108599066734314, -0.16647037863731384, -0.7022808790206909, 8.928736686706543, -2.4601361751556396, 4.248071670532227, -64.76055908203125, -40.574790954589844, -1.2176300287246704, -0.814208984375, 0.095703125, -0.194091796875, 
