sep=,
PacketCounter,SampleTimeFine,Quat_W,Quat_X,Quat_Y,Quat_Z,Acc_X,Acc_Y,Acc_Z,Gyr_X,Gyr_Y,Gyr_Z,Mag_X,Mag_Y,Mag_Z,
0, 3535668125, 0.4271266460418701, -0.5405569076538086, -0.2817593812942505, -0.6677995324134827, 0, 0, 0, 0, 0, 0, -0.847900390625, -0.01708984375, -0.03515625, 
1, 3535676458, 0.42719021439552307, -0.5405675768852234, -0.28177610039711, -0.6677431464195251, 9.631625175476074, -0.7818629741668701, 2.5754096508026123, 0.33418890833854675, -0.07516498118638992, 0.760384202003479, -0.844970703125, -0.01953125, -0.036376953125, 
2, 3535684791, 0.42726224660873413, -0.5405644178390503, -0.281800776720047, -0.667689323425293, 9.615080833435059, -0.7811691164970398, 2.5456395149230957, 0.8380721807479858, 0.02546054869890213, 0.7895076274871826, -0.845947265625, -0.0185546875, -0.033935546875, 
3, 3535693124, 0.42734888195991516, -0.5405589938163757, -0.28183794021606445, -0.6676226258277893, 9.588264465332031, -0.7348687648773193, 2.5777344703674316, 0.829849898815155, -0.032004982233047485, 0.8168379068374634, -0.843994140625, -0.02001953125, -0.035888671875, 
4, 3535701457, 0.4274168908596039, -0.5405727028846741, -0.28184857964515686, -0.6675633192062378, 9.58176326751709, -0.7197763323783875, 2.5596518516540527, 0.5569047331809998, -0.0999339297413826, 0.9443455934524536, -0.844970703125, -0.015625, -0.035888671875, 
5, 3535709790, 0.42749571800231934, -0.5405785441398621, -0.281851589679718, -0.6675069332122803, 9.574180603027344, -0.7380803823471069, 2.5789432525634766, 0.3508893549442291, 0.10985945165157318, 0.9825107455253601, -0.843505859375, -0.02001953125, -0.036376953125, 
6, 3535718123, 0.4275340437889099, -0.54058438539505, -0.28180962800979614, -0.6674953699111938, 9.563944816589355, -0.7552543878555298, 2.5655603408813477, -0.2597411274909973, 0.519943356513977, 0.7570798993110657, -0.844970703125, -0.02001953125, -0.036376953125, 
7, 3535726456, 0.4275783896446228, -0.5405923128128052, -0.28176045417785645, -0.6674813628196716, 9.535897254943848, -0.772020697593689, 2.5459325313568115, -0.5619122982025146, 0.5802905559539795, 0.8135850429534912, -0.845947265625, -0.015625, -0.03271484375, 
8, 3535734789, 0.4275771677494049, -0.5406321883201599, -0.28167983889579773, -0.6674838066101074, 9.546198844909668, -0.7400331497192383, 2.5542516708374023, -1.1266037225723267, 0.3795773386955261, 0.7420187592506409, -0.844970703125, -0.0166015625, -0.034423828125, 
9, 3535743122, 0.4275413155555725, -0.5406966209411621, -0.281572550535202, -0.6674997210502625, 9.5659761428833, -0.7424554824829102, 2.556265354156494, -2.1393392086029053, 0.3162589371204376, 0.5522685050964355, -0.844970703125, -0.01904296875, -0.033935546875, 
10, 3535751455, 0.4274560809135437, -0.5407925844192505, -0.2814241051673889, -0.6675392985343933, 9.557254791259766, -0.744708240032196, 2.5569021701812744, -2.999055862426758, 0.2300158590078354, 0.43393078446388245, -0.847412109375, -0.01513671875, -0.03369140625, 
11, 3535759788, 0.4273724853992462, -0.5408790707588196, -0.28125858306884766, -0.6675925254821777, 9.54279899597168, -0.7623925805091858, 2.563873529434204, -3.3024821281433105, 0.5463516116142273, 0.4126709997653961, -0.848876953125, -0.018310546875, -0.037841796875, 
12, 3535768121, 0.4272681772708893, -0.5409702658653259, -0.28107690811157227, -0.6676619052886963, 9.53763484954834, -0.7728333473205566, 2.5648295879364014, -3.398740291595459, 0.6042910814285278, 0.34855854511260986, -0.846435546875, -0.01708984375, -0.033935546875, 
13, 3535776454, 0.42717981338500977, -0.5410510301589966, -0.2809123992919922, -0.6677222847938538, 9.534316062927246, -0.7620273232460022, 2.5600404739379883, -3.3221535682678223, 0.6272926926612854, 0.29822656512260437, -0.845947265625, -0.0205078125, -0.033447265625, 
14, 3535784787, 0.42708510160446167, -0.5411509275436401, -0.28073692321777344, -0.6677756309509277, 9.534196853637695, -0.7923989295959473, 2.578887701034546, -3.2776360511779785, 0.4078042507171631, 0.5143850445747375, -0.845947265625, -0.0185546875, -0.034423828125, 
15, 3535793120, 0.42701488733291626, -0.5412396192550659, -0.2805873155593872, -0.6678113341331482, 9.52726936340332, -0.8497228026390076, 2.5441009998321533, -3.003026008605957, 0.35345083475112915, 0.5281143188476562, -0.845458984375, -0.017333984375, -0.038330078125, 
16, 3535801453, 0.4269494116306305, -0.5413041710853577, -0.2804572880268097, -0.6678557395935059, 9.497549057006836, -0.8796865344047546, 2.5397331714630127, -2.364513874053955, 0.5079814791679382, 0.37074044346809387, -0.847412109375, -0.01513671875, -0.0341796875, 
17, 3535809786, 0.4269108176231384, -0.5413463711738586, -0.28036996722221375, -0.6678828597068787, 9.492945671081543, -0.8896398544311523, 2.5506045818328857, -1.8891650438308716, 0.47473421692848206, 0.22553333640098572, -0.845947265625, -0.01708984375, -0.034912109375, 
18, 3535818119, 0.4268757104873657, -0.5413828492164612, -0.2803059220314026, -0.6679027676582336, 9.512601852416992, -0.9024240970611572, 2.540632486343384, -1.585277795791626, 0.34945499897003174, 0.10519766062498093, -0.848388671875, -0.0166015625, -0.0341796875, 
19, 3535826452, 0.4268357753753662, -0.5414205193519592, -0.2802349627017975, -0.6679274439811707, 9.51590633392334, -0.8853287696838379, 2.5630786418914795, -1.320631504058838, 0.3531690239906311, 0.1979724019765854, -0.846435546875, -0.01708984375, -0.036865234375, 
20, 3535834785, 0.4267933964729309, -0.541445791721344, -0.2801683843135834, -0.6679619550704956, 9.524182319641113, -0.8358098268508911, 2.5773119926452637, -1.365174651145935, 0.5147436857223511, 0.0076842703856527805, -0.846923828125, -0.01806640625, -0.034423828125, 
21, 3535843118, 0.42676323652267456, -0.5414437651634216, -0.28011927008628845, -0.6680034399032593, 9.515069007873535, -0.8018479943275452, 2.5748231410980225, -1.2718876600265503, 0.7955012917518616, -0.2341012954711914, -0.845458984375, -0.01708984375, -0.035888671875, 
22, 3535851451, 0.4267153739929199, -0.5414408445358276, -0.2800597548484802, -0.6680613160133362, 9.519439697265625, -0.7697103023529053, 2.5743582248687744, -1.2933779954910278, 0.8872514367103577, -0.3463941216468811, -0.845947265625, -0.01513671875, -0.03515625, 
23, 3535859784, 0.42665740847587585, -0.5414329767227173, -0.27998435497283936, -0.6681362390518188, 9.53471851348877, -0.770893394947052, 2.577026605606079, -1.8133469820022583, 1.1431632041931152, -0.5132195949554443, -0.843994140625, -0.015625, -0.036865234375, 
24, 3535868117, 0.426553875207901, -0.5414502620697021, -0.27987802028656006, -0.6682329177856445, 9.529647827148438, -0.7778440117835999, 2.5570483207702637, -2.420891046524048, 1.0518742799758911, -0.6613211631774902, -0.844482421875, -0.01611328125, -0.034912109375, 
25, 3535876450, 0.4264543354511261, -0.5414755940437317, -0.279768168926239, -0.6683219075202942, 9.529952049255371, -0.8185397386550903, 2.568253993988037, -2.6883037090301514, 0.9876337051391602, -0.5945704579353333, -0.845458984375, -0.01611328125, -0.036865234375, 
26, 3535884783, 0.42633628845214844, -0.5415061712265015, -0.27964991331100464, -0.6684219837188721, 9.525188446044922, -0.8247800469398499, 2.586021661758423, -2.726238489151001, 0.9687816500663757, -0.6754858493804932, -0.844970703125, -0.0166015625, -0.036865234375, 
27, 3535893116, 0.426222562789917, -0.5415360927581787, -0.27953746914863586, -0.6685174107551575, 9.535948753356934, -0.8166579008102417, 2.5701026916503906, -2.869447708129883, 0.9541558623313904, -0.7245627641677856, -0.844970703125, -0.017578125, -0.036376953125, 
28, 3535901449, 0.42609259486198425, -0.5415654182434082, -0.2794378101825714, -0.6686180233955383, 9.55331802368164, -0.7924743294715881, 2.5743234157562256, -2.6036999225616455, 0.825265109539032, -0.9215361475944519, -0.846435546875, -0.01708984375, -0.035888671875, 
29, 3535909782, 0.4259757101535797, -0.5415909290313721, -0.2793583571910858, -0.6687049269676208, 9.538057327270508, -0.7767514586448669, 2.581139087677002, -2.5308780670166016, 0.7238326072692871, -0.9670781493186951, -0.847412109375, -0.019287109375, -0.036376953125, 
30, 3535918115, 0.4258701503276825, -0.5416059494018555, -0.2792814373970032, -0.6687923073768616, 9.537036895751953, -0.8012140989303589, 2.5822765827178955, -2.136803388595581, 0.8259822130203247, -0.8596777319908142, -0.845458984375, -0.017333984375, -0.038330078125, 
31, 3535926448, 0.42580920457839966, -0.5415860414505005, -0.2792409062385559, -0.6688641905784607, 9.545223236083984, -0.8212519884109497, 2.5737407207489014, -1.4317972660064697, 1.0177814960479736, -0.8296066522598267, -0.845458984375, -0.01611328125, -0.036376953125, 
32, 3535934781, 0.4257661700248718, -0.5415514707565308, -0.27922576665878296, -0.6689257621765137, 9.532536506652832, -0.81852126121521, 2.5754239559173584, -0.7364732027053833, 0.9694218635559082, -0.7896484136581421, -0.844970703125, -0.01708984375, -0.037353515625, 
33, 3535943114, 0.42575812339782715, -0.5415003299713135, -0.27924206852912903, -0.6689655780792236, 9.533445358276367, -0.8294436931610107, 2.5778775215148926, -0.21068988740444183, 0.9355087280273438, -0.6958234906196594, -0.846923828125, -0.017822265625, -0.039306640625, 
34, 3535951447, 0.4257296323776245, -0.5414583086967468, -0.2792567014694214, -0.6690115332603455, 9.550210952758789, -0.8202522397041321, 2.590580940246582, -0.2386094033718109, 0.8010851740837097, -0.8101142048835754, -0.843994140625, -0.017578125, -0.036865234375, 
35, 3535959780, 0.4257052540779114, -0.5414052605628967, -0.27926966547966003, -0.6690645813941956, 9.525426864624023, -0.804787814617157, 2.5951874256134033, -0.40210503339767456, 1.008739709854126, -0.9081909656524658, -0.846435546875, -0.015869140625, -0.03759765625, 
36, 3535968113, 0.4256591498851776, -0.5413574576377869, -0.27927154302597046, -0.6691318154335022, 9.53513240814209, -0.7860476970672607, 2.5720767974853516, -0.5305604338645935, 1.0190879106521606, -1.0226868391036987, -0.844482421875, -0.01318359375, -0.03759765625, 
37, 3535976446, 0.4256371557712555, -0.5413060784339905, -0.2792958915233612, -0.669177234172821, 9.505026817321777, -0.7981929183006287, 2.5979411602020264, -0.26020222902297974, 0.8810271620750427, -0.91971755027771, -0.845947265625, -0.017578125, -0.036376953125, 
38, 3535984779, 0.42560088634490967, -0.5412592887878418, -0.27930402755737305, -0.6692346334457397, 9.503674507141113, -0.800875186920166, 2.6156229972839355, -0.24391154944896698, 0.9272096157073975, -0.8865982890129089, -0.846923828125, -0.017333984375, -0.036865234375, 
39, 3535993112, 0.42557528614997864, -0.5412121415138245, -0.27933770418167114, -0.6692750453948975, 9.493724822998047, -0.821196436882019, 2.6093785762786865, -0.20613054931163788, 0.7333099246025085, -0.9747112393379211, -0.843994140625, -0.017333984375, -0.038818359375, 
40, 3536001445, 0.4255492687225342, -0.5411660075187683, -0.27937203645706177, -0.6693145632743835, 9.492473602294922, -0.794931173324585, 2.5850374698638916, 0.06751912832260132, 0.6818509697914124, -0.8987652063369751, -0.843017578125, -0.018798828125, -0.038818359375, 
41, 3536009778, 0.4255164861679077, -0.5411211848258972, -0.279417484998703, -0.6693527102470398, 9.493632316589355, -0.7939655780792236, 2.601245880126953, -0.1581294685602188, 0.5998085141181946, -1.106880784034729, -0.847900390625, -0.015380859375, -0.03759765625, 
42, 3536018111, 0.42548254132270813, -0.5410803556442261, -0.27943360805511475, -0.6694003939628601, 9.496357917785645, -0.8092511892318726, 2.60565185546875, -0.2763391435146332, 0.7734474539756775, -0.8768648505210876, -0.846923828125, -0.017822265625, -0.039306640625, 
43, 3536026444, 0.4254683554172516, -0.5410404205322266, -0.2794480621814728, -0.6694357991218567, 9.459763526916504, -0.8234496116638184, 2.591060161590576, -0.3218556344509125, 0.7864850163459778, -0.6702860593795776, -0.844482421875, -0.018310546875, -0.039306640625, 
44, 3536034777, 0.4254276752471924, -0.5410186052322388, -0.27943703532218933, -0.66948401927948, 9.46977710723877, -0.8434560894966125, 2.590573787689209, -0.46521854400634766, 0.7171729803085327, -0.6086070537567139, -0.846435546875, -0.018798828125, -0.037841796875, 
45, 3536043110, 0.42541050910949707, -0.5410013198852539, -0.27942612767219543, -0.6695134043693542, 9.468339920043945, -0.8368611931800842, 2.603384494781494, -0.6861924529075623, 0.6703757047653198, -0.3870694637298584, -0.845458984375, -0.017333984375, -0.037841796875, 
46, 3536051443, 0.42538803815841675, -0.5409990549087524, -0.27938902378082275, -0.66954505443573, 9.452997207641602, -0.8457453846931458, 2.5967679023742676, -0.793567419052124, 0.6494233012199402, -0.11755651980638504, -0.846435546875, -0.014892578125, -0.04052734375, 
47, 3536059776, 0.4253837764263153, -0.5409896373748779, -0.27936649322509766, -0.6695647239685059, 9.49180793762207, -0.8244867324829102, 2.611567258834839, -0.7048141360282898, 0.6445310115814209, -0.09678338468074799, -0.843505859375, -0.015869140625, -0.040771484375, 
48, 3536068109, 0.42537015676498413, -0.5409831404685974, -0.2793458104133606, -0.6695871949195862, 9.497173309326172, -0.8210963010787964, 2.571103811264038, -0.5805338025093079, 0.5654598474502563, -0.13943108916282654, -0.846923828125, -0.0185546875, -0.035888671875, 
49, 3536076442, 0.4253593683242798, -0.5409752130508423, -0.27932044863700867, -0.6696109175682068, 9.51506233215332, -0.8147450089454651, 2.5798442363739014, -0.8059390783309937, 0.6511394381523132, -0.1521613597869873, -0.844482421875, -0.018310546875, -0.039306640625, 
50, 3536084775, 0.42534375190734863, -0.540986180305481, -0.27927660942077637, -0.6696303486824036, 9.521907806396484, -0.815102219581604, 2.6075117588043213, -0.8986882567405701, 0.5093390345573425, 0.09807689487934113, -0.844970703125, -0.018798828125, -0.040771484375, 
51, 3536093108, 0.4253254532814026, -0.5410084128379822, -0.2792298495769501, -0.6696435213088989, 9.520548820495605, -0.843220055103302, 2.6322391033172607, -1.1948657035827637, 0.39184656739234924, 0.1152128353714943, -0.847412109375, -0.017333984375, -0.038330078125, 
52, 3536101441, 0.42529118061065674, -0.5410429239273071, -0.2791665196418762, -0.6696637272834778, 9.530984878540039, -0.8219975829124451, 2.6431753635406494, -1.3185055255889893, 0.33744192123413086, 0.16841359436511993, -0.846923828125, -0.019287109375, -0.039794921875, 
53, 3536109774, 0.4252769351005554, -0.54107666015625, -0.27910324931144714, -0.6696719527244568, 9.519554138183594, -0.8153811693191528, 2.6259303092956543, -1.363765835762024, 0.3596494793891907, 0.34976235032081604, -0.846435546875, -0.017578125, -0.036376953125, 
54, 3536118107, 0.42526087164878845, -0.5411079525947571, -0.27902594208717346, -0.6696891784667969, 9.522351264953613, -0.8159103393554688, 2.630851984024048, -1.526672601699829, 0.5265774726867676, 0.37473630905151367, -0.843994140625, -0.017822265625, -0.040771484375, 
55, 3536126440, 0.42523467540740967, -0.5411466360092163, -0.2789251506328583, -0.6697165966033936, 9.501567840576172, -0.8221811056137085, 2.6287221908569336, -1.7016432285308838, 0.6056485176086426, 0.4837760627269745, -0.847900390625, -0.017822265625, -0.037841796875, 
56, 3536134773, 0.4252176284790039, -0.5411830544471741, -0.27883365750312805, -0.6697359681129456, 9.510513305664062, -0.8354450464248657, 2.600980520248413, -1.4264181852340698, 0.5404859781265259, 0.5578779578208923, -0.845947265625, -0.013916015625, -0.03857421875, 
57, 3536143106, 0.42521873116493225, -0.5412052869796753, -0.278755247592926, -0.6697498559951782, 9.49897575378418, -0.8485490679740906, 2.6378462314605713, -1.3447344303131104, 0.656825840473175, 0.5252711176872253, -0.846435546875, -0.016845703125, -0.038330078125, 
58, 3536151439, 0.42521142959594727, -0.5412283539772034, -0.2786559462547302, -0.6697772145271301, 9.50619125366211, -0.8623447418212891, 2.6552200317382812, -1.4451936483383179, 0.8123555183410645, 0.589434802532196, -0.845947265625, -0.018310546875, -0.040283203125, 
59, 3536159772, 0.425220251083374, -0.5412309765815735, -0.2785664200782776, -0.6698067784309387, 9.490818977355957, -0.8708425760269165, 2.6274471282958984, -1.3350011110305786, 1.0475965738296509, 0.5133348703384399, -0.845947265625, -0.016845703125, -0.040771484375, 
60, 3536168105, 0.42522966861724854, -0.5412298440933228, -0.2784932553768158, -0.6698320508003235, 9.525404930114746, -0.8865588903427124, 2.6133272647857666, -0.9975591897964478, 0.9365332722663879, 0.4504263401031494, -0.845947265625, -0.015869140625, -0.039306640625, 
61, 3536176438, 0.42523956298828125, -0.5412369966506958, -0.27844253182411194, -0.6698411703109741, 9.524961471557617, -0.8908150792121887, 2.6104514598846436, -0.9172329306602478, 0.6314420700073242, 0.3710990250110626, -0.845458984375, -0.017822265625, -0.040283203125, 
62, 3536184771, 0.42524078488349915, -0.5412513613700867, -0.2783733308315277, -0.6698575615882874, 9.531320571899414, -0.8938478827476501, 2.642896890640259, -0.9991728067398071, 0.6655859351158142, 0.47829461097717285, -0.845947265625, -0.012939453125, -0.04052734375, 
63, 3536193104, 0.4252510368824005, -0.5412581562995911, -0.2783140242099762, -0.6698701977729797, 9.550433158874512, -0.8869668245315552, 2.6288342475891113, -1.004833698272705, 0.7116146683692932, 0.41664111614227295, -0.847900390625, -0.015380859375, -0.0400390625, 
64, 3536201437, 0.4252573847770691, -0.5412577986717224, -0.2782691717147827, -0.6698850393295288, 9.524482727050781, -0.8641209602355957, 2.625600814819336, -0.6691334247589111, 0.6700939536094666, 0.2896457612514496, -0.845947265625, -0.016357421875, -0.039306640625, 
65, 3536209770, 0.42527735233306885, -0.5412494540214539, -0.27825239300727844, -0.6698861122131348, 9.511136054992676, -0.8689419627189636, 2.626559257507324, -0.40715107321739197, 0.5541127324104309, 0.19843347370624542, -0.844482421875, -0.01708984375, -0.037353515625, 
66, 3536218103, 0.42529183626174927, -0.5412440896034241, -0.2782399654388428, -0.6698864102363586, 9.498475074768066, -0.8658874034881592, 2.62620210647583, -0.23686762154102325, 0.4473782181739807, 0.18654845654964447, -0.844970703125, -0.017333984375, -0.039306640625, 
67, 3536226436, 0.42531928420066833, -0.5412306189537048, -0.278233140707016, -0.669882595539093, 9.509747505187988, -0.854449987411499, 2.6072185039520264, -0.2119193822145462, 0.5374635457992554, 0.20199386775493622, -0.847412109375, -0.016845703125, -0.039306640625, 
68, 3536234769, 0.4253603219985962, -0.541201651096344, -0.27824193239212036, -0.6698763370513916, 9.486543655395508, -0.8470610976219177, 2.6117961406707764, 0.1337319165468216, 0.6213756799697876, 0.16656935214996338, -0.844970703125, -0.015380859375, -0.039306640625, 
69, 3536243102, 0.4254007935523987, -0.5411611795425415, -0.27824676036834717, -0.6698813438415527, 9.493667602539062, -0.8372259736061096, 2.5878984928131104, 0.35178592801094055, 0.8008290529251099, 0.14948467910289764, -0.846435546875, -0.016357421875, -0.041259765625, 
70, 3536251435, 0.425464928150177, -0.5410970449447632, -0.27827638387680054, -0.669880211353302, 9.458017349243164, -0.8397790789604187, 2.571289300918579, 0.7543392181396484, 0.9334595799446106, 0.0832974910736084, -0.845947265625, -0.012939453125, -0.04052734375, 
71, 3536259768, 0.425532728433609, -0.5410436391830444, -0.2783317565917969, -0.6698572039604187, 9.456208229064941, -0.8542139530181885, 2.579479694366455, 0.9681411981582642, 0.5519867539405823, 0.07008054107427597, -0.845458984375, -0.016845703125, -0.041748046875, 
72, 3536268101, 0.4255634844303131, -0.5410184860229492, -0.2783447802066803, -0.669852614402771, 9.465807914733887, -0.8397434949874878, 2.5754811763763428, 0.44030874967575073, 0.49084562063217163, 0.14971520006656647, -0.843505859375, -0.016357421875, -0.038818359375, 
73, 3536276434, 0.42562955617904663, -0.5409762263298035, -0.27838581800460815, -0.6698277592658997, 9.457761764526367, -0.8268184065818787, 2.562448501586914, 0.7647129893302917, 0.5131299495697021, 0.21569746732711792, -0.844970703125, -0.017333984375, -0.039794921875, 
74, 3536284767, 0.42568439245224, -0.5409445762634277, -0.2784305214881897, -0.6697998642921448, 9.456608772277832, -0.7903536558151245, 2.552077293395996, 0.931128740310669, 0.2950247824192047, 0.21700380742549896, -0.846923828125, -0.013427734375, -0.0380859375, 
75, 3536293100, 0.42573392391204834, -0.5409258604049683, -0.27848201990127563, -0.6697620749473572, 9.490334510803223, -0.8236285448074341, 2.5676846504211426, 0.6492183804512024, 0.07443496584892273, 0.15148258209228516, -0.845947265625, -0.015869140625, -0.039794921875, 
76, 3536301433, 0.4257553517818451, -0.5409343242645264, -0.27851009368896484, -0.6697299480438232, 9.501614570617676, -0.8251448273658752, 2.5723769664764404, 0.28249937295913696, -0.13379594683647156, 0.20460650324821472, -0.844970703125, -0.01318359375, -0.037109375, 
77, 3536309766, 0.4257744550704956, -0.5409624576568604, -0.2785342037677765, -0.6696850061416626, 9.519309997558594, -0.8224482536315918, 2.583134889602661, -0.07593339681625366, -0.36767953634262085, 0.2964335083961487, -0.845458984375, -0.017333984375, -0.039794921875, 
78, 3536318099, 0.42576736211776733, -0.5410000085830688, -0.2785634398460388, -0.6696469783782959, 9.523725509643555, -0.8224769234657288, 2.562263011932373, -0.09242896735668182, -0.5608620643615723, 0.07423005998134613, -0.843017578125, -0.016357421875, -0.041748046875, 
79, 3536326432, 0.4257698357105255, -0.5410211682319641, -0.2786206603050232, -0.6696044206619263, 9.480335235595703, -0.8172337412834167, 2.530740261077881, 0.13780459761619568, -0.5398072004318237, -0.1460907906293869, -0.844482421875, -0.016845703125, -0.038330078125, 
80, 3536334765, 0.4257493019104004, -0.541048526763916, -0.2786809504032135, -0.66957026720047, 9.504733085632324, -0.7940728664398193, 2.546326160430908, 0.19415590167045593, -0.6779447197914124, -0.32646623253822327, -0.844970703125, -0.014892578125, -0.03857421875, 
81, 3536343098, 0.42572394013404846, -0.541093647480011, -0.27874937653541565, -0.6695215106010437, 9.492344856262207, -0.814794659614563, 2.554330348968506, -0.08223449438810349, -0.9803207516670227, -0.3558969497680664, -0.847900390625, -0.016357421875, -0.0390625, 
82, 3536351431, 0.42568129301071167, -0.541151225566864, -0.27880072593688965, -0.6694808006286621, 9.488574028015137, -0.8219544887542725, 2.5608246326446533, -0.20707829296588898, -1.0333678722381592, -0.3123527765274048, -0.845458984375, -0.016845703125, -0.039306640625, 
83, 3536359764, 0.425662100315094, -0.5412001609802246, -0.27885672450065613, -0.6694300770759583, 9.457245826721191, -0.8381343483924866, 2.554623603820801, -0.16673588752746582, -0.9344713687896729, -0.1800040453672409, -0.846435546875, -0.016845703125, -0.040283203125, 
84, 3536368097, 0.4256521761417389, -0.5412472486495972, -0.2788967192173004, -0.6693816781044006, 9.459148406982422, -0.8543570041656494, 2.5416197776794434, -0.04301910474896431, -0.7985365390777588, 0.06103872135281563, -0.84619140625, -0.0107421875, -0.0380859375, 
85, 3536376430, 0.4256759285926819, -0.5412662625312805, -0.2789360284805298, -0.6693348288536072, 9.532944679260254, -0.8699073195457458, 2.514202833175659, 0.16008895635604858, -0.3674233853816986, 0.2018657773733139, -0.845458984375, -0.015869140625, -0.039306640625, 
86, 3536384763, 0.42570704221725464, -0.5412805080413818, -0.27897265553474426, -0.6692882776260376, 9.554445266723633, -0.8891774415969849, 2.5040175914764404, 0.45442214608192444, -0.3088948726654053, 0.3379029929637909, -0.845947265625, -0.0146484375, -0.037109375, 
87, 3536393096, 0.4257669746875763, -0.5413103699684143, -0.2790178060531616, -0.6692071557044983, 9.58442497253418, -0.8910294771194458, 2.518015146255493, 0.5507316589355469, -0.6177513003349304, 0.7335916757583618, -0.846435546875, -0.015625, -0.037109375, 
88, 3536401429, 0.42582157254219055, -0.5413744449615479, -0.2790554463863373, -0.6691049337387085, 9.580761909484863, -0.8216181397438049, 2.5270419120788574, 0.5032429099082947, -1.0893350839614868, 1.0470843315124512, -0.845458984375, -0.0166015625, -0.037353515625, 
89, 3536409762, 0.4258909523487091, -0.5414277911186218, -0.279117614030838, -0.6689916253089905, 9.56890869140625, -0.7829473614692688, 2.5359690189361572, 0.7631762027740479, -1.1375155448913574, 0.9714968800544739, -0.846435546875, -0.01611328125, -0.037109375, 
90, 3536418095, 0.4259141683578491, -0.5414980053901672, -0.2791532576084137, -0.6689051985740662, 9.564453125, -0.7441458106040955, 2.5545663833618164, 0.2719719409942627, -1.1489648818969727, 0.7364604473114014, -0.844482421875, -0.015625, -0.035888671875, 
91, 3536426428, 0.4258860945701599, -0.5415859818458557, -0.2791423499584198, -0.6688562631607056, 9.543845176696777, -0.7750176787376404, 2.585724115371704, -1.084647536277771, -0.9221509099006653, 0.37512049078941345, -0.844970703125, -0.01513671875, -0.0361328125, 
92, 3536434761, 0.4258018732070923, -0.5417073965072632, -0.2790760397911072, -0.6688393950462341, 9.51179313659668, -0.7941867709159851, 2.5713860988616943, -2.0989198684692383, -0.9129553437232971, 0.280680775642395, -0.843994140625, -0.017333984375, -0.037841796875, 
93, 3536443094, 0.4257216453552246, -0.5418429970741272, -0.2790249288082123, -0.6688019633293152, 9.480911254882812, -0.8295653462409973, 2.5694739818573, -2.165184259414673, -1.2391270399093628, 0.3098810315132141, -0.845458984375, -0.01513671875, -0.03759765625, 
94, 3536451427, 0.4256197214126587, -0.5419873595237732, -0.2789590358734131, -0.668777346611023, 9.494302749633789, -0.8151291012763977, 2.56488299369812, -2.3769114017486572, -1.2467087507247925, 0.23531800508499146, -0.845947265625, -0.01611328125, -0.033447265625, 
95, 3536459760, 0.4255158007144928, -0.5421237945556641, -0.27889078855514526, -0.6687614321708679, 9.519450187683105, -0.8330122232437134, 2.553032636642456, -2.5875632762908936, -1.077757477760315, 0.09779515862464905, -0.846435546875, -0.015380859375, -0.03759765625, 
96, 3536468093, 0.4254361093044281, -0.5422307848930359, -0.2788490355014801, -0.6687426567077637, 9.535467147827148, -0.8608506917953491, 2.54046368598938, -1.7236714363098145, -0.9214592576026917, 0.10051026195287704, -0.843017578125, -0.01513671875, -0.037353515625, 
97, 3536476426, 0.4254308044910431, -0.5422813892364502, -0.2788943648338318, -0.6686859130859375, 9.54615592956543, -0.8983041048049927, 2.568356990814209, -0.14767886698246002, -0.8797593712806702, 0.06657139956951141, -0.844970703125, -0.014892578125, -0.0390625, 
98, 3536484759, 0.4254237711429596, -0.5423290729522705, -0.2789629399776459, -0.6686232089996338, 9.55772876739502, -0.9101134538650513, 2.599707841873169, 0.612769365310669, -1.0957130193710327, 0.047130193561315536, -0.844970703125, -0.01416015625, -0.0361328125, 
99, 3536493092, 0.4254591464996338, -0.5423611998558044, -0.2790839672088623, -0.6685240864753723, 9.608991622924805, -0.9094446301460266, 2.6077306270599365, 1.1228512525558472, -1.3110519647598267, 0.052842170000076294, -0.843505859375, -0.0166015625, -0.034423828125, 
100, 3536501425, 0.42550140619277954, -0.5423656702041626, -0.2792035937309265, -0.6684437394142151, 9.645005226135254, -0.887413501739502, 2.604062557220459, 1.7273982763290405, -0.9360849857330322, 0.04285261407494545, -0.84521484375, -0.01171875, -0.03515625, 
101, 3536509758, 0.4255622625350952, -0.5423496961593628, -0.2793657183647156, -0.668350338935852, 9.642500877380371, -0.8372188806533813, 2.6065104007720947, 1.9499090909957886, -0.9679747223854065, -0.2366115003824234, -0.847412109375, -0.01416015625, -0.03564453125, 
102, 3536518091, 0.4255981743335724, -0.542320191860199, -0.27950721979141235, -0.6682920455932617, 9.642556190490723, -0.7967988848686218, 2.627394199371338, 1.7580841779708862, -0.5881924629211426, -0.5016932487487793, -0.844482421875, -0.015625, -0.035888671875, 
103, 3536526424, 0.425626277923584, -0.542283296585083, -0.27967360615730286, -0.6682345867156982, 9.64448356628418, -0.7607764005661011, 2.603896141052246, 1.7298060655593872, -0.6600403785705566, -0.8608815670013428, -0.843994140625, -0.015625, -0.035888671875, 
104, 3536534757, 0.4256289005279541, -0.5422609448432922, -0.2798531651496887, -0.6681759357452393, 9.616518020629883, -0.7492799758911133, 2.5904622077941895, 1.5795787572860718, -0.9780155420303345, -1.1300616264343262, -0.845458984375, -0.0146484375, -0.0341796875, 
105, 3536543090, 0.4255799353122711, -0.5422453284263611, -0.28002163767814636, -0.6681492328643799, 9.630749702453613, -0.7523596286773682, 2.6035852432250977, 1.2435710430145264, -0.9717655777931213, -1.5927314758300781, -0.844970703125, -0.0146484375, -0.033203125, 
106, 3536551423, 0.42552608251571655, -0.5421882271766663, -0.2802353501319885, -0.6681400537490845, 9.59544849395752, -0.7441810965538025, 2.5618228912353516, 1.6268882751464844, -0.7288915514945984, -2.281959295272827, -0.843505859375, -0.015625, -0.034423828125, 
107, 3536559756, 0.42548784613609314, -0.5420880317687988, -0.28048014640808105, -0.6681430339813232, 9.557861328125, -0.7212620973587036, 2.565084934234619, 2.092529296875, -0.3411687910556793, -2.6527764797210693, -0.847900390625, -0.015625, -0.03466796875, 
108, 3536568089, 0.4254493713378906, -0.5419633984565735, -0.2807430922985077, -0.6681581139564514, 9.547799110412598, -0.7248245477676392, 2.570544719696045, 2.353154182434082, -0.13610124588012695, -2.9543330669403076, -0.844970703125, -0.01611328125, -0.032958984375, 
109, 3536576422, 0.42538875341415405, -0.5418488383293152, -0.2809879779815674, -0.6681867241859436, 9.52502155303955, -0.7227652668952942, 2.562443733215332, 2.1055667400360107, -0.13151627779006958, -3.0056893825531006, -0.844970703125, -0.0166015625, -0.032958984375, 
110, 3536584755, 0.4253354072570801, -0.5417301654815674, -0.2812715470790863, -0.6681973934173584, 9.526108741760254, -0.7674248218536377, 2.5196614265441895, 2.6311452388763428, -0.4276936650276184, -3.132530927658081, -0.844482421875, -0.013427734375, -0.03369140625, 
111, 3536593088, 0.42530182003974915, -0.5416104793548584, -0.28159865736961365, -0.6681782007217407, 9.546121597290039, -0.7987703680992126, 2.502351999282837, 3.0841333866119385, -0.7911853194236755, -3.166879892349243, -0.844970703125, -0.016845703125, -0.031494140625, 
112, 3536601421, 0.42525023221969604, -0.5414894819259644, -0.2819153666496277, -0.6681755781173706, 9.550421714782715, -0.7929971218109131, 2.4714770317077637, 2.933598518371582, -0.6864742636680603, -3.3151352405548096, -0.845458984375, -0.01708984375, -0.033935546875, 
113, 3536609754, 0.4251999855041504, -0.5413888096809387, -0.28222909569740295, -0.6681566834449768, 9.507976531982422, -0.7467159628868103, 2.477518081665039, 2.725252389907837, -0.9476883411407471, -3.1500771045684814, -0.846923828125, -0.015625, -0.03271484375, 
114, 3536618087, 0.425128310918808, -0.5413114428520203, -0.2825359106063843, -0.6681351661682129, 9.484109878540039, -0.7195392847061157, 2.4687349796295166, 2.4205963611602783, -1.2399468421936035, -3.1693644523620605, -0.843994140625, -0.0185546875, -0.033447265625, 
115, 3536626420, 0.42504435777664185, -0.5412598848342896, -0.28283876180648804, -0.6681022644042969, 9.481354713439941, -0.6879599690437317, 2.448917865753174, 2.141836404800415, -1.5708314180374146, -3.1055080890655518, -0.844970703125, -0.0205078125, -0.032470703125, 
116, 3536634753, 0.42494186758995056, -0.5412216782569885, -0.2831100523471832, -0.6680837273597717, 9.492799758911133, -0.7049906253814697, 2.4599883556365967, 1.6201515197753906, -1.4879181385040283, -3.054586887359619, -0.846435546875, -0.01953125, -0.032470703125, 
117, 3536643086, 0.424822062253952, -0.5411880016326904, -0.2833617627620697, -0.6680805683135986, 9.530261993408203, -0.7214545011520386, 2.4799070358276367, 1.1837362051010132, -1.3570805788040161, -3.1584529876708984, -0.843017578125, -0.02197265625, -0.03173828125, 
118, 3536651419, 0.4246741831302643, -0.5411797761917114, -0.28356704115867615, -0.6680940389633179, 9.545977592468262, -0.7286784052848816, 2.4828357696533203, 0.6990381479263306, -1.3438379764556885, -2.9656803607940674, -0.842041015625, -0.0205078125, -0.03271484375, 
119, 3536659752, 0.4245242476463318, -0.5411887168884277, -0.28377586603164673, -0.6680935025215149, 9.525197982788086, -0.7415876984596252, 2.4866561889648438, 0.3055521845817566, -1.5966761112213135, -2.9647579193115234, -0.842529296875, -0.020751953125, -0.03173828125, 
120, 3536668085, 0.424360454082489, -0.5412247180938721, -0.28396621346473694, -0.6680874228477478, 9.538667678833008, -0.7129551768302917, 2.4791805744171143, 0.08101783692836761, -1.8542529344558716, -2.763712167739868, -0.844482421875, -0.020751953125, -0.030029296875, 
121, 3536676418, 0.4241989254951477, -0.5412856936454773, -0.2841619849205017, -0.668057382106781, 9.549232482910156, -0.7059618234634399, 2.502007007598877, -0.08889421075582504, -2.2617499828338623, -2.5982699394226074, -0.843505859375, -0.021484375, -0.033203125, 
122, 3536684751, 0.4240390658378601, -0.5413463115692139, -0.28433069586753845, -0.6680379509925842, 9.583647727966309, -0.6766520738601685, 2.526113510131836, -0.262942910194397, -2.030965566635132, -2.411926031112671, -0.843994140625, -0.020263671875, -0.031494140625, 
123, 3536693084, 0.4238637387752533, -0.541418731212616, -0.2844771146774292, -0.6680282354354858, 9.577308654785156, -0.6424688100814819, 2.5414676666259766, -0.7912365198135376, -1.9820165634155273, -2.4325966835021973, -0.845458984375, -0.0234375, -0.03076171875, 
124, 3536701417, 0.42368510365486145, -0.5414972901344299, -0.2846237123012543, -0.6680154204368591, 9.59293270111084, -0.6730003356933594, 2.5408105850219727, -0.6890100836753845, -2.0944631099700928, -2.3765013217926025, -0.844482421875, -0.023193359375, -0.02978515625, 
125, 3536709750, 0.4235404133796692, -0.5415595173835754, -0.28478381037712097, -0.6679884791374207, 9.593623161315918, -0.666772723197937, 2.572016477584839, -0.31022679805755615, -1.9770729541778564, -2.1921045780181885, -0.843505859375, -0.02294921875, -0.03125, 
126, 3536718083, 0.4234039783477783, -0.5416086912155151, -0.2849566638469696, -0.6679614782333374, 9.602940559387207, -0.6812043190002441, 2.570143222808838, 0.2578584849834442, -1.9321457147598267, -2.171689987182617, -0.844970703125, -0.019287109375, -0.027587890625, 
127, 3536726416, 0.4232899248600006, -0.5416449904441833, -0.2851494550704956, -0.6679218411445618, 9.596962928771973, -0.6729339361190796, 2.5633959770202637, 0.4192025661468506, -1.902740478515625, -2.183344602584839, -0.844970703125, -0.021728515625, -0.02978515625, 
128, 3536734749, 0.4231635332107544, -0.5416683554649353, -0.28533878922462463, -0.6679022312164307, 9.599699974060059, -0.6720205545425415, 2.5630123615264893, 0.5005277395248413, -1.6902704238891602, -2.374631881713867, -0.844970703125, -0.024658203125, -0.02783203125, 
129, 3536743082, 0.42305079102516174, -0.5416665077209473, -0.2855548858642578, -0.6678828597068787, 9.580276489257812, -0.6677426695823669, 2.5404419898986816, 0.7847688794136047, -1.5306938886642456, -2.6114094257354736, -0.844482421875, -0.021728515625, -0.02880859375, 
130, 3536751415, 0.42295217514038086, -0.5416461229324341, -0.28577539324760437, -0.6678673028945923, 9.579345703125, -0.6807608008384705, 2.5056655406951904, 1.1563032865524292, -1.3221426010131836, -2.56748104095459, -0.843994140625, -0.021728515625, -0.02734375, 
131, 3536759748, 0.4228709042072296, -0.5416146516799927, -0.28601741790771484, -0.6678408980369568, 9.554730415344238, -0.6926714181900024, 2.5254318714141846, 1.4581414461135864, -1.340636134147644, -2.59084153175354, -0.843017578125, -0.023193359375, -0.02685546875, 
132, 3536768081, 0.42278963327407837, -0.5415881276130676, -0.2862403392791748, -0.6678183674812317, 9.567109107971191, -0.6823203563690186, 2.510195732116699, 1.639541506767273, -1.2835164070129395, -2.340897798538208, -0.843017578125, -0.025634765625, -0.028076171875, 
133, 3536776414, 0.42273086309432983, -0.5415560603141785, -0.28647246956825256, -0.6677819490432739, 9.598506927490234, -0.679184079170227, 2.5089666843414307, 1.5779138803482056, -1.2627946138381958, -2.25488543510437, -0.8427734375, -0.026123046875, -0.027587890625, 
134, 3536784747, 0.4226771593093872, -0.5415226817131042, -0.28668782114982605, -0.6677507162094116, 9.609810829162598, -0.6698465943336487, 2.4889535903930664, 1.6156435012817383, -1.1155638694763184, -2.066620349884033, -0.84375, -0.027587890625, -0.027099609375, 
135, 3536793080, 0.42264100909233093, -0.5414839386940002, -0.2868942618370056, -0.667716383934021, 9.595142364501953, -0.6386089324951172, 2.465022563934326, 1.5406193733215332, -0.94697105884552, -1.8945183753967285, -0.843017578125, -0.023681640625, -0.0263671875, 
136, 3536801413, 0.4226013422012329, -0.5414522886276245, -0.28707045316696167, -0.6676912307739258, 9.582906723022461, -0.6303080320358276, 2.448132276535034, 1.3526875972747803, -0.8071941137313843, -1.6668590307235718, -0.841796875, -0.024658203125, -0.026611328125, 
137, 3536809746, 0.4225618541240692, -0.5414173603057861, -0.2872318923473358, -0.667675256729126, 9.587913513183594, -0.6102634072303772, 2.4399728775024414, 1.0091240406036377, -0.597080647945404, -1.681254506111145, -0.842529296875, -0.022216796875, -0.02685546875, 
138, 3536818079, 0.42250770330429077, -0.5414067506790161, -0.28737324476242065, -0.6676573157310486, 9.579952239990234, -0.6137949824333191, 2.4525041580200195, 0.6095419526100159, -0.7866259813308716, -1.5426557064056396, -0.841796875, -0.026611328125, -0.026611328125, 
139, 3536826412, 0.4224473834037781, -0.54140305519104, -0.2874947190284729, -0.6676462888717651, 9.596232414245605, -0.6027200222015381, 2.4602346420288086, 0.28593170642852783, -0.6954392790794373, -1.4807974100112915, -0.844482421875, -0.026611328125, -0.025634765625, 
140, 3536834745, 0.4223531186580658, -0.5414221286773682, -0.28759148716926575, -0.6676484942436218, 9.636984825134277, -0.6057426929473877, 2.4554498195648193, -0.13187487423419952, -0.8266866207122803, -1.521190881729126, -0.843994140625, -0.024658203125, -0.02587890625, 
141, 3536843078, 0.42227643728256226, -0.5414263010025024, -0.2876949906349182, -0.6676491498947144, 9.650544166564941, -0.6175550222396851, 2.4684317111968994, -0.09201914072036743, -0.6437240839004517, -1.5338188409805298, -0.843505859375, -0.02685546875, -0.024658203125, 
142, 3536851411, 0.42219772934913635, -0.5414302349090576, -0.2877877950668335, -0.6676556468009949, 9.649872779846191, -0.6290926933288574, 2.472029685974121, -0.04996056482195854, -0.5649091005325317, -1.4512896537780762, -0.844970703125, -0.027587890625, -0.025146484375, 
143, 3536859744, 0.42212119698524475, -0.5414353013038635, -0.2878904342651367, -0.6676557064056396, 9.650129318237305, -0.6131059527397156, 2.4681527614593506, -0.1034943163394928, -0.6487700939178467, -1.5192698240280151, -0.84326171875, -0.026123046875, -0.027587890625, 
144, 3536868077, 0.4220556318759918, -0.5414301156997681, -0.2880091667175293, -0.6676501631736755, 9.624778747558594, -0.6067812442779541, 2.459815263748169, 0.20632265508174896, -0.6469002962112427, -1.545985460281372, -0.841796875, -0.025634765625, -0.026611328125, 
145, 3536876410, 0.42199692130088806, -0.5414162278175354, -0.28812381625175476, -0.6676491498947144, 9.600817680358887, -0.6184848546981812, 2.434391498565674, 0.4354420006275177, -0.5048949718475342, -1.4565662145614624, -0.842529296875, -0.025146484375, -0.02783203125, 
146, 3536884743, 0.4219331443309784, -0.5414092540740967, -0.28825852274894714, -0.667637050151825, 9.581720352172852, -0.6349528431892395, 2.419703722000122, 0.7885597944259644, -0.8029678463935852, -1.5079227685928345, -0.8427734375, -0.026123046875, -0.026611328125, 
147, 3536893076, 0.42188069224357605, -0.5414050221443176, -0.28842008113861084, -0.6676039099693298, 9.570060729980469, -0.6449552178382874, 2.411816120147705, 0.8022634387016296, -1.0583161115646362, -1.5814613103866577, -0.841796875, -0.025390625, -0.026123046875, 
148, 3536901409, 0.4218124747276306, -0.5414154529571533, -0.28857770562171936, -0.6675702333450317, 9.543069839477539, -0.6455103754997253, 2.429569959640503, 0.7261123061180115, -1.2554432153701782, -1.5832542181015015, -0.84326171875, -0.026611328125, -0.027587890625, 
149, 3536909742, 0.4217303395271301, -0.5414315462112427, -0.2887398600578308, -0.667539119720459, 9.549982070922852, -0.6468870639801025, 2.447732925415039, 0.46197831630706787, -1.3505232334136963, -1.789013385772705, -0.84326171875, -0.027587890625, -0.026123046875, 
150, 3536918075, 0.4216262102127075, -0.541466474533081, -0.2888953685760498, -0.6675090193748474, 9.546233177185059, -0.6769500374794006, 2.454141616821289, 0.42762964963912964, -1.5947550535202026, -1.783685564994812, -0.844482421875, -0.025146484375, -0.02587890625, 
151, 3536926408, 0.4215327501296997, -0.5415117144584656, -0.2890646755695343, -0.667458176612854, 9.572127342224121, -0.6718714237213135, 2.437894344329834, 0.35211890935897827, -1.8527162075042725, -1.7153211832046509, -0.84130859375, -0.02734375, -0.024169921875, 
152, 3536934741, 0.42142361402511597, -0.5415673851966858, -0.2892254590988159, -0.667412281036377, 9.578985214233398, -0.6666674613952637, 2.4464738368988037, 0.23365303874015808, -1.944440484046936, -1.7314581871032715, -0.84228515625, -0.028076171875, -0.026123046875, 
153, 3536943074, 0.4213264286518097, -0.5416157841682434, -0.289397656917572, -0.6673598289489746, 9.586836814880371, -0.6460188031196594, 2.428884983062744, 0.3374931514263153, -1.9234367609024048, -1.7499773502349854, -0.84326171875, -0.02783203125, -0.022216796875, 
154, 3536951407, 0.421220988035202, -0.5416675209999084, -0.2895633578300476, -0.6673123836517334, 9.552347183227539, -0.6639699339866638, 2.4315202236175537, 0.4425370991230011, -1.9398043155670166, -1.7155519723892212, -0.84228515625, -0.0283203125, -0.021728515625, 
155, 3536959740, 0.421125203371048, -0.5417195558547974, -0.2897336483001709, -0.6672567129135132, 9.561660766601562, -0.6816701889038086, 2.477208375930786, 0.3231492042541504, -1.9653931856155396, -1.689348578453064, -0.8427734375, -0.029541015625, -0.024658203125, 
156, 3536968073, 0.4210352599620819, -0.5417698621749878, -0.28987085819244385, -0.6672130823135376, 9.563652992248535, -0.697501540184021, 2.474351406097412, 0.01767382211983204, -1.6514650583267212, -1.4569504261016846, -0.84130859375, -0.03076171875, -0.0205078125, 
157, 3536976406, 0.4209534227848053, -0.5418144464492798, -0.29001158475875854, -0.6671674251556396, 9.542257308959961, -0.6593683958053589, 2.442598342895508, 0.15967915952205658, -1.5948320627212524, -1.4300556182861328, -0.84228515625, -0.0302734375, -0.019775390625, 
158, 3536984739, 0.42087122797966003, -0.5418549180030823, -0.29012876749038696, -0.66713547706604, 9.529885292053223, -0.6370429992675781, 2.477485418319702, -0.0911482572555542, -1.3211181163787842, -1.3524187803268433, -0.843505859375, -0.02734375, -0.022705078125, 
159, 3536993072, 0.4207701086997986, -0.5419021248817444, -0.2902129888534546, -0.6671242117881775, 9.545559883117676, -0.6409499049186707, 2.5121724605560303, -0.7837058901786804, -1.1112862825393677, -1.3938369750976562, -0.84326171875, -0.02783203125, -0.019775390625, 
160, 3537001405, 0.42064526677131653, -0.541957437992096, -0.29026705026626587, -0.6671342849731445, 9.546716690063477, -0.644794762134552, 2.4866714477539062, -1.118842363357544, -0.966437816619873, -1.4155064821243286, -0.84228515625, -0.0283203125, -0.023681640625, 
161, 3537009738, 0.42054998874664307, -0.5419970750808716, -0.29032787680625916, -0.6671357750892639, 9.566484451293945, -0.6519888043403625, 2.4689624309539795, -0.8340378999710083, -0.7879066467285156, -1.249987244606018, -0.8427734375, -0.02783203125, -0.021240234375, 
162, 3537018071, 0.42046621441841125, -0.5420390367507935, -0.2904024124145508, -0.6671220660209656, 9.570396423339844, -0.6641128659248352, 2.460463523864746, -0.3860449492931366, -0.9798340797424316, -1.0909485816955566, -0.84228515625, -0.0302734375, -0.021240234375, 
163, 3537026404, 0.42040327191352844, -0.5420762300491333, -0.29047954082489014, -0.6670979857444763, 9.577800750732422, -0.6693989634513855, 2.4611430168151855, -0.3269016742706299, -0.9223814010620117, -0.9366998672485352, -0.84326171875, -0.03125, -0.020263671875, 
164, 3537034737, 0.42035406827926636, -0.5420851111412048, -0.29056069254875183, -0.6670864224433899, 9.592827796936035, -0.6482478380203247, 2.46683669090271, -0.15269926190376282, -0.5423429608345032, -1.0335471630096436, -0.84423828125, -0.03173828125, -0.020751953125, 
165, 3537043070, 0.4203123152256012, -0.5420891046524048, -0.2906389832496643, -0.6670752763748169, 9.612519264221191, -0.6148297786712646, 2.4765217304229736, -0.017942771315574646, -0.44357454776763916, -0.9584206938743591, -0.84130859375, -0.029296875, -0.021240234375, 
166, 3537051403, 0.42026105523109436, -0.5421210527420044, -0.29068857431411743, -0.6670600771903992, 9.601388931274414, -0.5907387733459473, 2.4740543365478516, -0.47871723771095276, -0.6123467087745667, -0.6804805397987366, -0.8408203125, -0.0302734375, -0.02197265625, 
167, 3537059736, 0.42020830512046814, -0.5421475172042847, -0.2907329499721527, -0.6670524477958679, 9.623856544494629, -0.57366544008255, 2.444619655609131, -0.555329442024231, -0.47256985306739807, -0.7368831038475037, -0.84130859375, -0.02880859375, -0.021240234375, 
168, 3537068069, 0.42015716433525085, -0.5421618819236755, -0.290764182806015, -0.6670593619346619, 9.615824699401855, -0.5931422710418701, 2.437160015106201, -0.6755369305610657, -0.1775706708431244, -0.7516112327575684, -0.841796875, -0.028564453125, -0.018310546875, 
169, 3537076402, 0.420085608959198, -0.5421780943870544, -0.2907649278640747, -0.6670910120010376, 9.635665893554688, -0.601446807384491, 2.4609570503234863, -1.1944301128387451, 0.09151965379714966, -0.8506102561950684, -0.84228515625, -0.0302734375, -0.023193359375, 
170, 3537084735, 0.41997137665748596, -0.5422175526618958, -0.2907261848449707, -0.6671477556228638, 9.601835250854492, -0.6186552047729492, 2.4879629611968994, -1.6817665100097656, 0.08555155247449875, -0.884190559387207, -0.841796875, -0.029296875, -0.020751953125, 
171, 3537093068, 0.4198777675628662, -0.5422510504722595, -0.29070577025413513, -0.6671883463859558, 9.576278686523438, -0.6272649168968201, 2.4537413120269775, -1.6874529123306274, 0.03288867697119713, -0.8777102828025818, -0.841796875, -0.02978515625, -0.021240234375, 
172, 3537101401, 0.419772744178772, -0.5422940850257874, -0.29067033529281616, -0.6672348380088806, 9.576250076293945, -0.6541768908500671, 2.47098708152771, -1.8066102266311646, 0.010604293085634708, -0.809730052947998, -0.84130859375, -0.03076171875, -0.02099609375, 
173, 3537109734, 0.41967901587486267, -0.542327344417572, -0.290652334690094, -0.6672746539115906, 9.565567970275879, -0.6585352420806885, 2.4682939052581787, -1.6606602668762207, 0.015240468084812164, -0.8945130705833435, -0.84375, -0.02978515625, -0.022216796875, 
174, 3537118067, 0.41959306597709656, -0.5423445701599121, -0.29064327478408813, -0.66731858253479, 9.578006744384766, -0.6566023826599121, 2.4516870975494385, -1.3601031303405762, 0.1589619368314743, -0.9442559480667114, -0.8408203125, -0.0302734375, -0.02099609375, 
175, 3537126400, 0.419521689414978, -0.5423431992530823, -0.290651798248291, -0.6673609018325806, 9.579495429992676, -0.6625749468803406, 2.4589967727661133, -1.0620558261871338, 0.28833943605422974, -1.039745807647705, -0.84228515625, -0.03125, -0.02099609375, 
176, 3537134733, 0.4194554090499878, -0.5423435568809509, -0.29065269231796265, -0.6674017906188965, 9.585939407348633, -0.6658509969711304, 2.4511146545410156, -0.8998408317565918, 0.30488622188568115, -0.8602412343025208, -0.84326171875, -0.02880859375, -0.021240234375, 
177, 3537143066, 0.4194275438785553, -0.542330265045166, -0.29067733883857727, -0.6674194931983948, 9.611632347106934, -0.6701570153236389, 2.4372024536132812, -0.4204961061477661, 0.29528093338012695, -0.6666232943534851, -0.8447265625, -0.03125, -0.019287109375, 
178, 3537151399, 0.4194108545780182, -0.5423220992088318, -0.2906970679759979, -0.6674279570579529, 9.615681648254395, -0.6448502540588379, 2.395787477493286, -0.2687573730945587, 0.23616325855255127, -0.41511714458465576, -0.841796875, -0.03125, -0.0205078125, 
179, 3537159732, 0.419383704662323, -0.5423192977905273, -0.2906869053840637, -0.6674516201019287, 9.64046573638916, -0.6281054615974426, 2.4328606128692627, -0.8213075995445251, 0.44847962260246277, -0.3925253450870514, -0.84228515625, -0.029296875, -0.020263671875, 
180, 3537168065, 0.4193447232246399, -0.5423251390457153, -0.29064294695854187, -0.667490541934967, 9.635880470275879, -0.6183129549026489, 2.4256649017333984, -1.3938112258911133, 0.6263960003852844, -0.3076653480529785, -0.84130859375, -0.03076171875, -0.02197265625, 
181, 3537176398, 0.41928666830062866, -0.5423492789268494, -0.29056674242019653, -0.6675406694412231, 9.634793281555176, -0.6248220205307007, 2.436990261077881, -1.917186975479126, 0.6537777185440063, -0.22926020622253418, -0.84375, -0.03173828125, -0.0205078125, 
182, 3537184731, 0.4192010462284088, -0.5424003005027771, -0.290463924407959, -0.667597770690918, 9.623544692993164, -0.622090220451355, 2.4282429218292236, -2.4700961112976074, 0.4875669777393341, -0.1834363490343094, -0.83984375, -0.0302734375, -0.0205078125, 
183, 3537193064, 0.41911935806274414, -0.5424527525901794, -0.29036638140678406, -0.6676488518714905, 9.589033126831055, -0.6180605888366699, 2.42000675201416, -2.4576730728149414, 0.43144622445106506, -0.17961980402469635, -0.84228515625, -0.03173828125, -0.01953125, 
184, 3537201397, 0.4190281331539154, -0.5424895286560059, -0.29026684165000916, -0.6677196025848389, 9.523112297058105, -0.6312539577484131, 2.4311108589172363, -2.3165388107299805, 0.6696842312812805, -0.36099421977996826, -0.841796875, -0.0322265625, -0.02001953125, 
185, 3537209730, 0.41893136501312256, -0.5425347685813904, -0.2901811897754669, -0.6677807569503784, 9.51442813873291, -0.6503534913063049, 2.4336769580841064, -2.459773540496826, 0.442870169878006, -0.4937272071838379, -0.84130859375, -0.03125, -0.02099609375, 
186, 3537218063, 0.4188474714756012, -0.5425698757171631, -0.290103018283844, -0.6678387522697449, 9.558324813842773, -0.6585983037948608, 2.4088730812072754, -2.056246519088745, 0.5010656714439392, -0.39928746223449707, -0.84228515625, -0.029296875, -0.022216796875, 
187, 3537226396, 0.4188070297241211, -0.5425744652748108, -0.2900587320327759, -0.6678796410560608, 9.559059143066406, -0.6656864881515503, 2.4064524173736572, -1.3444528579711914, 0.6521384119987488, -0.33087190985679626, -0.84033203125, -0.033203125, -0.02099609375, 
188, 3537234729, 0.4187682867050171, -0.5425636172294617, -0.29000648856163025, -0.6679353713989258, 9.552013397216797, -0.6893548965454102, 2.3880839347839355, -1.0812921524047852, 0.9280805587768555, -0.31691214442253113, -0.841796875, -0.03076171875, -0.02197265625, 
189, 3537243062, 0.41875746846199036, -0.5425406098365784, -0.28996512293815613, -0.667978823184967, 9.556448936462402, -0.6804571151733398, 2.388749122619629, -0.9469711780548096, 1.024646282196045, -0.20472176373004913, -0.8388671875, -0.029541015625, -0.0205078125, 
190, 3537251395, 0.41874420642852783, -0.5425238013267517, -0.2899078130722046, -0.6680256128311157, 9.571748733520508, -0.6983106136322021, 2.424506187438965, -0.9791425466537476, 1.0534110069274902, -0.04496578872203827, -0.84130859375, -0.03173828125, -0.02099609375, 
191, 3537259728, 0.41873234510421753, -0.542528510093689, -0.28983891010284424, -0.6680590510368347, 9.64255428314209, -0.6982462406158447, 2.422095775604248, -1.3277522325515747, 0.8501620292663574, 0.16034512221813202, -0.84130859375, -0.0322265625, -0.02197265625, 
192, 3537268061, 0.41870662569999695, -0.5425437688827515, -0.2897263169288635, -0.6681116223335266, 9.6778564453125, -0.6772445440292358, 2.4307661056518555, -1.6241602897644043, 1.059430480003357, 0.38841429352760315, -0.84423828125, -0.0322265625, -0.0205078125, 
193, 3537276394, 0.4186995029449463, -0.542559802532196, -0.2896272838115692, -0.6681460738182068, 9.67662239074707, -0.6383686661720276, 2.4278438091278076, -1.6387602090835571, 0.9489049315452576, 0.4659741222858429, -0.83935546875, -0.0302734375, -0.0244140625, 
194, 3537284727, 0.4186798632144928, -0.5425814986228943, -0.2895166277885437, -0.6681886315345764, 9.636364936828613, -0.5820764899253845, 2.4191322326660156, -1.9050971269607544, 0.9719064831733704, 0.4153604209423065, -0.841796875, -0.03076171875, -0.02099609375, 
195, 3537293060, 0.4186157286167145, -0.5426169633865356, -0.289381206035614, -0.668258786201477, 9.626921653747559, -0.577709972858429, 2.4425132274627686, -2.2050397396087646, 0.9762609601020813, 0.210548996925354, -0.84326171875, -0.032958984375, -0.02392578125, 
196, 3537301393, 0.4185504615306854, -0.5426501631736755, -0.2892516255378723, -0.6683287620544434, 9.62966537475586, -0.5816169381141663, 2.4676122665405273, -2.5497565269470215, 0.985661506652832, 0.04720703884959221, -0.84228515625, -0.03076171875, -0.021484375, 
197, 3537309726, 0.4184594750404358, -0.5426897406578064, -0.2891102135181427, -0.6684149503707886, 9.608094215393066, -0.6108865737915039, 2.4818615913391113, -2.995572090148926, 1.0271563529968262, -0.1909669190645218, -0.84326171875, -0.0302734375, -0.020751953125, 
198, 3537318059, 0.4183344542980194, -0.5427481532096863, -0.28895533084869385, -0.6685125231742859, 9.59305191040039, -0.6455096006393433, 2.461958885192871, -3.096210479736328, 0.8405566811561584, -0.27413636445999146, -0.84228515625, -0.02978515625, -0.021728515625, 
199, 3537326392, 0.4182569086551666, -0.5427911877632141, -0.28885704278945923, -0.6685687303543091, 9.57064151763916, -0.6758153438568115, 2.423408269882202, -2.399144411087036, 0.5772936940193176, -0.2043888121843338, -0.8408203125, -0.0322265625, -0.0224609375, 
200, 3537334725, 0.4182042181491852, -0.5428159236907959, -0.2887767553329468, -0.6686162352561951, 9.562175750732422, -0.697079598903656, 2.4409000873565674, -1.7449568510055542, 0.6534959673881531, -0.07770077884197235, -0.8408203125, -0.03125, -0.02294921875, 
201, 3537343058, 0.4182012677192688, -0.5428144335746765, -0.2887384295463562, -0.6686359643936157, 9.557393074035645, -0.6813297271728516, 2.4482250213623047, -0.8900818228721619, 0.6649455428123474, 0.06800579279661179, -0.841796875, -0.03076171875, -0.0224609375, 
202, 3537351391, 0.4182374179363251, -0.5428059101104736, -0.28871777653694153, -0.668628990650177, 9.540962219238281, -0.6642773747444153, 2.42834734916687, -0.12647026777267456, 0.5614128112792969, 0.4745805561542511, -0.8427734375, -0.03173828125, -0.02294921875, 
203, 3537359724, 0.41831862926483154, -0.54277503490448, -0.28872060775756836, -0.6686021089553833, 9.550088882446289, -0.671594500541687, 2.4494128227233887, 0.47109705209732056, 0.6857955455780029, 0.6851807832717896, -0.84375, -0.030029296875, -0.025634765625, 
204, 3537368057, 0.41840386390686035, -0.5427482724189758, -0.2886936068534851, -0.6685820817947388, 9.553065299987793, -0.6385271549224854, 2.441415548324585, 0.4031936526298523, 0.8590502738952637, 0.991936981678009, -0.8427734375, -0.0302734375, -0.022705078125, 
205, 3537376390, 0.4184974431991577, -0.5427104830741882, -0.2886490523815155, -0.6685735583305359, 9.560747146606445, -0.6451077461242676, 2.4452779293060303, 0.09274914860725403, 1.2084540128707886, 1.0204455852508545, -0.84033203125, -0.03125, -0.0244140625, 
206, 3537384723, 0.4185660779476166, -0.5426925420761108, -0.288572758436203, -0.6685779690742493, 9.586962699890137, -0.6381837725639343, 2.4518802165985107, -0.28269150853157043, 1.1760519742965698, 1.1105051040649414, -0.84228515625, -0.03125, -0.02294921875, 
207, 3537393056, 0.4186142683029175, -0.542694628238678, -0.2884734869003296, -0.6685889959335327, 9.60644817352295, -0.6641535758972168, 2.4680533409118652, -1.0565487146377563, 1.1198030710220337, 1.058098316192627, -0.84375, -0.029052734375, -0.026123046875, 
208, 3537401389, 0.4186212122440338, -0.5427325367927551, -0.28833627700805664, -0.668613076210022, 9.619257926940918, -0.6570625305175781, 2.4703006744384766, -1.8260514736175537, 0.9235981702804565, 1.076310157775879, -0.8427734375, -0.0302734375, -0.023193359375, 
209, 3537409722, 0.4185951352119446, -0.5427972674369812, -0.2881625294685364, -0.6686518788337708, 9.630035400390625, -0.6400654315948486, 2.457401990890503, -2.763455629348755, 0.8862013816833496, 1.0184988975524902, -0.841796875, -0.029296875, -0.023193359375, 
210, 3537418055, 0.4185390770435333, -0.5428869128227234, -0.2879581153392792, -0.6687021255493164, 9.609806060791016, -0.618792712688446, 2.4825539588928223, -3.396742343902588, 0.7868181467056274, 1.0319207906723022, -0.84130859375, -0.02783203125, -0.023681640625, 
211, 3537426388, 0.4184633195400238, -0.5429777503013611, -0.2877451181411743, -0.6687674522399902, 9.607950210571289, -0.6349424123764038, 2.4991378784179688, -3.7518062591552734, 0.8745210766792297, 0.8047991991043091, -0.84326171875, -0.029541015625, -0.025146484375, 
212, 3537434721, 0.41838181018829346, -0.5430679321289062, -0.28752803802490234, -0.668838620185852, 9.61571216583252, -0.6795806884765625, 2.4773645401000977, -3.5586752891540527, 0.8928353190422058, 0.8346141576766968, -0.84326171875, -0.029052734375, -0.025146484375, 
213, 3537443054, 0.4183524549007416, -0.5431401133537292, -0.2873518168926239, -0.6688740849494934, 9.579351425170898, -0.7553496360778809, 2.455718755722046, -2.8423731327056885, 0.7935802936553955, 1.054614782333374, -0.84326171875, -0.02734375, -0.023681640625, 
214, 3537451387, 0.41837242245674133, -0.5431769490242004, -0.2872006297111511, -0.668896496295929, 9.552694320678711, -0.758784294128418, 2.4975099563598633, -1.9325811862945557, 1.0599170923233032, 1.2835294008255005, -0.841796875, -0.02880859375, -0.023193359375, 
215, 3537459720, 0.4184383749961853, -0.5431872010231018, -0.28709104657173157, -0.6688940525054932, 9.54284381866455, -0.7726871967315674, 2.5012736320495605, -1.010878562927246, 1.0726728439331055, 1.4072973728179932, -0.841796875, -0.027587890625, -0.026611328125, 
216, 3537468053, 0.41854196786880493, -0.5431707501411438, -0.2870247960090637, -0.6688710451126099, 9.538978576660156, -0.7162017822265625, 2.4839160442352295, 0.016290653496980667, 1.0468281507492065, 1.483397126197815, -0.84326171875, -0.02978515625, -0.021728515625, 
217, 3537476386, 0.4186760187149048, -0.5431231260299683, -0.28700053691864014, -0.6688362956047058, 9.524622917175293, -0.6764481663703918, 2.492155075073242, 0.7424286603927612, 1.1424462795257568, 1.355377435684204, -0.84228515625, -0.029541015625, -0.026123046875, 
218, 3537484719, 0.4188147783279419, -0.543056309223175, -0.2869725823402405, -0.6688156723976135, 9.507816314697266, -0.6543508768081665, 2.4602160453796387, 0.7163276672363281, 1.460318684577942, 1.259272575378418, -0.84130859375, -0.030029296875, -0.02490234375, 
219, 3537493052, 0.41893571615219116, -0.5429902076721191, -0.286940336227417, -0.6688075065612793, 9.497474670410156, -0.649711012840271, 2.472594976425171, 0.5746810436248779, 1.5062452554702759, 1.067217230796814, -0.844482421875, -0.026611328125, -0.026123046875, 
220, 3537501385, 0.419045090675354, -0.5429202318191528, -0.28690749406814575, -0.668809711933136, 9.519451141357422, -0.6428477764129639, 2.4766921997070312, 0.5682005882263184, 1.557857632637024, 0.9299503564834595, -0.84130859375, -0.02880859375, -0.023193359375, 
221, 3537509718, 0.4191266596317291, -0.5428679585456848, -0.2868632376194, -0.6688200831413269, 9.554824829101562, -0.6864798069000244, 2.4571802616119385, 0.016623638570308685, 1.4291462898254395, 0.7431458234786987, -0.8408203125, -0.0283203125, -0.025146484375, 
222, 3537518051, 0.4191572070121765, -0.54283207654953, -0.2868008315563202, -0.6688567996025085, 9.594208717346191, -0.7207133173942566, 2.4475955963134766, -0.5784590840339661, 1.3588351011276245, 0.37309691309928894, -0.84130859375, -0.02685546875, -0.023681640625, 
223, 3537526384, 0.41917306184768677, -0.5428103804588318, -0.28675681352615356, -0.6688832640647888, 9.564760208129883, -0.7092902064323425, 2.447996139526367, -0.7120628952980042, 1.006588101387024, 0.16431529819965363, -0.8427734375, -0.02783203125, -0.024169921875, 
224, 3537534717, 0.41915565729141235, -0.5428084135055542, -0.2867164611816406, -0.6689131855964661, 9.56270694732666, -0.6801280975341797, 2.453775644302368, -0.9683589339256287, 0.685206413269043, -0.07798253744840622, -0.843994140625, -0.024658203125, -0.025390625, 
225, 3537543050, 0.41911864280700684, -0.5428141355514526, -0.2866774797439575, -0.6689484119415283, 9.606096267700195, -0.6769523620605469, 2.478424310684204, -1.2522414922714233, 0.5842606425285339, -0.3010568618774414, -0.841796875, -0.027587890625, -0.029052734375, 
226, 3537551383, 0.4190765619277954, -0.5428096652030945, -0.286652535200119, -0.6689890027046204, 9.646953582763672, -0.7221581935882568, 2.475491762161255, -1.1492209434509277, 0.609004020690918, -0.5175740122795105, -0.84228515625, -0.02734375, -0.024658203125, 
227, 3537559716, 0.41903623938560486, -0.5428066253662109, -0.28664514422416687, -0.6690199971199036, 9.69710922241211, -0.7230165004730225, 2.4639041423797607, -0.9185649156570435, 0.43813154101371765, -0.5791763067245483, -0.8427734375, -0.029052734375, -0.025634765625, 
228, 3537568049, 0.4189915657043457, -0.5427828431129456, -0.28665074706077576, -0.6690647602081299, 9.687188148498535, -0.720620334148407, 2.4728522300720215, -0.5677010416984558, 0.6154331564903259, -0.8149040341377258, -0.843505859375, -0.02587890625, -0.0244140625, 
229, 3537576382, 0.41896989941596985, -0.5427312850952148, -0.2866876423358917, -0.6691044569015503, 9.611424446105957, -0.6582548022270203, 2.465928316116333, -0.12688010931015015, 0.7667621374130249, -0.9776056408882141, -0.841796875, -0.028076171875, -0.026611328125, 
230, 3537584715, 0.4189603626728058, -0.5426654815673828, -0.28673434257507324, -0.669143795967102, 9.57139778137207, -0.6523107290267944, 2.4632747173309326, 0.3085746765136719, 0.8662477731704712, -0.9392867684364319, -0.84326171875, -0.026611328125, -0.026611328125, 
231, 3537593048, 0.41898223757743835, -0.542586624622345, -0.2868049144744873, -0.6691638231277466, 9.546677589416504, -0.6318249106407166, 2.467466115951538, 0.7417625784873962, 0.8492143154144287, -0.8233054876327515, -0.843994140625, -0.026611328125, -0.028076171875, 
232, 3537601381, 0.41901519894599915, -0.542495608329773, -0.2868718206882477, -0.6691882014274597, 9.516141891479492, -0.6243573427200317, 2.4439260959625244, 0.9389666318893433, 1.04324209690094, -0.7311199307441711, -0.841796875, -0.025634765625, -0.026123046875, 
233, 3537609714, 0.4190707206726074, -0.5423988699913025, -0.28692466020584106, -0.6692093014717102, 9.492594718933105, -0.6574392318725586, 2.4248852729797363, 0.9282342195510864, 1.2571467161178589, -0.4591991603374481, -0.841796875, -0.02783203125, -0.025146484375, 
234, 3537618047, 0.41912809014320374, -0.5423142313957214, -0.2869659662246704, -0.669224202632904, 9.461952209472656, -0.6631832718849182, 2.4303646087646484, 0.7910444140434265, 1.1731574535369873, -0.27183103561401367, -0.84228515625, -0.028564453125, -0.025146484375, 
235, 3537626380, 0.419199138879776, -0.5422229170799255, -0.28700101375579834, -0.6692385673522949, 9.467631340026855, -0.6348934769630432, 2.426530361175537, 0.8486253023147583, 1.3130625486373901, -0.11660880595445633, -0.84130859375, -0.0283203125, -0.024169921875, 
236, 3537634713, 0.419274240732193, -0.5421311855316162, -0.2870303988456726, -0.6692531108856201, 9.492122650146484, -0.6625893115997314, 2.383005380630493, 0.9844831228256226, 1.353814721107483, 0.00002561423389124684, -0.84375, -0.028564453125, -0.025634765625, 
237, 3537643046, 0.419354110956192, -0.542060136795044, -0.28705573081970215, -0.6692497730255127, 9.50238037109375, -0.6770738363265991, 2.386910915374756, 0.8063360452651978, 1.0933692455291748, 0.21308478713035583, -0.841796875, -0.028076171875, -0.027587890625, 
238, 3537651379, 0.4194096326828003, -0.54201340675354, -0.28707510232925415, -0.6692447066307068, 9.513445854187012, -0.6813368797302246, 2.3653879165649414, 0.6594641208648682, 0.7698102593421936, 0.208474263548851, -0.84033203125, -0.029541015625, -0.02880859375, 
239, 3537659712, 0.4194679260253906, -0.5419875383377075, -0.28708958625793457, -0.6692229509353638, 9.523467063903809, -0.6689413189888, 2.4096567630767822, 0.35532066226005554, 0.5182527303695679, 0.38075557351112366, -0.843505859375, -0.026123046875, -0.026611328125, 
240, 3537668045, 0.4195055663585663, -0.5419919490814209, -0.2870734632015228, -0.6692026257514954, 9.497259140014648, -0.670021116733551, 2.420850992202759, -0.18225806951522827, 0.3293222188949585, 0.5610029101371765, -0.84130859375, -0.02734375, -0.024658203125, 
241, 3537676378, 0.41952091455459595, -0.5420259237289429, -0.28705066442489624, -0.6691752672195435, 9.477509498596191, -0.6666879057884216, 2.414578437805176, -0.6301997303962708, -0.029546018689870834, 0.5315721035003662, -0.84228515625, -0.029541015625, -0.024658203125, 
242, 3537684711, 0.4194907248020172, -0.5421113967895508, -0.286996454000473, -0.6691482067108154, 9.47605037689209, -0.6821809411048889, 2.4045569896698, -1.3356157541275024, -0.5253607630729675, 0.6163040995597839, -0.8427734375, -0.028564453125, -0.026611328125, 
243, 3537693044, 0.41943302750587463, -0.5422408580780029, -0.28690847754478455, -0.6691171526908875, 9.480422973632812, -0.6691351532936096, 2.4009227752685547, -2.310544967651367, -0.8475366830825806, 0.7425054907798767, -0.841796875, -0.02685546875, -0.025146484375, 
244, 3537701377, 0.4193667471408844, -0.5423874258995056, -0.286805659532547, -0.6690840125083923, 9.487101554870605, -0.694761335849762, 2.4353115558624268, -2.5939407348632812, -0.9799622297286987, 0.8697570562362671, -0.8427734375, -0.028564453125, -0.025634765625, 
245, 3537709710, 0.41931354999542236, -0.5425222516059875, -0.28670835494995117, -0.669049859046936, 9.498826026916504, -0.658604085445404, 2.484241247177124, -2.3802413940429688, -0.8479208946228027, 0.8928353190422058, -0.84326171875, -0.027099609375, -0.027587890625, 
246, 3537718043, 0.4192592203617096, -0.5426462888717651, -0.28661245107650757, -0.6690244674682617, 9.521946907043457, -0.6577261090278625, 2.495361804962158, -2.247994899749756, -0.7130106687545776, 0.8161208033561707, -0.84326171875, -0.029052734375, -0.026123046875, 
247, 3537726376, 0.41920995712280273, -0.5427637696266174, -0.28651371598243713, -0.66900235414505, 9.551393508911133, -0.6810957789421082, 2.521361827850342, -2.3124403953552246, -0.5763075351715088, 0.8026220202445984, -0.843994140625, -0.025634765625, -0.02685546875, 
248, 3537734709, 0.41915708780288696, -0.5428730249404907, -0.28641387820243835, -0.6689894795417786, 9.577861785888672, -0.6886169910430908, 2.5395450592041016, -2.0153920650482178, -0.4717757999897003, 0.7855885624885559, -0.84228515625, -0.02587890625, -0.025634765625, 
249, 3537743042, 0.41914117336273193, -0.5429589748382568, -0.28633740544319153, -0.6689624786376953, 9.597856521606445, -0.7386568784713745, 2.5520286560058594, -1.6573817729949951, -0.31850019097328186, 0.8469346761703491, -0.843505859375, -0.026123046875, -0.026123046875, 
250, 3537751375, 0.4191242754459381, -0.5430342555046082, -0.28627610206604004, -0.6689381003379822, 9.608192443847656, -0.7413349747657776, 2.5322065353393555, -1.2909445762634277, -0.3177317678928375, 0.7267270088195801, -0.843994140625, -0.02587890625, -0.02490234375, 
251, 3537759708, 0.4191438555717468, -0.5430891513824463, -0.2862333357334137, -0.6688995957374573, 9.634808540344238, -0.733953058719635, 2.541132926940918, -0.8580895066261292, -0.17367732524871826, 0.8653256297111511, -0.843505859375, -0.02685546875, -0.024658203125, 
252, 3537768041, 0.4191569983959198, -0.5431305170059204, -0.28620100021362305, -0.6688715815544128, 9.639171600341797, -0.7092830538749695, 2.5248820781707764, -0.6111428141593933, -0.07877657562494278, 0.669043779373169, -0.841796875, -0.025634765625, -0.026123046875, 
253, 3537776374, 0.41919440031051636, -0.5431439280509949, -0.286184698343277, -0.6688443422317505, 9.660285949707031, -0.6993048191070557, 2.4943108558654785, -0.2870458960533142, 0.2093963623046875, 0.6028053760528564, -0.8427734375, -0.026611328125, -0.025634765625, 
254, 3537784707, 0.4192281663417816, -0.5431514382362366, -0.28617560863494873, -0.668820858001709, 9.640109062194824, -0.6597067713737488, 2.5202043056488037, -0.12844258546829224, 0.21831011772155762, 0.5094415545463562, -0.84228515625, -0.02685546875, -0.025146484375, 
255, 3537793040, 0.41926494240760803, -0.5431392788887024, -0.28617045283317566, -0.6688098311424255, 9.625951766967773, -0.6463809609413147, 2.5208544731140137, -0.1057995930314064, 0.5001691579818726, 0.3203060030937195, -0.843994140625, -0.026611328125, -0.025634765625, 
256, 3537801373, 0.4192988872528076, -0.5431184768676758, -0.28615614771842957, -0.6688116192817688, 9.616609573364258, -0.6588555574417114, 2.542677879333496, -0.11473896354436874, 0.6973474621772766, 0.2935134768486023, -0.842529296875, -0.025390625, -0.024169921875, 
257, 3537809706, 0.4193218946456909, -0.543093740940094, -0.28611183166503906, -0.6688361167907715, 9.631031036376953, -0.6680111289024353, 2.5356972217559814, -0.6348103880882263, 1.0508239269256592, 0.2320137321949005, -0.845458984375, -0.026611328125, -0.0263671875, 
258, 3537818039, 0.419310986995697, -0.5430768132209778, -0.28601688146591187, -0.6688975095748901, 9.6123685836792, -0.6586143374443054, 2.5482563972473145, -1.3785709142684937, 1.3918519020080566, 0.17064203321933746, -0.84130859375, -0.026123046875, -0.027587890625, 
259, 3537826372, 0.41930291056632996, -0.5430586934089661, -0.2858954071998596, -0.6689691543579102, 9.606354713439941, -0.6514337658882141, 2.564976453781128, -1.8011802434921265, 1.6657963991165161, 0.27665936946868896, -0.84228515625, -0.02587890625, -0.024169921875, 
260, 3537834705, 0.4192860722541809, -0.5430411696434021, -0.285722941160202, -0.6690675616264343, 9.624107360839844, -0.6627379059791565, 2.588763475418091, -2.3695342540740967, 2.1026980876922607, 0.45764946937561035, -0.841796875, -0.02587890625, -0.024658203125, 
261, 3537843038, 0.41926810145378113, -0.5430133938789368, -0.2855236828327179, -0.669186532497406, 9.62175178527832, -0.7101196050643921, 2.589845657348633, -2.7197065353393555, 2.5161118507385254, 0.4553954601287842, -0.841796875, -0.02783203125, -0.024658203125, 
262, 3537851371, 0.4192523956298828, -0.5429769158363342, -0.28529369831085205, -0.6693240404129028, 9.624502182006836, -0.7225390076637268, 2.587148904800415, -2.704773187637329, 2.8870315551757812, 0.6559805274009705, -0.843505859375, -0.023681640625, -0.02734375, 
263, 3537859704, 0.41927480697631836, -0.5428964495658875, -0.28506985306739807, -0.6694706082344055, 9.655085563659668, -0.7787891030311584, 2.5913922786712646, -2.4501426219940186, 3.5096113681793213, 0.6440699696540833, -0.842041015625, -0.023193359375, -0.02685546875, 
264, 3537868037, 0.4193051755428314, -0.5427905917167664, -0.28484994173049927, -0.6696308255195618, 9.637210845947266, -0.8139644861221313, 2.566608190536499, -1.816881775856018, 3.8082735538482666, 0.6371028423309326, -0.841796875, -0.026123046875, -0.027587890625, 
265, 3537876370, 0.4194011986255646, -0.5426450371742249, -0.2846868634223938, -0.669758141040802, 9.629023551940918, -0.8326372504234314, 2.577404260635376, -0.8890572190284729, 3.900509834289551, 0.7257793545722961, -0.84228515625, -0.025634765625, -0.027587890625, 
266, 3537884703, 0.4195053279399872, -0.5425056219100952, -0.28452005982398987, -0.6698768138885498, 9.609343528747559, -0.8524386882781982, 2.5840365886688232, -0.6919045448303223, 3.810373544692993, 0.9590737223625183, -0.843505859375, -0.02490234375, -0.03076171875, 
267, 3537893036, 0.41961967945098877, -0.5423539876937866, -0.2843554615974426, -0.6699978709220886, 9.64985179901123, -0.8580775260925293, 2.571134090423584, -0.7073242664337158, 3.99169659614563, 0.9171945452690125, -0.842041015625, -0.024169921875, -0.0283203125, 
268, 3537901369, 0.4197501838207245, -0.5421643853187561, -0.28419241309165955, -0.6701385974884033, 9.664299011230469, -0.8356018662452698, 2.578216075897217, -0.32467326521873474, 4.523167133331299, 0.8343837261199951, -0.843505859375, -0.025634765625, -0.029296875, 
269, 3537909702, 0.4198932647705078, -0.5419621467590332, -0.2840127944946289, -0.6702889204025269, 9.622891426086426, -0.7888891100883484, 2.607172727584839, -0.4543069005012512, 4.875771999359131, 0.9276451468467712, -0.844482421875, -0.025634765625, -0.02880859375, 
270, 3537918035, 0.4200246036052704, -0.5417643785476685, -0.28379392623901367, -0.670458972454071, 9.616232872009277, -0.7710961103439331, 2.602224588394165, -0.8331156969070435, 5.1358842849731445, 1.0731594562530518, -0.84228515625, -0.02490234375, -0.033447265625, 
271, 3537926368, 0.42017287015914917, -0.54156494140625, -0.2835391163825989, -0.6706351041793823, 9.589822769165039, -0.7547355890274048, 2.6079955101013184, -1.227062702178955, 5.497634410858154, 1.3981273174285889, -0.843017578125, -0.0244140625, -0.03076171875, 
272, 3537934701, 0.42032039165496826, -0.5413779020309448, -0.28324124217033386, -0.6708194613456726, 9.58621883392334, -0.7646298408508301, 2.6114718914031982, -1.6265168190002441, 5.670403003692627, 1.7507842779159546, -0.842041015625, -0.02392578125, -0.03173828125, 
273, 3537943034, 0.4204995334148407, -0.5411668419837952, -0.28291940689086914, -0.671013355255127, 9.596781730651855, -0.7694411873817444, 2.632326364517212, -1.616142988204956, 6.242470741271973, 2.034538507461548, -0.842529296875, -0.022705078125, -0.03125, 
274, 3537951367, 0.4207139313220978, -0.5409382581710815, -0.28257834911346436, -0.6712068915367126, 9.585881233215332, -0.7580732703208923, 2.596104145050049, -1.4278016090393066, 6.652247905731201, 2.4353249073028564, -0.843505859375, -0.02294921875, -0.03515625, 
275, 3537959700, 0.42093732953071594, -0.5407086610794067, -0.28219377994537354, -0.6714135408401489, 9.560338020324707, -0.7551670074462891, 2.581638813018799, -1.6772332191467285, 7.020017623901367, 2.8108553886413574, -0.843994140625, -0.024658203125, -0.03759765625, 
276, 3537968033, 0.4211673438549042, -0.5404869318008423, -0.28176912665367126, -0.6716263294219971, 9.557899475097656, -0.7493656873703003, 2.6109771728515625, -1.755049228668213, 7.22849178314209, 3.247142791748047, -0.843994140625, -0.024169921875, -0.03564453125, 
277, 3537976366, 0.4214214086532593, -0.540260374546051, -0.28131455183029175, -0.6718396544456482, 9.536701202392578, -0.7623570561408997, 2.6315815448760986, -2.270791530609131, 7.590599536895752, 3.539707899093628, -0.843505859375, -0.021240234375, -0.03857421875, 
278, 3537984699, 0.42168131470680237, -0.5400671362876892, -0.28083741664886475, -0.6720315217971802, 9.564393997192383, -0.7717342972755432, 2.6527259349823, -2.6635091304779053, 7.273291110992432, 3.9952828884124756, -0.842529296875, -0.020751953125, -0.03955078125, 
279, 3537993032, 0.42193108797073364, -0.539883553981781, -0.28031593561172485, -0.6722399592399597, 9.545134544372559, -0.7126924991607666, 2.7129151821136475, -3.1513326168060303, 7.529049873352051, 4.191309452056885, -0.84130859375, -0.023193359375, -0.0390625, 
280, 3538001365, 0.42216986417770386, -0.5396970510482788, -0.2797238230705261, -0.6724863648414612, 9.492968559265137, -0.6792941689491272, 2.74509596824646, -3.956387996673584, 8.186232566833496, 4.410694599151611, -0.843505859375, -0.020263671875, -0.0400390625, 
281, 3538009698, 0.4224088788032532, -0.5395012497901917, -0.2790476977825165, -0.6727741956710815, 9.469039916992188, -0.6494110226631165, 2.792386054992676, -4.895329475402832, 9.08677864074707, 4.732255935668945, -0.845947265625, -0.019775390625, -0.041259765625, 
282, 3538018031, 0.4226287305355072, -0.5392902493476868, -0.2782561182975769, -0.6731330156326294, 9.441472053527832, -0.6702263355255127, 2.8389179706573486, -6.091156005859375, 10.32043743133545, 5.007071495056152, -0.843017578125, -0.01806640625, -0.044677734375, 
283, 3538026364, 0.42281821370124817, -0.5391016006469727, -0.2773369252681732, -0.6735444664955139, 9.486733436584473, -0.6554791927337646, 2.936290740966797, -8.027207374572754, 11.16132640838623, 5.3858537673950195, -0.844970703125, -0.01806640625, -0.045166015625, 
284, 3538034697, 0.4229681193828583, -0.5389127135276794, -0.2762485146522522, -0.674048662185669, 9.529398918151855, -0.6682860255241394, 2.912475109100342, -10.239869117736816, 12.684043884277344, 5.7326979637146, -0.843017578125, -0.01708984375, -0.047607421875, 
285, 3538043030, 0.4231065809726715, -0.5386950373649597, -0.27508261799812317, -0.6746124029159546, 9.572017669677734, -0.7228713035583496, 2.889556407928467, -11.158370971679688, 13.789376258850098, 5.743533134460449, -0.843505859375, -0.015869140625, -0.049560546875, 
286, 3538051363, 0.42327550053596497, -0.53844153881073, -0.2739219665527344, -0.6751804947853088, 9.53455638885498, -0.8218580484390259, 2.871037006378174, -10.634407043457031, 14.231043815612793, 5.843812465667725, -0.842529296875, -0.016357421875, -0.051025390625, 
287, 3538059696, 0.42351195216178894, -0.5381680130958557, -0.2728135883808136, -0.67569899559021, 9.552545547485352, -0.9190726280212402, 2.878444194793701, -9.347034454345703, 14.016728401184082, 6.281611919403076, -0.843994140625, -0.014404296875, -0.052734375, 
288, 3538068029, 0.42382627725601196, -0.5378345251083374, -0.27177107334136963, -0.6761874556541443, 9.586236953735352, -1.0043598413467407, 2.8968257904052734, -7.579344749450684, 14.23334789276123, 6.515008449554443, -0.842529296875, -0.01318359375, -0.0546875, 
289, 3538076362, 0.424236923456192, -0.5374338626861572, -0.2708202302455902, -0.6766299605369568, 9.638565063476562, -1.0393273830413818, 2.897199869155884, -5.5691633224487305, 14.370739936828613, 6.702452659606934, -0.842041015625, -0.013427734375, -0.060302734375, 
290, 3538084695, 0.42470356822013855, -0.5369837880134583, -0.26990652084350586, -0.6770594716072083, 9.644872665405273, -1.00770103931427, 2.986835479736328, -4.099059581756592, 14.676447868347168, 6.961002826690674, -0.846435546875, -0.012451171875, -0.06103515625, 
291, 3538093028, 0.4252488315105438, -0.53643399477005, -0.26903092861175537, -0.6775014400482178, 9.61838150024414, -0.8790814280509949, 3.053182363510132, -3.002180576324463, 15.815535545349121, 6.8487091064453125, -0.845458984375, -0.009521484375, -0.06005859375, 
292, 3538101361, 0.42579957842826843, -0.5358707904815674, -0.268131285905838, -0.6779576539993286, 9.634291648864746, -0.7831714749336243, 3.1390292644500732, -3.244952917098999, 16.199750900268555, 6.930803298950195, -0.844482421875, -0.009765625, -0.0654296875, 
293, 3538109694, 0.42630836367607117, -0.535363495349884, -0.2671162486076355, -0.678439199924469, 9.662856101989746, -0.6536984443664551, 3.2171471118927, -4.964155673980713, 16.394166946411133, 7.460737705230713, -0.844970703125, -0.00732421875, -0.066650390625, 
294, 3538118027, 0.4268057346343994, -0.5349485278129578, -0.2660181224346161, -0.6788849234580994, 9.687560081481934, -0.6552531123161316, 3.1311137676239014, -6.182958126068115, 15.688979148864746, 8.544475555419922, -0.845947265625, -0.0087890625, -0.070068359375, 
295, 3538126360, 0.4273761212825775, -0.534497857093811, -0.2649545967578888, -0.6792969703674316, 9.673123359680176, -0.8538721799850464, 3.0632708072662354, -5.042074203491211, 15.862491607666016, 9.011399269104004, -0.846435546875, -0.006591796875, -0.072998046875, 
296, 3538134693, 0.42806684970855713, -0.5339890122413635, -0.2639196217060089, -0.679665207862854, 9.703892707824707, -1.1427265405654907, 3.147402286529541, -3.337139129638672, 16.332923889160156, 9.996804237365723, -0.843994140625, -0.006591796875, -0.072998046875, 
297, 3538143026, 0.42895352840423584, -0.533333957195282, -0.2628491520881653, -0.6800350546836853, 9.665740966796875, -1.2461270093917847, 3.3677151203155518, -1.4276741743087769, 18.653139114379883, 11.523234367370605, -0.845703125, -0.002685546875, -0.076171875, 
298, 3538151359, 0.4300727844238281, -0.5324902534484863, -0.26168379187583923, -0.680438756942749, 9.568845748901367, -1.163532018661499, 3.495778799057007, 0.4897957444190979, 22.036632537841797, 13.556343078613281, -0.84716796875, 0.000244140625, -0.07470703125, 
299, 3538159692, 0.4313468337059021, -0.5315665006637573, -0.2603995203971863, -0.6808472275733948, 9.464566230773926, -1.0583078861236572, 3.50240159034729, 0.8601266741752625, 24.109827041625977, 15.513937950134277, -0.8486328125, 0.00244140625, -0.082275390625, 
300, 3538168025, 0.43262138962745667, -0.5306696891784668, -0.2589917778968811, -0.6812748908996582, 9.396805763244629, -1.0874888896942139, 3.464508056640625, -0.43043479323387146, 24.70369529724121, 16.444711685180664, -0.84716796875, 0.0009765625, -0.0810546875, 
301, 3538176358, 0.43389254808425903, -0.5297672152519226, -0.25757572054862976, -0.6817054748535156, 9.436327934265137, -1.2433139085769653, 3.453878879547119, -0.6012817621231079, 24.844493865966797, 16.395580291748047, -0.84912109375, 0.006591796875, -0.0869140625, 
302, 3538184691, 0.4352436661720276, -0.5286545753479004, -0.256142258644104, -0.6822477579116821, 9.484818458557129, -1.4447362422943115, 3.561551332473755, 0.7935040593147278, 27.983652114868164, 15.909655570983887, -0.845703125, 0.007568359375, -0.089599609375, 
303, 3538193024, 0.43675968050956726, -0.5273202061653137, -0.2548418641090393, -0.6827985048294067, 9.396575927734375, -1.5553969144821167, 3.5945980548858643, 4.421866416931152, 29.942378997802734, 15.608278274536133, -0.845703125, 0.01025390625, -0.09326171875, 
304, 3538201357, 0.4385004937648773, -0.5257492661476135, -0.25376957654953003, -0.6832934021949768, 9.296603202819824, -1.670086145401001, 3.7347888946533203, 9.899940490722656, 31.143207550048828, 15.614712715148926, -0.84814453125, 0.011474609375, -0.09619140625, 
305, 3538209690, 0.44044065475463867, -0.5239831209182739, -0.25291311740875244, -0.6837195158004761, 9.182229042053223, -1.6627426147460938, 3.6983165740966797, 14.69705581665039, 31.90671730041504, 15.618400573730469, -0.847412109375, 0.015380859375, -0.099365234375, 
306, 3538218023, 0.442536860704422, -0.5220800042152405, -0.25234705209732056, -0.684031069278717, 9.160106658935547, -1.6173858642578125, 3.556361436843872, 19.817890167236328, 31.12640953063965, 15.234214782714844, -0.8427734375, 0.01416015625, -0.10595703125, 
307, 3538226356, 0.4447559118270874, -0.5200636386871338, -0.2520997226238251, -0.6842188239097595, 9.345702171325684, -1.5663299560546875, 3.5922529697418213, 24.779376983642578, 29.815935134887695, 14.43751049041748, -0.84521484375, 0.01708984375, -0.108642578125, 
308, 3538234689, 0.44709205627441406, -0.5178324580192566, -0.25198403000831604, -0.6844310760498047, 9.474752426147461, -1.4338536262512207, 3.5074825286865234, 28.203706741333008, 31.575773239135742, 13.755789756774902, -0.846923828125, 0.020263671875, -0.109375, 
309, 3538243022, 0.4495787024497986, -0.5153670310974121, -0.25201496481895447, -0.6846516728401184, 9.352934837341309, -1.3385560512542725, 3.189054250717163, 31.945167541503906, 33.495723724365234, 13.214411735534668, -0.847412109375, 0.02197265625, -0.1162109375, 
310, 3538251355, 0.4521331191062927, -0.5128288269042969, -0.25238722562789917, -0.6847383379936218, 9.07785415649414, -1.430704116821289, 2.870042324066162, 36.53148651123047, 31.339391708374023, 12.006647109985352, -0.846435546875, 0.02490234375, -0.117919921875, 
311, 3538259688, 0.45476871728897095, -0.5103394389152527, -0.2531360685825348, -0.6845765113830566, 8.940634727478027, -1.5997403860092163, 2.7369015216827393, 41.2305793762207, 27.08601188659668, 11.8317289352417, -0.845947265625, 0.024658203125, -0.12353515625, 
312, 3538268021, 0.4575033485889435, -0.5078614950180054, -0.25427499413490295, -0.6841748356819153, 8.9484281539917, -1.7109453678131104, 2.9201576709747314, 46.30519485473633, 23.186447143554688, 11.551383018493652, -0.846435546875, 0.026611328125, -0.123291015625, 
313, 3538276354, 0.460553914308548, -0.5050895810127258, -0.25570765137672424, -0.6836459636688232, 9.125795364379883, -1.6826695203781128, 3.3022379875183105, 53.627601623535156, 24.33506202697754, 12.259038925170898, -0.843017578125, 0.025146484375, -0.1240234375, 
314, 3538284687, 0.46429961919784546, -0.5014709234237671, -0.257373571395874, -0.6831509470939636, 9.353705406188965, -1.6448441743850708, 3.7335431575775146, 65.7857437133789, 33.49168014526367, 13.948226928710938, -0.847412109375, 0.029296875, -0.129638671875, 
315, 3538293020, 0.46894729137420654, -0.4967403709888458, -0.2595236301422119, -0.6826188564300537, 9.381111145019531, -1.6735897064208984, 4.156087398529053, 83.89139556884766, 43.78962707519531, 15.418381690979004, -0.845947265625, 0.027587890625, -0.133056640625, 
316, 3538301353, 0.4740437865257263, -0.49147817492485046, -0.26212412118911743, -0.6819136738777161, 9.22476863861084, -1.6294798851013184, 4.030309200286865, 95.0857925415039, 46.292152404785156, 15.721099853515625, -0.846435546875, 0.029541015625, -0.136962890625, 
317, 3538309686, 0.4787299335002899, -0.4866538941860199, -0.26419806480407715, -0.6812993288040161, 9.039583206176758, -1.4887510538101196, 3.791163921356201, 84.33920288085938, 44.75423049926758, 16.469602584838867, -0.843505859375, 0.03173828125, -0.140869140625, 
318, 3538318019, 0.4825035333633423, -0.48281675577163696, -0.26515302062034607, -0.6809961199760437, 8.820859909057617, -1.3922383785247803, 3.380690336227417, 59.92341613769531, 41.64252853393555, 16.87128448486328, -0.845947265625, 0.033447265625, -0.14453125, 
319, 3538326352, 0.48583337664604187, -0.47961539030075073, -0.2655677795410156, -0.6807292103767395, 8.639824867248535, -1.267930030822754, 3.435288906097412, 47.76359939575195, 37.8938102722168, 18.45453453063965, -0.844970703125, 0.035400390625, -0.1494140625, 
320, 3538334685, 0.4889416992664337, -0.47659802436828613, -0.26582473516464233, -0.6805226802825928, 8.565430641174316, -0.9275112748146057, 3.8443596363067627, 43.373817443847656, 36.8140754699707, 17.691423416137695, -0.843017578125, 0.03662109375, -0.15478515625, 
321, 3538343018, 0.49188894033432007, -0.4736558794975281, -0.26626527309417725, -0.6802805662155151, 8.540104866027832, -0.4822094738483429, 3.786147356033325, 43.42264938354492, 34.06256866455078, 15.39319896697998, -0.844970703125, 0.040283203125, -0.156982421875, 
322, 3538351351, 0.49472177028656006, -0.4707199037075043, -0.2667738199234009, -0.6800649762153625, 8.696356773376465, -0.15130610764026642, 3.6960837841033936, 43.178977966308594, 33.296112060546875, 13.727011680603027, -0.841552734375, 0.038818359375, -0.16064453125, 
323, 3538359684, 0.49720197916030884, -0.46805936098098755, -0.2670452892780304, -0.6799861788749695, 9.024327278137207, -0.026801547035574913, 3.66591739654541, 36.53645324707031, 31.918685913085938, 12.141302108764648, -0.843505859375, 0.0390625, -0.163330078125, 
324, 3538368017, 0.4991632103919983, -0.4659012258052826, -0.26702097058296204, -0.6800409555435181, 9.314371109008789, -0.11893235146999359, 3.560408592224121, 26.505599975585938, 28.196882247924805, 10.124988555908203, -0.843017578125, 0.04296875, -0.167236328125, 
325, 3538376350, 0.5008209943771362, -0.464029997587204, -0.2669348120689392, -0.680135190486908, 9.490917205810547, -0.4023688733577728, 3.4737088680267334, 21.636497497558594, 25.08535385131836, 8.364901542663574, -0.843017578125, 0.040283203125, -0.170654296875, 
326, 3538384683, 0.5023319125175476, -0.462204247713089, -0.2669070363044739, -0.680275022983551, 9.489737510681152, -0.6328631043434143, 3.483513593673706, 20.774852752685547, 24.01070213317871, 6.477538585662842, -0.842529296875, 0.044189453125, -0.173095703125, 
327, 3538393016, 0.5038374066352844, -0.46036669611930847, -0.2670590877532959, -0.6803480386734009, 9.271042823791504, -0.7955629825592041, 3.5821714401245117, 22.97089385986328, 22.424283981323242, 5.797274589538574, -0.843994140625, 0.04248046875, -0.177490234375, 
328, 3538401349, 0.5053500533103943, -0.45871061086654663, -0.267339825630188, -0.6802343726158142, 8.970540046691895, -0.7861153483390808, 3.7263529300689697, 23.44985008239746, 18.687803268432617, 6.923763751983643, -0.843017578125, 0.045654296875, -0.1796875, 
329, 3538409682, 0.5067113041877747, -0.4573724865913391, -0.2674356698989868, -0.680085301399231, 8.72336196899414, -0.629774808883667, 3.688964605331421, 18.884899139404297, 16.210437774658203, 8.1732759475708, -0.842041015625, 0.045654296875, -0.181396484375, 
330, 3538418015, 0.5078929662704468, -0.4562855660915375, -0.2673940062522888, -0.6799501180648804, 8.566553115844727, -0.5924710035324097, 3.6620872020721436, 14.48715877532959, 14.252995491027832, 8.109983444213867, -0.839111328125, 0.046142578125, -0.180908203125, 
331, 3538426348, 0.5088850259780884, -0.4554377794265747, -0.2672772705554962, -0.6798227429389954, 8.578337669372559, -0.5935992002487183, 3.930739164352417, 11.077211380004883, 11.88685131072998, 7.708810329437256, -0.842041015625, 0.04638671875, -0.18505859375, 
332, 3538434681, 0.5097284317016602, -0.454789936542511, -0.26700836420059204, -0.679730236530304, 8.684626579284668, -0.5716274976730347, 4.106218338012695, 7.001038074493408, 10.762847900390625, 7.680814266204834, -0.838623046875, 0.0478515625, -0.186767578125, 
333, 3538443014, 0.5105340480804443, -0.454182505607605, -0.26659590005874634, -0.6796934604644775, 8.805344581604004, -0.5989715456962585, 4.176168918609619, 5.12978982925415, 11.594364166259766, 8.067179679870605, -0.842529296875, 0.0478515625, -0.18798828125, 
334, 3538451347, 0.511301577091217, -0.4536321461200714, -0.26608359813690186, -0.6796848773956299, 8.887083053588867, -0.7497944831848145, 4.2026190757751465, 3.4491372108459473, 11.785036087036133, 8.354802131652832, -0.841064453125, 0.0498046875, -0.18701171875, 
335, 3538459680, 0.5119884610176086, -0.4532473683357239, -0.2655893862247467, -0.6796178221702576, 8.9033842086792, -0.8828906416893005, 4.169829368591309, 2.169525623321533, 9.461898803710938, 8.495678901672363, -0.839599609375, 0.051513671875, -0.193359375, 
336, 3538468013, 0.5126673579216003, -0.45283570885658264, -0.265188604593277, -0.6795369982719421, 8.785494804382324, -0.9146002531051636, 4.126230239868164, 3.069789171218872, 8.946949005126953, 7.7690534591674805, -0.838623046875, 0.052734375, -0.1884765625, 
337, 3538476346, 0.5132699608802795, -0.4523818790912628, -0.26489534974098206, -0.6794989705085754, 8.471837043762207, -0.7691951394081116, 3.9850027561187744, 3.9047367572784424, 8.565784454345703, 5.999673843383789, -0.839599609375, 0.052734375, -0.19189453125, 
338, 3538484679, 0.5137546062469482, -0.4520186483860016, -0.26480603218078613, -0.6794090270996094, 8.176329612731934, -0.5108695030212402, 3.9522130489349365, 4.434053897857666, 5.5376176834106445, 4.242715835571289, -0.8408203125, 0.0546875, -0.192626953125, 
339, 3538493012, 0.514058530330658, -0.4518952965736389, -0.26480633020401, -0.6792610287666321, 8.21065902709961, -0.3323496878147125, 3.9561069011688232, 2.85514235496521, 1.6335480213165283, 3.3621246814727783, -0.84033203125, 0.0556640625, -0.192138671875, 
340, 3538501345, 0.514182448387146, -0.45205381512641907, -0.26470109820365906, -0.679102897644043, 8.583909034729004, -0.3350149393081665, 4.041183948516846, -1.3710914850234985, -0.9633128046989441, 3.366453170776367, -0.8408203125, 0.05615234375, -0.192626953125, 
341, 3538509678, 0.5141319632530212, -0.45244932174682617, -0.2642758786678314, -0.6790433526039124, 8.980356216430664, -0.5204569697380066, 4.178464889526367, -7.309572219848633, -0.9461514353752136, 3.959089756011963, -0.839599609375, 0.053466796875, -0.193115234375, 
342, 3538518011, 0.5140383839607239, -0.45295393466949463, -0.2635898292064667, -0.6790443658828735, 9.221855163574219, -0.788361668586731, 4.313758850097656, -11.195173263549805, 0.11572510749101639, 5.072155952453613, -0.838134765625, 0.055908203125, -0.194580078125, 
343, 3538526344, 0.5139667391777039, -0.45343682169914246, -0.2627028524875641, -0.6791201829910278, 9.271001815795898, -1.19232976436615, 4.4211578369140625, -12.86463451385498, 2.2675771713256836, 5.9975738525390625, -0.8388671875, 0.05908203125, -0.193359375, 
344, 3538534677, 0.5140146017074585, -0.4537687599658966, -0.2617604434490204, -0.6792259812355042, 9.115140914916992, -1.4740161895751953, 4.391348361968994, -11.846750259399414, 4.700443267822266, 6.637007713317871, -0.8427734375, 0.060302734375, -0.19384765625, 
345, 3538543010, 0.5142194032669067, -0.4539653956890106, -0.2609768509864807, -0.6792410612106323, 8.801962852478027, -1.6218329668045044, 4.33900785446167, -7.929975986480713, 4.829564094543457, 7.331203937530518, -0.84033203125, 0.059326171875, -0.1962890625, 
346, 3538551343, 0.5145207643508911, -0.4541556239128113, -0.26045796275138855, -0.6790849566459656, 8.52590560913086, -1.5352611541748047, 4.282767295837402, -4.205230236053467, 2.2869160175323486, 7.783448696136475, -0.84033203125, 0.06201171875, -0.19384765625, 
347, 3538559676, 0.5148499011993408, -0.4544064998626709, -0.26009467244148254, -0.678806722164154, 8.434466361999512, -1.3805066347122192, 4.295582294464111, -2.5604631900787354, -0.03479693830013275, 8.137155532836914, -0.84130859375, 0.06103515625, -0.1943359375, 
348, 3538568009, 0.515142560005188, -0.4547002911567688, -0.2598145306110382, -0.6784951686859131, 8.397858619689941, -1.1651943922042847, 4.327698230743408, -2.2059366703033447, -1.3710662126541138, 7.680840015411377, -0.84033203125, 0.0634765625, -0.19140625, 
349, 3538576342, 0.5153545141220093, -0.45501571893692017, -0.2595559060573578, -0.6782217621803284, 8.438101768493652, -1.0135000944137573, 4.293299674987793, -2.7904534339904785, -1.7683684825897217, 6.58682918548584, -0.83935546875, 0.0654296875, -0.196533203125, 
350, 3538584675, 0.5154454708099365, -0.45539695024490356, -0.2592606246471405, -0.6780096888542175, 8.53661060333252, -0.9503002166748047, 4.241081237792969, -4.5842180252075195, -2.1765313148498535, 5.499837398529053, -0.84326171875, 0.063720703125, -0.197021484375, 
351, 3538593008, 0.5154088139533997, -0.45586448907852173, -0.258897066116333, -0.6778622269630432, 8.599371910095215, -1.0602070093154907, 4.234015464782715, -6.854228973388672, -2.541713237762451, 4.575573444366455, -0.8408203125, 0.06640625, -0.196044921875, 
352, 3538601341, 0.5152623653411865, -0.4564194977283478, -0.2585153579711914, -0.6777456998825073, 8.649577140808105, -1.1735213994979858, 4.202719688415527, -8.448433876037598, -3.4311423301696777, 3.7702107429504395, -0.8388671875, 0.06494140625, -0.195556640625, 
353, 3538609674, 0.515018105506897, -0.45709067583084106, -0.2581935524940491, -0.6776016354560852, 8.655072212219238, -1.146360158920288, 4.198635101318359, -9.221982955932617, -5.451772689819336, 3.0789082050323486, -0.84130859375, 0.06689453125, -0.195068359375, 
354, 3538618007, 0.5146893858909607, -0.45787879824638367, -0.2578883171081543, -0.6774356365203857, 8.746153831481934, -1.1074132919311523, 4.26581335067749, -10.357924461364746, -7.102559566497803, 2.76800274848938, -0.8408203125, 0.067138671875, -0.190185546875, 
355, 3538626340, 0.514279842376709, -0.45872989296913147, -0.2575051784515381, -0.6773165464401245, 8.866654396057129, -1.112917423248291, 4.313050746917725, -12.195591926574707, -7.124919891357422, 2.386708974838257, -0.843017578125, 0.068359375, -0.1923828125, 
356, 3538634673, 0.5138400197029114, -0.45960533618927, -0.2570411264896393, -0.6772332191467285, 8.891056060791016, -1.2145787477493286, 4.312414169311523, -13.44787311553955, -6.663966655731201, 2.46024751663208, -0.84130859375, 0.067626953125, -0.189697265625, 
357, 3538643006, 0.5133827328681946, -0.46050116419792175, -0.25652042031288147, -0.6771689057350159, 8.817078590393066, -1.2974121570587158, 4.251546382904053, -14.288251876831055, -6.391610622406006, 2.582376718521118, -0.842041015625, 0.070068359375, -0.18896484375, 
358, 3538651339, 0.5129538178443909, -0.4613856375217438, -0.256019651889801, -0.6770815253257751, 8.702136993408203, -1.2878767251968384, 4.170709133148193, -13.769688606262207, -6.477495193481445, 2.85455322265625, -0.843017578125, 0.070556640625, -0.189453125, 
359, 3538659672, 0.5125333070755005, -0.4622806906700134, -0.25558340549468994, -0.6769542694091797, 8.621737480163574, -1.2493456602096558, 4.113100528717041, -13.042450904846191, -7.249712944030762, 2.828555107116699, -0.841552734375, 0.071044921875, -0.18896484375, 
360, 3538668005, 0.512075662612915, -0.463245689868927, -0.25517359375953674, -0.676795244216919, 8.5873384475708, -1.2066556215286255, 4.126556396484375, -13.420003890991211, -8.425381660461426, 2.7988932132720947, -0.843017578125, 0.072509765625, -0.1884765625, 
361, 3538676338, 0.5115714073181152, -0.4642609655857086, -0.2547551691532135, -0.6766386032104492, 8.551060676574707, -1.161605954170227, 4.108382701873779, -14.15451717376709, -8.973910331726074, 2.5660855770111084, -0.842529296875, 0.07373046875, -0.187255859375, 
362, 3538684671, 0.5110102295875549, -0.46529367566108704, -0.2543855905532837, -0.6764922738075256, 8.55016040802002, -1.1057639122009277, 4.101525783538818, -14.22708511352539, -9.620619773864746, 1.7261182069778442, -0.843505859375, 0.07275390625, -0.184326171875, 
363, 3538693004, 0.5103448033332825, -0.4663313329219818, -0.25405147671699524, -0.6764057874679565, 8.574413299560547, -1.089840292930603, 4.052011966705322, -14.802227020263672, -9.890490531921387, 0.11236968636512756, -0.842529296875, 0.07421875, -0.182861328125, 
364, 3538701337, 0.5095920562744141, -0.4673610329627991, -0.2537224590778351, -0.6763862371444702, 8.611865997314453, -1.088336706161499, 3.9810264110565186, -15.49744701385498, -9.733269691467285, -1.2147680521011353, -0.843017578125, 0.072998046875, -0.179931640625, 
365, 3538709670, 0.5087236762046814, -0.46844419836997986, -0.25336891412734985, -0.6764230728149414, 8.671036720275879, -1.04595947265625, 3.9476318359375, -17.03614616394043, -10.094329833984375, -2.355447292327881, -0.841552734375, 0.0732421875, -0.177734375, 
366, 3538718003, 0.5077039003372192, -0.469624787569046, -0.2529451549053192, -0.676529049873352, 8.705876350402832, -1.0110629796981812, 3.944566249847412, -19.75436019897461, -10.572779655456543, -3.52179217338562, -0.840576171875, 0.070556640625, -0.1806640625, 
367, 3538726336, 0.5065186619758606, -0.471005380153656, -0.25242310762405396, -0.676652729511261, 8.779606819152832, -1.034253716468811, 3.8851962089538574, -23.02583885192871, -12.228972434997559, -3.7866179943084717, -0.843994140625, 0.073486328125, -0.178955078125, 
368, 3538734669, 0.5052222609519958, -0.4725331962108612, -0.25183552503585815, -0.6767756938934326, 8.827880859375, -1.0879746675491333, 3.847755193710327, -25.38619613647461, -13.535097122192383, -3.8687639236450195, -0.844970703125, 0.07177734375, -0.175537109375, 
369, 3538743002, 0.5038167834281921, -0.47418075799942017, -0.25114718079566956, -0.6769267320632935, 8.876667976379395, -1.1127345561981201, 3.924158811569214, -27.95538330078125, -14.142334938049316, -4.023627758026123, -0.843994140625, 0.0732421875, -0.176025390625, 
370, 3538751335, 0.5022599697113037, -0.4759792387485504, -0.25035953521728516, -0.6771131753921509, 8.850515365600586, -1.1126950979232788, 3.844599723815918, -31.041858673095703, -15.154459953308105, -4.4912943840026855, -0.845947265625, 0.072265625, -0.172607421875, 
371, 3538759668, 0.5005834102630615, -0.477937251329422, -0.24957585334777832, -0.6772648096084595, 8.83889102935791, -1.0492783784866333, 3.7641828060150146, -32.7633171081543, -17.30321502685547, -4.860677719116211, -0.845947265625, 0.0703125, -0.17431640625, 
372, 3538768001, 0.4987867474555969, -0.48002102971076965, -0.24879835546016693, -0.6774027347564697, 8.846220970153809, -0.9540955424308777, 3.7591986656188965, -34.32170486450195, -19.022581100463867, -5.478085994720459, -0.843505859375, 0.072021484375, -0.169921875, 
373, 3538776334, 0.49684327840805054, -0.48223763704299927, -0.24794991314411163, -0.6775679588317871, 8.906585693359375, -0.8765577077865601, 3.766899347305298, -36.94880676269531, -20.0932559967041, -6.125204563140869, -0.844970703125, 0.071533203125, -0.169189453125, 
374, 3538784667, 0.4947352707386017, -0.4846121668815613, -0.24696068465709686, -0.6777773499488831, 9.012996673583984, -0.8540427684783936, 3.839848279953003, -40.58876419067383, -20.8719425201416, -6.471871852874756, -0.845947265625, 0.072509765625, -0.166748046875, 
375, 3538793000, 0.49247002601623535, -0.48711028695106506, -0.2457955926656723, -0.6780599355697632, 9.121416091918945, -0.9448586106300354, 3.9023725986480713, -44.35758590698242, -20.871688842773438, -6.860646724700928, -0.845947265625, 0.07177734375, -0.162353515625, 
376, 3538801333, 0.4901036024093628, -0.48965564370155334, -0.24446313083171844, -0.6784226298332214, 9.219561576843262, -1.0717324018478394, 3.8793773651123047, -47.40887451171875, -19.949581146240234, -7.141125202178955, -0.844482421875, 0.07275390625, -0.162353515625, 
377, 3538809666, 0.4876450300216675, -0.49220627546310425, -0.2429671585559845, -0.6788856983184814, 9.22336483001709, -1.2040441036224365, 3.8763091564178467, -49.705360412597656, -18.56646156311035, -7.483359336853027, -0.8466796875, 0.072021484375, -0.158935546875, 
378, 3538817999, 0.48513054847717285, -0.4947625696659088, -0.241343691945076, -0.6794078946113586, 9.092719078063965, -1.2676926851272583, 3.9167323112487793, -51.51829147338867, -17.54996109008789, -7.4994964599609375, -0.84619140625, 0.072509765625, -0.158935546875, 
379, 3538826332, 0.4825349450111389, -0.4974163770675659, -0.23969200253486633, -0.6799031496047974, 8.984206199645996, -1.3081921339035034, 3.940032958984375, -52.88681411743164, -18.72606658935547, -7.581615924835205, -0.84814453125, 0.072021484375, -0.158447265625, 
380, 3538834665, 0.4798748791217804, -0.5001895427703857, -0.23807601630687714, -0.6803189516067505, 8.914098739624023, -1.3877934217453003, 3.9533300399780273, -53.53274917602539, -20.83518409729004, -7.489587783813477, -0.84814453125, 0.072021484375, -0.156982421875, 
381, 3538842998, 0.47725656628608704, -0.5030004382133484, -0.23646731674671173, -0.68064945936203, 8.97493839263916, -1.484750509262085, 3.967773675918579, -53.13766860961914, -21.685985565185547, -6.480177402496338, -0.84912109375, 0.07080078125, -0.150146484375, 
382, 3538851331, 0.47466805577278137, -0.5057976245880127, -0.23502323031425476, -0.6808866262435913, 9.049933433532715, -1.6346694231033325, 3.8977155685424805, -51.00751495361328, -23.187156677246094, -6.7540693283081055, -0.85009765625, 0.071044921875, -0.148681640625, 
383, 3538859664, 0.47225773334503174, -0.5083635449409485, -0.233737975358963, -0.6810941696166992, 9.14309024810791, -1.8162784576416016, 3.8501458168029785, -46.6651611328125, -21.689300537109375, -6.761700630187988, -0.85009765625, 0.070556640625, -0.146728515625, 
384, 3538867997, 0.4700947701931, -0.5106106400489807, -0.23271048069000244, -0.6812613606452942, 9.134819984436035, -1.9594099521636963, 3.766026735305786, -40.33141326904297, -19.864118576049805, -6.993275165557861, -0.85009765625, 0.069580078125, -0.144287109375, 
385, 3538876330, 0.4682140350341797, -0.5124912261962891, -0.23198367655277252, -0.6813923716545105, 9.054450035095215, -2.0765023231506348, 3.6871628761291504, -33.037296295166016, -17.7243709564209, -7.415318965911865, -0.84765625, 0.06982421875, -0.143798828125, 
386, 3538884663, 0.46663981676101685, -0.5140537023544312, -0.23162655532360077, -0.681416928768158, 9.03711223602295, -2.244351387023926, 3.631169557571411, -25.17167854309082, -16.873659133911133, -7.516900539398193, -0.845947265625, 0.0673828125, -0.13916015625, 
387, 3538892996, 0.4653972089290619, -0.5154011845588684, -0.23165960609912872, -0.6812374591827393, 9.055378913879395, -2.3107564449310303, 3.548654079437256, -16.996654510498047, -17.770715713500977, -6.506236553192139, -0.847412109375, 0.06494140625, -0.14013671875, 
388, 3538901329, 0.46446487307548523, -0.5165892839431763, -0.23210656642913818, -0.6808215975761414, 9.144386291503906, -2.256343364715576, 3.5037381649017334, -9.190966606140137, -19.608739852905273, -5.526106357574463, -0.85009765625, 0.068603515625, -0.137451171875, 
389, 3538909662, 0.46377870440483093, -0.5176284909248352, -0.23279711604118347, -0.6802640557289124, 9.207037925720215, -2.06828236579895, 3.5234172344207764, -3.713540554046631, -19.998231887817383, -4.523437023162842, -0.8486328125, 0.068115234375, -0.13671875, 
390, 3538917995, 0.4632536768913269, -0.5185161828994751, -0.23357059061527252, -0.6796804666519165, 9.242923736572266, -1.8701359033584595, 3.548065423965454, -0.8899027705192566, -18.75406837463379, -3.9654297828674316, -0.8505859375, 0.064697265625, -0.1318359375, 
391, 3538926328, 0.46278485655784607, -0.5193015336990356, -0.2343061864376068, -0.6791468262672424, 9.239688873291016, -1.6507928371429443, 3.5374999046325684, -0.20382533967494965, -17.04398536682129, -3.775423765182495, -0.84912109375, 0.064453125, -0.12841796875, 
392, 3538934661, 0.4622777998447418, -0.5201147198677063, -0.23498475551605225, -0.6786351203918457, 9.177607536315918, -1.5020694732666016, 3.5521538257598877, -1.3693246841430664, -16.889787673950195, -3.8024985790252686, -0.849609375, 0.064453125, -0.12744140625, 
393, 3538942994, 0.46167615056037903, -0.5210827589035034, -0.23552915453910828, -0.6781131625175476, 9.165904998779297, -1.352324366569519, 3.605959177017212, -4.135586261749268, -17.878498077392578, -3.1346583366394043, -0.85107421875, 0.06591796875, -0.126953125, 
394, 3538951327, 0.460964560508728, -0.5223053693771362, -0.2358805537223816, -0.6775343418121338, 9.211088180541992, -1.3189702033996582, 3.610771656036377, -8.304306030273438, -19.767398834228516, -1.6291815042495728, -0.84716796875, 0.06494140625, -0.12158203125, 
395, 3538959660, 0.46012401580810547, -0.5237197875976562, -0.23604780435562134, -0.6769554018974304, 9.275766372680664, -1.3315151929855347, 3.539729356765747, -12.012763023376465, -20.82765007019043, -0.8459489941596985, -0.8505859375, 0.06298828125, -0.119140625, 
396, 3538967993, 0.4592178761959076, -0.525175929069519, -0.23613092303276062, -0.676413357257843, 9.305726051330566, -1.3827143907546997, 3.450453281402588, -13.75132942199707, -20.619152069091797, -0.9673861861228943, -0.84814453125, 0.06201171875, -0.117431640625, 
397, 3538976326, 0.4582606852054596, -0.5265344977378845, -0.236140176653862, -0.676003098487854, 9.321782112121582, -1.4977209568023682, 3.3471083641052246, -14.519190788269043, -18.472442626953125, -2.03995680809021, -0.85107421875, 0.065185546875, -0.11279296875, 
398, 3538984659, 0.457268089056015, -0.5277611613273621, -0.23612625896930695, -0.6757233142852783, 9.28223991394043, -1.6208412647247314, 3.275033473968506, -14.729509353637695, -16.24835968017578, -3.4849846363067627, -0.8515625, 0.064697265625, -0.1123046875, 
399, 3538992992, 0.4562832713127136, -0.5288657546043396, -0.2361324578523636, -0.6755232214927673, 9.220925331115723, -1.7651787996292114, 3.1310877799987793, -13.832525253295898, -14.657970428466797, -4.423336982727051, -0.8525390625, 0.064453125, -0.10791015625, 
400, 3539001325, 0.4553874731063843, -0.5299123525619507, -0.23629318177700043, -0.675251305103302, 9.133194923400879, -1.8634432554244995, 3.0742597579956055, -11.15158462524414, -15.322710037231445, -4.457428932189941, -0.849609375, 0.0625, -0.10791015625, 
401, 3539009658, 0.4545261561870575, -0.5310275554656982, -0.23657219111919403, -0.6748577356338501, 9.111459732055664, -1.9004520177841187, 3.0546162128448486, -9.983421325683594, -17.45496940612793, -4.046422958374023, -0.85107421875, 0.06201171875, -0.10693359375, 
402, 3539017991, 0.4536608159542084, -0.5322394967079163, -0.2368653267621994, -0.6743821501731873, 9.142029762268066, -1.8085167407989502, 3.003354549407959, -10.141512870788574, -19.06490135192871, -3.3337836265563965, -0.8505859375, 0.061279296875, -0.103515625, 
403, 3539026324, 0.45280489325523376, -0.5334795117378235, -0.2371159940958023, -0.6738893985748291, 9.259061813354492, -1.7552300691604614, 3.0034475326538086, -10.516786575317383, -19.163230895996094, -2.7304913997650146, -0.853515625, 0.061767578125, -0.1025390625, 
404, 3539034657, 0.4519646167755127, -0.5346426367759705, -0.23719289898872375, -0.6735044121742249, 9.361123085021973, -1.811824917793274, 3.164050340652466, -11.958996772766113, -16.519433975219727, -2.239901542663574, -0.85205078125, 0.0615234375, -0.0986328125, 
405, 3539042990, 0.45120471715927124, -0.5357808470726013, -0.2372141182422638, -0.6731019616127014, 9.383999824523926, -1.9291068315505981, 3.156074285507202, -11.598090171813965, -15.815755844116211, -1.0522714853286743, -0.85302734375, 0.0595703125, -0.095703125, 
406, 3539051323, 0.4505893886089325, -0.5368942022323608, -0.23738673329353333, -0.6725659966468811, 9.2957763671875, -2.035872459411621, 3.118525266647339, -8.58577823638916, -17.034021377563477, -0.0795450285077095, -0.85009765625, 0.060546875, -0.095458984375, 
407, 3539059656, 0.4500854015350342, -0.5379729866981506, -0.2377033233642578, -0.6719293594360352, 9.313956260681152, -2.0550363063812256, 3.1750693321228027, -5.84520959854126, -17.990768432617188, 0.39589381217956543, -0.853515625, 0.062255859375, -0.09228515625, 
408, 3539067989, 0.44964173436164856, -0.5390780568122864, -0.23808734118938446, -0.6712042093276978, 9.339725494384766, -1.9734408855438232, 3.182497262954712, -4.7589850425720215, -19.093175888061523, 1.066781997680664, -0.85302734375, 0.06298828125, -0.0888671875, 
409, 3539076322, 0.4492529034614563, -0.5401439666748047, -0.2385016828775406, -0.670460045337677, 9.380057334899902, -1.9326090812683105, 3.0860819816589355, -3.659801483154297, -18.894256591796875, 1.3584257364273071, -0.8515625, 0.060546875, -0.0869140625, 
410, 3539084655, 0.44900450110435486, -0.5411277413368225, -0.2390524446964264, -0.6696364879608154, 9.388070106506348, -1.9589481353759766, 2.9224958419799805, -0.5905235409736633, -19.110031127929688, 1.8619250059127808, -0.8544921875, 0.0615234375, -0.0859375, 
411, 3539092988, 0.4489346742630005, -0.5419751405715942, -0.23975159227848053, -0.6687476634979248, 9.346936225891113, -2.0238165855407715, 2.8015193939208984, 3.1153573989868164, -18.664392471313477, 2.354998826980591, -0.85400390625, 0.058837890625, -0.08154296875, 
412, 3539101321, 0.44901707768440247, -0.5427438020706177, -0.24058949947357178, -0.667767345905304, 9.30231761932373, -2.058652400970459, 2.758589506149292, 6.375666618347168, -18.98882484436035, 3.0464043617248535, -0.853515625, 0.061279296875, -0.07958984375, 
413, 3539109654, 0.4492047429084778, -0.5435017943382263, -0.24147216975688934, -0.6667050123214722, 9.284139633178711, -1.9627511501312256, 2.7239952087402344, 7.892183780670166, -19.42275619506836, 4.130322456359863, -0.853515625, 0.060546875, -0.07666015625, 
414, 3539117987, 0.4495086073875427, -0.5442299842834473, -0.24249348044395447, -0.6655345559120178, 9.281970977783203, -1.9509119987487793, 2.5106563568115234, 10.578402519226074, -20.42975616455078, 4.728902339935303, -0.855712890625, 0.061279296875, -0.07275390625, 
415, 3539126320, 0.44988933205604553, -0.5449414253234863, -0.24360907077789307, -0.6642865538597107, 9.284292221069336, -1.8993394374847412, 2.5764148235321045, 12.358132362365723, -21.18299674987793, 5.157378196716309, -0.853271484375, 0.063232421875, -0.06982421875, 
416, 3539134653, 0.45020899176597595, -0.5458680987358093, -0.24460864067077637, -0.6629406213760376, 9.233261108398438, -1.6774609088897705, 2.855365753173828, 9.764049530029297, -23.356239318847656, 6.773329734802246, -0.851318359375, 0.0625, -0.06640625, 
417, 3539142986, 0.45028212666511536, -0.5470632910728455, -0.24533279240131378, -0.6616367101669312, 9.19301700592041, -1.3279632329940796, 3.0419089794158936, 3.690937042236328, -24.62578582763672, 7.251804828643799, -0.855712890625, 0.06494140625, -0.063720703125, 
418, 3539151319, 0.45004546642303467, -0.5484243631362915, -0.24574580788612366, -0.6605167388916016, 9.254193305969238, -1.081297755241394, 3.0097053050994873, -3.209273099899292, -23.85573959350586, 6.179514408111572, -0.852294921875, 0.06005859375, -0.05810546875, 
419, 3539159652, 0.44955745339393616, -0.5498905181884766, -0.2458927184343338, -0.6595748662948608, 9.378661155700684, -1.0453872680664062, 2.8314149379730225, -8.683115005493164, -22.684913635253906, 5.1714396476745605, -0.853759765625, 0.064453125, -0.056396484375, 
420, 3539167985, 0.44895753264427185, -0.5513558387756348, -0.24584843218326569, -0.6587762236595154, 9.550712585449219, -1.1795437335968018, 2.8292784690856934, -11.81171703338623, -20.780649185180664, 4.707284450531006, -0.855712890625, 0.06494140625, -0.054443359375, 
421, 3539176318, 0.448210746049881, -0.5528494715690613, -0.24552002549171448, -0.6581552028656006, 9.689116477966309, -1.3611599206924438, 2.946913242340088, -16.204994201660156, -18.44155502319336, 4.5375895500183105, -0.855712890625, 0.065673828125, -0.053466796875, 
422, 3539184651, 0.4474220871925354, -0.5543423891067505, -0.24495907127857208, -0.657644510269165, 9.695427894592285, -1.5497647523880005, 2.992372989654541, -19.0267391204834, -16.30463409423828, 5.249999046325684, -0.855712890625, 0.067138671875, -0.051025390625, 
423, 3539192984, 0.44659334421157837, -0.5558689832687378, -0.24417541921138763, -0.6572107076644897, 9.583958625793457, -1.7874093055725098, 3.051907777786255, -21.780986785888672, -14.788578987121582, 6.218320369720459, -0.854248046875, 0.068359375, -0.047607421875, 
424, 3539201317, 0.4458881616592407, -0.5573322176933289, -0.24336017668247223, -0.6567526459693909, 9.484811782836914, -2.002488136291504, 3.0407819747924805, -20.745277404785156, -13.77894401550293, 7.502542972564697, -0.853759765625, 0.069091796875, -0.04345703125, 
425, 3539209650, 0.4454217851161957, -0.5586178302764893, -0.24262484908103943, -0.6562486886978149, 9.447224617004395, -2.1826093196868896, 3.044097423553467, -16.858797073364258, -12.231097221374512, 8.744293212890625, -0.851806640625, 0.068115234375, -0.041259765625, 
426, 3539217983, 0.44508522748947144, -0.5597797632217407, -0.24197617173194885, -0.6557260751724243, 9.381659507751465, -2.274230718612671, 3.0245361328125, -14.284486770629883, -11.355396270751953, 8.958786010742188, -0.850341796875, 0.068603515625, -0.043701171875, 
427, 3539226316, 0.44498905539512634, -0.5607826113700867, -0.24167931079864502, -0.6550437211990356, 9.274767875671387, -2.2364888191223145, 2.9396026134490967, -7.729750633239746, -12.503758430480957, 8.859607696533203, -0.85546875, 0.070556640625, -0.04052734375, 
428, 3539234649, 0.44506874680519104, -0.5616950392723083, -0.24169576168060303, -0.654201328754425, 9.357129096984863, -2.134298086166382, 3.0088798999786377, -2.4946861267089844, -14.258307456970215, 8.713604927062988, -0.85595703125, 0.072265625, -0.03759765625, 
429, 3539242982, 0.4452162981033325, -0.5624260306358337, -0.241634801030159, -0.6534949541091919, 9.574505805969238, -2.111133575439453, 2.9702253341674805, -1.980710744857788, -10.873590469360352, 8.478927612304688, -0.85546875, 0.07275390625, -0.037109375, 
430, 3539251315, 0.4454740583896637, -0.5629599690437317, -0.241596981883049, -0.6528732180595398, 9.673686981201172, -2.172168016433716, 2.7797369956970215, 0.0012550975661724806, -8.230429649353027, 8.129216194152832, -0.85693359375, 0.07666015625, -0.037353515625, 
431, 3539259648, 0.44581589102745056, -0.5633750557899475, -0.24172526597976685, -0.6522341966629028, 9.578949928283691, -2.1758229732513428, 2.5809473991394043, 2.933650016784668, -8.028026580810547, 7.296881675720215, -0.8544921875, 0.076416015625, -0.033935546875, 
432, 3539267981, 0.446214884519577, -0.5637040734291077, -0.24189393222332, -0.6516140699386597, 9.51091480255127, -2.0975794792175293, 2.4723575115203857, 4.131474018096924, -7.161907196044922, 7.089073181152344, -0.85400390625, 0.075927734375, -0.032470703125, 
433, 3539276314, 0.4466799795627594, -0.5640110373497009, -0.24214327335357666, -0.650937020778656, 9.39139175415039, -2.0715718269348145, 2.5254805088043213, 5.760693550109863, -7.687536716461182, 7.339554786682129, -0.8525390625, 0.078125, -0.032470703125, 
434, 3539284647, 0.44708386063575745, -0.564446747303009, -0.24237366020679474, -0.6501958966255188, 9.35226821899414, -2.063901424407959, 2.5513176918029785, 4.457799434661865, -9.415038108825684, 7.748460292816162, -0.857666015625, 0.080078125, -0.029296875, 
435, 3539292980, 0.44770926237106323, -0.5647843480110168, -0.24284763634204865, -0.6492949724197388, 9.354568481445312, -2.1085214614868164, 2.420395612716675, 9.573553085327148, -10.545498847961426, 8.505260467529297, -0.857666015625, 0.0791015625, -0.02685546875, 
436, 3539301313, 0.4486243426799774, -0.565005898475647, -0.2434854358434677, -0.6482306718826294, 9.355904579162598, -2.101278781890869, 2.7035670280456543, 14.468565940856934, -10.812708854675293, 10.429377555847168, -0.856201171875, 0.08251953125, -0.029296875, 
437, 3539309646, 0.4490797519683838, -0.5656077265739441, -0.24394316971302032, -0.6472177505493164, 9.345924377441406, -1.9026597738265991, 2.6158647537231445, 6.85291051864624, -14.239096641540527, 8.695215225219727, -0.854736328125, 0.083740234375, -0.02783203125, 
438, 3539317979, 0.44913414120674133, -0.5663917064666748, -0.24391549825668335, -0.646504282951355, 9.326675415039062, -1.6861822605133057, 2.203998327255249, -2.787482261657715, -11.872903823852539, 7.655634880065918, -0.856689453125, 0.083984375, -0.023193359375, 
439, 3539326312, 0.4490211009979248, -0.5672407746315002, -0.24375227093696594, -0.6458996534347534, 9.133464813232422, -1.470425009727478, 2.1998291015625, -5.993589878082275, -11.334901809692383, 6.777348041534424, -0.855712890625, 0.08544921875, -0.020751953125, 
440, 3539334645, 0.4488314092159271, -0.5680996775627136, -0.2435171753168106, -0.6453651785850525, 8.965723037719727, -1.240108847618103, 2.752420663833618, -7.718786716461182, -10.655919075012207, 6.2191877365112305, -0.849365234375, 0.083740234375, -0.02001953125, 
441, 3539342978, 0.44850650429725647, -0.5689840912818909, -0.2431728094816208, -0.6449415683746338, 9.076786041259766, -1.198921799659729, 2.872797727584839, -10.080598831176758, -9.825968742370605, 5.311675548553467, -0.855712890625, 0.084228515625, -0.018798828125, 
442, 3539351311, 0.4481504261493683, -0.5697913765907288, -0.2428511679172516, -0.6445973515510559, 9.365854263305664, -1.4399837255477905, 2.5160269737243652, -10.003758430480957, -8.754423141479492, 4.098176956176758, -0.857177734375, 0.085205078125, -0.017333984375, 
443, 3539359644, 0.4479547142982483, -0.5703712701797485, -0.24267204105854034, -0.6442880630493164, 9.60776138305664, -1.7704917192459106, 2.394671678543091, -6.109058380126953, -6.81972599029541, 3.4411442279815674, -0.858154296875, 0.088623046875, -0.01513671875, 
444, 3539367977, 0.44802212715148926, -0.5706020593643188, -0.24260781705379486, -0.6440607905387878, 9.801602363586426, -2.2098207473754883, 2.807616949081421, -1.3168662786483765, -2.887531280517578, 3.171221971511841, -0.856689453125, 0.087158203125, -0.017822265625, 
