sep=,
PacketCounter,SampleTimeFine,Quat_W,Quat_X,Quat_Y,Quat_Z,Acc_X,Acc_Y,Acc_Z,Gyr_X,Gyr_Y,Gyr_Z,Mag_X,Mag_Y,Mag_Z,
0, 3363775001, 0.4416525959968567, -0.44840624928474426, -0.46636348962783813, -0.6215788125991821, 0, 0, 0, 0, 0, 0, -0.7802734375, -0.2099609375, 0.123046875, 
1, 3363783334, 0.44154247641563416, -0.4484297037124634, -0.46629488468170166, -0.6216915249824524, 9.504961013793945, 1.8366992473602295, 1.6107475757598877, -2.587268114089966, 0.4933430254459381, -1.1310222148895264, -0.78125, -0.21435546875, 0.123779296875, 
2, 3363791667, 0.4414110779762268, -0.4484642446041107, -0.4661971926689148, -0.6218332052230835, 9.50532341003418, 1.8297868967056274, 1.6521474123001099, -2.5573248863220215, 0.7493827939033508, -1.1291522979736328, -0.78076171875, -0.21337890625, 0.121337890625, 
3, 3363800000, 0.44130855798721313, -0.44846659898757935, -0.46611663699150085, -0.6219648122787476, 9.511659622192383, 1.8027634620666504, 1.6284078359603882, -2.6364219188690186, 0.9103682637214661, -1.2424696683883667, -0.78076171875, -0.212890625, 0.123291015625, 
4, 3363808333, 0.4412034749984741, -0.44847315549850464, -0.4660336375236511, -0.6220966577529907, 9.550042152404785, 1.7883336544036865, 1.6415307521820068, -2.5469260215759277, 0.9110087156295776, -1.1998220682144165, -0.77880859375, -0.2138671875, 0.124267578125, 
5, 3363816666, 0.44112592935562134, -0.44845548272132874, -0.4659819006919861, -0.6222031712532043, 9.586092948913574, 1.7420189380645752, 1.6343826055526733, -1.9533929824829102, 0.9130066633224487, -1.183095932006836, -0.78125, -0.2138671875, 0.122802734375, 
6, 3363824999, 0.4410717189311981, -0.44842326641082764, -0.46594762802124023, -0.6222904324531555, 9.623990058898926, 1.7400909662246704, 1.5961486101150513, -1.487418532371521, 0.961980938911438, -1.0781543254852295, -0.7802734375, -0.21240234375, 0.1220703125, 
7, 3363833332, 0.4410494565963745, -0.44837111234664917, -0.46591687202453613, -0.6223667860031128, 9.659464836120605, 1.7846521139144897, 1.5850696563720703, -1.0304350852966309, 1.2494240999221802, -0.8768265843391418, -0.7783203125, -0.212890625, 0.119873046875, 
8, 3363841665, 0.441086083650589, -0.44827818870544434, -0.4659302532672882, -0.6223977208137512, 9.67989730834961, 1.7868750095367432, 1.5997692346572876, -0.8026476502418518, 1.2353618144989014, -0.8129702210426331, -0.779296875, -0.21337890625, 0.124267578125, 
9, 3363849998, 0.4410865008831024, -0.4482397437095642, -0.4658917188644409, -0.622454047203064, 9.633135795593262, 1.8311209678649902, 1.590413212776184, -0.9120204448699951, 1.2008849382400513, -0.4270917475223541, -0.7802734375, -0.2138671875, 0.120849609375, 
10, 3363858331, 0.4410710334777832, -0.44822219014167786, -0.465840220451355, -0.6225160956382751, 9.613720893859863, 1.871362566947937, 1.598781943321228, -1.2471059560775757, 1.04714834690094, -0.3789369761943817, -0.779052734375, -0.21533203125, 0.121337890625, 
11, 3363866664, 0.4410460591316223, -0.4482177197933197, -0.4657716453075409, -0.6225883960723877, 9.603429794311523, 1.875913381576538, 1.5945111513137817, -1.6351615190505981, 1.028347373008728, -0.33618682622909546, -0.78125, -0.21142578125, 0.12158203125, 
12, 3363874997, 0.4410066306591034, -0.448224276304245, -0.46568575501441956, -0.6226757168769836, 9.59004020690918, 1.888238787651062, 1.5986112356185913, -1.912435531616211, 1.0679214000701904, -0.3579845428466797, -0.77978515625, -0.2119140625, 0.1220703125, 
13, 3363883330, 0.4409621059894562, -0.44823896884918213, -0.46557560563087463, -0.6227790713310242, 9.575831413269043, 1.9009631872177124, 1.5933364629745483, -2.425898551940918, 1.1829806566238403, -0.31377437710762024, -0.78076171875, -0.212890625, 0.122314453125, 
14, 3363891663, 0.44090408086776733, -0.4482669532299042, -0.46545708179473877, -0.6228885054588318, 9.568095207214355, 1.8735096454620361, 1.6197142601013184, -2.926042079925537, 1.0348535776138306, -0.3715857267379761, -0.780517578125, -0.216064453125, 0.121337890625, 
15, 3363899996, 0.4408201277256012, -0.4483199119567871, -0.4653213322162628, -0.6230112314224243, 9.567078590393066, 1.8301254510879517, 1.6124482154846191, -3.243607759475708, 0.875840425491333, -0.36815345287323, -0.78125, -0.214111328125, 0.120849609375, 
16, 3363908329, 0.44073158502578735, -0.4483782947063446, -0.4651795029640198, -0.6231378316879272, 9.589516639709473, 1.8375141620635986, 1.5857280492782593, -3.277366876602173, 0.8873923420906067, -0.33964473009109497, -0.779296875, -0.21435546875, 0.121337890625, 
17, 3363916662, 0.44066086411476135, -0.44842392206192017, -0.4650532007217407, -0.6232491731643677, 9.586756706237793, 1.8342337608337402, 1.5544215440750122, -2.96620512008667, 0.8983809947967529, -0.28867241740226746, -0.78271484375, -0.212158203125, 0.11962890625, 
18, 3363924995, 0.4405640661716461, -0.44847387075424194, -0.4649244546890259, -0.6233779191970825, 9.604724884033203, 1.8638845682144165, 1.5753397941589355, -2.8287081718444824, 0.9083448648452759, -0.5013474822044373, -0.77978515625, -0.21240234375, 0.119873046875, 
19, 3363933328, 0.4404662847518921, -0.44852006435394287, -0.46479326486587524, -0.6235114932060242, 9.623466491699219, 1.8090920448303223, 1.5718494653701782, -3.31927227973938, 0.8870850801467896, -0.6220417618751526, -0.78125, -0.212890625, 0.12109375, 
20, 3363941661, 0.4403601288795471, -0.44857698678970337, -0.4646493196487427, -0.6236529350280762, 9.608064651489258, 1.759369969367981, 1.5707101821899414, -3.637477397918701, 0.86631178855896, -0.602728545665741, -0.77978515625, -0.214111328125, 0.119384765625, 
21, 3363949994, 0.44025498628616333, -0.4486462473869324, -0.46451184153556824, -0.6237796545028687, 9.605973243713379, 1.7919374704360962, 1.57854425907135, -3.51350474357605, 0.6357325911521912, -0.45967307686805725, -0.7802734375, -0.21484375, 0.121337890625, 
22, 3363958327, 0.4401174783706665, -0.4487508237361908, -0.4643590748310089, -0.6239150762557983, 9.596414566040039, 1.775966763496399, 1.6100722551345825, -3.1088762283325195, 0.47172456979751587, -0.2968945801258087, -0.78076171875, -0.214599609375, 0.119873046875, 
23, 3363966660, 0.44005224108695984, -0.44881123304367065, -0.46426814794540405, -0.6239854097366333, 9.580303192138672, 1.7668224573135376, 1.648540735244751, -2.4555084705352783, 0.33794140815734863, -0.11744125932455063, -0.780517578125, -0.215576171875, 0.119873046875, 
24, 3363974993, 0.4400307536125183, -0.4488338232040405, -0.4642149806022644, -0.6240238547325134, 9.560532569885254, 1.7945525646209717, 1.64078688621521, -1.8683534860610962, 0.4419351816177368, -0.10204710811376572, -0.78076171875, -0.21533203125, 0.122314453125, 
25, 3363983326, 0.43999800086021423, -0.4488704800605774, -0.46415385603904724, -0.6240661144256592, 9.563897132873535, 1.7843762636184692, 1.6638216972351074, -1.6744282245635986, 0.3942415416240692, -0.0046874056570231915, -0.78076171875, -0.215087890625, 0.120361328125, 
26, 3363991659, 0.4399796724319458, -0.44888967275619507, -0.46410006284713745, -0.6241052150726318, 9.573944091796875, 1.7424612045288086, 1.6429722309112549, -1.3596547842025757, 0.5889608860015869, -0.015803981572389603, -0.78076171875, -0.214599609375, 0.119873046875, 
27, 3363999992, 0.43997377157211304, -0.4489014446735382, -0.46406757831573486, -0.624125063419342, 9.564531326293945, 1.74152410030365, 1.6576284170150757, -0.9687816500663757, 0.4677543640136719, 0.02580634318292141, -0.77978515625, -0.212158203125, 0.117919921875, 
28, 3364008325, 0.439974844455719, -0.448906809091568, -0.46404898166656494, -0.6241343021392822, 9.593671798706055, 1.7813225984573364, 1.6317781209945679, -0.5896652936935425, 0.44836434721946716, 0.039740484207868576, -0.778076171875, -0.21630859375, 0.120849609375, 
29, 3364016658, 0.43999990820884705, -0.44888561964035034, -0.46404924988746643, -0.6241316199302673, 9.588736534118652, 1.8067437410354614, 1.6035958528518677, -0.155299112200737, 0.6126028299331665, 0.014510463923215866, -0.780517578125, -0.215087890625, 0.118408203125, 
30, 3364024991, 0.43999776244163513, -0.44890010356903076, -0.4640340507030487, -0.624133825302124, 9.573966979980469, 1.8138679265975952, 1.5997406244277954, -0.018800847232341766, 0.3946513235569, 0.19042903184890747, -0.781005859375, -0.216064453125, 0.118408203125, 
31, 3364033324, 0.44002246856689453, -0.4488816559314728, -0.4640493392944336, -0.624118447303772, 9.570883750915527, 1.8003060817718506, 1.6065216064453125, 0.037614498287439346, 0.4155524969100952, 0.01387010794132948, -0.77978515625, -0.21337890625, 0.120361328125, 
32, 3364041657, 0.4400159418582916, -0.44889339804649353, -0.46405351161956787, -0.6241114735603333, 9.544081687927246, 1.8177376985549927, 1.5865648984909058, 0.09693706035614014, 0.1970631182193756, 0.05411006882786751, -0.7802734375, -0.213623046875, 0.119873046875, 
33, 3364049990, 0.4400213956832886, -0.4489041268825531, -0.46406564116477966, -0.6240909099578857, 9.541462898254395, 1.847779631614685, 1.5894474983215332, -0.25247952342033386, 0.030237607657909393, 0.0846678614616394, -0.78125, -0.215087890625, 0.119384765625, 
34, 3364058323, 0.44001951813697815, -0.4489312767982483, -0.46405306458473206, -0.6240821480751038, 9.524088859558105, 1.8488596677780151, 1.5885820388793945, -0.6357964873313904, 0.0835152119398117, 0.21486499905586243, -0.783203125, -0.214111328125, 0.11962890625, 
35, 3364066656, 0.4400034546852112, -0.4489714205265045, -0.46403270959854126, -0.624079704284668, 9.51323127746582, 1.8231453895568848, 1.6060569286346436, -0.9573320150375366, -0.051407765597105026, 0.17880016565322876, -0.780517578125, -0.215087890625, 0.119384765625, 
36, 3364074989, 0.4400109350681305, -0.4489954113960266, -0.4640234708786011, -0.6240640878677368, 9.560225486755371, 1.798067569732666, 1.5896053314208984, -0.8659660220146179, 0.03605203330516815, 0.2301054745912552, -0.7802734375, -0.214111328125, 0.118408203125, 
37, 3364083322, 0.4400215744972229, -0.44902366399765015, -0.46400851011276245, -0.6240473985671997, 9.608342170715332, 1.8005636930465698, 1.6101478338241577, -0.5855157971382141, 0.10267465561628342, 0.38525086641311646, -0.78173828125, -0.213623046875, 0.120361328125, 
38, 3364091655, 0.44003841280937195, -0.4490518867969513, -0.46397843956947327, -0.6240375638008118, 9.626260757446289, 1.7924805879592896, 1.5915287733078003, -0.4873620271682739, 0.3272090256214142, 0.5283063650131226, -0.7802734375, -0.214111328125, 0.118896484375, 
39, 3364099988, 0.44008326530456543, -0.44907575845718384, -0.4639652967453003, -0.6239984631538391, 9.669849395751953, 1.7719022035598755, 1.5912643671035767, -0.18803410232067108, 0.20823092758655548, 0.7743824124336243, -0.7802734375, -0.214111328125, 0.119384765625, 
40, 3364108321, 0.44014716148376465, -0.4490834176540375, -0.46397778391838074, -0.6239386796951294, 9.707852363586426, 1.796565294265747, 1.5860427618026733, 0.33888909220695496, 0.18643321096897125, 0.7924402952194214, -0.781005859375, -0.216064453125, 0.120361328125, 
41, 3364116654, 0.44020986557006836, -0.44910702109336853, -0.4639716148376465, -0.6238818764686584, 9.6973876953125, 1.82137131690979, 1.5860928297042847, 0.0963735580444336, 0.1732930988073349, 0.9912835955619812, -0.78125, -0.213623046875, 0.118896484375, 
42, 3364124987, 0.44027620553970337, -0.4491378962993622, -0.4639677107334137, -0.6238158345222473, 9.687990188598633, 1.8256632089614868, 1.5899052619934082, 0.0188904982060194, 0.04634895548224449, 1.0838278532028198, -0.778564453125, -0.213623046875, 0.118896484375, 
43, 3364133320, 0.44033703207969666, -0.4491822421550751, -0.46394217014312744, -0.623759925365448, 9.665929794311523, 1.8477438688278198, 1.6105340719223022, -0.21290551126003265, 0.10551784187555313, 1.2223752737045288, -0.781005859375, -0.215576171875, 0.118896484375, 
44, 3364141653, 0.44036656618118286, -0.44924867153167725, -0.4639075696468353, -0.6237169504165649, 9.624327659606934, 1.9053382873535156, 1.6214922666549683, -0.04070102050900459, -0.013882914558053017, 1.181085228919983, -0.78173828125, -0.212158203125, 0.11962890625, 
45, 3364149986, 0.4404272437095642, -0.44929346442222595, -0.46387994289398193, -0.6236623525619507, 9.614766120910645, 1.927612543106079, 1.6197826862335205, -0.24172154068946838, 0.12016917765140533, 1.2277286052703857, -0.779296875, -0.212646484375, 0.118896484375, 
46, 3364158319, 0.44047003984451294, -0.44934988021850586, -0.46381857991218567, -0.6236372590065002, 9.567543029785156, 1.9012972116470337, 1.623974323272705, -0.7455534934997559, 0.3345347046852112, 1.2023706436157227, -0.7822265625, -0.213134765625, 0.119140625, 
47, 3364166652, 0.4405084252357483, -0.4494054317474365, -0.46374017000198364, -0.6236284375190735, 9.579156875610352, 1.900189757347107, 1.6085370779037476, -1.1729013919830322, 0.4760277569293976, 1.1421772241592407, -0.78076171875, -0.214111328125, 0.116943359375, 
48, 3364174985, 0.4405307173728943, -0.44946810603141785, -0.46364471316337585, -0.6236382126808167, 9.564504623413086, 1.8712830543518066, 1.6169215440750122, -1.4627522230148315, 0.5635004043579102, 1.0603652000427246, -0.78173828125, -0.215087890625, 0.118896484375, 
49, 3364183318, 0.4405522644519806, -0.4495307207107544, -0.46355459094047546, -0.6236449480056763, 9.556120872497559, 1.8507206439971924, 1.5903695821762085, -1.5200254917144775, 0.47628387808799744, 1.0205862522125244, -0.7802734375, -0.212646484375, 0.117431640625, 
50, 3364191651, 0.44054269790649414, -0.44961050152778625, -0.46345168352127075, -0.6236708164215088, 9.567458152770996, 1.8351492881774902, 1.5923079252243042, -1.9407650232315063, 0.35774120688438416, 0.8429516553878784, -0.77880859375, -0.213134765625, 0.119384765625, 
51, 3364199984, 0.4405254125595093, -0.44969481229782104, -0.4633501172065735, -0.6236976981163025, 9.598289489746094, 1.811033010482788, 1.5794183015823364, -2.1163508892059326, 0.2350490391254425, 0.7752277255058289, -0.78173828125, -0.212158203125, 0.1181640625, 
52, 3364208317, 0.4405113756656647, -0.44978898763656616, -0.46324682235717773, -0.623716413974762, 9.596212387084961, 1.8076516389846802, 1.6004177331924438, -2.3379135131835938, 0.10262343287467957, 0.8866751194000244, -0.78173828125, -0.212646484375, 0.1181640625, 
53, 3364216650, 0.44047337770462036, -0.4499177634716034, -0.46313029527664185, -0.6237369775772095, 9.612885475158691, 1.8217476606369019, 1.604095697402954, -2.6038153171539307, -0.2243807017803192, 1.0108274221420288, -0.7822265625, -0.21142578125, 0.12109375, 
54, 3364224983, 0.4404449462890625, -0.45003852248191833, -0.4630177319049835, -0.6237533092498779, 9.623761177062988, 1.806942105293274, 1.607263207435608, -2.9063193798065186, -0.22358667850494385, 0.9605211019515991, -0.78125, -0.212158203125, 0.1181640625, 
55, 3364233316, 0.44039386510849, -0.4501926600933075, -0.46287664771080017, -0.6237828135490417, 9.62232494354248, 1.7938772439956665, 1.6138361692428589, -3.105905294418335, -0.3212537467479706, 1.1561369895935059, -0.7841796875, -0.213623046875, 0.1201171875, 
56, 3364241649, 0.44033512473106384, -0.4503488540649414, -0.4627465307712555, -0.6238083243370056, 9.648697853088379, 1.7866848707199097, 1.6148228645324707, -3.151473045349121, -0.486593633890152, 1.0438697338104248, -0.7802734375, -0.211669921875, 0.11767578125, 
57, 3364249982, 0.44028639793395996, -0.4505061209201813, -0.4626210331916809, -0.6238222122192383, 9.621615409851074, 1.8096864223480225, 1.6141301393508911, -2.875274419784546, -0.525578498840332, 1.1970170736312866, -0.7802734375, -0.212646484375, 0.119873046875, 
58, 3364258315, 0.44024473428726196, -0.45064133405685425, -0.4624969959259033, -0.6238457560539246, 9.626004219055176, 1.8067128658294678, 1.6001780033111572, -2.908470630645752, -0.2582426965236664, 1.0194593667984009, -0.78076171875, -0.210693359375, 0.11767578125, 
59, 3364266648, 0.4401888847351074, -0.4507737457752228, -0.4623550772666931, -0.6238947510719299, 9.60102367401123, 1.8165491819381714, 1.6237564086914062, -3.134746789932251, -0.03995820879936218, 0.8653641939163208, -0.78076171875, -0.212646484375, 0.119384765625, 
60, 3364274981, 0.44013041257858276, -0.4509090781211853, -0.4622092545032501, -0.6239462494850159, 9.559361457824707, 1.8184043169021606, 1.6307159662246704, -3.1819279193878174, -0.02379562333226204, 0.8775308728218079, -0.78076171875, -0.212158203125, 0.119140625, 
61, 3364283314, 0.44007474184036255, -0.4510195255279541, -0.4620830714702606, -0.6239990592002869, 9.561331748962402, 1.7882963418960571, 1.6304806470870972, -2.890002965927124, 0.07762394100427628, 0.606455385684967, -0.78076171875, -0.211669921875, 0.11865234375, 
62, 3364291647, 0.44003334641456604, -0.45110297203063965, -0.4619801640510559, -0.6240444779396057, 9.566351890563965, 1.7557374238967896, 1.6269893646240234, -2.620438575744629, 0.18346194922924042, 0.4188055396080017, -0.78271484375, -0.212646484375, 0.1171875, 
63, 3364299980, 0.44000330567359924, -0.45116138458251953, -0.4618912935256958, -0.624089241027832, 9.598682403564453, 1.752074956893921, 1.6055635213851929, -2.0450403690338135, 0.41194087266921997, 0.31355664134025574, -0.78173828125, -0.21044921875, 0.12060546875, 
64, 3364308313, 0.43995898962020874, -0.45121657848358154, -0.4618071913719177, -0.6241426467895508, 9.636725425720215, 1.7434827089309692, 1.6079647541046143, -1.6444082260131836, 0.4726722538471222, 0.17075729370117188, -0.78125, -0.211181640625, 0.1181640625, 
65, 3364316646, 0.4399584233760834, -0.45123761892318726, -0.46175098419189453, -0.6241693496704102, 9.66672420501709, 1.7145649194717407, 1.639123797416687, -1.239805817604065, 0.6102463603019714, 0.23802030086517334, -0.78125, -0.211669921875, 0.119140625, 
66, 3364324979, 0.4399472177028656, -0.4512622654438019, -0.46171557903289795, -0.6241856813430786, 9.720198631286621, 1.6837005615234375, 1.6268569231033325, -0.8803612589836121, 0.36934447288513184, 0.13492296636104584, -0.78271484375, -0.211181640625, 0.1181640625, 
67, 3364333312, 0.43994492292404175, -0.4512718915939331, -0.46171990036964417, -0.6241772174835205, 9.705635070800781, 1.7406724691390991, 1.5966717004776, -0.44033434987068176, 0.11297159641981125, -0.014010987244546413, -0.78125, -0.213134765625, 0.117431640625, 
68, 3364341645, 0.43995401263237, -0.45127350091934204, -0.46173933148384094, -0.6241552829742432, 9.709025382995605, 1.7624104022979736, 1.6143680810928345, -0.2678992748260498, 0.06202486902475357, -0.008452696725726128, -0.78173828125, -0.213623046875, 0.119384765625, 
69, 3364349978, 0.43994781374931335, -0.45128151774406433, -0.46177107095718384, -0.6241304874420166, 9.650136947631836, 1.798553705215454, 1.6415560245513916, -0.11390650272369385, -0.16636447608470917, -0.12681609392166138, -0.78173828125, -0.212646484375, 0.119140625, 
70, 3364358311, 0.43992114067077637, -0.45130428671836853, -0.4617879390716553, -0.6241201162338257, 9.618635177612305, 1.8110712766647339, 1.6670629978179932, -0.4560358226299286, -0.21290551126003265, -0.19295203685760498, -0.78125, -0.212646484375, 0.1162109375, 
71, 3364366644, 0.43988269567489624, -0.451326847076416, -0.46180421113967896, -0.6241188645362854, 9.60112476348877, 1.8217289447784424, 1.6633292436599731, -0.6845147609710693, -0.2560654878616333, -0.3596750795841217, -0.78173828125, -0.213134765625, 0.11767578125, 
72, 3364374977, 0.43984484672546387, -0.4513521194458008, -0.4618162214756012, -0.6241185665130615, 9.578851699829102, 1.795864224433899, 1.6803029775619507, -1.0225458145141602, -0.2838825285434723, -0.36661651730537415, -0.78076171875, -0.213623046875, 0.118408203125, 
73, 3364383310, 0.43979960680007935, -0.45138442516326904, -0.46181949973106384, -0.6241247057914734, 9.57950210571289, 1.800449252128601, 1.6669342517852783, -0.9447042942047119, -0.2578585147857666, -0.3200242817401886, -0.78125, -0.2119140625, 0.12158203125, 
74, 3364391643, 0.43981125950813293, -0.4513581395149231, -0.46186918020248413, -0.6240986585617065, 9.558480262756348, 1.830426573753357, 1.6240746974945068, -0.7042121291160583, -0.06042398139834404, -0.48562026023864746, -0.78369140625, -0.212646484375, 0.11962890625, 
75, 3364399976, 0.43979522585868835, -0.45134103298187256, -0.4618898332118988, -0.6241070628166199, 9.567814826965332, 1.8364423513412476, 1.5861858129501343, -0.3322678506374359, 0.2616878151893616, -0.5046772360801697, -0.7822265625, -0.213623046875, 0.119384765625, 
76, 3364408309, 0.43978098034858704, -0.4513132572174072, -0.4619055390357971, -0.6241254210472107, 9.564494132995605, 1.8151119947433472, 1.5674097537994385, -0.28101375699043274, 0.481253057718277, -0.5733234286308289, -0.78173828125, -0.211669921875, 0.1181640625, 
77, 3364416642, 0.4397587180137634, -0.4512908458709717, -0.46191972494125366, -0.6241468191146851, 9.555476188659668, 1.8232954740524292, 1.6182520389556885, -0.4743499755859375, 0.38589122891426086, -0.6309809684753418, -0.78271484375, -0.212646484375, 0.1171875, 
78, 3364424975, 0.4396994709968567, -0.45130929350852966, -0.46190834045410156, -0.6241837739944458, 9.560504913330078, 1.810563087463379, 1.6059138774871826, -0.8581537008285522, 0.13932862877845764, -0.5547530651092529, -0.7802734375, -0.212646484375, 0.117431640625, 
79, 3364433308, 0.4396531581878662, -0.45132148265838623, -0.46189257502555847, -0.6242192387580872, 9.568408012390137, 1.7867085933685303, 1.6076157093048096, -1.1787415742874146, 0.20441441237926483, -0.5151278376579285, -0.7802734375, -0.211181640625, 0.119140625, 
80, 3364441641, 0.4395969808101654, -0.45135366916656494, -0.4618525803089142, -0.624265193939209, 9.534260749816895, 1.781866192817688, 1.601449966430664, -1.3705922365188599, 0.24452629685401917, -0.34133532643318176, -0.78125, -0.211181640625, 0.1181640625, 
81, 3364449974, 0.43953439593315125, -0.45138299465179443, -0.46182870864868164, -0.6243057250976562, 9.580453872680664, 1.7769380807876587, 1.6079161167144775, -1.484703540802002, 0.0349506251513958, -0.527243435382843, -0.7802734375, -0.21142578125, 0.1201171875, 
82, 3364458307, 0.43946611881256104, -0.4514097273349762, -0.46182405948638916, -0.6243376731872559, 9.574530601501465, 1.755143165588379, 1.609139323234558, -1.4715121984481812, -0.16913078725337982, -0.6935310959815979, -0.78125, -0.214111328125, 0.117919921875, 
83, 3364466640, 0.43938082456588745, -0.45145338773727417, -0.4618237614631653, -0.6243664622306824, 9.597920417785645, 1.7533477544784546, 1.6373000144958496, -1.4359339475631714, -0.4491455554962158, -0.7058770060539246, -0.78173828125, -0.213623046875, 0.117431640625, 
84, 3364474973, 0.43928062915802, -0.45148730278015137, -0.4618209898471832, -0.6244146227836609, 9.621711730957031, 1.7635042667388916, 1.6122279167175293, -1.6014018058776855, -0.3078574538230896, -0.9964705109596252, -0.78173828125, -0.212646484375, 0.1181640625, 
85, 3364483306, 0.43917781114578247, -0.45150837302207947, -0.46180522441864014, -0.6244832873344421, 9.608619689941406, 1.7763890027999878, 1.628176212310791, -1.7937904596328735, -0.02351386658847332, -1.1448794603347778, -0.78076171875, -0.214599609375, 0.117431640625, 
86, 3364491639, 0.4390745460987091, -0.45152443647384644, -0.4617774784564972, -0.6245647668838501, 9.6453218460083, 1.7779816389083862, 1.6363714933395386, -1.8616169691085815, 0.19649958610534668, -1.170954704284668, -0.7822265625, -0.211669921875, 0.11865234375, 
87, 3364499972, 0.4389677047729492, -0.45154210925102234, -0.4617438018321991, -0.6246520280838013, 9.663926124572754, 1.7562170028686523, 1.6120333671569824, -2.071500062942505, 0.20372283458709717, -1.2027678489685059, -0.7802734375, -0.212646484375, 0.118408203125, 
88, 3364508305, 0.4388616681098938, -0.4515652060508728, -0.4617134928703308, -0.6247321963310242, 9.688758850097656, 1.729560136795044, 1.6634571552276611, -1.8973486423492432, 0.13377033174037933, -1.1178308725357056, -0.78271484375, -0.212890625, 0.11572265625, 
89, 3364516638, 0.43877851963043213, -0.4515741467475891, -0.4616965353488922, -0.6247966885566711, 9.693098068237305, 1.7111793756484985, 1.6813268661499023, -1.5834206342697144, 0.18602338433265686, -1.0211114883422852, -0.783203125, -0.2138671875, 0.1162109375, 
90, 3364524971, 0.43870246410369873, -0.4515798091888428, -0.46169471740722656, -0.6248471736907959, 9.693825721740723, 1.7289637327194214, 1.6840009689331055, -0.8505462408065796, 0.1781085580587387, -0.9134546518325806, -0.783203125, -0.214599609375, 0.117431640625, 
91, 3364533304, 0.43867504596710205, -0.45155274868011475, -0.4617267847061157, -0.6248621940612793, 9.694534301757812, 1.7599927186965942, 1.6619559526443481, -0.2833190858364105, 0.2450641691684723, -0.7776482105255127, -0.78173828125, -0.214111328125, 0.119873046875, 
92, 3364541637, 0.43870073556900024, -0.451474130153656, -0.4618126153945923, -0.6248376369476318, 9.655665397644043, 1.7968800067901611, 1.694565773010254, 0.03205621615052223, 0.2766978144645691, -0.925186276435852, -0.779541015625, -0.216064453125, 0.118408203125, 
93, 3364549970, 0.4386793375015259, -0.45142096281051636, -0.46185725927352905, -0.6248581409454346, 9.653584480285645, 1.799834132194519, 1.6629573106765747, -0.01744329370558262, 0.4681897759437561, -0.9997236728668213, -0.78076171875, -0.215087890625, 0.119384765625, 
94, 3364558303, 0.4386567771434784, -0.45136716961860657, -0.4618993103504181, -0.6248815655708313, 9.611117362976074, 1.8011001348495483, 1.636591911315918, 0.014945904724299908, 0.5250277519226074, -1.0057685375213623, -0.78125, -0.213134765625, 0.119873046875, 
95, 3364566636, 0.43863099813461304, -0.4512966573238373, -0.4619685411453247, -0.6248995065689087, 9.557321548461914, 1.8204843997955322, 1.6443527936935425, 0.28886452317237854, 0.42356979846954346, -1.286116361618042, -0.780029296875, -0.214599609375, 0.117431640625, 
96, 3364574969, 0.4385911226272583, -0.4512394070625305, -0.46202510595321655, -0.6249270439147949, 9.524353981018066, 1.7874740362167358, 1.6423571109771729, 0.15085503458976746, 0.4063570201396942, -1.2706965208053589, -0.7802734375, -0.214111328125, 0.118408203125, 
97, 3364583302, 0.4385661780834198, -0.45117390155792236, -0.4620816111564636, -0.6249500513076782, 9.496908187866211, 1.7619168758392334, 1.6276651620864868, 0.1222183108329773, 0.49429070949554443, -1.200692892074585, -0.77978515625, -0.213623046875, 0.117919921875, 
98, 3364591635, 0.4385853409767151, -0.45107269287109375, -0.4621790647506714, -0.6249376535415649, 9.505505561828613, 1.761387586593628, 1.6224578619003296, 0.8295810222625732, 0.5614256262779236, -1.1508219242095947, -0.78076171875, -0.213623046875, 0.118896484375, 
99, 3364599968, 0.43859487771987915, -0.4509957730770111, -0.46226078271865845, -0.6249260902404785, 9.53917407989502, 1.7508156299591064, 1.6069934368133545, 0.8404670357704163, 0.4453931152820587, -0.9253398180007935, -0.78076171875, -0.215087890625, 0.119384765625, 
100, 3364608301, 0.4386105239391327, -0.45091694593429565, -0.46234333515167236, -0.6249107122421265, 9.56120491027832, 1.7138569355010986, 1.587738037109375, 0.902376651763916, 0.4789733588695526, -0.8709608316421509, -0.780029296875, -0.214599609375, 0.117919921875, 
101, 3364616634, 0.4386277198791504, -0.45084434747695923, -0.4624197483062744, -0.6248945593833923, 9.595452308654785, 1.7367032766342163, 1.6012991666793823, 0.8459485173225403, 0.46040305495262146, -0.769758939743042, -0.78173828125, -0.21240234375, 0.11572265625, 
102, 3364624967, 0.4386586546897888, -0.45077067613601685, -0.46250444650650024, -0.6248632073402405, 9.676108360290527, 1.7760151624679565, 1.5930454730987549, 0.6864230036735535, 0.34598425030708313, -0.692711353302002, -0.779541015625, -0.215087890625, 0.118896484375, 
103, 3364633300, 0.4386632740497589, -0.45072227716445923, -0.4625685214996338, -0.6248475909233093, 9.663426399230957, 1.8056708574295044, 1.587423324584961, 0.512246310710907, 0.25110918283462524, -0.6496538519859314, -0.780029296875, -0.214599609375, 0.117919921875, 
104, 3364641633, 0.43865537643432617, -0.4507002532482147, -0.4626057744026184, -0.6248414516448975, 9.67301082611084, 1.8189035654067993, 1.5901271104812622, -0.17243503034114838, 0.14749956130981445, -0.5122078657150269, -0.780517578125, -0.215087890625, 0.118408203125, 
105, 3364649966, 0.4386182427406311, -0.4507080316543579, -0.4626177251338959, -0.6248530149459839, 9.678168296813965, 1.8372937440872192, 1.6010491847991943, -0.7043658494949341, -0.014292743057012558, -0.49199822545051575, -0.781005859375, -0.216064453125, 0.119384765625, 
106, 3364658299, 0.43856313824653625, -0.45074230432510376, -0.46259552240371704, -0.6248834729194641, 9.646315574645996, 1.8564436435699463, 1.615624189376831, -1.7359278202056885, -0.08603820949792862, -0.4435873031616211, -0.78076171875, -0.213623046875, 0.118896484375, 
107, 3364666632, 0.4384569525718689, -0.45082414150238037, -0.462532103061676, -0.6249459981918335, 9.644838333129883, 1.8452270030975342, 1.6200945377349854, -2.5521512031555176, -0.32058775424957275, -0.4550369083881378, -0.780029296875, -0.216064453125, 0.118408203125, 
108, 3364674965, 0.43833255767822266, -0.4509076178073883, -0.4624473750591278, -0.6250354647636414, 9.645193099975586, 1.802797794342041, 1.629372239112854, -2.9828033447265625, -0.13109366595745087, -0.624577522277832, -0.779052734375, -0.214111328125, 0.116455078125, 
109, 3364683298, 0.4382038116455078, -0.4509822428226471, -0.4623582363128662, -0.6251378059387207, 9.630571365356445, 1.7829272747039795, 1.6348358392715454, -3.1218631267547607, -0.001024569384753704, -0.7769566178321838, -0.78076171875, -0.215087890625, 0.118896484375, 
110, 3364691631, 0.43805742263793945, -0.45106929540634155, -0.4622713625431061, -0.6252420544624329, 9.638089179992676, 1.7315813302993774, 1.6646560430526733, -2.954730272293091, -0.14272253215312958, -0.8168123960494995, -0.780517578125, -0.217041015625, 0.118408203125, 
111, 3364699964, 0.4379531145095825, -0.45110276341438293, -0.46222707629203796, -0.6253237128257751, 9.665726661682129, 1.7215014696121216, 1.677811861038208, -2.2040793895721436, 0.10992349684238434, -0.9797956347465515, -0.78076171875, -0.213623046875, 0.117919921875, 
112, 3364708297, 0.4379023313522339, -0.4510732889175415, -0.4622415006160736, -0.6253698468208313, 9.65221118927002, 1.6924985647201538, 1.6651818752288818, -0.9506466388702393, 0.398006796836853, -1.1070984601974487, -0.780029296875, -0.217529296875, 0.119384765625, 
113, 3364716630, 0.43787145614624023, -0.4510110914707184, -0.4622940123081207, -0.6253975033760071, 9.604995727539062, 1.7143075466156006, 1.6478362083435059, 0.0019594889599829912, 0.48132988810539246, -1.2331717014312744, -0.779541015625, -0.214599609375, 0.118896484375, 
114, 3364724963, 0.4378552734851837, -0.45092251896858215, -0.46240824460983276, -0.6253882050514221, 9.586021423339844, 1.735091209411621, 1.6370294094085693, 0.9452804923057556, 0.19957329332828522, -1.44874107837677, -0.780029296875, -0.216064453125, 0.118896484375, 
115, 3364733296, 0.43784505128860474, -0.45081284642219543, -0.4625648856163025, -0.6253587007522583, 9.62224292755127, 1.7537786960601807, 1.6580841541290283, 1.6742615699768066, 0.03963802754878998, -1.6586498022079468, -0.779541015625, -0.216064453125, 0.117431640625, 
116, 3364741629, 0.43784213066101074, -0.45068955421447754, -0.4627337157726288, -0.6253246665000916, 9.591620445251465, 1.814110279083252, 1.613518238067627, 1.8925974369049072, 0.10592766106128693, -1.7408201694488525, -0.779052734375, -0.218017578125, 0.11865234375, 
117, 3364749962, 0.43785521388053894, -0.4505532681941986, -0.4629083573818207, -0.6252843737602234, 9.603336334228516, 1.764597773551941, 1.6114963293075562, 2.202554941177368, 0.24355292320251465, -1.6750941276550293, -0.779541015625, -0.217041015625, 0.118408203125, 
118, 3364758295, 0.4378650188446045, -0.4504234194755554, -0.4630821645259857, -0.6252424716949463, 9.6005859375, 1.7653692960739136, 1.5905741453170776, 2.4914584159851074, 0.23832766711711884, -1.5913100242614746, -0.779052734375, -0.218505859375, 0.11865234375, 
119, 3364766628, 0.43791013956069946, -0.45026907324790955, -0.46326106786727905, -0.6251895427703857, 9.58879280090332, 1.8003309965133667, 1.5826057195663452, 2.626573085784912, 0.4972875714302063, -1.4646475315093994, -0.776611328125, -0.216552734375, 0.11865234375, 
120, 3364774961, 0.43795910477638245, -0.450122594833374, -0.4634430408477783, -0.6251257658004761, 9.583013534545898, 1.8426296710968018, 1.558290958404541, 2.5589261054992676, 0.3540527820587158, -1.3632153272628784, -0.779052734375, -0.216552734375, 0.116943359375, 
121, 3364783294, 0.43797892332077026, -0.45002350211143494, -0.463592529296875, -0.6250721216201782, 9.571057319641113, 1.8555651903152466, 1.5794888734817505, 1.8905737400054932, 0.03461764007806778, -1.1432912349700928, -0.778564453125, -0.216552734375, 0.118408203125, 
122, 3364791627, 0.43797576427459717, -0.4499592185020447, -0.4637073874473572, -0.6250355243682861, 9.544668197631836, 1.8929498195648193, 1.5743192434310913, 1.1396156549453735, -0.08391223102807999, -1.0110450983047485, -0.778076171875, -0.218017578125, 0.119140625, 
123, 3364799960, 0.4379408359527588, -0.4499112069606781, -0.46379685401916504, -0.6250280141830444, 9.565947532653809, 1.9137502908706665, 1.5609935522079468, 0.4336617887020111, -0.10688819736242294, -1.1922913789749146, -0.777587890625, -0.217041015625, 0.11865234375, 
124, 3364808293, 0.4378851652145386, -0.44988706707954407, -0.46385103464126587, -0.6250442862510681, 9.530111312866211, 1.9014259576797485, 1.5821802616119385, -0.38639071583747864, -0.08742138743400574, -1.1655244827270508, -0.780517578125, -0.216552734375, 0.118408203125, 
125, 3364816626, 0.4377830922603607, -0.4498806297779083, -0.46388599276542664, -0.6250946521759033, 9.540145874023438, 1.874021291732788, 1.5916754007339478, -1.069932222366333, -0.20716792345046997, -1.5166187286376953, -0.779052734375, -0.216796875, 0.121337890625, 
126, 3364824959, 0.43762996792793274, -0.44989874958992004, -0.46391117572784424, -0.6251699328422546, 9.56397533416748, 1.8565707206726074, 1.6060545444488525, -1.466619849205017, -0.45526742935180664, -1.8402292728424072, -0.777587890625, -0.217529296875, 0.119140625, 
127, 3364833292, 0.4374743103981018, -0.44989660382270813, -0.46395933628082275, -0.6252449154853821, 9.597101211547852, 1.8465784788131714, 1.6082693338394165, -1.4713072776794434, -0.5133605599403381, -2.1794893741607666, -0.779052734375, -0.217529296875, 0.119140625, 
128, 3364841625, 0.4373108148574829, -0.44989365339279175, -0.4640304446220398, -0.6253083944320679, 9.61341381072998, 1.8436951637268066, 1.6220194101333618, -1.3684149980545044, -0.7751380205154419, -2.3507721424102783, -0.779052734375, -0.216552734375, 0.117919921875, 
129, 3364849958, 0.4371340274810791, -0.4498758912086487, -0.46410244703292847, -0.6253913640975952, 9.62233829498291, 1.8102470636367798, 1.6385107040405273, -1.3548905849456787, -0.6060584187507629, -2.6580660343170166, -0.779052734375, -0.220458984375, 0.11962890625, 
130, 3364858291, 0.4369557499885559, -0.4498210549354553, -0.46421295404434204, -0.6254734396934509, 9.585594177246094, 1.7958979606628418, 1.6299357414245605, -1.1289987564086914, -0.5845168828964233, -3.1998584270477295, -0.780029296875, -0.218505859375, 0.119140625, 
131, 3364866624, 0.4367399513721466, -0.4497726857662201, -0.4643591046333313, -0.6255506277084351, 9.561222076416016, 1.7788246870040894, 1.621225118637085, -0.7371007800102234, -1.0731083154678345, -3.6117348670959473, -0.779052734375, -0.2197265625, 0.11669921875, 
132, 3364874957, 0.43649619817733765, -0.44970420002937317, -0.4645259976387024, -0.6256458163261414, 9.573075294494629, 1.7316334247589111, 1.6722606420516968, -0.6073135137557983, -1.0556395053863525, -4.200427055358887, -0.778076171875, -0.221435546875, 0.1181640625, 
133, 3364883290, 0.43621984124183655, -0.4496386647224426, -0.46472296118736267, -0.6257394552230835, 9.578734397888184, 1.6839185953140259, 1.7015498876571655, -0.6762158274650574, -1.5170798301696777, -4.656078815460205, -0.778076171875, -0.221923828125, 0.11865234375, 
134, 3364891623, 0.43594858050346375, -0.4495512843132019, -0.46496978402137756, -0.6258078813552856, 9.626097679138184, 1.642630696296692, 1.7362937927246094, -0.18265511095523834, -1.788590669631958, -4.958428859710693, -0.777587890625, -0.221435546875, 0.12109375, 
135, 3364899956, 0.43568849563598633, -0.44943663477897644, -0.46526986360549927, -0.6258484125137329, 9.648839950561523, 1.6499985456466675, 1.7297475337982178, 0.9462026357650757, -1.9370508193969727, -5.148255825042725, -0.775634765625, -0.222412109375, 0.120849609375, 
136, 3364908289, 0.4354913532733917, -0.4492613673210144, -0.4656434655189514, -0.6258338689804077, 9.664581298828125, 1.646135926246643, 1.7265537977218628, 2.1719720363616943, -1.8800081014633179, -5.213290691375732, -0.776123046875, -0.222412109375, 0.120361328125, 
137, 3364916622, 0.4353412985801697, -0.4490523040294647, -0.46605005860328674, -0.6257855892181396, 9.678943634033203, 1.6741982698440552, 1.6982619762420654, 3.6770384311676025, -1.6065248250961304, -4.933198928833008, -0.777099609375, -0.222412109375, 0.120361328125, 
138, 3364924955, 0.4352535605430603, -0.4488126337528229, -0.4665108323097229, -0.6256751418113708, 9.69397258758545, 1.6867315769195557, 1.6820768117904663, 5.057236671447754, -1.6508119106292725, -4.570655822753906, -0.775634765625, -0.223876953125, 0.120361328125, 
139, 3364933288, 0.43522265553474426, -0.44855833053588867, -0.4669722020626068, -0.62553471326828, 9.699663162231445, 1.7418562173843384, 1.633431315422058, 5.74608039855957, -1.351330280303955, -3.9846277236938477, -0.775634765625, -0.22509765625, 0.122802734375, 
140, 3364941621, 0.4352191686630249, -0.4483011066913605, -0.4674236476421356, -0.6253844499588013, 9.696782112121582, 1.8060599565505981, 1.571702241897583, 6.55897331237793, -1.0100204944610596, -3.546905755996704, -0.777099609375, -0.223876953125, 0.121826171875, 
141, 3364949954, 0.43530216813087463, -0.4479873776435852, -0.46789219975471497, -0.6252010464668274, 9.649239540100098, 1.8580889701843262, 1.5098320245742798, 7.139956474304199, -0.4145408272743225, -3.1741933822631836, -0.775390625, -0.2255859375, 0.122802734375, 
142, 3364958287, 0.43540456891059875, -0.4476749002933502, -0.46832960844039917, -0.6250261664390564, 9.582233428955078, 1.978610634803772, 1.46438729763031, 6.913269519805908, -0.05396919697523117, -2.8693323135375977, -0.776123046875, -0.22412109375, 0.123291015625, 
143, 3364966620, 0.4354891777038574, -0.4474017024040222, -0.46872678399086, -0.6248651742935181, 9.532017707824707, 2.076312780380249, 1.467944622039795, 6.1505537033081055, -0.18864883482456207, -2.5934412479400635, -0.776123046875, -0.22509765625, 0.123291015625, 
144, 3364974953, 0.4355308413505554, -0.4471845030784607, -0.4690767228603363, -0.6247287392616272, 9.51369857788086, 2.1191532611846924, 1.4750282764434814, 4.9606451988220215, -0.5021670460700989, -2.470672130584717, -0.77490234375, -0.22509765625, 0.123779296875, 
145, 3364983286, 0.4355296194553375, -0.4470008611679077, -0.46937185525894165, -0.6246393322944641, 9.501420021057129, 2.1545023918151855, 1.4667962789535522, 3.748015880584717, -0.46018537878990173, -2.5536110401153564, -0.776123046875, -0.22509765625, 0.124755859375, 
146, 3364991619, 0.4354780614376068, -0.44685474038124084, -0.4695984721183777, -0.6246095895767212, 9.511612892150879, 2.1760311126708984, 1.4620254039764404, 2.3538074493408203, -0.2949991524219513, -2.6704633235931396, -0.7744140625, -0.224609375, 0.122802734375, 
147, 3364999952, 0.4353707730770111, -0.4467480480670929, -0.4697549045085907, -0.624643087387085, 9.534916877746582, 2.147733688354492, 1.463747501373291, 0.6497179269790649, -0.21918103098869324, -2.851094961166382, -0.7724609375, -0.2255859375, 0.125, 
148, 3365008285, 0.43519720435142517, -0.44667720794677734, -0.46986690163612366, -0.6247305870056152, 9.610797882080078, 2.0850682258605957, 1.4880386590957642, -0.44740384817123413, -0.29266825318336487, -3.2059290409088135, -0.77392578125, -0.224609375, 0.121826171875, 
149, 3365016618, 0.4350127875804901, -0.4466232657432556, -0.4699321687221527, -0.6248486042022705, 9.64050006866455, 1.9950122833251953, 1.542964220046997, -1.4694119691848755, -0.10570995509624481, -3.1186869144439697, -0.77490234375, -0.22705078125, 0.12548828125, 
150, 3365024951, 0.43479734659194946, -0.44661030173301697, -0.46996819972991943, -0.6249806880950928, 9.690476417541504, 1.9632288217544556, 1.5965993404388428, -2.1389167308807373, -0.3607252538204193, -3.016050338745117, -0.7734375, -0.2265625, 0.1240234375, 
151, 3365033284, 0.4345913529396057, -0.44660043716430664, -0.4700137972831726, -0.6250967383384705, 9.745325088500977, 1.9725964069366455, 1.5992430448532104, -2.0205535888671875, -0.5182272791862488, -2.88600754737854, -0.7744140625, -0.2275390625, 0.1259765625, 
152, 3365041617, 0.4344547688961029, -0.4465472102165222, -0.47009479999542236, -0.6251688599586487, 9.780485153198242, 1.9567620754241943, 1.6155047416687012, -1.1144241094589233, -0.23905763030052185, -2.5926473140716553, -0.77099609375, -0.22705078125, 0.12451171875, 
153, 3365049950, 0.4343906342983246, -0.4464293420314789, -0.47019973397254944, -0.6252185702323914, 9.713404655456543, 1.9639970064163208, 1.6163744926452637, 0.43340569734573364, 0.5646273493766785, -2.3361976146698, -0.7734375, -0.22705078125, 0.12451171875, 
154, 3365058283, 0.4343845844268799, -0.4462892413139343, -0.47032487392425537, -0.6252284049987793, 9.622915267944336, 1.955541729927063, 1.6095126867294312, 1.6590725183486938, 0.8438993096351624, -1.821223258972168, -0.7744140625, -0.22802734375, 0.1259765625, 
155, 3365066616, 0.4344594180583954, -0.44611072540283203, -0.4704899787902832, -0.6251795887947083, 9.572831153869629, 1.962601661682129, 1.6264064311981201, 2.8042593002319336, 1.0198180675506592, -1.3117817640304565, -0.7724609375, -0.22705078125, 0.123046875, 
156, 3365074949, 0.4346168041229248, -0.44589656591415405, -0.470680296421051, -0.6250796914100647, 9.553058624267578, 2.021947145462036, 1.6065670251846313, 3.9437854290008545, 1.3862552642822266, -0.7099754214286804, -0.77197265625, -0.2275390625, 0.12451171875, 
157, 3365083282, 0.4348352551460266, -0.44565749168395996, -0.4708557724952698, -0.6249663233757019, 9.503890991210938, 2.0516579151153564, 1.553186297416687, 4.553557872772217, 2.0134453773498535, -0.14656466245651245, -0.77392578125, -0.22802734375, 0.1259765625, 
158, 3365091615, 0.43510133028030396, -0.4454096853733063, -0.4710035026073456, -0.624846339225769, 9.486513137817383, 2.105593204498291, 1.525887370109558, 4.9969658851623535, 2.5965023040771484, 0.45615115761756897, -0.77392578125, -0.228515625, 0.12451171875, 
159, 3365099948, 0.4354248046875, -0.4451431930065155, -0.4711396396160126, -0.624708354473114, 9.4588041305542, 2.140939950942993, 1.4857776165008545, 5.181670665740967, 3.0147576332092285, 0.9673088192939758, -0.7734375, -0.2265625, 0.12548828125, 
160, 3365108281, 0.4357409179210663, -0.4449063241481781, -0.47124338150024414, -0.6245784163475037, 9.448098182678223, 2.1853866577148438, 1.4569027423858643, 4.8633623123168945, 3.0161914825439453, 1.278060793876648, -0.77392578125, -0.2275390625, 0.12353515625, 
161, 3365116614, 0.4360765814781189, -0.444681853055954, -0.47134047746658325, -0.624430775642395, 9.460030555725098, 2.246286153793335, 1.4247015714645386, 4.733805179595947, 2.906280994415283, 1.640604853630066, -0.7744140625, -0.2275390625, 0.123046875, 
162, 3365124947, 0.43636780977249146, -0.44452163577079773, -0.47135281562805176, -0.6243317127227783, 9.518754959106445, 2.2053489685058594, 1.4158505201339722, 3.0923941135406494, 2.897956132888794, 1.9071460962295532, -0.77294921875, -0.22998046875, 0.12548828125, 
163, 3365133280, 0.43659836053848267, -0.4444535970687866, -0.4712704122066498, -0.6242814064025879, 9.51819133758545, 2.1511240005493164, 1.4471254348754883, 0.9789376258850098, 2.5529325008392334, 2.265591859817505, -0.775390625, -0.22607421875, 0.123291015625, 
164, 3365141613, 0.43677961826324463, -0.4444584250450134, -0.47110819816589355, -0.6242735385894775, 9.551106452941895, 2.1189005374908447, 1.4394863843917847, -0.7471928596496582, 2.356752872467041, 2.5399718284606934, -0.776123046875, -0.2255859375, 0.123291015625, 
165, 3365149946, 0.4369363784790039, -0.44453296065330505, -0.47087594866752625, -0.6242859363555908, 9.57603645324707, 2.0829458236694336, 1.4273117780685425, -2.0205276012420654, 2.135702133178711, 3.0943408012390137, -0.7763671875, -0.226318359375, 0.122802734375, 
166, 3365158279, 0.4370858371257782, -0.44465702772140503, -0.47060132026672363, -0.6243001222610474, 9.610750198364258, 2.0818533897399902, 1.4676402807235718, -2.636883020401001, 1.965674877166748, 3.6174089908599854, -0.774658203125, -0.22412109375, 0.122802734375, 
167, 3365166612, 0.4372456669807434, -0.44481730461120605, -0.4702792167663574, -0.6243167519569397, 9.620763778686523, 2.051975965499878, 1.5083743333816528, -3.3149430751800537, 1.9834768772125244, 4.196700572967529, -0.7734375, -0.22412109375, 0.122802734375, 
168, 3365174945, 0.4374597668647766, -0.4449671506881714, -0.4699481129646301, -0.624309241771698, 9.627420425415039, 2.074329137802124, 1.522064447402954, -2.983315944671631, 2.3193304538726807, 4.774275779724121, -0.775146484375, -0.22509765625, 0.123291015625, 
169, 3365183278, 0.4376941919326782, -0.445120632648468, -0.4695972502231598, -0.6242994666099548, 9.636528968811035, 2.036752462387085, 1.5559632778167725, -2.8956892490386963, 2.537128448486328, 5.132081031799316, -0.774658203125, -0.223876953125, 0.120361328125, 
170, 3365191611, 0.4379497170448303, -0.4452763795852661, -0.4692058265209198, -0.6243035197257996, 9.64702320098877, 1.98369562625885, 1.595841646194458, -3.2636635303497314, 2.9899115562438965, 5.482663154602051, -0.774658203125, -0.22314453125, 0.122314453125, 
171, 3365199944, 0.43821585178375244, -0.44543808698654175, -0.4688117802143097, -0.6242972612380981, 9.599853515625, 1.941150426864624, 1.6423933506011963, -3.1443779468536377, 2.9521048069000244, 5.6972336769104, -0.776611328125, -0.222412109375, 0.119873046875, 
172, 3365208277, 0.4384973645210266, -0.44560617208480835, -0.46840620040893555, -0.6242842674255371, 9.625076293945312, 1.9313926696777344, 1.6534149646759033, -2.7396984100341797, 3.122720956802368, 6.051682949066162, -0.777099609375, -0.222900390625, 0.119384765625, 
173, 3365216610, 0.43883955478668213, -0.44572529196739197, -0.468038946390152, -0.6242343187332153, 9.613134384155273, 1.9196009635925293, 1.6602691411972046, -1.9083629846572876, 3.377967119216919, 6.178295135498047, -0.777099609375, -0.219970703125, 0.12060546875, 
174, 3365224943, 0.4392182230949402, -0.4457935392856598, -0.4677279591560364, -0.6241520643234253, 9.614089965820312, 1.9198487997055054, 1.63326096534729, -0.45180949568748474, 3.575093984603882, 6.051939010620117, -0.777099609375, -0.221435546875, 0.119140625, 
175, 3365233276, 0.43964052200317383, -0.4458014667034149, -0.4674745798110962, -0.6240389943122864, 9.583874702453613, 1.8743646144866943, 1.6177630424499512, 0.6338627338409424, 3.7752184867858887, 5.833449840545654, -0.777099609375, -0.217529296875, 0.11865234375, 
176, 3365241609, 0.440098375082016, -0.445762574672699, -0.4672691822052002, -0.6238979697227478, 9.536735534667969, 1.8464852571487427, 1.6203563213348389, 1.351599097251892, 3.884207010269165, 5.64500617980957, -0.778564453125, -0.218505859375, 0.11767578125, 
177, 3365249942, 0.44053345918655396, -0.44572919607162476, -0.467103511095047, -0.6237388849258423, 9.526121139526367, 1.8768609762191772, 1.6590627431869507, 2.012113094329834, 3.397791862487793, 5.417576789855957, -0.778076171875, -0.218505859375, 0.119140625, 
178, 3365258275, 0.440967321395874, -0.4456758499145508, -0.4669787883758545, -0.6235634684562683, 9.569772720336914, 1.8943129777908325, 1.6644766330718994, 2.477165460586548, 3.209015130996704, 5.107874870300293, -0.778564453125, -0.218994140625, 0.1181640625, 
179, 3365266608, 0.44137322902679443, -0.44560709595680237, -0.4668636918067932, -0.6234118342399597, 9.609756469726562, 1.8814198970794678, 1.686525821685791, 2.4348764419555664, 3.252918243408203, 4.585781097412109, -0.779052734375, -0.215576171875, 0.117431640625, 
180, 3365274941, 0.4417552649974823, -0.4455361068248749, -0.4667563736438751, -0.6232722401618958, 9.649495124816895, 1.832128882408142, 1.685441017150879, 1.6505684852600098, 3.0382964611053467, 4.133638381958008, -0.779052734375, -0.216552734375, 0.118408203125, 
181, 3365283274, 0.4420750141143799, -0.44550493359565735, -0.46663713455200195, -0.6231571435928345, 9.671095848083496, 1.8184404373168945, 1.730444073677063, 1.4081811904907227, 2.626880645751953, 3.8909428119659424, -0.778076171875, -0.215087890625, 0.116943359375, 
182, 3365291607, 0.44238245487213135, -0.4454684555530548, -0.4665524959564209, -0.623028576374054, 9.675178527832031, 1.821349859237671, 1.7596367597579956, 1.8731051683425903, 2.3406927585601807, 3.6396677494049072, -0.780029296875, -0.21435546875, 0.115478515625, 
183, 3365299940, 0.4426887631416321, -0.44541671872138977, -0.4665095806121826, -0.6228801012039185, 9.662527084350586, 1.7917556762695312, 1.7398337125778198, 2.319509983062744, 2.04789662361145, 3.379324197769165, -0.7822265625, -0.216552734375, 0.118896484375, 
184, 3365308273, 0.4429659843444824, -0.4453545808792114, -0.4664831757545471, -0.6227469444274902, 9.715352058410645, 1.7680219411849976, 1.7336915731430054, 2.4865918159484863, 2.0057613849639893, 2.9082276821136475, -0.78173828125, -0.213623046875, 0.116943359375, 
185, 3365316606, 0.4432682693004608, -0.44523969292640686, -0.4664912521839142, -0.6226080656051636, 9.698826789855957, 1.7552262544631958, 1.7099922895431519, 3.053562641143799, 2.311441659927368, 2.57096529006958, -0.78125, -0.214111328125, 0.118896484375, 
186, 3365324939, 0.44358325004577637, -0.4450889825820923, -0.46652913093566895, -0.6224629878997803, 9.660287857055664, 1.7744096517562866, 1.674344778060913, 4.011842250823975, 2.5661489963531494, 2.3652310371398926, -0.77978515625, -0.213134765625, 0.118896484375, 
187, 3365333272, 0.443947970867157, -0.4448855519294739, -0.4666278660297394, -0.6222743988037109, 9.65096664428711, 1.7574857473373413, 1.6095046997070312, 5.070991039276123, 2.611896514892578, 2.284008741378784, -0.77978515625, -0.2109375, 0.1201171875, 
188, 3365341605, 0.4442891776561737, -0.44467446208000183, -0.4666890501976013, -0.6221359372138977, 9.617280006408691, 1.7713894844055176, 1.5772234201431274, 5.602101802825928, 3.321615695953369, 2.1776068210601807, -0.77880859375, -0.211181640625, 0.119140625, 
189, 3365349938, 0.4447064995765686, -0.44439882040023804, -0.4667954742908478, -0.6219547986984253, 9.573372840881348, 1.812241554260254, 1.552736759185791, 5.85199499130249, 3.5660781860351562, 2.177863359451294, -0.7822265625, -0.212158203125, 0.1181640625, 
190, 3365358271, 0.44510674476623535, -0.44415226578712463, -0.46692171692848206, -0.6217498183250427, 9.577361106872559, 1.8241573572158813, 1.5943857431411743, 5.6654205322265625, 2.915245532989502, 2.200326681137085, -0.78076171875, -0.211669921875, 0.11767578125, 
191, 3365366604, 0.4454541802406311, -0.44394052028656006, -0.467025488615036, -0.6215742230415344, 9.597064971923828, 1.8049345016479492, 1.5849374532699585, 4.976781845092773, 2.621757984161377, 1.9732568264007568, -0.78076171875, -0.211669921875, 0.1201171875, 
192, 3365374937, 0.44580772519111633, -0.4437229633331299, -0.467122882604599, -0.6214028000831604, 9.622668266296387, 1.8167835474014282, 1.570158839225769, 4.590980529785156, 2.7197065353393555, 1.9304041862487793, -0.783203125, -0.208740234375, 0.11767578125, 
193, 3365383270, 0.44614264369010925, -0.44352325797080994, -0.4671920835971832, -0.6212530136108398, 9.606788635253906, 1.8532185554504395, 1.5590481758117676, 4.364576816558838, 2.8086395263671875, 1.9952852725982666, -0.78076171875, -0.208740234375, 0.1171875, 
194, 3365391603, 0.446480393409729, -0.44332945346832275, -0.4672667384147644, -0.6210924983024597, 9.585203170776367, 1.883469820022583, 1.572013258934021, 4.10284948348999, 2.6264963150024414, 2.024484872817993, -0.7822265625, -0.210205078125, 0.11669921875, 
195, 3365399936, 0.4467599391937256, -0.4431978464126587, -0.46732351183891296, -0.6209427714347839, 9.574170112609863, 1.9102232456207275, 1.6107311248779297, 3.502912998199463, 1.947079062461853, 2.0362932682037354, -0.783203125, -0.207763671875, 0.119384765625, 
196, 3365408269, 0.44710421562194824, -0.4430147409439087, -0.46743345260620117, -0.6207428574562073, 9.56144905090332, 1.9593665599822998, 1.6204743385314941, 2.788506031036377, 1.7711344957351685, 1.8463380336761475, -0.78271484375, -0.207763671875, 0.117431640625, 
197, 3365416602, 0.4473108649253845, -0.4429183006286621, -0.46742767095565796, -0.6206670999526978, 9.580702781677246, 1.9791947603225708, 1.6349390745162964, 1.8324294090270996, 2.01385498046875, 1.5668867826461792, -0.7822265625, -0.208740234375, 0.1181640625, 
198, 3365424935, 0.4474577009677887, -0.442852646112442, -0.4673442542552948, -0.6206709146499634, 9.541343688964844, 1.9378324747085571, 1.6379297971725464, 0.11432915180921555, 2.349837064743042, 1.2367961406707764, -0.783203125, -0.208740234375, 0.1162109375, 
199, 3365433268, 0.44756847620010376, -0.4427931010723114, -0.46724826097488403, -0.6207058429718018, 9.537280082702637, 1.9038074016571045, 1.6474580764770508, -0.4594937264919281, 2.3111085891723633, 0.8519166111946106, -0.78076171875, -0.20849609375, 0.119140625, 
200, 3365441601, 0.44767361879348755, -0.4427402913570404, -0.4671638011932373, -0.6207313537597656, 9.519216537475586, 1.9365237951278687, 1.7099839448928833, -0.8254699110984802, 2.023921489715576, 0.7558631896972656, -0.78076171875, -0.208251953125, 0.11669921875, 
201, 3365449934, 0.44774189591407776, -0.4426901638507843, -0.4670635759830475, -0.6207932829856873, 9.528870582580566, 1.8662054538726807, 1.730523705482483, -0.9851747751235962, 2.148406744003296, 0.4107114374637604, -0.78125, -0.206787109375, 0.115478515625, 
202, 3365458267, 0.4478088617324829, -0.44261324405670166, -0.46696507930755615, -0.6208739876747131, 9.558913230895996, 1.808624267578125, 1.7069405317306519, -0.6616669297218323, 2.542404890060425, 0.1489083617925644, -0.78125, -0.206298828125, 0.116455078125, 
203, 3365466600, 0.44792526960372925, -0.44247108697891235, -0.4669184386730194, -0.6209263801574707, 9.575589179992676, 1.7650790214538574, 1.7100213766098022, 0.3928583860397339, 2.855232000350952, -0.03696134313941002, -0.7841796875, -0.21044921875, 0.11474609375, 
204, 3365474933, 0.44804996252059937, -0.4423045516014099, -0.4669260084629059, -0.6209493279457092, 9.535832405090332, 1.7478746175765991, 1.7241489887237549, 1.7985419034957886, 2.7258541584014893, -0.17274239659309387, -0.7822265625, -0.207763671875, 0.117431640625, 
205, 3365483266, 0.4482192397117615, -0.44210708141326904, -0.46698176860809326, -0.620925784111023, 9.544395446777344, 1.756361484527588, 1.75406813621521, 2.4166135787963867, 2.5749094486236572, -0.09574601799249649, -0.78271484375, -0.206298828125, 0.116943359375, 
206, 3365491599, 0.4484202563762665, -0.44189614057540894, -0.4670701026916504, -0.6208645105361938, 9.505378723144531, 1.7707011699676514, 1.771674633026123, 2.9110190868377686, 2.42340087890625, 0.06750631332397461, -0.7841796875, -0.207275390625, 0.116455078125, 
207, 3365499932, 0.4486459493637085, -0.44166305661201477, -0.4671842157840729, -0.6207814812660217, 9.48220157623291, 1.8151798248291016, 1.7454371452331543, 3.8586180210113525, 2.520197629928589, 0.16768360137939453, -0.78369140625, -0.20751953125, 0.113525390625, 
208, 3365508265, 0.4488846957683563, -0.4414258599281311, -0.46729689836502075, -0.6206928491592407, 9.499585151672363, 1.8504884243011475, 1.732892632484436, 4.33591365814209, 2.6948609352111816, 0.3604050874710083, -0.783203125, -0.209228515625, 0.11572265625, 
209, 3365516598, 0.4491305947303772, -0.4411903917789459, -0.46737781167030334, -0.620621383190155, 9.523974418640137, 1.8731846809387207, 1.7976672649383545, 3.6382334232330322, 2.945317029953003, 0.45581817626953125, -0.78515625, -0.207763671875, 0.115966796875, 
210, 3365524931, 0.4493348300457001, -0.44101423025131226, -0.4673890471458435, -0.6205902695655823, 9.56624698638916, 1.876873254776001, 1.91630220413208, 1.9025611877441406, 2.811635971069336, 0.6052003502845764, -0.7822265625, -0.207763671875, 0.116943359375, 
211, 3365533264, 0.44942834973335266, -0.44094914197921753, -0.46727895736694336, -0.6206518411636353, 9.615053176879883, 1.8695441484451294, 2.0988547801971436, -0.8236258029937744, 2.4995012283325195, 0.588448703289032, -0.78125, -0.205322265625, 0.115478515625, 
212, 3365541597, 0.4494475722312927, -0.44096651673316956, -0.467043936252594, -0.6208024024963379, 9.691821098327637, 1.8307009935379028, 2.2887871265411377, -4.0123419761657715, 2.531109094619751, 0.5820707082748413, -0.78515625, -0.20556640625, 0.113037109375, 
213, 3365549930, 0.4493770897388458, -0.4410500228404999, -0.4666568636894226, -0.621084988117218, 9.798073768615723, 1.756834626197815, 2.469355583190918, -6.520257472991943, 3.228687286376953, 0.4570220112800598, -0.78369140625, -0.206298828125, 0.115478515625, 
214, 3365558263, 0.4493064284324646, -0.441100150346756, -0.46619221568107605, -0.6214492321014404, 9.894503593444824, 1.6360770463943481, 2.679049491882324, -7.556251049041748, 4.487268924713135, 0.19514206051826477, -0.78369140625, -0.2080078125, 0.113525390625, 
215, 3365566596, 0.449226438999176, -0.44106167554855347, -0.46569499373435974, -0.6219069957733154, 9.998260498046875, 1.481458067893982, 2.9453694820404053, -7.891387939453125, 5.954425811767578, -0.8223193883895874, -0.78173828125, -0.20849609375, 0.11083984375, 
216, 3365574929, 0.44915667176246643, -0.4408949017524719, -0.4652356207370758, -0.6224194169044495, 10.138598442077637, 1.2945727109909058, 3.1376700401306152, -7.257974147796631, 7.179171085357666, -2.1656839847564697, -0.7841796875, -0.20556640625, 0.111572265625, 
217, 3365583262, 0.4491821527481079, -0.44047337770462036, -0.464913547039032, -0.622939944267273, 10.296385765075684, 1.059024453163147, 3.2260403633117676, -3.7875266075134277, 9.205232620239258, -3.818571090698242, -0.7841796875, -0.20849609375, 0.112060546875, 
218, 3365591595, 0.4494146704673767, -0.43968090415000916, -0.4648088216781616, -0.6234098672866821, 10.32379150390625, 0.8105508089065552, 3.3629720211029053, 2.0948219299316406, 12.079099655151367, -5.402427673339844, -0.78369140625, -0.211181640625, 0.109375, 
219, 3365599928, 0.44995635747909546, -0.43842029571533203, -0.46497222781181335, -0.6237850189208984, 10.229204177856445, 0.6628875136375427, 3.4976065158843994, 9.611296653747559, 15.817089080810547, -6.801426887512207, -0.78369140625, -0.209228515625, 0.10595703125, 
220, 3365608261, 0.45091554522514343, -0.43661656975746155, -0.4655057191848755, -0.623959481716156, 10.064596176147461, 0.5075116753578186, 3.4630165100097656, 20.484704971313477, 19.73607635498047, -7.593216896057129, -0.78564453125, -0.210205078125, 0.10791015625, 
221, 3365616594, 0.452427476644516, -0.4342544376850128, -0.4665278196334839, -0.6237501502037048, 9.860960006713867, 0.3133939504623413, 3.362213373184204, 33.37850570678711, 22.639568328857422, -7.065543174743652, -0.78466796875, -0.2109375, 0.10302734375, 
222, 3365624927, 0.45447346568107605, -0.4313890039920807, -0.4679667055606842, -0.6231729984283447, 9.64109992980957, 0.1782745122909546, 3.305687189102173, 45.51077651977539, 25.547889709472656, -5.965031623840332, -0.7841796875, -0.2109375, 0.1025390625, 
223, 3365633260, 0.4570729732513428, -0.42806631326675415, -0.46978339552879333, -0.6221953630447388, 9.506728172302246, 0.143733948469162, 3.2218871116638184, 57.5914192199707, 28.336246490478516, -3.852343797683716, -0.78564453125, -0.2080078125, 0.101806640625, 
224, 3365641593, 0.4602544903755188, -0.42430609464645386, -0.4719523787498474, -0.6207824945449829, 9.573649406433105, 0.021649274975061417, 3.1854729652404785, 69.19157409667969, 30.952409744262695, -1.1530561447143555, -0.78271484375, -0.210693359375, 0.099609375, 
225, 3365649926, 0.46386241912841797, -0.4203314185142517, -0.47429120540618896, -0.6190160512924194, 9.793746948242188, -0.20682941377162933, 3.261622190475464, 77.18305969238281, 32.524681091308594, 2.4555106163024902, -0.78564453125, -0.20703125, 0.100341796875, 
226, 3365658259, 0.46778222918510437, -0.4162366986274719, -0.4767024517059326, -0.6169777512550354, 9.903919219970703, -0.5280967950820923, 3.365790605545044, 82.71975708007812, 33.6251335144043, 5.719583988189697, -0.78466796875, -0.20458984375, 0.103271484375, 
227, 3365666592, 0.47199907898902893, -0.41196975111961365, -0.4793851971626282, -0.6145464777946472, 9.999045372009277, -0.7965227365493774, 3.165562629699707, 89.8293685913086, 32.96142578125, 8.009854316711426, -0.78466796875, -0.2021484375, 0.099609375, 
228, 3365674925, 0.47652024030685425, -0.40744829177856445, -0.4825451970100403, -0.6115918159484863, 10.103635787963867, -0.9781488180160522, 2.772274971008301, 99.3791275024414, 30.72906494140625, 9.25847053527832, -0.786865234375, -0.19873046875, 0.102783203125, 
229, 3365683258, 0.48130226135253906, -0.4025493860244751, -0.4862542152404785, -0.6081438660621643, 10.051847457885742, -0.9344248175621033, 2.313877820968628, 112.5162353515625, 29.59918212890625, 9.445170402526855, -0.789306640625, -0.19384765625, 0.1025390625, 
230, 3365691591, 0.48639804124832153, -0.3971205949783325, -0.4905692934989929, -0.6041804552078247, 9.890153884887695, -0.7451328039169312, 1.8673042058944702, 128.15280151367188, 29.607473373413086, 8.9024019241333, -0.7890625, -0.190673828125, 0.10595703125, 
231, 3365699924, 0.4919472336769104, -0.3910384178161621, -0.4955540597438812, -0.5995690226554871, 9.763555526733398, -0.4308355748653412, 1.687801480293274, 143.05882263183594, 29.732606887817383, 8.616600036621094, -0.7900390625, -0.18701171875, 0.107666015625, 
232, 3365708257, 0.4977388083934784, -0.38454729318618774, -0.500943660736084, -0.5944870710372925, 9.709980010986328, 0.0445413775742054, 1.6807523965835571, 153.70208740234375, 29.4349365234375, 8.750946044921875, -0.78759765625, -0.183349609375, 0.10986328125, 
233, 3365716590, 0.5036947131156921, -0.3778704106807709, -0.5064480304718018, -0.5890634655952454, 9.69373893737793, 0.44722235202789307, 1.6910618543624878, 159.10748291015625, 29.54584503173828, 10.63034725189209, -0.792724609375, -0.178955078125, 0.114501953125, 
234, 3365724923, 0.5098523497581482, -0.37107741832733154, -0.5118486285209656, -0.5833893418312073, 9.665547370910645, 0.3852561116218567, 1.5856328010559082, 161.89442443847656, 31.253873825073242, 13.634799003601074, -0.793212890625, -0.1748046875, 0.11669921875, 
235, 3365733256, 0.5159936547279358, -0.36438697576522827, -0.5170341730117798, -0.577605664730072, 9.779272079467773, 0.3972598910331726, 1.6038429737091064, 160.1072235107422, 31.31899642944336, 16.18723487854004, -0.7958984375, -0.167236328125, 0.120361328125, 
236, 3365741589, 0.5220785140991211, -0.35794535279273987, -0.5217646360397339, -0.5718838572502136, 9.907147407531738, 0.6466301679611206, 1.7803146839141846, 154.0358123779297, 32.42477035522461, 19.249204635620117, -0.79541015625, -0.16259765625, 0.12255859375, 
237, 3365749922, 0.5280699133872986, -0.3518252968788147, -0.5259159803390503, -0.5663514137268066, 9.981964111328125, 0.7619197964668274, 1.8549716472625732, 145.3217010498047, 34.371368408203125, 22.41317367553711, -0.798095703125, -0.157958984375, 0.125732421875, 
238, 3365758255, 0.5340895056724548, -0.3459056615829468, -0.5296247601509094, -0.5608702301979065, 10.040799140930176, 0.7925176620483398, 1.9247442483901978, 140.21859741210938, 36.4176139831543, 25.744266510009766, -0.801025390625, -0.152587890625, 0.129150390625, 
239, 3365766588, 0.5403264760971069, -0.3398970365524292, -0.5331211090087891, -0.5552290678024292, 10.257433891296387, 0.7254562377929688, 1.9317206144332886, 141.3982391357422, 39.5451774597168, 29.064340591430664, -0.80322265625, -0.1455078125, 0.12841796875, 
240, 3365774921, 0.5466699600219727, -0.3337624669075012, -0.5365170240402222, -0.5494397282600403, 10.500786781311035, 0.4693329632282257, 1.7896181344985962, 143.18907165527344, 41.27775192260742, 30.412052154541016, -0.803466796875, -0.134765625, 0.12841796875, 
241, 3365783254, 0.5528691411018372, -0.327580988407135, -0.5400461554527283, -0.5434674024581909, 10.70614242553711, 0.3675924241542816, 1.4850144386291504, 145.19903564453125, 38.78895568847656, 29.854450225830078, -0.806396484375, -0.12890625, 0.126708984375, 
242, 3365791587, 0.5590740442276001, -0.32115060091018677, -0.5438510179519653, -0.5371265411376953, 10.79063892364502, 0.5151237845420837, 1.0624072551727295, 151.95298767089844, 36.87019348144531, 29.484088897705078, -0.8076171875, -0.119873046875, 0.127197265625, 
243, 3365799920, 0.565423309803009, -0.3142783045768738, -0.5479840636253357, -0.5303014516830444, 10.752663612365723, 0.8647087216377258, 0.8901126384735107, 161.9969482421875, 36.61768341064453, 29.64326286315918, -0.808349609375, -0.11279296875, 0.133056640625, 
244, 3365808253, 0.5718492269515991, -0.30718541145324707, -0.5523818731307983, -0.5229532122612, 10.564448356628418, 1.3848432302474976, 0.9515553116798401, 169.954833984375, 34.422080993652344, 31.334632873535156, -0.811279296875, -0.1064453125, 0.130859375, 
245, 3365816586, 0.5784918069839478, -0.299856960773468, -0.5566980242729187, -0.5152674913406372, 10.750679016113281, 1.8261544704437256, 1.0018740892410278, 174.6627960205078, 37.04057693481445, 34.229183197021484, -0.81298828125, -0.095458984375, 0.13330078125, 
246, 3365824919, 0.5852687358856201, -0.2926335632801056, -0.5605999231338501, -0.5074782371520996, 10.622897148132324, 2.119124174118042, 0.9840631484985352, 172.27536010742188, 40.1314811706543, 38.39127731323242, -0.813720703125, -0.08837890625, 0.13671875, 
247, 3365833252, 0.5920550227165222, -0.28566455841064453, -0.5640840530395508, -0.4996560513973236, 10.518190383911133, 2.435706377029419, 1.0299440622329712, 167.5663604736328, 41.71930694580078, 42.49131393432617, -0.815673828125, -0.0791015625, 0.134521484375, 
248, 3365841585, 0.5986747741699219, -0.2792356312274933, -0.5669575929641724, -0.4920930862426758, 10.550992012023926, 2.480476140975952, 1.0334383249282837, 156.34371948242188, 42.643653869628906, 45.697635650634766, -0.8193359375, -0.06787109375, 0.1337890625, 
249, 3365849918, 0.605021059513092, -0.27338263392448425, -0.5692565441131592, -0.4849112033843994, 10.621597290039062, 2.3796420097351074, 0.9052867293357849, 143.65457153320312, 42.873565673828125, 47.53377151489258, -0.822509765625, -0.06005859375, 0.13232421875, 
250, 3365858251, 0.6112741827964783, -0.267860472202301, -0.5711415410041809, -0.47788289189338684, 10.591666221618652, 2.3596153259277344, 0.9114824533462524, 136.6250762939453, 43.89663314819336, 49.655853271484375, -0.82373046875, -0.050048828125, 0.13427734375, 
251, 3365866584, 0.6173496842384338, -0.26264646649360657, -0.57280433177948, -0.47092607617378235, 10.41156005859375, 2.4519472122192383, 1.0508722066879272, 131.32192993164062, 42.669734954833984, 51.25218200683594, -0.824951171875, -0.040283203125, 0.129638671875, 
252, 3365874917, 0.6232187747955322, -0.257622092962265, -0.5744559168815613, -0.4639071822166443, 10.323156356811523, 2.688901424407959, 0.9680153131484985, 129.41952514648438, 39.6280632019043, 51.85760498046875, -0.8291015625, -0.029541015625, 0.12841796875, 
253, 3365883250, 0.6288765668869019, -0.25264841318130493, -0.576083779335022, -0.4569360613822937, 10.144062995910645, 2.624145269393921, 0.861720085144043, 127.67071533203125, 38.066619873046875, 50.70261001586914, -0.82861328125, -0.0205078125, 0.124267578125, 
254, 3365891583, 0.6341878175735474, -0.24790549278259277, -0.577642560005188, -0.4501754939556122, 10.199006080627441, 2.384185314178467, 0.7325228452682495, 122.40248107910156, 35.14291000366211, 48.658199310302734, -0.832275390625, -0.010009765625, 0.12548828125, 
255, 3365899916, 0.6391322612762451, -0.24344494938850403, -0.5791729688644409, -0.4436028003692627, 9.947053909301758, 2.2215235233306885, 0.8733206391334534, 116.98802947998047, 31.42376708984375, 47.2016716003418, -0.83251953125, -0.000732421875, 0.120849609375, 
256, 3365908249, 0.643918514251709, -0.23927921056747437, -0.5804904699325562, -0.4371790289878845, 10.175023078918457, 2.303959369659424, 1.0016392469406128, 111.4129409790039, 30.68585205078125, 47.879974365234375, -0.83642578125, 0.007568359375, 0.119384765625, 
257, 3365916582, 0.6484848856925964, -0.23546531796455383, -0.5815730094909668, -0.4310179352760315, 10.055795669555664, 2.338042974472046, 1.2130545377731323, 104.0326919555664, 29.810712814331055, 47.92263412475586, -0.838623046875, 0.019287109375, 0.11767578125, 
258, 3365924915, 0.6529540419578552, -0.23202276229858398, -0.5822014212608337, -0.4252505600452423, 10.173556327819824, 2.170504570007324, 1.2015172243118286, 94.59981536865234, 32.108131408691406, 48.16851043701172, -0.837890625, 0.025634765625, 0.115966796875, 
259, 3365933248, 0.6574545502662659, -0.22886115312576294, -0.5824156999588013, -0.41970038414001465, 9.971014976501465, 1.8373804092407227, 1.153261423110962, 87.98246002197266, 35.177528381347656, 50.08134841918945, -0.83935546875, 0.034912109375, 0.11376953125, 
260, 3365941581, 0.662044882774353, -0.22567306458950043, -0.5825343132019043, -0.41400760412216187, 9.863446235656738, 1.791542649269104, 1.108336091041565, 89.12557983398438, 36.420021057128906, 51.87163543701172, -0.841064453125, 0.04248046875, 0.109375, 
261, 3365949914, 0.6667482852935791, -0.22238199412822723, -0.5825591683387756, -0.40816444158554077, 9.659455299377441, 1.7792012691497803, 1.123318076133728, 91.05384063720703, 38.34468460083008, 53.45576095581055, -0.84228515625, 0.0537109375, 0.10693359375, 
262, 3365958247, 0.6714596152305603, -0.2191389501094818, -0.58244389295578, -0.4023175835609436, 9.48055648803711, 1.6493257284164429, 1.2137067317962646, 89.90982055664062, 39.369606018066406, 54.243289947509766, -0.844482421875, 0.0634765625, 0.1025390625, 
263, 3365966580, 0.6762002110481262, -0.21592754125595093, -0.5821926593780518, -0.3964349627494812, 9.479405403137207, 1.458695650100708, 1.3757972717285156, 89.21076202392578, 40.618980407714844, 55.502689361572266, -0.844482421875, 0.06982421875, 0.098388671875, 
264, 3365974913, 0.6809797883033752, -0.21271085739135742, -0.5818876624107361, -0.39039409160614014, 9.451414108276367, 1.449015498161316, 1.4499189853668213, 90.37741088867188, 40.9516716003418, 57.20191192626953, -0.84716796875, 0.079833984375, 0.094970703125, 
265, 3365983246, 0.6858023405075073, -0.20950238406658173, -0.5814403295516968, -0.3843064308166504, 9.518136978149414, 1.641435980796814, 1.433653473854065, 90.00860595703125, 42.484519958496094, 58.45554733276367, -0.84716796875, 0.089111328125, 0.089111328125, 
266, 3365991579, 0.6906582713127136, -0.20628172159194946, -0.5808748602867126, -0.37815791368484497, 9.44629192352295, 1.8805660009384155, 1.3968740701675415, 90.11091613769531, 43.717735290527344, 59.346954345703125, -0.847412109375, 0.098388671875, 0.086181640625, 
267, 3365999912, 0.6954774856567383, -0.20306462049484253, -0.5801950693130493, -0.3720616400241852, 9.243871688842773, 1.9222804307937622, 1.4808305501937866, 88.93224334716797, 44.67707061767578, 59.1132926940918, -0.84912109375, 0.10791015625, 0.080810546875, 
268, 3366008245, 0.7001636028289795, -0.1999942660331726, -0.5794355273246765, -0.3660707473754883, 9.112509727478027, 2.0127363204956055, 1.7310162782669067, 85.9356460571289, 43.88634490966797, 58.72148132324219, -0.8505859375, 0.1181640625, 0.076416015625, 
269, 3366016578, 0.7047207355499268, -0.1969790756702423, -0.5786296129226685, -0.3601890802383423, 9.106498718261719, 1.8221880197525024, 1.971131443977356, 83.91793823242188, 43.363685607910156, 57.6836051940918, -0.853271484375, 0.128173828125, 0.071533203125, 
270, 3366024911, 0.7091197371482849, -0.19400271773338318, -0.5778703093528748, -0.35434189438819885, 9.290609359741211, 1.2657853364944458, 1.8399658203125, 83.09491729736328, 41.5206298828125, 56.65871810913086, -0.8525390625, 0.138916015625, 0.06494140625, 
271, 3366033244, 0.7134354114532471, -0.1910260021686554, -0.5770522952079773, -0.34858250617980957, 9.515031814575195, 0.9843844175338745, 1.464008092880249, 81.86731719970703, 41.701175689697266, 55.641685485839844, -0.85205078125, 0.14697265625, 0.0595703125, 
272, 3366041577, 0.7177380323410034, -0.18806259334087372, -0.5761281847953796, -0.34284284710884094, 9.393499374389648, 1.326263189315796, 1.2920567989349365, 81.0661392211914, 42.59397506713867, 55.67854690551758, -0.85107421875, 0.15380859375, 0.055419921875, 
273, 3366049910, 0.7219056487083435, -0.18505093455314636, -0.575282871723175, -0.33710289001464844, 8.90642261505127, 1.8051961660385132, 1.8141857385635376, 81.53916931152344, 41.006431579589844, 54.54973602294922, -0.851806640625, 0.162353515625, 0.048828125, 
274, 3366058243, 0.7257516980171204, -0.18223458528518677, -0.5745357871055603, -0.33160772919654846, 8.680625915527344, 1.7993913888931274, 2.3274123668670654, 77.3255844116211, 37.174278259277344, 51.836509704589844, -0.85302734375, 0.173583984375, 0.045166015625, 
275, 3366066576, 0.7293139100074768, -0.1796875, -0.5737916827201843, -0.3264305591583252, 8.734010696411133, 1.5269426107406616, 2.3204946517944336, 71.40340423583984, 34.50009536743164, 49.57554626464844, -0.8515625, 0.178466796875, 0.035888671875, 
276, 3366074909, 0.7327592372894287, -0.17717573046684265, -0.5730831027030945, -0.32129189372062683, 8.899221420288086, 1.2108771800994873, 2.099547863006592, 70.64147186279297, 33.127532958984375, 48.77315902709961, -0.854248046875, 0.187744140625, 0.031494140625, 
277, 3366083242, 0.7360052466392517, -0.17467623949050903, -0.5725671648979187, -0.31612008810043335, 8.948905944824219, 1.1074048280715942, 1.8361306190490723, 71.11687469482422, 29.513486862182617, 47.9367561340332, -0.851318359375, 0.1953125, 0.0263671875, 
278, 3366091575, 0.7390631437301636, -0.17222154140472412, -0.5721772313117981, -0.3109968900680542, 8.822864532470703, 1.4015666246414185, 1.525097131729126, 70.40357208251953, 26.648479461669922, 46.59574890136719, -0.853271484375, 0.2021484375, 0.0244140625, 
279, 3366099908, 0.741944432258606, -0.1698106825351715, -0.5718446373939514, -0.30603399872779846, 8.552130699157715, 1.7807048559188843, 1.3959590196609497, 68.4974136352539, 24.89577293395996, 44.50082778930664, -0.8515625, 0.2080078125, 0.019775390625, 
280, 3366108241, 0.7447691559791565, -0.16750822961330414, -0.5713760256767273, -0.30128026008605957, 8.464620590209961, 2.419210195541382, 1.2610100507736206, 65.06395721435547, 25.847902297973633, 43.222190856933594, -0.85302734375, 0.216552734375, 0.015625, 
281, 3366116574, 0.7474988698959351, -0.16543591022491455, -0.570746898651123, -0.29682451486587524, 8.255743026733398, 2.8826165199279785, 1.5209245681762695, 59.45941925048828, 26.503175735473633, 42.031917572021484, -0.85009765625, 0.221923828125, 0.012939453125, 
282, 3366124907, 0.7499927878379822, -0.16380774974822998, -0.569989025592804, -0.2928662896156311, 8.05160903930664, 2.7363219261169434, 1.9380488395690918, 49.948848724365234, 25.276268005371094, 39.668609619140625, -0.852294921875, 0.226806640625, 0.0087890625, 
283, 3366133240, 0.7519354820251465, -0.1627567708492279, -0.5694690346717834, -0.28946247696876526, 7.872838020324707, 2.114786386489868, 1.8440033197402954, 39.34489822387695, 17.444305419921875, 35.78396987915039, -0.850341796875, 0.232421875, 0.003662109375, 
284, 3366141573, 0.7531141638755798, -0.16173219680786133, -0.5698716044425964, -0.28616172075271606, 7.705127239227295, 1.5038803815841675, 1.5651050806045532, 40.24152755737305, 2.031482219696045, 29.762819290161133, -0.85009765625, 0.23974609375, 0.0009765625, 
285, 3366149906, 0.7537013292312622, -0.16057652235031128, -0.5710049271583557, -0.2829896807670593, 8.382957458496094, 1.1323528289794922, 1.371963620185852, 42.13546371459961, -9.354543685913086, 23.506759643554688, -0.85107421875, 0.241943359375, 0.0029296875, 
286, 3366158239, 0.75423264503479, -0.159323051571846, -0.5721040964126587, -0.28004738688468933, 8.948380470275879, 1.5957785844802856, 0.9555012583732605, 41.105918884277344, -8.561779975891113, 20.163293838500977, -0.84912109375, 0.246337890625, 0.003662109375, 
287, 3366166572, 0.7548460364341736, -0.15802687406539917, -0.5730605125427246, -0.27715831995010376, 8.84237003326416, 3.1266486644744873, 0.9790782928466797, 40.74418640136719, -6.144455909729004, 19.955842971801758, -0.8486328125, 0.24853515625, 0.006103515625, 
288, 3366174905, 0.7553659081459045, -0.15705320239067078, -0.5737559199333191, -0.27484723925590515, 8.293829917907715, 4.632684230804443, 1.4847608804702759, 31.652429580688477, -4.1448235511779785, 16.665189743041992, -0.8486328125, 0.249267578125, 0.003662109375, 
289, 3366183238, 0.7555733323097229, -0.15697547793388367, -0.5740451216697693, -0.2737155258655548, 8.19212818145752, 5.047386169433594, 2.0349249839782715, 10.820082664489746, -3.231184959411621, 11.221687316894531, -0.84716796875, 0.25146484375, 0.00341796875, 
290, 3366191571, 0.7554354667663574, -0.15803775191307068, -0.5738983154296875, -0.2737926244735718, 8.682745933532715, 4.366842746734619, 2.2023065090179443, -12.948408126831055, -3.103344440460205, 7.284651279449463, -0.8466796875, 0.25244140625, 0.0048828125, 
291, 3366199904, 0.7550702095031738, -0.15991351008415222, -0.5734257102012634, -0.2746999263763428, 9.181571960449219, 3.232419490814209, 2.0382864475250244, -29.676725387573242, -2.7766366004943848, 4.950325965881348, -0.845703125, 0.2529296875, 0.0068359375, 
292, 3366208237, 0.7544748783111572, -0.16217069327831268, -0.5729840993881226, -0.27593058347702026, 9.442453384399414, 2.010378837585449, 2.051246404647827, -36.580474853515625, -5.632858753204346, 3.6614437103271484, -0.84765625, 0.2548828125, 0.0068359375, 
293, 3366216570, 0.7537819147109985, -0.16437527537345886, -0.5726777911186218, -0.27715328335762024, 9.79867172241211, 1.023469090461731, 2.1022870540618896, -35.672855377197266, -7.633025169372559, 2.6600284576416016, -0.848876953125, 0.256103515625, 0.011474609375, 
294, 3366224903, 0.7531902194023132, -0.16608145833015442, -0.5725745558738708, -0.2779569923877716, 9.986639022827148, 0.4435741603374481, 2.418057441711426, -26.2054500579834, -7.975124359130859, 3.008380651473999, -0.847900390625, 0.256103515625, 0.010498046875, 
295, 3366233236, 0.7527059316635132, -0.1671302318572998, -0.5727710127830505, -0.27823585271835327, 10.032097816467285, 0.17149704694747925, 2.7579989433288574, -13.872440338134766, -8.931812286376953, 2.989398956298828, -0.846923828125, 0.255859375, 0.012451171875, 
296, 3366241569, 0.752374529838562, -0.16738826036453247, -0.5732961893081665, -0.2778949737548828, 10.079512596130371, 0.08299240469932556, 2.9666099548339844, 0.804043710231781, -9.514971733093262, 3.0072009563446045, -0.8466796875, 0.25439453125, 0.013671875, 
297, 3366249902, 0.7522061467170715, -0.16701450943946838, -0.5740809440612793, -0.27695387601852417, 10.170211791992188, 0.3363460600376129, 2.9188668727874756, 13.440138816833496, -9.897292137145996, 4.2614030838012695, -0.84521484375, 0.25537109375, 0.01513671875, 
298, 3366258235, 0.7521970272064209, -0.166254460811615, -0.5749594569206238, -0.2756102979183197, 9.951791763305664, 1.2684186697006226, 2.5060853958129883, 21.339141845703125, -9.047207832336426, 5.765498638153076, -0.847900390625, 0.256591796875, 0.017333984375, 
299, 3366266568, 0.7522323727607727, -0.16546419262886047, -0.5758038759231567, -0.27422311902046204, 9.496964454650879, 2.5309462547302246, 2.29304575920105, 21.966970443725586, -8.344660758972168, 6.223352432250977, -0.845947265625, 0.25537109375, 0.01611328125, 
300, 3366274901, 0.7520678043365479, -0.1652624011039734, -0.5764569640159607, -0.2734220325946808, 9.08060359954834, 3.5633792877197266, 1.954848289489746, 10.06136417388916, -8.81445026397705, 4.508759498596191, -0.847412109375, 0.2568359375, 0.015869140625, 
301, 3366283234, 0.7515501379966736, -0.16589295864105225, -0.5768678188323975, -0.2735974192619324, 8.789299964904785, 4.068853378295898, 1.6064637899398804, -8.000710487365723, -10.03819465637207, 0.2260584533214569, -0.846435546875, 0.258056640625, 0.018798828125, 
302, 3366291567, 0.7506245374679565, -0.1673785299062729, -0.5770474672317505, -0.2748519778251648, 8.686529159545898, 4.102136135101318, 1.41734778881073, -27.20694923400879, -11.616705894470215, -5.130356311798096, -0.848388671875, 0.25830078125, 0.022216796875, 
303, 3366299900, 0.7492833733558655, -0.16959933936595917, -0.5770676732063293, -0.27709823846817017, 8.652287483215332, 3.8095285892486572, 1.4192146062850952, -44.21763610839844, -13.787710189819336, -10.758614540100098, -0.846923828125, 0.25537109375, 0.02490234375, 
304, 3366308233, 0.7476094365119934, -0.17238429188728333, -0.5769566893577576, -0.28011560440063477, 8.834173202514648, 3.3581714630126953, 1.672303318977356, -57.43708419799805, -15.39858627319336, -15.147001266479492, -0.8447265625, 0.253662109375, 0.02685546875, 
305, 3366316566, 0.7457265257835388, -0.17551776766777039, -0.5767432451248169, -0.2836068868637085, 9.15208911895752, 2.8279762268066406, 2.1063520908355713, -65.65855407714844, -16.250381469726562, -17.85896110534668, -0.845947265625, 0.25439453125, 0.02587890625, 
306, 3366324899, 0.7437037825584412, -0.1787547469139099, -0.5765072703361511, -0.2873518764972687, 9.35979175567627, 2.1750781536102295, 2.276824474334717, -69.17382049560547, -16.889976501464844, -20.074739456176758, -0.845703125, 0.247314453125, 0.033935546875, 
307, 3366333232, 0.7415134310722351, -0.18191270530223846, -0.5764285922050476, -0.29116290807724, 9.59199047088623, 1.4367456436157227, 2.2772490978240967, -68.66353607177734, -19.383358001708984, -22.480670928955078, -0.84912109375, 0.245849609375, 0.035400390625, 
308, 3366341565, 0.7392332553863525, -0.18482425808906555, -0.5765233635902405, -0.29491540789604187, 10.07851505279541, 0.9939150810241699, 2.1398191452026367, -65.23324584960938, -20.993087768554688, -24.56844139099121, -0.84716796875, 0.24169921875, 0.03955078125, 
309, 3366349898, 0.7371036410331726, -0.1872679442167282, -0.5766693949699402, -0.29839834570884705, 10.437234878540039, 1.0550806522369385, 1.970424771308899, -57.734806060791016, -19.136798858642578, -25.12046241760254, -0.84765625, 0.235595703125, 0.044189453125, 
310, 3366358231, 0.7350968718528748, -0.18924888968467712, -0.5769232511520386, -0.3015913963317871, 10.506720542907715, 1.5085532665252686, 1.7962521314620972, -50.006744384765625, -18.073331832885742, -25.561573028564453, -0.84619140625, 0.23291015625, 0.049560546875, 
311, 3366366564, 0.7332025170326233, -0.1909804791212082, -0.5771350860595703, -0.30468958616256714, 10.585285186767578, 2.2468056678771973, 1.4518316984176636, -46.59332275390625, -15.999747276306152, -26.066682815551758, -0.846923828125, 0.228759765625, 0.0498046875, 
312, 3366374897, 0.7313739657402039, -0.19266504049301147, -0.5772134065628052, -0.30785924196243286, 10.540847778320312, 2.994699001312256, 1.0567971467971802, -47.08905792236328, -13.70675277709961, -26.46377944946289, -0.848388671875, 0.225341796875, 0.050537109375, 
313, 3366383230, 0.7295398712158203, -0.19451501965522766, -0.5770803093910217, -0.3112782835960388, 10.4760103225708, 3.7903194427490234, 0.6052531599998474, -51.62644958496094, -11.705358505249023, -27.19417953491211, -0.848388671875, 0.221923828125, 0.052490234375, 
314, 3366391563, 0.7276315093040466, -0.19671562314033508, -0.5766451358795166, -0.315144419670105, 10.369253158569336, 4.4874982833862305, 0.13750620186328888, -60.2072639465332, -9.520181655883789, -28.320844650268555, -0.848388671875, 0.21728515625, 0.0556640625, 
315, 3366399896, 0.7255851626396179, -0.19944113492965698, -0.5757991075515747, -0.3196638822555542, 10.320521354675293, 5.052491664886475, -0.19815018773078918, -72.77029418945312, -7.060628414154053, -30.269609451293945, -0.84814453125, 0.21142578125, 0.057373046875, 
316, 3366408229, 0.7232892513275146, -0.20277243852615356, -0.574482798576355, -0.3250935673713684, 9.988609313964844, 5.354999542236328, -0.4605218172073364, -88.8016357421875, -4.447409152984619, -34.25154495239258, -0.85009765625, 0.20751953125, 0.06005859375, 
317, 3366416562, 0.7206413149833679, -0.20682531595230103, -0.5726763606071472, -0.33154380321502686, 9.667299270629883, 5.33821439743042, -0.445291131734848, -107.18757629394531, -2.7956976890563965, -39.019508361816406, -0.85009765625, 0.19970703125, 0.060791015625, 
318, 3366424895, 0.7177008390426636, -0.21152189373970032, -0.5702678561210632, -0.33902591466903687, 9.440312385559082, 4.828497886657715, -0.2454417645931244, -125.30939483642578, 0.941119909286499, -43.66093444824219, -0.849365234375, 0.194580078125, 0.05908203125, 
319, 3366433228, 0.7146154046058655, -0.21681971848011017, -0.5670458674430847, -0.34749525785446167, 9.511285781860352, 3.8112542629241943, -0.043767571449279785, -143.1625518798828, 7.828878402709961, -47.135643005371094, -0.848876953125, 0.183837890625, 0.0615234375, 
320, 3366441561, 0.711246907711029, -0.2228863537311554, -0.5630826354026794, -0.35688650608062744, 9.474393844604492, 2.537545919418335, -0.23339098691940308, -162.33970642089844, 12.061396598815918, -49.18442153930664, -0.8525390625, 0.1787109375, 0.0595703125, 
321, 3366449894, 0.707615852355957, -0.22947408258914948, -0.5587636232376099, -0.3665858507156372, 9.468016624450684, 1.6021183729171753, -0.37623295187950134, -172.32852172851562, 11.813299179077148, -48.521827697753906, -0.849853515625, 0.168212890625, 0.058349609375, 
322, 3366458227, 0.7038485407829285, -0.236301451921463, -0.5542680025100708, -0.37619924545288086, 9.563075065612793, 1.1053602695465088, 0.05360830947756767, -175.3697967529297, 11.095728874206543, -45.80200958251953, -0.851806640625, 0.16162109375, 0.05712890625, 
323, 3366466560, 0.699992299079895, -0.243388831615448, -0.5495985746383667, -0.38560885190963745, 9.605047225952148, 0.9853208065032959, 0.5470708012580872, -177.47305297851562, 10.002820014953613, -41.91331481933594, -0.852294921875, 0.15380859375, 0.058349609375, 
324, 3366474893, 0.6960785984992981, -0.250514954328537, -0.5448343753814697, -0.3947816789150238, 9.496133804321289, 0.9446434378623962, 0.7498735189437866, -176.8032989501953, 9.574634552001953, -39.15323257446289, -0.853515625, 0.145751953125, 0.0556640625, 
325, 3366483226, 0.6920702457427979, -0.2575260102748871, -0.5400291681289673, -0.403816819190979, 9.279346466064453, 0.6480318307876587, 0.8115763068199158, -175.1653594970703, 9.318198204040527, -39.243431091308594, -0.85205078125, 0.13916015625, 0.05322265625, 
326, 3366491559, 0.6877284646034241, -0.26442593336105347, -0.5353853702545166, -0.41285738348960876, 9.158529281616211, 0.4278157949447632, 0.8483209609985352, -174.48867797851562, 6.034206390380859, -42.36855697631836, -0.852294921875, 0.13134765625, 0.053466796875, 
327, 3366499892, 0.6829628944396973, -0.2713165879249573, -0.5308606624603271, -0.42203831672668457, 9.295741081237793, 0.45053553581237793, 0.8465509414672852, -176.2449951171875, 2.2574615478515625, -46.779930114746094, -0.852783203125, 0.124267578125, 0.05322265625, 
328, 3366508225, 0.6778208017349243, -0.27819377183914185, -0.5262247920036316, -0.4315494894981384, 9.440192222595215, 0.6703075766563416, 0.8677862286567688, -180.63357543945312, 1.9577442407608032, -51.57020568847656, -0.8515625, 0.114990234375, 0.0517578125, 
329, 3366516558, 0.6723612546920776, -0.2851353585720062, -0.5212351083755493, -0.44150015711784363, 9.37691879272461, 0.8862105011940002, 0.9738447070121765, -187.67422485351562, 4.160647869110107, -55.91215133666992, -0.853271484375, 0.10595703125, 0.052978515625, 
330, 3366524891, 0.666523277759552, -0.29225555062294006, -0.5157937407493591, -0.45196276903152466, 9.162468910217285, 0.9072809815406799, 1.1475703716278076, -197.28160095214844, 6.6446967124938965, -59.70642852783203, -0.853271484375, 0.09521484375, 0.046630859375, 
331, 3366533224, 0.6602696776390076, -0.2996954321861267, -0.5098196864128113, -0.4629153609275818, 9.01785659790039, 0.7508565783500671, 1.217726230621338, -208.6112823486328, 8.465949058532715, -62.559444427490234, -0.85302734375, 0.084716796875, 0.044677734375, 
332, 3366541557, 0.6535694599151611, -0.30739307403564453, -0.5034183263778687, -0.4742431938648224, 9.171093940734863, 0.5121068954467773, 1.3182295560836792, -218.20404052734375, 9.210006713867188, -65.04927062988281, -0.852783203125, 0.07373046875, 0.041748046875, 
333, 3366549890, 0.646502673625946, -0.3153107166290283, -0.4964871108531952, -0.4858952462673187, 9.61844539642334, 0.03306452929973602, 1.2113367319107056, -227.37353515625, 11.281207084655762, -66.78544616699219, -0.8505859375, 0.064697265625, 0.037353515625, 
334, 3366558223, 0.6389970779418945, -0.3233773708343506, -0.4890955984592438, -0.4978707730770111, 10.095466613769531, -0.6834965944290161, 1.2509894371032715, -235.94586181640625, 12.86913776397705, -69.38357543945312, -0.851318359375, 0.053466796875, 0.033935546875, 
335, 3366566556, 0.6310450434684753, -0.33153894543647766, -0.4815922677516937, -0.5098168253898621, 10.594156265258789, -1.3227366209030151, 1.3926281929016113, -239.27415466308594, 9.98391342163086, -71.2417984008789, -0.85009765625, 0.041259765625, 0.02734375, 
336, 3366574889, 0.6227411031723022, -0.33955809473991394, -0.4742715656757355, -0.5214791297912598, 11.0360107421875, -1.8386693000793457, 1.5248816013336182, -236.54638671875, 5.854001045227051, -72.83409881591797, -0.848876953125, 0.02880859375, 0.02294921875, 
337, 3366583222, 0.6142930388450623, -0.3472612500190735, -0.46717044711112976, -0.5327153205871582, 11.211067199707031, -2.19267201423645, 1.8708882331848145, -230.09353637695312, 3.2296981811523438, -73.49008178710938, -0.84716796875, 0.017333984375, 0.01953125, 
338, 3366591555, 0.6055989861488342, -0.3547218441963196, -0.4604513943195343, -0.5434951782226562, 11.265558242797852, -2.361743450164795, 2.4910473823547363, -223.54916381835938, -1.9031025171279907, -74.64596557617188, -0.84765625, 0.007080078125, 0.01416015625, 
339, 3366599888, 0.5965423583984375, -0.3621503710746765, -0.4541357755661011, -0.5538277626037598, 11.433775901794434, -2.265407085418701, 3.158886194229126, -219.14125061035156, -9.580306053161621, -75.97734832763672, -0.845947265625, -0.0068359375, 0.010498046875, 
340, 3366608221, 0.5871716737747192, -0.36956787109375, -0.448131799697876, -0.5637438893318176, 11.644522666931152, -2.034182071685791, 3.773585081100464, -215.69630432128906, -16.016836166381836, -76.41036224365234, -0.8447265625, -0.01708984375, 0.007080078125, 
341, 3366616554, 0.5775944590568542, -0.37686675786972046, -0.4423527121543884, -0.5732892155647278, 11.860082626342773, -1.9876651763916016, 4.150400161743164, -211.70494079589844, -20.142047882080078, -77.0559310913086, -0.843505859375, -0.028076171875, 0.003173828125, 
342, 3366624887, 0.5679311752319336, -0.3838998079299927, -0.43682658672332764, -0.5824410319328308, 11.965988159179688, -2.218348741531372, 4.3945794105529785, -205.7001953125, -22.556507110595703, -77.38352966308594, -0.8408203125, -0.0390625, 0.001220703125, 
343, 3366633220, 0.558380126953125, -0.3904836177825928, -0.4316719174385071, -0.5910784006118774, 11.920701026916504, -2.5199077129364014, 4.491178512573242, -195.4811553955078, -23.96354866027832, -77.27881622314453, -0.839599609375, -0.050537109375, -0.000732421875, 
344, 3366641553, 0.5491191148757935, -0.39641284942626953, -0.42705821990966797, -0.599104642868042, 11.652507781982422, -2.68288254737854, 4.529799461364746, -180.91835021972656, -24.30569839477539, -76.88448333740234, -0.83544921875, -0.06298828125, -0.0048828125, 
345, 3366649886, 0.5404476523399353, -0.40141043066978455, -0.4232128858566284, -0.6063473224639893, 11.297967910766602, -2.4235265254974365, 4.417336463928223, -159.6869354248047, -23.29131507873535, -75.90234375, -0.834716796875, -0.072998046875, -0.005859375, 
346, 3366658219, 0.5325621366500854, -0.4051263630390167, -0.42025208473205566, -0.6128772497177124, 10.696527481079102, -1.848086953163147, 4.19905424118042, -134.33795166015625, -18.49856185913086, -76.2766342163086, -0.8310546875, -0.084228515625, -0.00634765625, 
347, 3366666552, 0.525459349155426, -0.40773409605026245, -0.4179723262786865, -0.6188090443611145, 9.835772514343262, -1.043982982635498, 4.197338581085205, -112.62357330322266, -12.996055603027344, -75.61376953125, -0.827880859375, -0.093505859375, -0.0126953125, 
348, 3366674885, 0.5188577175140381, -0.40961211919784546, -0.4163430333137512, -0.6242141723632812, 9.022844314575195, -0.39810776710510254, 4.240383148193359, -96.01561737060547, -11.525277137756348, -75.28068542480469, -0.827880859375, -0.102294921875, -0.01123046875, 
349, 3366683218, 0.5127614736557007, -0.41104352474212646, -0.4150311350822449, -0.6291649341583252, 8.337738037109375, 0.1735837757587433, 4.081971168518066, -84.617919921875, -9.65521240234375, -72.14884948730469, -0.823974609375, -0.114990234375, -0.015869140625, 
350, 3366691551, 0.5069053173065186, -0.41206151247024536, -0.4140857756137848, -0.6338497400283813, 8.193602561950684, 0.5072064995765686, 3.9705755710601807, -75.68972778320312, -8.77316665649414, -72.52947235107422, -0.822021484375, -0.124267578125, -0.016845703125, 
351, 3366699884, 0.5015286803245544, -0.4129941761493683, -0.4129914939403534, -0.6382184624671936, 8.530498504638672, 0.7373065948486328, 3.656733989715576, -71.84194946289062, -6.074159145355225, -65.88679504394531, -0.81787109375, -0.1337890625, -0.018798828125, 
352, 3366708217, 0.49649909138679504, -0.4134570062160492, -0.41191795468330383, -0.6425306797027588, 8.952863693237305, 0.5601712465286255, 3.3357841968536377, -66.15940856933594, -0.42991259694099426, -65.14070129394531, -0.816650390625, -0.143798828125, -0.021240234375, 
353, 3366716550, 0.4918749928474426, -0.41353967785835266, -0.4107059836387634, -0.6467956304550171, 9.129487991333008, 0.4855503737926483, 3.049750566482544, -62.18182373046875, 5.888638019561768, -62.69900131225586, -0.814453125, -0.14990234375, -0.0244140625, 
354, 3366724883, 0.48711079359054565, -0.41357412934303284, -0.4093572199344635, -0.6512192487716675, 9.117351531982422, 0.8377671241760254, 2.903611898422241, -64.79693603515625, 7.365594863891602, -64.4173583984375, -0.812255859375, -0.157958984375, -0.0283203125, 
355, 3366733216, 0.4819296598434448, -0.41385504603385925, -0.40798088908195496, -0.6557434797286987, 9.243180274963379, 1.372686505317688, 2.8923521041870117, -69.60075378417969, 3.5554258823394775, -67.37548065185547, -0.80908203125, -0.1669921875, -0.03369140625, 
356, 3366741549, 0.47642216086387634, -0.41438087821006775, -0.4066222906112671, -0.6602644920349121, 9.358562469482422, 1.757663369178772, 2.8282737731933594, -72.93781280517578, -0.6084460020065308, -68.9328384399414, -0.80615234375, -0.177001953125, -0.037109375, 
357, 3366749882, 0.47054535150527954, -0.4151060879230499, -0.405417263507843, -0.6647489666938782, 9.609254837036133, 1.8990331888198853, 2.846130609512329, -74.716796875, -5.708134651184082, -71.89838409423828, -0.802490234375, -0.18359375, -0.040771484375, 
358, 3366758215, 0.4644300043582916, -0.4158937931060791, -0.40430495142936707, -0.6692194938659668, 10.008386611938477, 1.8736976385116577, 2.8855161666870117, -75.58781433105469, -8.280036926269531, -74.07268524169922, -0.8017578125, -0.195068359375, -0.0419921875, 
359, 3366766548, 0.45822134613990784, -0.41656967997550964, -0.4031396806240082, -0.6737666130065918, 10.169855117797852, 2.0956497192382812, 2.8112375736236572, -76.28999328613281, -7.003157615661621, -75.83910369873047, -0.796142578125, -0.2021484375, -0.044921875, 
360, 3366774881, 0.4518396854400635, -0.41723546385765076, -0.40180766582489014, -0.6784440875053406, 10.101905822753906, 2.328122854232788, 2.662938356399536, -79.51701354980469, -6.061750888824463, -77.26314544677734, -0.7919921875, -0.212646484375, -0.048828125, 
361, 3366783214, 0.44519153237342834, -0.4180985391139984, -0.4000385105609894, -0.6833356022834778, 9.824563026428223, 2.193932294845581, 2.5840651988983154, -87.50016021728516, -5.438940525054932, -77.5808334350586, -0.786865234375, -0.22265625, -0.052734375, 
362, 3366791547, 0.4380819797515869, -0.4194793403148651, -0.3978855609893799, -0.6883230209350586, 10.008277893066406, 2.0375120639801025, 2.561807870864868, -97.49463653564453, -9.930646896362305, -77.34940338134766, -0.78466796875, -0.231201171875, -0.05615234375, 
363, 3366799880, 0.4305459260940552, -0.4213023781776428, -0.3953540325164795, -0.6934044361114502, 10.39279842376709, 2.047757387161255, 2.4496371746063232, -106.67982482910156, -13.639431953430176, -77.44990539550781, -0.778564453125, -0.23876953125, -0.06201171875, 
364, 3366808213, 0.4227602779865265, -0.4232942461967468, -0.39249616861343384, -0.6985862255096436, 10.429191589355469, 1.920546054840088, 2.33144211769104, -112.8221435546875, -14.077564239501953, -77.51510620117188, -0.77734375, -0.250244140625, -0.06494140625, 
365, 3366816546, 0.4148258566856384, -0.42527249455451965, -0.3894812762737274, -0.7038092613220215, 10.034111022949219, 1.6182016134262085, 2.3489739894866943, -115.30200958251953, -13.611844062805176, -78.4412841796875, -0.771240234375, -0.25830078125, -0.070556640625, 
366, 3366824879, 0.4067343771457672, -0.42721128463745117, -0.38652125000953674, -0.7089704275131226, 9.746805191040039, 1.3613016605377197, 2.4224135875701904, -115.16908264160156, -14.729212760925293, -80.04431915283203, -0.76708984375, -0.27001953125, -0.078369140625, 
367, 3366833212, 0.3985542058944702, -0.42913001775741577, -0.38368627429008484, -0.7139797806739807, 9.522764205932617, 1.434708595275879, 2.5270907878875732, -113.51598358154297, -16.612117767333984, -80.99934387207031, -0.763916015625, -0.277587890625, -0.081298828125, 
368, 3366841545, 0.3903091549873352, -0.4311225712299347, -0.3808485269546509, -0.7188371419906616, 9.172355651855469, 1.7141799926757812, 2.6991117000579834, -113.56585693359375, -18.543107986450195, -80.3022689819336, -0.76123046875, -0.286865234375, -0.088134765625, 
369, 3366849878, 0.38209572434425354, -0.43316516280174255, -0.37800291180610657, -0.7235086560249329, 8.948064804077148, 1.851625680923462, 2.7767701148986816, -112.71376037597656, -19.951011657714844, -78.77847290039062, -0.751220703125, -0.296630859375, -0.091796875, 
370, 3366858211, 0.3738841712474823, -0.4351543188095093, -0.3750818967819214, -0.728110671043396, 8.938380241394043, 1.7431219816207886, 2.8199455738067627, -112.84892272949219, -19.40897560119629, -78.12981414794922, -0.74853515625, -0.30322265625, -0.096435546875, 
371, 3366866544, 0.3657286763191223, -0.43708163499832153, -0.3720830976963043, -0.7326231002807617, 9.174482345581055, 1.6291307210922241, 2.7545695304870605, -112.47427368164062, -18.65443992614746, -77.05488586425781, -0.743408203125, -0.3125, -0.10400390625, 
372, 3366874877, 0.35771358013153076, -0.438825786113739, -0.3688378632068634, -0.7371646165847778, 9.244979858398438, 1.6167272329330444, 2.7268099784851074, -113.3775405883789, -14.66072940826416, -75.15094757080078, -0.7373046875, -0.321533203125, -0.1064453125, 
373, 3366883210, 0.3498159348964691, -0.4404416084289551, -0.3653862774372101, -0.7416960597038269, 9.004876136779785, 1.3764697313308716, 2.768167495727539, -114.04125213623047, -11.826155662536621, -73.40962219238281, -0.734619140625, -0.32666015625, -0.114013671875, 
374, 3366891543, 0.3420320749282837, -0.4420054852962494, -0.3619419038295746, -0.7460721135139465, 8.872529983520508, 1.0739282369613647, 2.879817485809326, -112.2849349975586, -11.68252944946289, -71.71607971191406, -0.73095703125, -0.3369140625, -0.119873046875, 
375, 3366899876, 0.33429887890815735, -0.4435672461986542, -0.3586220443248749, -0.7502418756484985, 8.860265731811523, 1.031225562095642, 3.048607587814331, -109.62529754638672, -13.265969276428223, -71.08280181884766, -0.72509765625, -0.343017578125, -0.128173828125, 
376, 3366908209, 0.3267074227333069, -0.4450189471244812, -0.35555025935173035, -0.7541781663894653, 8.918360710144043, 0.8410041928291321, 3.2577521800994873, -104.58053588867188, -13.980677604675293, -70.52212524414062, -0.720458984375, -0.349365234375, -0.135009765625, 
377, 3366916542, 0.31940001249313354, -0.44632744789123535, -0.35279181599617004, -0.757821798324585, 8.978287696838379, 0.6258246302604675, 3.3938686847686768, -97.4814682006836, -14.32097339630127, -68.95858764648438, -0.71533203125, -0.357421875, -0.139892578125, 
378, 3366924875, 0.31245118379592896, -0.4473952651023865, -0.3503437638282776, -0.7612170577049255, 9.025734901428223, 0.7750417590141296, 3.3689332008361816, -89.81465148925781, -12.94611930847168, -67.13168334960938, -0.708740234375, -0.36376953125, -0.143310546875, 
379, 3366933208, 0.3058486878871918, -0.4483213424682617, -0.3481762409210205, -0.7643417716026306, 9.06718921661377, 1.0942364931106567, 3.3069405555725098, -82.8016128540039, -12.679158210754395, -64.82416534423828, -0.7080078125, -0.369140625, -0.14892578125, 
380, 3366941541, 0.2996100187301636, -0.4491363763809204, -0.34626996517181396, -0.7671947479248047, 9.317337036132812, 1.660603404045105, 3.0793557167053223, -76.0702133178711, -12.531807899475098, -61.932350158691406, -0.700927734375, -0.373291015625, -0.154541015625, 
381, 3366949874, 0.2936711311340332, -0.44988417625427246, -0.3444986939430237, -0.769845724105835, 9.36225700378418, 1.9222019910812378, 3.0903894901275635, -71.53221893310547, -12.209234237670898, -59.15866470336914, -0.698974609375, -0.38232421875, -0.158935546875, 
382, 3366958207, 0.2878340780735016, -0.45077723264694214, -0.34281256794929504, -0.772276759147644, 9.144179344177246, 2.0509214401245117, 3.1263465881347656, -69.5733642578125, -14.955093383789062, -56.97224044799805, -0.6923828125, -0.38525390625, -0.162353515625, 
383, 3366966540, 0.2820015549659729, -0.4518723785877228, -0.3410789966583252, -0.7745529413223267, 9.098414421081543, 2.278965473175049, 3.031242847442627, -70.0896987915039, -17.86835479736328, -55.12348175048828, -0.689697265625, -0.391845703125, -0.1669921875, 
384, 3366974873, 0.2764163315296173, -0.4529244005680084, -0.33923953771591187, -0.7767563462257385, 9.107972145080566, 2.34218692779541, 3.188084602355957, -69.19758605957031, -16.27435874938965, -51.69304275512695, -0.686279296875, -0.39599609375, -0.171142578125, 
385, 3366983206, 0.27095532417297363, -0.4539996385574341, -0.3371316194534302, -0.7789674997329712, 8.876972198486328, 2.1698975563049316, 3.3250343799591064, -71.39025115966797, -14.889181137084961, -48.67330551147461, -0.68212890625, -0.400146484375, -0.17578125, 
386, 3366991539, 0.2655186951160431, -0.455266535282135, -0.33478209376335144, -0.7811104655265808, 8.77614974975586, 1.806014895439148, 3.423107624053955, -74.248779296875, -16.337474822998047, -45.70627212524414, -0.6796875, -0.402587890625, -0.177490234375, 
387, 3366999872, 0.2602769434452057, -0.45667290687561035, -0.3324325978755951, -0.7830548882484436, 8.889789581298828, 1.4375290870666504, 3.742645025253296, -72.59889221191406, -18.199172973632812, -42.300201416015625, -0.677001953125, -0.408203125, -0.180908203125, 
388, 3367008205, 0.2553073763847351, -0.45805543661117554, -0.33024153113365173, -0.7848085165023804, 9.042266845703125, 1.6338783502578735, 3.7020983695983887, -68.2500228881836, -18.45028305053711, -39.74223709106445, -0.6708984375, -0.410888671875, -0.1884765625, 
389, 3367016538, 0.2506929636001587, -0.4591922163963318, -0.32825765013694763, -0.7864623665809631, 8.92374324798584, 1.7719814777374268, 3.7557899951934814, -62.437416076660156, -15.553694725036621, -38.028785705566406, -0.67041015625, -0.412353515625, -0.1884765625, 
390, 3367024871, 0.24639156460762024, -0.46008557081222534, -0.3264049291610718, -0.788068950176239, 8.549539566040039, 1.7170982360839844, 3.9089419841766357, -58.010902404785156, -12.245948791503906, -36.36438751220703, -0.66748046875, -0.415771484375, -0.196044921875, 
391, 3367033204, 0.24232271313667297, -0.4609149098396301, -0.3245753049850464, -0.7896001935005188, 8.373592376708984, 1.692955493927002, 4.171992301940918, -55.712894439697266, -11.075522422790527, -34.065006256103516, -0.664306640625, -0.420166015625, -0.19580078125, 
392, 3367041537, 0.2385512888431549, -0.4617021083831787, -0.322775274515152, -0.7910255193710327, 8.37101936340332, 1.5063204765319824, 4.364264011383057, -52.908409118652344, -10.053045272827148, -30.822263717651367, -0.662841796875, -0.420166015625, -0.19921875, 
393, 3367049870, 0.23513932526111603, -0.46234482526779175, -0.3211725354194641, -0.7923229932785034, 8.599221229553223, 1.365455150604248, 4.37410831451416, -47.423946380615234, -8.351607322692871, -28.422182083129883, -0.661865234375, -0.4248046875, -0.202880859375, 
394, 3367058203, 0.2321341633796692, -0.46274274587631226, -0.31992924213409424, -0.793478786945343, 8.725038528442383, 1.338215947151184, 4.092467784881592, -39.515098571777344, -5.947291851043701, -26.869300842285156, -0.6572265625, -0.423828125, -0.205078125, 
395, 3367066536, 0.2295542061328888, -0.4629036784172058, -0.3190833628177643, -0.7944756150245667, 8.692610740661621, 1.3102803230285645, 4.058943748474121, -31.00439453125, -3.7757866382598877, -25.32184410095215, -0.65673828125, -0.427978515625, -0.20751953125, 
396, 3367074869, 0.22739453613758087, -0.46297580003738403, -0.31847915053367615, -0.7952965497970581, 8.653371810913086, 1.5449408292770386, 3.9692349433898926, -24.64574432373047, -2.8429391384124756, -22.080398559570312, -0.65478515625, -0.4287109375, -0.210205078125, 
397, 3367083202, 0.22560523450374603, -0.46309131383895874, -0.31791824102401733, -0.7959630489349365, 8.669386863708496, 1.7098314762115479, 4.091497421264648, -21.26373291015625, -2.8149936199188232, -17.65660858154297, -0.652587890625, -0.43359375, -0.21142578125, 
398, 3367091535, 0.22398459911346436, -0.4633293151855469, -0.31734880805015564, -0.796509325504303, 8.595998764038086, 1.91824209690094, 4.296698570251465, -20.144006729125977, -4.157308101654053, -14.831713676452637, -0.652099609375, -0.4326171875, -0.21337890625, 
399, 3367099868, 0.22245869040489197, -0.4635644555091858, -0.3168409466743469, -0.7970021367073059, 8.38332748413086, 2.0433390140533447, 4.314342975616455, -18.61678123474121, -4.24308967590332, -14.04970932006836, -0.652587890625, -0.43603515625, -0.2119140625, 
400, 3367108201, 0.2210589498281479, -0.46366822719573975, -0.3164387047290802, -0.7974910140037537, 8.168110847473145, 2.12654709815979, 4.200191974639893, -16.23880386352539, -2.6067748069763184, -13.889082908630371, -0.650146484375, -0.43505859375, -0.21435546875, 
401, 3367116534, 0.21980494260787964, -0.4635993540287018, -0.3160482347011566, -0.798032283782959, 8.123383522033691, 2.1665637493133545, 4.0307841300964355, -14.881837844848633, 0.22563588619232178, -13.286787033081055, -0.648681640625, -0.435302734375, -0.216064453125, 
402, 3367124867, 0.2187734842300415, -0.46344202756881714, -0.31563013792037964, -0.798572301864624, 8.238008499145508, 2.0612447261810303, 4.002607345581055, -13.49384880065918, 2.230026960372925, -11.042874336242676, -0.646484375, -0.438720703125, -0.21533203125, 
403, 3367133200, 0.21802404522895813, -0.4633089303970337, -0.31519079208374023, -0.7990279793739319, 8.503352165222168, 1.981303095817566, 3.9045801162719727, -11.634361267089844, 2.722409963607788, -7.457316875457764, -0.646728515625, -0.436767578125, -0.218017578125, 
404, 3367141533, 0.21756994724273682, -0.4631352126598358, -0.31476709246635437, -0.7994194626808167, 8.731606483459473, 2.0302011966705322, 3.8145549297332764, -9.178850173950195, 3.983065366744995, -4.293266773223877, -0.646728515625, -0.43603515625, -0.222412109375, 
405, 3367149866, 0.21738308668136597, -0.46299979090690613, -0.3143770396709442, -0.7997021079063416, 8.755864143371582, 2.1337711811065674, 3.689182996749878, -6.7545647621154785, 3.9360122680664062, -1.082496166229248, -0.646484375, -0.437744140625, -0.219482421875, 
406, 3367158199, 0.21733155846595764, -0.46301740407943726, -0.31400972604751587, -0.799850344657898, 8.909608840942383, 2.4457814693450928, 3.68501353263855, -5.512375354766846, 1.9022153615951538, 1.3237435817718506, -0.64501953125, -0.439697265625, -0.2197265625, 
407, 3367166532, 0.2172824889421463, -0.4631209969520569, -0.3134903609752655, -0.8000074028968811, 9.054313659667969, 2.8281126022338867, 3.5931625366210938, -7.471148490905762, 1.4899802207946777, 2.6659812927246094, -0.6455078125, -0.4365234375, -0.222412109375, 
408, 3367174865, 0.2172355353832245, -0.4632200300693512, -0.31270045042037964, -0.80027174949646, 8.723138809204102, 2.9804556369781494, 3.6438891887664795, -10.874383926391602, 3.0292162895202637, 4.067899703979492, -0.647705078125, -0.43701171875, -0.221435546875, 
409, 3367183198, 0.21713221073150635, -0.463434100151062, -0.31160596013069153, -0.8006027936935425, 8.318963050842285, 2.835747718811035, 3.9556334018707275, -15.223479270935059, 2.865875005722046, 5.688898086547852, -0.645751953125, -0.43505859375, -0.224365234375, 
410, 3367191531, 0.21699601411819458, -0.46388712525367737, -0.3103296458721161, -0.8008729815483093, 8.531523704528809, 2.3688855171203613, 4.234468460083008, -17.882802963256836, 0.23828934133052826, 7.6855549812316895, -0.64501953125, -0.43603515625, -0.223876953125, 
411, 3367199864, 0.21701040863990784, -0.4643667936325073, -0.30911141633987427, -0.8010622262954712, 8.97819995880127, 1.7768056392669678, 4.297723770141602, -16.022130966186523, -0.08976511657238007, 9.333958625793457, -0.647216796875, -0.433837890625, -0.227294921875, 
412, 3367208197, 0.21742835640907288, -0.4646588861942291, -0.30813318490982056, -0.8011562824249268, 8.794825553894043, 1.1562283039093018, 4.322073459625244, -9.826069831848145, 2.3548195362091064, 11.725020408630371, -0.646240234375, -0.43212890625, -0.22509765625, 
413, 3367216530, 0.21838679909706116, -0.46481770277023315, -0.3075740337371826, -0.8010182976722717, 8.409392356872559, 0.753113329410553, 4.313383102416992, -0.38361167907714844, 3.3893275260925293, 15.139449119567871, -0.649658203125, -0.429443359375, -0.2275390625, 
414, 3367224863, 0.2199028730392456, -0.464938223361969, -0.3074714243412018, -0.8005728721618652, 8.58830738067627, 0.6215368509292603, 4.347434997558594, 9.638435363769531, 2.8172850608825684, 19.106740951538086, -0.651123046875, -0.429931640625, -0.2294921875, 
415, 3367233196, 0.22200217843055725, -0.4649670422077179, -0.3077598810195923, -0.7998655438423157, 8.923027038574219, 0.5380241274833679, 4.355307579040527, 19.045249938964844, 3.4526734352111816, 23.447954177856445, -0.65478515625, -0.42578125, -0.224609375, 
416, 3367241529, 0.2246989607810974, -0.4648623764514923, -0.3083863854408264, -0.7989315390586853, 8.925990104675293, 0.5305346250534058, 4.267454624176025, 27.96940040588379, 4.948446273803711, 27.9586181640625, -0.65380859375, -0.42724609375, -0.225341796875, 
417, 3367249862, 0.22794637084007263, -0.46454760432243347, -0.3093905448913574, -0.7978057861328125, 8.64458179473877, 0.6201199293136597, 4.040871620178223, 37.081809997558594, 7.220156192779541, 31.32392120361328, -0.6572265625, -0.42236328125, -0.224365234375, 
418, 3367258195, 0.23177430033683777, -0.46398621797561646, -0.310809850692749, -0.7964767217636108, 8.328737258911133, 0.5843291282653809, 3.8095285892486572, 47.00782775878906, 9.771142959594727, 34.58839416503906, -0.659423828125, -0.420654296875, -0.220458984375, 
419, 3367266528, 0.23616063594818115, -0.4632088541984558, -0.31255799531936646, -0.7949551343917847, 8.695966720581055, 1.1340266466140747, 3.4410974979400635, 55.659141540527344, 12.270599365234375, 38.33662414550781, -0.658935546875, -0.419189453125, -0.217041015625, 
420, 3367274861, 0.2408185601234436, -0.4623057544231415, -0.3143334984779358, -0.793381929397583, 9.098495483398438, 1.8632041215896606, 3.3593392372131348, 58.34624099731445, 14.370856285095215, 40.71084213256836, -0.665771484375, -0.41455078125, -0.211181640625, 
421, 3367283194, 0.24541562795639038, -0.46144989132881165, -0.3158758878707886, -0.7918574213981628, 9.165610313415527, 2.3001437187194824, 3.3686695098876953, 55.02178955078125, 14.698049545288086, 41.619747161865234, -0.6689453125, -0.412353515625, -0.20947265625, 
422, 3367291527, 0.2499326467514038, -0.46076807379722595, -0.31726890802383423, -0.790283203125, 9.08246898651123, 2.473870038986206, 3.5343856811523438, 52.54451370239258, 12.620569229125977, 42.569217681884766, -0.67041015625, -0.407958984375, -0.208251953125, 
423, 3367299860, 0.25434404611587524, -0.4602855443954468, -0.31863296031951904, -0.7886063456535339, 9.190460205078125, 2.2846527099609375, 3.750898599624634, 51.29426574707031, 9.466571807861328, 42.87714385986328, -0.672607421875, -0.40478515625, -0.203125, 
424, 3367308193, 0.25866225361824036, -0.4599400460720062, -0.3197800815105438, -0.7869371175765991, 9.366945266723633, 1.8609203100204468, 3.8892557621002197, 47.868980407714844, 8.356367111206055, 43.761138916015625, -0.675048828125, -0.400390625, -0.201904296875, 
425, 3367316526, 0.2629418969154358, -0.45965462923049927, -0.320794016122818, -0.7852711081504822, 9.368950843811035, 1.4987525939941406, 3.9594194889068604, 45.92544174194336, 8.05271053314209, 44.49185562133789, -0.6796875, -0.398193359375, -0.1982421875, 
426, 3367324859, 0.26729071140289307, -0.45934078097343445, -0.3218216896057129, -0.7835641503334045, 9.198993682861328, 1.0623518228530884, 4.049386978149414, 46.824501037597656, 8.334749221801758, 45.11687469482422, -0.68310546875, -0.394287109375, -0.197509765625, 
427, 3367333192, 0.27185961604118347, -0.4589458703994751, -0.32310494780540466, -0.7816935181617737, 8.948858261108398, 0.5381331443786621, 4.232195854187012, 51.96269226074219, 8.229837417602539, 46.17495346069336, -0.685791015625, -0.38916015625, -0.193359375, 
428, 3367341525, 0.27685192227363586, -0.4583545923233032, -0.324847936630249, -0.7795630693435669, 8.700616836547852, 0.06584432721138, 4.35560941696167, 61.49801254272461, 8.837803840637207, 47.85851287841797, -0.6904296875, -0.385009765625, -0.185791015625, 
429, 3367349858, 0.28245073556900024, -0.4574970304965973, -0.32716822624206543, -0.7770840525627136, 8.521143913269043, -0.3552938997745514, 4.303299427032471, 74.04735565185547, 10.033090591430664, 50.92379379272461, -0.6923828125, -0.3828125, -0.1845703125, 
430, 3367358191, 0.288766086101532, -0.4563174247741699, -0.3300792872905731, -0.7742200493812561, 8.273921966552734, -0.515286922454834, 4.068495750427246, 87.89646911621094, 11.950231552124023, 54.83573532104492, -0.697998046875, -0.376953125, -0.180419921875, 
431, 3367366524, 0.2957978844642639, -0.4547773003578186, -0.3335738778114319, -0.7709668874740601, 7.872951507568359, -0.6193356513977051, 3.8672173023223877, 101.75871276855469, 14.31397533416748, 58.78529357910156, -0.697998046875, -0.37109375, -0.175048828125, 
432, 3367374857, 0.3034079372882843, -0.4530053734779358, -0.33751827478408813, -0.7673274874687195, 7.574042797088623, -0.645841658115387, 3.8113155364990234, 112.9084243774414, 15.1399564743042, 62.5200080871582, -0.70361328125, -0.365966796875, -0.16748046875, 
433, 3367383190, 0.31133753061294556, -0.4509597420692444, -0.3419188857078552, -0.7633976936340332, 7.532290458679199, -0.48215314745903015, 3.6502199172973633, 122.15289306640625, 15.837393760681152, 63.084442138671875, -0.710205078125, -0.3642578125, -0.159423828125, 
434, 3367391523, 0.3195241689682007, -0.44852563738822937, -0.34672072529792786, -0.7592720985412598, 7.683119773864746, -0.25455179810523987, 3.5615363121032715, 130.5992889404297, 18.14478302001953, 62.2030029296875, -0.712646484375, -0.3564453125, -0.154541015625, 
435, 3367399856, 0.3278179466724396, -0.44579651951789856, -0.3518393635749817, -0.7549769878387451, 7.919445991516113, 0.1694965958595276, 3.2425334453582764, 136.6174774169922, 19.34526824951172, 60.809085845947266, -0.7177734375, -0.35205078125, -0.14404296875, 
436, 3367408189, 0.3361395597457886, -0.44272300601005554, -0.35712501406669617, -0.7506322264671326, 8.031349182128906, 0.5316238403320312, 3.0541884899139404, 140.37356567382812, 21.9438533782959, 58.519893646240234, -0.722412109375, -0.346923828125, -0.1376953125, 
437, 3367416522, 0.3443566560745239, -0.43947523832321167, -0.3626403212547302, -0.7461584210395813, 8.436378479003906, 0.8614847660064697, 3.0292749404907227, 143.48912048339844, 21.436382293701172, 55.89552307128906, -0.724609375, -0.341064453125, -0.128173828125, 
438, 3367424855, 0.352536141872406, -0.4360602796077728, -0.36828362941741943, -0.741564154624939, 9.118695259094238, 1.5074431896209717, 2.8001554012298584, 146.0286102294922, 21.571792602539062, 54.355682373046875, -0.728515625, -0.337890625, -0.12158203125, 
439, 3367433188, 0.3606890141963959, -0.43246614933013916, -0.3737036883831024, -0.7370227575302124, 9.545207023620605, 2.160479784011841, 2.543227195739746, 144.13294982910156, 24.721302032470703, 54.37576675415039, -0.729736328125, -0.333984375, -0.113525390625, 
440, 3367441521, 0.36864742636680603, -0.42888426780700684, -0.378697007894516, -0.7326160073280334, 9.404620170593262, 2.7311670780181885, 2.5160834789276123, 137.95616149902344, 26.45740509033203, 54.220760345458984, -0.735595703125, -0.32861328125, -0.109619140625, 
441, 3367449854, 0.376197874546051, -0.42557254433631897, -0.3831642270088196, -0.7283740043640137, 8.902297973632812, 3.1957266330718994, 2.781338930130005, 127.96345520019531, 25.308422088623047, 53.901973724365234, -0.7373046875, -0.32421875, -0.103515625, 
442, 3367458187, 0.3831321597099304, -0.4227823317050934, -0.38700059056282043, -0.7243450284004211, 8.479390144348145, 3.4587154388427734, 3.0454888343811035, 114.27555084228516, 21.288564682006836, 52.959251403808594, -0.740478515625, -0.318603515625, -0.096923828125, 
443, 3367466520, 0.389413058757782, -0.42054325342178345, -0.3901364207267761, -0.7206072211265564, 8.402548789978027, 3.3302621841430664, 3.0125718116760254, 98.98804473876953, 17.764196395874023, 52.03153991699219, -0.7451171875, -0.310546875, -0.092529296875, 
444, 3367474853, 0.3952306807041168, -0.4186601936817169, -0.39275798201560974, -0.7171038389205933, 8.508702278137207, 2.828030824661255, 3.0521111488342285, 88.09973907470703, 15.798511505126953, 50.96769332885742, -0.7490234375, -0.307861328125, -0.08984375, 
445, 3367483186, 0.40077584981918335, -0.4168911874294281, -0.3950711488723755, -0.7137783169746399, 8.606736183166504, 2.2356579303741455, 3.1597485542297363, 81.85560607910156, 15.965010643005371, 49.80548858642578, -0.749755859375, -0.3017578125, -0.085693359375, 
446, 3367491519, 0.406225323677063, -0.41518932580947876, -0.3972330391407013, -0.7104822993278503, 8.797595024108887, 1.7792773246765137, 3.2730610370635986, 79.34357452392578, 15.724128723144531, 49.84071731567383, -0.7548828125, -0.294189453125, -0.079345703125, 
447, 3367499852, 0.4117945432662964, -0.4135746955871582, -0.3995840847492218, -0.7068905234336853, 9.631956100463867, 1.5043154954910278, 3.3324081897735596, 82.95355987548828, 12.84522533416748, 52.154388427734375, -0.75634765625, -0.28857421875, -0.07421875, 
