sep=,
PacketCounter,SampleTimeFine,Quat_W,Quat_X,Quat_Y,Quat_Z,Acc_X,Acc_Y,Acc_Z,Gyr_X,Gyr_Y,Gyr_Z,Mag_X,Mag_Y,Mag_Z,
0, 3080602995, 0.559908390045166, -0.39041867852211, -0.27163076400756836, -0.6784340739250183, 0, 0, 0, 0, 0, 0, -0.87841796875, 0.02783203125, -0.3310546875, 
1, 3080611328, 0.5598803758621216, -0.3904460072517395, -0.2716396749019623, -0.6784378290176392, 8.217522621154785, -0.6815659999847412, 5.395074844360352, -0.7454126477241516, -0.1192983016371727, -0.32183003425598145, -0.876953125, 0.02978515625, -0.3310546875, 
2, 3080619661, 0.5598604679107666, -0.3904867470264435, -0.2716776132583618, -0.6784157156944275, 8.250876426696777, -0.6819161772727966, 5.4180779457092285, -0.27279162406921387, -0.605904757976532, -0.03165919706225395, -0.87890625, 0.02880859375, -0.33203125, 
3, 3080627994, 0.5598530769348145, -0.39053642749786377, -0.2717312276363373, -0.678371787071228, 8.2986421585083, -0.667195737361908, 5.454171657562256, -0.21194496750831604, -0.8499442934989929, 0.08132519572973251, -0.8798828125, 0.0283203125, -0.33154296875, 
4, 3080636327, 0.5598446130752563, -0.3905918598175049, -0.27173712849617004, -0.6783443689346313, 8.338391304016113, -0.6795199513435364, 5.46671724319458, -0.7948994040489197, -0.4623240828514099, 0.22046171128749847, -0.87939453125, 0.029296875, -0.33056640625, 
5, 3080644660, 0.5598298907279968, -0.39064010977745056, -0.27169278264045715, -0.6783465147018433, 8.330479621887207, -0.6730467677116394, 5.456131935119629, -1.3263050317764282, 0.13587069511413574, 0.17982473969459534, -0.87841796875, 0.02783203125, -0.33056640625, 
6, 3080652993, 0.5598081350326538, -0.39068394899368286, -0.2716182470321655, -0.6783691048622131, 8.258113861083984, -0.698738694190979, 5.455286502838135, -1.6737364530563354, 0.4819701611995697, 0.1242162212729454, -0.876953125, 0.02978515625, -0.33056640625, 
7, 3080661326, 0.559794008731842, -0.39071589708328247, -0.27155962586402893, -0.678385853767395, 8.170056343078613, -0.6765516400337219, 5.438342094421387, -1.3856916427612305, 0.47775667905807495, 0.0879080519080162, -0.87744140625, 0.029296875, -0.33056640625, 
8, 3080669659, 0.5597899556159973, -0.3907419443130493, -0.27152183651924133, -0.6783892512321472, 8.12885570526123, -0.6938186287879944, 5.453320503234863, -1.0909230709075928, 0.333830326795578, 0.1334245651960373, -0.87890625, 0.02880859375, -0.33056640625, 
9, 3080677992, 0.5597977042198181, -0.3907475769519806, -0.27150774002075195, -0.6783852577209473, 8.16884708404541, -0.676415741443634, 5.427448272705078, -0.5739765763282776, 0.3528873026371002, 0.11354789137840271, -0.87939453125, 0.0302734375, -0.3291015625, 
10, 3080686325, 0.5598276257514954, -0.390725314617157, -0.2715105712413788, -0.6783722639083862, 8.2098970413208, -0.707502007484436, 5.3847174644470215, -0.01745610125362873, 0.5018340945243835, 0.22952912747859955, -0.87841796875, 0.02880859375, -0.33203125, 
11, 3080694658, 0.5598621964454651, -0.3906964957714081, -0.2715543508529663, -0.678342878818512, 8.259952545166016, -0.7074877023696899, 5.400317668914795, 0.4718654453754425, 0.19082604348659515, 0.12046374380588531, -0.8759765625, 0.02880859375, -0.330078125, 
12, 3080702991, 0.5599068999290466, -0.390648752450943, -0.2716320753097534, -0.6783022880554199, 8.276039123535156, -0.7061572670936584, 5.41188383102417, 1.032548189163208, 0.07116915285587311, 0.06409961730241776, -0.88037109375, 0.02978515625, -0.3310546875, 
13, 3080711324, 0.559951663017273, -0.3906114399433136, -0.2717365324497223, -0.6782450079917908, 8.277777671813965, -0.6894911527633667, 5.390689849853516, 1.261565089225769, -0.30688413977622986, 0.07288530468940735, -0.87646484375, 0.028076171875, -0.328125, 
14, 3080719657, 0.5599952936172485, -0.39060065150260925, -0.27183055877685547, -0.6781775951385498, 8.256813049316406, -0.6472679376602173, 5.365497589111328, 0.819104790687561, -0.5290876626968384, 0.19795961678028107, -0.87646484375, 0.02978515625, -0.330078125, 
15, 3080727990, 0.5600051283836365, -0.39061984419822693, -0.2718847393989563, -0.6781365871429443, 8.249388694763184, -0.6314456462860107, 5.369017601013184, 0.10943681746721268, -0.4908967912197113, 0.10126587003469467, -0.87646484375, 0.033203125, -0.330322265625, 
16, 3080736323, 0.5600005984306335, -0.3906620144844055, -0.271883487701416, -0.6781164407730103, 8.210448265075684, -0.5918402671813965, 5.3694024085998535, -0.8107033967971802, -0.22423985600471497, 0.1600121408700943, -0.87890625, 0.0302734375, -0.32958984375, 
17, 3080744656, 0.5599802732467651, -0.3907226324081421, -0.2718423902988434, -0.6781148314476013, 8.201471328735352, -0.5589518547058105, 5.380390644073486, -1.4078223705291748, -0.045862287282943726, 0.18483231961727142, -0.87646484375, 0.02978515625, -0.3330078125, 
18, 3080752989, 0.5599278211593628, -0.3908171057701111, -0.2717490792274475, -0.6781411170959473, 8.127224922180176, -0.5551595091819763, 5.402539253234863, -2.2161052227020264, 0.04047049209475517, 0.23145024478435516, -0.87744140625, 0.030029296875, -0.328125, 
19, 3080761322, 0.5598630905151367, -0.3909456729888916, -0.2716248631477356, -0.6781703233718872, 8.127532958984375, -0.5680623650550842, 5.388908386230469, -3.0604019165039062, -0.04035523161292076, 0.2340116798877716, -0.87841796875, 0.03125, -0.330078125, 
20, 3080769655, 0.5597914457321167, -0.39107608795166016, -0.2714889645576477, -0.6782087087631226, 8.130887985229492, -0.5997167825698853, 5.407102584838867, -3.2103726863861084, 0.04210980236530304, 0.21103568375110626, -0.87646484375, 0.03125, -0.3310546875, 
21, 3080777988, 0.5597342252731323, -0.39117637276649475, -0.27135998010635376, -0.6782495975494385, 8.153231620788574, -0.6432910561561584, 5.422247886657715, -2.89078426361084, 0.35398876667022705, 0.1337319314479828, -0.87890625, 0.0283203125, -0.33056640625, 
22, 3080786321, 0.5596847534179688, -0.391252726316452, -0.27124935388565063, -0.6782906651496887, 8.167549133300781, -0.6833171248435974, 5.397721767425537, -2.4079301357269287, 0.44502168893814087, 0.08731891959905624, -0.87744140625, 0.0283203125, -0.3291015625, 
23, 3080794654, 0.5596453547477722, -0.3913153409957886, -0.271171510219574, -0.678318202495575, 8.220193862915039, -0.7082452178001404, 5.423440933227539, -1.977982521057129, 0.30469411611557007, -0.013191331177949905, -0.8779296875, 0.029541015625, -0.32666015625, 
24, 3080802987, 0.5596174001693726, -0.39135652780532837, -0.27114832401275635, -0.6783267259597778, 8.255196571350098, -0.7308918237686157, 5.4247660636901855, -1.1608883142471313, 0.011820969171822071, -0.11352228373289108, -0.87744140625, 0.03125, -0.33154296875, 
25, 3080811320, 0.5595991611480713, -0.39138704538345337, -0.27114996314048767, -0.67832350730896, 8.259766578674316, -0.7270936369895935, 5.425967693328857, -0.7603585124015808, -0.09331264346837997, -0.12550973892211914, -0.8779296875, 0.03125, -0.3310546875, 
26, 3080819653, 0.5596012473106384, -0.3913973867893219, -0.2711775600910187, -0.6783047914505005, 8.30235481262207, -0.7137106657028198, 5.459536075592041, -0.25560447573661804, -0.11869636178016663, -0.055762190371751785, -0.8779296875, 0.031494140625, -0.328125, 
27, 3080827986, 0.5596181154251099, -0.39139118790626526, -0.2712140381336212, -0.6782800555229187, 8.326996803283691, -0.7043046951293945, 5.455544948577881, 0.11648073047399521, -0.005430217832326889, 0.04194330796599388, -0.87646484375, 0.02978515625, -0.32958984375, 
28, 3080836319, 0.5596505999565125, -0.3913518190383911, -0.2712551951408386, -0.6782592535018921, 8.326745986938477, -0.6847345232963562, 5.4341721534729, 0.48446768522262573, 0.3371601998806, 0.022105086594820023, -0.8798828125, 0.0283203125, -0.33056640625, 
29, 3080844652, 0.5596760511398315, -0.39131760597229004, -0.271269291639328, -0.6782524585723877, 8.304636001586914, -0.6790764927864075, 5.4384918212890625, 0.10207271575927734, 0.5582622289657593, 0.0007171985344029963, -0.87890625, 0.0302734375, -0.330078125, 
30, 3080852985, 0.559687614440918, -0.39130109548568726, -0.2712468206882477, -0.6782614588737488, 8.279823303222656, -0.6475182771682739, 5.455173015594482, -0.4437794089317322, 0.6879982948303223, 0.06808263063430786, -0.8798828125, 0.02880859375, -0.3291015625, 
31, 3080861318, 0.5596895217895508, -0.39129897952079773, -0.27121517062187195, -0.6782737970352173, 8.226978302001953, -0.6397574543952942, 5.443370819091797, -0.7685423493385315, 0.6265242099761963, -0.00006403557927114889, -0.880126953125, 0.030029296875, -0.32763671875, 
32, 3080869651, 0.5596892237663269, -0.39129745960235596, -0.27116072177886963, -0.678296685218811, 8.197208404541016, -0.6710654497146606, 5.415410041809082, -1.177025318145752, 0.8467682003974915, -0.05235549435019493, -0.87744140625, 0.03076171875, -0.33154296875, 
33, 3080877984, 0.5596712231636047, -0.39130014181137085, -0.2710968852043152, -0.678335428237915, 8.186821937561035, -0.6872597932815552, 5.401468753814697, -1.311909794807434, 0.8970999717712402, -0.1990482062101364, -0.87744140625, 0.031494140625, -0.3291015625, 
34, 3080886317, 0.5596551299095154, -0.39129161834716797, -0.27105382084846497, -0.6783708930015564, 8.198845863342285, -0.7092759013175964, 5.386162281036377, -1.0766303539276123, 0.8247271180152893, -0.33932459354400635, -0.876953125, 0.0283203125, -0.330078125, 
35, 3080894650, 0.5596394538879395, -0.39128220081329346, -0.2710399031639099, -0.6783947348594666, 8.188538551330566, -0.7525649070739746, 5.368523597717285, -0.6857186555862427, 0.554356038570404, -0.3754534125328064, -0.88037109375, 0.029296875, -0.33056640625, 
36, 3080902983, 0.5596300959587097, -0.3912811279296875, -0.27107441425323486, -0.678389310836792, 8.194539070129395, -0.7681578993797302, 5.3448052406311035, -0.11651913076639175, -0.04600316286087036, -0.281910240650177, -0.876953125, 0.03076171875, -0.3310546875, 
37, 3080911316, 0.5596213340759277, -0.3912925124168396, -0.2711426019668579, -0.6783626079559326, 8.222859382629395, -0.7280951142311096, 5.393530368804932, 0.1469232439994812, -0.5196231603622437, -0.28732767701148987, -0.87646484375, 0.031494140625, -0.32958984375, 
38, 3080919649, 0.5596073269844055, -0.39130812883377075, -0.27121588587760925, -0.6783360242843628, 8.255475044250488, -0.713281512260437, 5.41982364654541, 0.40677961707115173, -0.6530476212501526, -0.15543997287750244, -0.87841796875, 0.029296875, -0.33251953125, 
39, 3080927982, 0.5596109628677368, -0.3913039565086365, -0.2712923288345337, -0.6783048510551453, 8.26578140258789, -0.6631760597229004, 5.441874980926514, 0.4267459511756897, -0.4162057042121887, -0.23977483808994293, -0.8779296875, 0.0283203125, -0.33056640625, 
40, 3080936315, 0.5596073269844055, -0.39130130410194397, -0.27133458852767944, -0.6782923936843872, 8.300667762756348, -0.6419033408164978, 5.484199047088623, 0.0621657557785511, -0.11094806343317032, -0.1996757835149765, -0.87744140625, 0.02978515625, -0.33056640625, 
41, 3080944648, 0.5596047639846802, -0.39130985736846924, -0.27134472131729126, -0.6782855987548828, 8.320086479187012, -0.6342355012893677, 5.472846984863281, -0.41437429189682007, 0.08547469228506088, -0.07964746654033661, -0.87939453125, 0.029296875, -0.32958984375, 
42, 3080952981, 0.5595964789390564, -0.3913164734840393, -0.2713012099266052, -0.678305983543396, 8.285931587219238, -0.6495356559753418, 5.483240127563477, -0.9811148643493652, 0.6226052045822144, -0.014408007264137268, -0.87744140625, 0.02880859375, -0.3310546875, 
43, 3080961314, 0.5595808029174805, -0.39134275913238525, -0.2712356448173523, -0.6783299446105957, 8.246912956237793, -0.6626250743865967, 5.461774826049805, -1.4411336183547974, 0.6195186376571655, 0.03615449368953705, -0.87890625, 0.03125, -0.33251953125, 
44, 3080969647, 0.5595625042915344, -0.3913598656654358, -0.271152138710022, -0.6783685684204102, 8.25647258758545, -0.6943382620811462, 5.418306827545166, -1.43415367603302, 0.8840240240097046, 0.08534663170576096, -0.8759765625, 0.031005859375, -0.32958984375, 
45, 3080977980, 0.5595686435699463, -0.3913467824459076, -0.27108681201934814, -0.6783972382545471, 8.222772598266602, -0.7143043279647827, 5.393222332000732, -1.0358012914657593, 1.089732050895691, 0.05486568808555603, -0.87841796875, 0.0302734375, -0.3291015625, 
46, 3080986313, 0.5595932006835938, -0.3913188874721527, -0.2710723280906677, -0.678398847579956, 8.184348106384277, -0.7231521010398865, 5.37168550491333, -0.36304333806037903, 0.7593083381652832, 0.04472245275974274, -0.876953125, 0.03125, -0.33251953125, 
47, 3080994646, 0.5596290826797485, -0.39127758145332336, -0.27111682295799255, -0.6783753633499146, 8.165921211242676, -0.7417927384376526, 5.345312595367432, 0.5568791031837463, 0.3383640646934509, 0.03560378775000572, -0.87841796875, 0.02978515625, -0.33056640625, 
48, 3081002979, 0.5596605539321899, -0.3912443220615387, -0.27120161056518555, -0.6783345937728882, 8.169326782226562, -0.6916012167930603, 5.36604118347168, 0.9095870852470398, -0.16609549522399902, -0.04578544571995735, -0.87841796875, 0.0302734375, -0.33056640625, 
49, 3081011312, 0.5596955418586731, -0.39121484756469727, -0.2713104486465454, -0.6782792806625366, 8.206228256225586, -0.6529400944709778, 5.391719818115234, 1.181661605834961, -0.44032153487205505, -0.029853390529751778, -0.87841796875, 0.02978515625, -0.330078125, 
50, 3081019645, 0.5597386956214905, -0.3911744952201843, -0.2714235186576843, -0.6782217025756836, 8.2523775100708, -0.6318606734275818, 5.391626834869385, 1.3479875326156616, -0.36515650153160095, 0.009694988839328289, -0.87744140625, 0.0302734375, -0.3310546875, 
51, 3081027978, 0.5597589015960693, -0.3911306858062744, -0.2715093791484833, -0.6781960129737854, 8.250432968139648, -0.6138140559196472, 5.416304588317871, 0.8879943490028381, -0.026600385084748268, -0.32654306292533875, -0.87744140625, 0.031005859375, -0.3291015625, 
52, 3081036311, 0.55976802110672, -0.3910859227180481, -0.2715345621109009, -0.6782040596008301, 8.27175521850586, -0.5972552299499512, 5.433871746063232, 0.24617843329906464, 0.5682518482208252, -0.28353679180145264, -0.876953125, 0.029541015625, -0.328125, 
53, 3081044644, 0.5597656965255737, -0.39105647802352905, -0.27154043316841125, -0.6782205104827881, 8.249503135681152, -0.6275042295455933, 5.434136867523193, -0.2473822832107544, 0.5983868837356567, -0.37627309560775757, -0.8779296875, 0.0302734375, -0.3330078125, 
54, 3081052977, 0.5597584247589111, -0.3910309374332428, -0.2715115547180176, -0.6782529950141907, 8.257099151611328, -0.6322397589683533, 5.4166765213012695, -0.7163661122322083, 0.8860988020896912, -0.34892991185188293, -0.87744140625, 0.029296875, -0.330078125, 
55, 3081061310, 0.5597463846206665, -0.39102664589881897, -0.2714615762233734, -0.6782853007316589, 8.240017890930176, -0.6658939123153687, 5.400238990783691, -1.0733516216278076, 0.8433998823165894, -0.1921451836824417, -0.876953125, 0.02978515625, -0.32958984375, 
56, 3081069643, 0.5597381591796875, -0.3910260796546936, -0.27140703797340393, -0.6783143281936646, 8.218695640563965, -0.6568670272827148, 5.393401145935059, -1.1626813411712646, 0.832040011882782, -0.11562264710664749, -0.87841796875, 0.029296875, -0.3310546875, 
57, 3081077976, 0.5597238540649414, -0.39103761315345764, -0.2713560461997986, -0.6783398985862732, 8.213838577270508, -0.6726030707359314, 5.3795390129089355, -1.1922786235809326, 0.6596433520317078, -0.09880690276622772, -0.87939453125, 0.0283203125, -0.33203125, 
58, 3081086309, 0.5597186088562012, -0.3910467326641083, -0.27134984731674194, -0.678341269493103, 8.208395004272461, -0.6774171590805054, 5.36545467376709, -0.7569646835327148, 0.2406969964504242, -0.1547740250825882, -0.87548828125, 0.03125, -0.33056640625, 
59, 3081094642, 0.5597081184387207, -0.3910694420337677, -0.27135252952575684, -0.6783357262611389, 8.277613639831543, -0.6683688163757324, 5.382364273071289, -0.6411370635032654, -0.013665192760527134, -0.07227055728435516, -0.87841796875, 0.0302734375, -0.330078125, 
60, 3081102975, 0.5596870183944702, -0.39110034704208374, -0.2713594138622284, -0.6783326864242554, 8.263214111328125, -0.6654433012008667, 5.418006896972656, -0.7511757612228394, -0.1558241844177246, -0.1805163025856018, -0.8779296875, 0.0283203125, -0.32958984375, 
61, 3081111308, 0.5596575140953064, -0.39112505316734314, -0.2713666558265686, -0.6783398389816284, 8.254602432250977, -0.6498717069625854, 5.435910701751709, -0.7622923851013184, -0.06970914453268051, -0.36327385902404785, -0.876953125, 0.02978515625, -0.33203125, 
62, 3081119641, 0.5596021413803101, -0.3911522626876831, -0.27134284377098083, -0.678379476070404, 8.241270065307617, -0.635015070438385, 5.445266246795654, -0.9901566505432129, 0.1796838492155075, -0.44270363450050354, -0.876953125, 0.0302734375, -0.33203125, 
63, 3081127974, 0.559561014175415, -0.3911646008491516, -0.27132532000541687, -0.6784133315086365, 8.216814041137695, -0.6124049425125122, 5.455301761627197, -1.0612105131149292, 0.3372882306575775, -0.5906770825386047, -0.87744140625, 0.02978515625, -0.33154296875, 
64, 3081136307, 0.5595285892486572, -0.3911762833595276, -0.27129340171813965, -0.6784460544586182, 8.212522506713867, -0.6482762098312378, 5.441425323486328, -1.1761159896850586, 0.4726851284503937, -0.43476325273513794, -0.87890625, 0.02880859375, -0.33154296875, 
65, 3081144640, 0.559510350227356, -0.3911656141281128, -0.2712791860103607, -0.6784728169441223, 8.191728591918945, -0.6885609030723572, 5.404752731323242, -0.7034565806388855, 0.5731953382492065, -0.42515790462493896, -0.87744140625, 0.0322265625, -0.33203125, 
66, 3081152973, 0.5595444440841675, -0.391110897064209, -0.27130430936813354, -0.6784662008285522, 8.175321578979492, -0.6945481896400452, 5.3696112632751465, 0.14591148495674133, 0.7119604349136353, -0.2100367397069931, -0.8779296875, 0.02978515625, -0.33203125, 
67, 3081161306, 0.5595853328704834, -0.39103004336357117, -0.27136436104774475, -0.678455114364624, 8.163732528686523, -0.6912292838096619, 5.362922668457031, 0.9905280470848083, 0.6736799478530884, -0.2442445307970047, -0.87744140625, 0.029296875, -0.33154296875, 
68, 3081169639, 0.5596247315406799, -0.3909534513950348, -0.2714465260505676, -0.6784338355064392, 8.158990859985352, -0.667824923992157, 5.379645347595215, 1.1813030242919922, 0.39340904355049133, -0.27370089292526245, -0.8779296875, 0.02978515625, -0.33154296875, 
69, 3081177972, 0.5596718192100525, -0.39089587330818176, -0.2715047001838684, -0.6784049272537231, 8.20283031463623, -0.626345694065094, 5.395267486572266, 0.8913882374763489, 0.3984934985637665, 0.04806511476635933, -0.87939453125, 0.029296875, -0.3310546875, 
70, 3081186305, 0.5597019195556641, -0.3908623158931732, -0.27153220772743225, -0.6783884763717651, 8.248279571533203, -0.6196221709251404, 5.41204833984375, 0.26770713925361633, 0.4051018953323364, 0.05372585356235504, -0.87841796875, 0.03076171875, -0.33154296875, 
71, 3081194638, 0.5597128868103027, -0.3908705413341522, -0.2715379595756531, -0.6783724427223206, 8.324743270874023, -0.6572246551513672, 5.400081634521484, -0.34478041529655457, 0.12187252193689346, 0.13995617628097534, -0.876953125, 0.03173828125, -0.33251953125, 
72, 3081202971, 0.5597196221351624, -0.39090290665626526, -0.2715313136577606, -0.6783509254455566, 8.332382202148438, -0.6394069194793701, 5.439465045928955, -1.059981107711792, -0.026139328256249428, 0.04828283563256264, -0.8779296875, 0.0283203125, -0.33203125, 
73, 3081211304, 0.5596705079078674, -0.39098116755485535, -0.27148184180259705, -0.6783660054206848, 8.322482109069824, -0.6567554473876953, 5.440624713897705, -1.8385255336761475, -0.1620996743440628, -0.1025465801358223, -0.87744140625, 0.02978515625, -0.33251953125, 
74, 3081219637, 0.5596055388450623, -0.39107468724250793, -0.2714112102985382, -0.6783940196037292, 8.283003807067871, -0.6237832307815552, 5.468887805938721, -2.2818057537078857, -0.14365743100643158, -0.15910282731056213, -0.87744140625, 0.03076171875, -0.33056640625, 
75, 3081227970, 0.559529185295105, -0.39118069410324097, -0.2713358998298645, -0.6784260869026184, 8.257241249084473, -0.6404498219490051, 5.468514919281006, -2.503842830657959, -0.23383232951164246, -0.24420610070228577, -0.8798828125, 0.030029296875, -0.33447265625, 
76, 3081236303, 0.5594393610954285, -0.39128097891807556, -0.27124178409576416, -0.6784797310829163, 8.20695686340332, -0.6442186236381531, 5.456670761108398, -2.547130584716797, -0.00427757715806365, -0.2866233289241791, -0.87841796875, 0.0283203125, -0.33056640625, 
77, 3081244636, 0.5593727827072144, -0.39135125279426575, -0.2711437940597534, -0.6785334348678589, 8.198931694030762, -0.642084538936615, 5.443072319030762, -2.467496156692505, 0.427053302526474, -0.32980889081954956, -0.87939453125, 0.029541015625, -0.333984375, 
78, 3081252969, 0.5593281984329224, -0.3913913071155548, -0.27104806900024414, -0.6785852909088135, 8.206610679626465, -0.6597956418991089, 5.4529337882995605, -2.0007920265197754, 0.745143711566925, -0.16468673944473267, -0.87890625, 0.0283203125, -0.3310546875, 
79, 3081261302, 0.5593028664588928, -0.39142143726348877, -0.2709689140319824, -0.6786203384399414, 8.186722755432129, -0.6938086152076721, 5.422112941741943, -1.6909878253936768, 0.7108975648880005, -0.05311112105846405, -0.87890625, 0.03076171875, -0.32958984375, 
80, 3081269635, 0.5593026876449585, -0.3914293646812439, -0.27093246579170227, -0.678630530834198, 8.184647560119629, -0.7087396383285522, 5.389151573181152, -0.8979453444480896, 0.5378732681274414, 0.0731542557477951, -0.8759765625, 0.030029296875, -0.3291015625, 
81, 3081277968, 0.5593451857566833, -0.39139968156814575, -0.2709287703037262, -0.67861407995224, 8.222187042236328, -0.7197907567024231, 5.363001823425293, 0.02922583930194378, 0.6652529239654541, 0.34684234857559204, -0.8759765625, 0.029052734375, -0.3291015625, 
82, 3081286301, 0.5594128966331482, -0.3913591504096985, -0.2709554135799408, -0.6785709857940674, 8.229581832885742, -0.6811866760253906, 5.386105060577393, 0.5589026212692261, 0.4779616892337799, 0.5508341789245605, -0.8779296875, 0.029296875, -0.330078125, 
83, 3081294634, 0.5594733953475952, -0.39132261276245117, -0.27098774909973145, -0.6785292625427246, 8.223122596740723, -0.6830325722694397, 5.387807846069336, 0.6084917187690735, 0.38147276639938354, 0.4888988733291626, -0.87890625, 0.02978515625, -0.33056640625, 
84, 3081302967, 0.5595340728759766, -0.39127814769744873, -0.2710126042366028, -0.6784950494766235, 8.23831558227539, -0.6588632464408875, 5.387542724609375, 0.5776009559631348, 0.5411519408226013, 0.46049270033836365, -0.87744140625, 0.0302734375, -0.3310546875, 
85, 3081311300, 0.5595848560333252, -0.3912350535392761, -0.2710208594799042, -0.6784746646881104, 8.217371940612793, -0.6328120231628418, 5.406211853027344, 0.3053728938102722, 0.7075420022010803, 0.3413865268230438, -0.87744140625, 0.02978515625, -0.3310546875, 
86, 3081319633, 0.5596325993537903, -0.39119166135787964, -0.2710246443748474, -0.6784586906433105, 8.219325065612793, -0.6267321109771729, 5.41204833984375, 0.209934264421463, 0.7471672296524048, 0.30122336745262146, -0.87841796875, 0.02978515625, -0.33056640625, 
87, 3081327966, 0.5596681237220764, -0.39115607738494873, -0.2710210978984833, -0.678451418876648, 8.236227989196777, -0.6318679451942444, 5.4102678298950195, 0.0029968656599521637, 0.7395085096359253, 0.18841831386089325, -0.87890625, 0.0302734375, -0.33251953125, 
88, 3081336299, 0.5596794486045837, -0.391146719455719, -0.2710099518299103, -0.6784517765045166, 8.188338279724121, -0.6266248226165771, 5.403421878814697, -0.34544637799263, 0.48802801966667175, 0.11003874987363815, -0.87841796875, 0.0302734375, -0.33203125, 
89, 3081344632, 0.5596771240234375, -0.3911656439304352, -0.2709966003894806, -0.6784482002258301, 8.244438171386719, -0.6214747428894043, 5.405239105224609, -0.7259202003479004, 0.18693266808986664, 0.06206328794360161, -0.87646484375, 0.02978515625, -0.330078125, 
90, 3081352965, 0.5596637725830078, -0.3912002444267273, -0.2709716260433197, -0.6784492135047913, 8.263800621032715, -0.6532834768295288, 5.417921543121338, -1.0353401899337769, 0.10319975018501282, 0.05760641023516655, -0.878173828125, 0.032958984375, -0.328369140625, 
91, 3081361298, 0.5596447587013245, -0.39124801754951477, -0.27091947197914124, -0.6784580945968628, 8.25712776184082, -0.6515095233917236, 5.403772354125977, -1.4438360929489136, 0.22184491157531738, 0.12743081152439117, -0.87890625, 0.029296875, -0.33154296875, 
92, 3081369631, 0.5596319437026978, -0.39132457971572876, -0.2708710730075836, -0.678443968296051, 8.260489463806152, -0.6905140280723572, 5.41054630279541, -1.5650423765182495, -0.18374371528625488, 0.42796260118484497, -0.8779296875, 0.029296875, -0.33251953125, 
93, 3081377964, 0.559619665145874, -0.3914012014865875, -0.2708195149898529, -0.6784304976463318, 8.268851280212402, -0.686272382736206, 5.434179306030273, -1.543168067932129, -0.14824236929416656, 0.46576929092407227, -0.87744140625, 0.02978515625, -0.33056640625, 
94, 3081386297, 0.5595982074737549, -0.3914937376976013, -0.27076464891433716, -0.6784167885780334, 8.25327205657959, -0.682719886302948, 5.436128616333008, -1.7892438173294067, -0.31327489018440247, 0.4432543218135834, -0.8759765625, 0.030517578125, -0.32958984375, 
95, 3081394630, 0.5595749020576477, -0.39158597588539124, -0.27067556977272034, -0.6784182786941528, 8.257418632507324, -0.6676956415176392, 5.447093963623047, -2.1281843185424805, 0.03523237630724907, 0.5077381730079651, -0.87744140625, 0.02978515625, -0.33203125, 
96, 3081402963, 0.5595467686653137, -0.39167267084121704, -0.2705765962600708, -0.6784309148788452, 8.235363960266113, -0.6762453317642212, 5.433091163635254, -2.1387248039245605, 0.18347477912902832, 0.49233123660087585, -0.876953125, 0.03076171875, -0.33056640625, 
97, 3081411296, 0.5595259666442871, -0.3917311429977417, -0.2704971432685852, -0.6784459352493286, 8.201669692993164, -0.7225152850151062, 5.466488361358643, -1.8139872550964355, 0.3585736155509949, 0.2498924732208252, -0.87646484375, 0.0302734375, -0.33154296875, 
98, 3081419629, 0.5595095157623291, -0.3917662501335144, -0.2704322338104248, -0.6784651279449463, 8.16511344909668, -0.7356413006782532, 5.466875076293945, -1.353468894958496, 0.4767321050167084, 0.19643555581569672, -0.87744140625, 0.031982421875, -0.32861328125, 
99, 3081427962, 0.5595136284828186, -0.3917768597602844, -0.2704184055328369, -0.6784610748291016, 8.155478477478027, -0.7245686650276184, 5.4341936111450195, -0.6300076842308044, 0.2896841764450073, 0.09709075093269348, -0.87841796875, 0.03076171875, -0.33056640625, 
100, 3081436295, 0.5595328211784363, -0.3917677700519562, -0.2704380750656128, -0.678442656993866, 8.19594955444336, -0.7175732254981995, 5.425052165985107, -0.016405915841460228, 0.1822708696126938, 0.11746687442064285, -0.8779296875, 0.03173828125, -0.33203125, 
101, 3081444628, 0.5595709085464478, -0.3917405307292938, -0.2704727351665497, -0.6784129738807678, 8.224346160888672, -0.7256702184677124, 5.430130958557129, 0.39353710412979126, 0.25842201709747314, 0.21067708730697632, -0.877685546875, 0.03369140625, -0.331298828125, 
102, 3081452961, 0.5596112608909607, -0.3916800618171692, -0.2705243229866028, -0.6783941984176636, 8.277098655700684, -0.7136039137840271, 5.434172630310059, 0.7679659724235535, 0.495199978351593, -0.06007818505167961, -0.8779296875, 0.02978515625, -0.33251953125, 
103, 3081461294, 0.5596561431884766, -0.3916090726852417, -0.2705772817134857, -0.678377091884613, 8.315895080566406, -0.7061000466346741, 5.440652847290039, 0.890466034412384, 0.6169059872627258, -0.08460381627082825, -0.876953125, 0.03076171875, -0.33203125, 
104, 3081469627, 0.5596987009048462, -0.3915422260761261, -0.27062520384788513, -0.6783613562583923, 8.277027130126953, -0.6899775266647339, 5.417520523071289, 0.7957958579063416, 0.6061736941337585, -0.06098749488592148, -0.87841796875, 0.03125, -0.330078125, 
105, 3081477960, 0.5597271919250488, -0.39149314165115356, -0.2706572413444519, -0.6783534288406372, 8.268250465393066, -0.6788547039031982, 5.431024551391602, 0.4046792984008789, 0.5630776882171631, -0.1144828200340271, -0.87939453125, 0.03125, -0.331298828125, 
106, 3081486293, 0.5597420930862427, -0.3914690315723419, -0.27068036794662476, -0.6783458590507507, 8.220447540283203, -0.6483837366104126, 5.410682201385498, 0.03455360233783722, 0.3393886685371399, -0.10293081402778625, -0.87841796875, 0.031005859375, -0.328125, 
107, 3081494626, 0.559736967086792, -0.3914567828178406, -0.2706807255744934, -0.6783570647239685, 8.195448875427246, -0.6437129378318787, 5.409938335418701, -0.4269508719444275, 0.4424346685409546, -0.26691311597824097, -0.8759765625, 0.030029296875, -0.32958984375, 
108, 3081502959, 0.5597188472747803, -0.3914482593536377, -0.2706579566001892, -0.6783860325813293, 8.186707496643066, -0.6534479856491089, 5.404688358306885, -0.7508428692817688, 0.6148697733879089, -0.33668631315231323, -0.87744140625, 0.030029296875, -0.32763671875, 
109, 3081511292, 0.5596949458122253, -0.39145076274871826, -0.2706279158592224, -0.6784162521362305, 8.193446159362793, -0.6617452502250671, 5.408522129058838, -0.9945366978645325, 0.5697886347770691, -0.3691651523113251, -0.87744140625, 0.03271484375, -0.329833984375, 
110, 3081519625, 0.5596616268157959, -0.3914620578289032, -0.270615816116333, -0.6784420609474182, 8.172245025634766, -0.6970586180686951, 5.401712894439697, -0.7667749524116516, 0.26374974846839905, -0.36716723442077637, -0.876953125, 0.031982421875, -0.32958984375, 
111, 3081527958, 0.559647262096405, -0.39146682620048523, -0.27063944935798645, -0.6784417629241943, 8.173060417175293, -0.7393606901168823, 5.3998823165893555, -0.3472394049167633, 0.0071207573637366295, -0.327875018119812, -0.87841796875, 0.03076171875, -0.33251953125, 
112, 3081536291, 0.559656023979187, -0.3914472758769989, -0.27070608735084534, -0.6784191131591797, 8.194819450378418, -0.7207490801811218, 5.412671089172363, 0.3251470625400543, -0.12972329556941986, -0.326799213886261, -0.87841796875, 0.0322265625, -0.330810546875, 
113, 3081544624, 0.5596763491630554, -0.39140352606773376, -0.27076929807662964, -0.6784024238586426, 8.21682071685791, -0.6937540769577026, 5.450451374053955, 0.6426355838775635, 0.19510361552238464, -0.2716517448425293, -0.87841796875, 0.03173828125, -0.32958984375, 
114, 3081552957, 0.5597123503684998, -0.39135104417800903, -0.2708247900009155, -0.6783807277679443, 8.241327285766602, -0.7022801637649536, 5.443934917449951, 0.6313652396202087, 0.3674362003803253, -0.13315559923648834, -0.879150390625, 0.03173828125, -0.329345703125, 
115, 3081561290, 0.5597382187843323, -0.3912973701953888, -0.2708688974380493, -0.678372859954834, 8.244288444519043, -0.698897123336792, 5.42926549911499, 0.5382190942764282, 0.5041521787643433, -0.22107645869255066, -0.87890625, 0.02978515625, -0.32958984375, 
116, 3081569623, 0.559764564037323, -0.3912489712238312, -0.2709007263183594, -0.6783663034439087, 8.24805736541748, -0.6814584732055664, 5.441110610961914, 0.38849112391471863, 0.5459161400794983, -0.12111690640449524, -0.876953125, 0.030029296875, -0.32861328125, 
117, 3081577956, 0.5597930550575256, -0.391202837228775, -0.2709203362464905, -0.6783614754676819, 8.260860443115234, -0.6979027390480042, 5.446896553039551, 0.25506657361984253, 0.6478096842765808, -0.06105153262615204, -0.8779296875, 0.03076171875, -0.3330078125, 
118, 3081586289, 0.559830367565155, -0.39116206765174866, -0.2709343731403351, -0.6783486008644104, 8.268150329589844, -0.6590843796730042, 5.4248948097229, -0.01664925180375576, 0.6439802646636963, -0.016393110156059265, -0.87744140625, 0.0302734375, -0.33154296875, 
119, 3081594622, 0.5598403811454773, -0.39114391803741455, -0.2709144949913025, -0.678358793258667, 8.29018783569336, -0.6734759211540222, 5.418185710906982, -0.4862862527370453, 0.7043530941009521, -0.032197095453739166, -0.87890625, 0.03076171875, -0.33203125, 
120, 3081602955, 0.5598502159118652, -0.39112362265586853, -0.27090513706207275, -0.6783660650253296, 8.264616012573242, -0.6649568676948547, 5.3915839195251465, -0.3756583631038666, 0.6154972314834595, -0.07253950834274292, -0.87939453125, 0.029296875, -0.33056640625, 
121, 3081611288, 0.5598726272583008, -0.39110133051872253, -0.27092093229293823, -0.6783540844917297, 8.251212120056152, -0.6366530656814575, 5.393973350524902, 0.029110576957464218, 0.39290955662727356, 0.046707555651664734, -0.87890625, 0.03173828125, -0.331298828125, 
122, 3081619621, 0.5598943829536438, -0.39106929302215576, -0.2709416449069977, -0.6783465147018433, 8.223823547363281, -0.6213030815124512, 5.384138107299805, 0.3074732720851898, 0.439745157957077, 0.0751265436410904, -0.87451171875, 0.03125, -0.33203125, 
123, 3081627954, 0.5599191188812256, -0.3910534083843231, -0.27095794677734375, -0.6783288717269897, 8.221512794494629, -0.63357013463974, 5.398608684539795, 0.019953487440943718, 0.3075501024723053, 0.13327085971832275, -0.878662109375, 0.0322265625, -0.331787109375, 
124, 3081636287, 0.5599238872528076, -0.3910520672798157, -0.270943284034729, -0.6783313155174255, 8.219339370727539, -0.6424111127853394, 5.400110244750977, -0.4351218342781067, 0.4226092994213104, 0.11234404891729355, -0.878662109375, 0.032470703125, -0.328369140625, 
125, 3081644620, 0.5599361658096313, -0.39104747772216797, -0.27092453837394714, -0.6783314943313599, 8.22438907623291, -0.6399648785591125, 5.372629165649414, -0.528037428855896, 0.5211344361305237, 0.11158842593431473, -0.8779296875, 0.03076171875, -0.33251953125, 
126, 3081652953, 0.5599366426467896, -0.3910389542579651, -0.2709150016307831, -0.6783397197723389, 8.223673820495605, -0.6491419672966003, 5.383522987365723, -0.4825465679168701, 0.47369682788848877, -0.09477265924215317, -0.876953125, 0.02978515625, -0.33251953125, 
127, 3081661286, 0.5599483847618103, -0.3910297453403473, -0.27092769742012024, -0.6783301830291748, 8.258028984069824, -0.6660870313644409, 5.385382652282715, -0.16558320820331573, 0.27066561579704285, -0.004777054768055677, -0.87744140625, 0.03125, -0.330078125, 
128, 3081669619, 0.5599324703216553, -0.3910391926765442, -0.2709384262561798, -0.6783336997032166, 8.25942325592041, -0.6661442518234253, 5.394903182983398, -0.35123521089553833, 0.04736071825027466, -0.15610596537590027, -0.8779296875, 0.029541015625, -0.33447265625, 
129, 3081677952, 0.5599231123924255, -0.3910376727581024, -0.2709641456604004, -0.6783319115638733, 8.242500305175781, -0.6667093634605408, 5.386562824249268, -0.24711331725120544, 0.06119241192936897, -0.30313166975975037, -0.87890625, 0.03076171875, -0.3310546875, 
130, 3081686285, 0.5599061250686646, -0.3910413682460785, -0.27098849415779114, -0.67833411693573, 8.229982376098633, -0.6442279815673828, 5.41270637512207, -0.3841622769832611, 0.007978834211826324, -0.3828047215938568, -0.87744140625, 0.03271484375, -0.331298828125, 
131, 3081694618, 0.5598851442337036, -0.3910633623600006, -0.27101171016693115, -0.6783294081687927, 8.219145774841309, -0.619100034236908, 5.4144086837768555, -0.502551257610321, -0.1997653990983963, -0.28816014528274536, -0.8759765625, 0.030029296875, -0.3291015625, 
132, 3081702951, 0.559856653213501, -0.39109504222869873, -0.2710195481777191, -0.6783315539360046, 8.240203857421875, -0.6313742995262146, 5.444465160369873, -0.8432077765464783, -0.16624920070171356, -0.31440189480781555, -0.8759765625, 0.032470703125, -0.330078125, 
133, 3081711284, 0.5598257184028625, -0.39112791419029236, -0.27098968625068665, -0.6783500909805298, 8.240618705749512, -0.6152231693267822, 5.464450359344482, -1.2235791683197021, 0.1960001289844513, -0.23456238210201263, -0.8779296875, 0.03076171875, -0.33154296875, 
134, 3081719617, 0.5597852468490601, -0.3911585807800293, -0.27094200253486633, -0.6783847808837891, 8.226541519165039, -0.6401365399360657, 5.474463939666748, -1.4720118045806885, 0.3938188850879669, -0.33996492624282837, -0.8779296875, 0.03125, -0.330078125, 
135, 3081727950, 0.5597436428070068, -0.39119258522987366, -0.2708839774131775, -0.6784228682518005, 8.21182632446289, -0.6641558408737183, 5.486905097961426, -1.624237298965454, 0.46730613708496094, -0.3290533125400543, -0.87841796875, 0.03125, -0.33154296875, 
136, 3081736283, 0.5596914291381836, -0.39122864603996277, -0.27080878615379333, -0.6784752011299133, 8.201523780822754, -0.6899424195289612, 5.461870193481445, -1.8163436651229858, 0.5977849960327148, -0.36222368478775024, -0.876953125, 0.031005859375, -0.32958984375, 
137, 3081744616, 0.5596320629119873, -0.3912601172924042, -0.27073854207992554, -0.6785340905189514, 8.2039794921875, -0.6985103487968445, 5.466654300689697, -1.8911885023117065, 0.6321080327033997, -0.5972086191177368, -0.87890625, 0.03125, -0.3330078125, 
138, 3081752949, 0.559596836566925, -0.3912707269191742, -0.27069804072380066, -0.6785731315612793, 8.204904556274414, -0.7222440242767334, 5.411755084991455, -1.3770980834960938, 0.5806618332862854, -0.5246819257736206, -0.876953125, 0.0322265625, -0.33056640625, 
139, 3081761282, 0.5595753788948059, -0.3912666440010071, -0.270693838596344, -0.6785948276519775, 8.194375991821289, -0.735455334186554, 5.385704517364502, -0.6590542197227478, 0.39559903740882874, -0.4457645118236542, -0.876953125, 0.032470703125, -0.32666015625, 
140, 3081769615, 0.5595771670341492, -0.3912428617477417, -0.2707292437553406, -0.6785928606987, 8.196907997131348, -0.7395109534263611, 5.383086681365967, 0.001895453198812902, 0.22883756458759308, -0.3655279278755188, -0.8798828125, 0.03076171875, -0.33154296875, 
141, 3081777948, 0.5595831274986267, -0.3912399411201477, -0.2707820236682892, -0.6785687208175659, 8.21473217010498, -0.7000201344490051, 5.393866062164307, 0.1814512461423874, -0.19724242389202118, -0.1392773985862732, -0.87890625, 0.03125, -0.330078125, 
142, 3081786281, 0.5595929026603699, -0.3912440538406372, -0.27082765102386475, -0.6785399913787842, 8.227330207824707, -0.6666237711906433, 5.420475006103516, -0.06581577658653259, -0.21519798040390015, -0.0947086289525032, -0.8779296875, 0.031005859375, -0.3291015625, 
143, 3081794614, 0.5595794320106506, -0.3912731409072876, -0.27082687616348267, -0.6785345673561096, 8.237664222717285, -0.6303301453590393, 5.407299518585205, -0.7396237850189209, -0.05528832599520683, -0.05779852345585823, -0.877685546875, 0.032470703125, -0.328857421875, 
144, 3081802947, 0.5595174431800842, -0.3913325369358063, -0.2707657814025879, -0.6785758137702942, 8.23145580291748, -0.6228981614112854, 5.440652847290039, -1.4037753343582153, 0.13037645816802979, -0.05288058519363403, -0.879638671875, 0.03173828125, -0.330810546875, 
145, 3081811280, 0.5594854354858398, -0.3913910984992981, -0.2706778347492218, -0.67860347032547, 8.215361595153809, -0.6323390603065491, 5.453906059265137, -2.0013556480407715, 0.44817230105400085, 0.09405548125505447, -0.87744140625, 0.0322265625, -0.33203125, 
146, 3081819613, 0.5594233870506287, -0.3914738893508911, -0.2705456614494324, -0.6786595582962036, 8.219125747680664, -0.6347139477729797, 5.458691120147705, -2.8568196296691895, 0.5905618071556091, -0.05439182370901108, -0.878173828125, 0.0322265625, -0.329345703125, 
147, 3081827946, 0.5593644976615906, -0.3915598392486572, -0.2704070210456848, -0.6787137985229492, 8.22895622253418, -0.6861531734466553, 5.422929286956787, -2.9289495944976807, 0.6267803907394409, 0.013908530585467815, -0.87646484375, 0.03076171875, -0.3330078125, 
148, 3081836279, 0.5593088865280151, -0.39162659645080566, -0.27028337121009827, -0.6787703633308411, 8.211932182312012, -0.7164450287818909, 5.429977893829346, -2.604698896408081, 0.7010359764099121, -0.09232650697231293, -0.8779296875, 0.03076171875, -0.3310546875, 
149, 3081844612, 0.5592756867408752, -0.3916541337966919, -0.2702234089374542, -0.6788056492805481, 8.215147018432617, -0.7460129261016846, 5.4130425453186035, -1.5353813171386719, 0.5583390593528748, -0.24196487665176392, -0.877685546875, 0.03369140625, -0.330322265625, 
150, 3081852945, 0.5592610239982605, -0.39166948199272156, -0.2702488899230957, -0.6787988543510437, 8.230419158935547, -0.7538667321205139, 5.416304588317871, -0.46926558017730713, -0.14539919793605804, -0.2867641746997833, -0.877197265625, 0.033447265625, -0.329345703125, 
151, 3081861278, 0.5592735409736633, -0.39165040850639343, -0.2703304886817932, -0.6787669658660889, 8.251870155334473, -0.767914891242981, 5.433564186096191, 0.6417518258094788, -0.285880446434021, -0.2334737479686737, -0.87548828125, 0.031982421875, -0.330078125, 
152, 3081869611, 0.5593000054359436, -0.39160481095314026, -0.2704509496688843, -0.6787235736846924, 8.27563190460205, -0.7153987288475037, 5.43194055557251, 1.3705151081085205, -0.36360687017440796, -0.2800275981426239, -0.87744140625, 0.03125, -0.330078125, 
153, 3081877944, 0.5593444108963013, -0.391534686088562, -0.2705768346786499, -0.6786773204803467, 8.250676155090332, -0.6522666215896606, 5.430395603179932, 1.6706372499465942, -0.10825856029987335, -0.2539523243904114, -0.87744140625, 0.0302734375, -0.3310546875, 
154, 3081886277, 0.559382975101471, -0.3914738595485687, -0.2706744074821472, -0.678641676902771, 8.212557792663574, -0.6165035367012024, 5.464593410491943, 1.268096923828125, 0.04496579244732857, -0.18706077337265015, -0.8779296875, 0.0302734375, -0.33154296875, 
155, 3081894610, 0.5594101548194885, -0.39143797755241394, -0.27072128653526306, -0.6786212921142578, 8.197709083557129, -0.6152585744857788, 5.494319915771484, 0.48182934522628784, 0.2538882791996002, -0.05991169065237045, -0.87744140625, 0.031494140625, -0.32958984375, 
156, 3081902943, 0.5594260692596436, -0.3914285898208618, -0.270718514919281, -0.678614616394043, 8.197108268737793, -0.6304513216018677, 5.455423831939697, -0.3054497539997101, 0.411146879196167, 0.10387852787971497, -0.87841796875, 0.030517578125, -0.32861328125, 
157, 3081911276, 0.5594363212585449, -0.3914227783679962, -0.27068859338760376, -0.6786214709281921, 8.194125175476074, -0.6411164402961731, 5.41848611831665, -0.6609496474266052, 0.6463111639022827, 0.09629671275615692, -0.87744140625, 0.031982421875, -0.32861328125, 
158, 3081919609, 0.559455394744873, -0.3913899064064026, -0.2706591784954071, -0.6786363124847412, 8.192286491394043, -0.6521032452583313, 5.401984214782715, -0.3973535895347595, 0.9570629596710205, 0.047962650656700134, -0.879638671875, 0.032470703125, -0.327880859375, 
159, 3081927942, 0.5594775676727295, -0.3913379907608032, -0.27064231038093567, -0.6786547899246216, 8.185133934020996, -0.6694703102111816, 5.410074234008789, -0.16243267059326172, 1.0861716270446777, -0.12270499020814896, -0.876220703125, 0.03466796875, -0.331298828125, 
160, 3081936275, 0.559464693069458, -0.3913024365901947, -0.27062565088272095, -0.678692638874054, 8.203804016113281, -0.6504148840904236, 5.412642955780029, -0.11673687398433685, 0.8498034477233887, -0.24793298542499542, -0.8779296875, 0.03173828125, -0.33056640625, 
161, 3081944608, 0.5594767332077026, -0.3912779986858368, -0.2706422507762909, -0.6786901354789734, 8.22164249420166, -0.6726962924003601, 5.395582675933838, -0.03762730956077576, 0.4219304621219635, -0.13409051299095154, -0.876953125, 0.03125, -0.330078125, 
162, 3081952941, 0.5594761371612549, -0.3912796676158905, -0.27067244052886963, -0.6786775588989258, 8.283421516418457, -0.6844772100448608, 5.415252208709717, -0.14094232022762299, -0.040175922214984894, -0.13548648357391357, -0.87744140625, 0.03076171875, -0.32958984375, 
163, 3081961274, 0.5594682693481445, -0.39128196239471436, -0.2707160413265228, -0.6786653995513916, 8.297741889953613, -0.6627182364463806, 5.4224772453308105, -0.06215294823050499, -0.16404636204242706, -0.29137474298477173, -0.87744140625, 0.0302734375, -0.33154296875, 
164, 3081969607, 0.5594456791877747, -0.39128801226615906, -0.27075082063674927, -0.6786667108535767, 8.322855949401855, -0.6400867104530334, 5.440824031829834, -0.34078460931777954, -0.12070707976818085, -0.4825337529182434, -0.87744140625, 0.02978515625, -0.33056640625, 
165, 3081977940, 0.5594058632850647, -0.39131975173950195, -0.27074164152145386, -0.6786848306655884, 8.2935209274292, -0.627661943435669, 5.436954498291016, -1.0658466815948486, 0.012883959338068962, -0.4282315671443939, -0.879150390625, 0.031005859375, -0.328369140625, 
166, 3081986273, 0.5593442916870117, -0.391397088766098, -0.2706955671310425, -0.6787094473838806, 8.23383617401123, -0.660051703453064, 5.465273380279541, -1.8603875637054443, -0.19144079089164734, -0.2716645300388336, -0.87841796875, 0.03173828125, -0.33056640625, 
167, 3081994606, 0.5592724680900574, -0.3915063440799713, -0.270609974861145, -0.6787397861480713, 8.218830108642578, -0.6558084487915039, 5.443902492523193, -2.5930700302124023, -0.17693032324314117, -0.12165482342243195, -0.876953125, 0.03125, -0.33154296875, 
168, 3082002939, 0.5592029094696045, -0.3915986120700836, -0.2705022990703583, -0.6787867546081543, 8.213993072509766, -0.7013827562332153, 5.436964511871338, -2.679184913635254, 0.23454955220222473, -0.13261769711971283, -0.87744140625, 0.031494140625, -0.32861328125, 
169, 3082011272, 0.5591594576835632, -0.3916444480419159, -0.27042293548583984, -0.678827702999115, 8.192655563354492, -0.7224715948104858, 5.421266078948975, -1.934041142463684, 0.5308806896209717, -0.20743688941001892, -0.879150390625, 0.03564453125, -0.330322265625, 
170, 3082019605, 0.5591452717781067, -0.39165130257606506, -0.27037227153778076, -0.6788553595542908, 8.159984588623047, -0.7286887168884277, 5.416848182678223, -1.1445848941802979, 0.6987563371658325, -0.10887329280376434, -0.876953125, 0.031005859375, -0.32861328125, 
171, 3082027938, 0.5591681599617004, -0.39161941409111023, -0.2703884243965149, -0.6788485050201416, 8.181571960449219, -0.7306271195411682, 5.440695762634277, 0.09078965336084366, 0.5084041953086853, -0.023334570229053497, -0.8779296875, 0.029296875, -0.33056640625, 
172, 3082036271, 0.5592259168624878, -0.3915656507015228, -0.27044713497161865, -0.6788086295127869, 8.193023681640625, -0.6923022270202637, 5.42860746383667, 0.8749183416366577, 0.3364814221858978, 0.19816455245018005, -0.87841796875, 0.03076171875, -0.32958984375, 
173, 3082044604, 0.5592769384384155, -0.39152079820632935, -0.2705439329147339, -0.6787540316581726, 8.21445369720459, -0.6867015361785889, 5.427870273590088, 1.2699024677276611, -0.1413777619600296, 0.12120655179023743, -0.87646484375, 0.031982421875, -0.330078125, 
174, 3082052937, 0.559343695640564, -0.391460657119751, -0.2706338167190552, -0.6786978244781494, 8.247406959533691, -0.692202091217041, 5.427999019622803, 1.3253061771392822, 0.10289236903190613, 0.22020557522773743, -0.87939453125, 0.02978515625, -0.33203125, 
175, 3082061270, 0.5593991279602051, -0.39138105511665344, -0.2706824243068695, -0.6786787509918213, 8.257320404052734, -0.6362239122390747, 5.418700695037842, 0.9825363755226135, 0.7606659531593323, 0.021259814500808716, -0.876953125, 0.03173828125, -0.3310546875, 
176, 3082069603, 0.5594303011894226, -0.3913039565086365, -0.2707003057003021, -0.6786901950836182, 8.227264404296875, -0.6452364921569824, 5.401147365570068, 0.5589281916618347, 1.02431321144104, -0.16788847744464874, -0.87744140625, 0.0302734375, -0.33154296875, 
177, 3082077936, 0.5594556927680969, -0.39124077558517456, -0.27071136236190796, -0.6787012815475464, 8.22059154510498, -0.6461807489395142, 5.397979259490967, 0.23050247132778168, 0.9469838738441467, -0.22746720910072327, -0.87841796875, 0.031005859375, -0.32861328125, 
178, 3082086269, 0.5594546794891357, -0.39122316241264343, -0.2707056999206543, -0.6787146329879761, 8.21739387512207, -0.6444497108459473, 5.37405252456665, -0.263403981924057, 0.536566972732544, -0.11356069892644882, -0.8779296875, 0.03271484375, -0.330322265625, 
179, 3082094602, 0.5594539046287537, -0.3912292420864105, -0.27070268988609314, -0.6787129044532776, 8.211220741271973, -0.6356304287910461, 5.361784934997559, -0.5269744396209717, 0.2436169683933258, -0.03999662771821022, -0.87890625, 0.03173828125, -0.330322265625, 
180, 3082102935, 0.5594556331634521, -0.39125433564186096, -0.2707224190235138, -0.6786892414093018, 8.220232963562012, -0.6428689360618591, 5.378673076629639, -0.5506932139396667, -0.21161198616027832, -0.004597754683345556, -0.876953125, 0.031005859375, -0.3271484375, 
181, 3082111268, 0.5594446063041687, -0.3912819027900696, -0.27074527740478516, -0.6786732077598572, 8.21496868133545, -0.6569886207580566, 5.3640456199646, -0.45431965589523315, -0.27192071080207825, -0.0856027603149414, -0.87841796875, 0.03125, -0.33203125, 
182, 3082119601, 0.5594213008880615, -0.39132148027420044, -0.27074331045150757, -0.678670346736908, 8.245218276977539, -0.6478472948074341, 5.429894924163818, -0.8638527989387512, -0.1827191412448883, -0.09148123115301132, -0.87890625, 0.03125, -0.330078125, 
183, 3082127934, 0.5593987107276917, -0.3913803994655609, -0.2707197070121765, -0.67866450548172, 8.245747566223145, -0.6747491359710693, 5.435431003570557, -1.2277542352676392, -0.19493713974952698, 0.09613021463155746, -0.877685546875, 0.033203125, -0.330322265625, 
184, 3082136267, 0.5593676567077637, -0.39144235849380493, -0.270697683095932, -0.6786630749702454, 8.25393009185791, -0.6617026329040527, 5.420174598693848, -1.1825706958770752, -0.2643516957759857, 0.0737689957022667, -0.8779296875, 0.02978515625, -0.32958984375, 
185, 3082144600, 0.559357225894928, -0.39148229360580444, -0.2706828713417053, -0.6786545515060425, 8.264351844787598, -0.6614663004875183, 5.4230637550354, -0.924532949924469, -0.056799568235874176, 0.11055103689432144, -0.876953125, 0.031005859375, -0.3291015625, 
186, 3082152933, 0.559343695640564, -0.39150792360305786, -0.2706509530544281, -0.6786635518074036, 8.272391319274902, -0.6565593481063843, 5.452498435974121, -0.983138382434845, 0.2749432325363159, 0.04720703884959221, -0.87841796875, 0.0302734375, -0.33056640625, 
187, 3082161266, 0.5593416690826416, -0.3915179371833801, -0.27060404419898987, -0.6786782741546631, 8.256104469299316, -0.6743983626365662, 5.455173492431641, -1.0342644453048706, 0.6281378865242004, 0.0733591690659523, -0.87744140625, 0.0322265625, -0.33154296875, 
188, 3082169599, 0.5593457818031311, -0.39152440428733826, -0.2705484628677368, -0.6786933541297913, 8.234825134277344, -0.7065366506576538, 5.440888404846191, -1.0753753185272217, 0.7426591515541077, 0.16370058059692383, -0.8779296875, 0.03173828125, -0.3310546875, 
189, 3082177932, 0.5593546628952026, -0.39153945446014404, -0.27050381898880005, -0.6786951422691345, 8.189268112182617, -0.7226302623748779, 5.421375751495361, -0.946625292301178, 0.5344025492668152, 0.2801300883293152, -0.878662109375, 0.033203125, -0.329833984375, 
190, 3082186265, 0.5593917369842529, -0.3915289640426636, -0.27050572633743286, -0.678669810295105, 8.199173927307129, -0.7413709163665771, 5.421983242034912, -0.3586249053478241, 0.38955405354499817, 0.23025915026664734, -0.876708984375, 0.032958984375, -0.325927734375, 
191, 3082194598, 0.5594285130500793, -0.39149999618530273, -0.2705211937427521, -0.6786500811576843, 8.186843872070312, -0.7508267760276794, 5.435423851013184, 0.18498601019382477, 0.47099459171295166, 0.21884803473949432, -0.87890625, 0.02978515625, -0.33056640625, 
192, 3082202931, 0.5594632029533386, -0.39145493507385254, -0.27055078744888306, -0.6786357164382935, 8.216434478759766, -0.7484737038612366, 5.452705383300781, 0.4455852806568146, 0.5180222988128662, 0.06093626841902733, -0.8779296875, 0.031494140625, -0.3291015625, 
193, 3082211264, 0.5594912767410278, -0.39141160249710083, -0.2705736458301544, -0.6786285042762756, 8.249910354614258, -0.7464206218719482, 5.440237998962402, 0.27099859714508057, 0.5822371244430542, -0.050959520041942596, -0.8779296875, 0.031494140625, -0.3291015625, 
194, 3082219597, 0.5595333576202393, -0.3913457989692688, -0.27062779664993286, -0.67861008644104, 8.262721061706543, -0.724203884601593, 5.417148590087891, 0.6831828355789185, 0.5485544204711914, -0.18238615989685059, -0.8779296875, 0.03173828125, -0.32958984375, 
195, 3082227930, 0.5595868825912476, -0.3912748694419861, -0.27067944407463074, -0.6785863041877747, 8.263285636901855, -0.7313920259475708, 5.423928737640381, 0.9506722688674927, 0.6249104738235474, 0.055992718786001205, -0.87841796875, 0.03173828125, -0.33056640625, 
196, 3082236263, 0.5596352219581604, -0.39123737812042236, -0.2707578241825104, -0.6785367131233215, 8.243651390075684, -0.7066436409950256, 5.461181163787842, 1.0177432298660278, -0.0634208470582962, 0.2046961635351181, -0.87890625, 0.03076171875, -0.3291015625, 
197, 3082244596, 0.5596637725830078, -0.3912498950958252, -0.27082547545433044, -0.6784789562225342, 8.261311531066895, -0.669062614440918, 5.486523628234863, 0.4493633210659027, -0.5535235404968262, 0.30697378516197205, -0.876953125, 0.03125, -0.330078125, 
198, 3082252929, 0.5596556663513184, -0.39129307866096497, -0.27082565426826477, -0.6784607172012329, 8.299457550048828, -0.6014825701713562, 5.463241100311279, -0.705249547958374, -0.26043272018432617, 0.18918673694133759, -0.879638671875, 0.033203125, -0.332275390625, 
199, 3082261262, 0.5596593022346497, -0.391325443983078, -0.270729124546051, -0.6784774661064148, 8.333617210388184, -0.6044078469276428, 5.456505298614502, -1.6467902660369873, 0.8330132365226746, 0.4590710997581482, -0.879638671875, 0.031982421875, -0.327392578125, 
200, 3082269595, 0.5596866607666016, -0.3913659453392029, -0.2706243097782135, -0.6784734129905701, 8.296712875366211, -0.6939343214035034, 5.47596549987793, -1.8075071573257446, 0.8090512156486511, 0.784205436706543, -0.879150390625, 0.033203125, -0.330810546875, 
201, 3082277928, 0.5597362518310547, -0.39140549302101135, -0.2705155611038208, -0.6784531474113464, 8.277984619140625, -0.7241442203521729, 5.483956813812256, -1.432296872138977, 0.8319631218910217, 1.2670722007751465, -0.878173828125, 0.03369140625, -0.333251953125, 
202, 3082286261, 0.5598831176757812, -0.39137816429138184, -0.27047300338745117, -0.678364634513855, 8.308062553405762, -0.7395598888397217, 5.522382736206055, -0.0207219161093235, 0.9773238897323608, 1.78337824344635, -0.8779296875, 0.03125, -0.32958984375, 
203, 3082294594, 0.5600724220275879, -0.39125192165374756, -0.27045536041259766, -0.6782883405685425, 8.337145805358887, -0.7848713994026184, 5.4829301834106445, 1.6551148891448975, 1.8959145545959473, 1.8935579061508179, -0.87646484375, 0.03125, -0.33349609375, 
204, 3082302927, 0.5603696703910828, -0.3909585177898407, -0.2704547345638275, -0.67821204662323, 8.317720413208008, -0.8107150197029114, 5.417166233062744, 3.430079460144043, 3.7390382289886475, 2.039994716644287, -0.879150390625, 0.033203125, -0.329345703125, 
205, 3082311260, 0.5607677698135376, -0.39051032066345215, -0.27047285437583923, -0.6781341433525085, 8.21935749053955, -0.8667652606964111, 5.281519889831543, 5.598323822021484, 5.389439582824707, 2.4638845920562744, -0.876953125, 0.033203125, -0.330810546875, 
206, 3082319593, 0.5612942576408386, -0.38995659351348877, -0.27060747146606445, -0.6779634952545166, 8.05401611328125, -0.9487818479537964, 5.22166109085083, 8.437228202819824, 5.455090045928955, 3.30889892578125, -0.87744140625, 0.0322265625, -0.33203125, 
207, 3082327926, 0.5618786215782166, -0.3893934488296509, -0.2708134651184082, -0.6777207851409912, 8.014434814453125, -1.006158471107483, 5.266409873962402, 9.85018539428711, 4.82149600982666, 4.035190105438232, -0.876953125, 0.03369140625, -0.331787109375, 
208, 3082336259, 0.5624342560768127, -0.3889464735984802, -0.27093037962913513, -0.677469789981842, 8.032114028930664, -1.0796242952346802, 5.296352386474609, 7.8817830085754395, 4.276655673980713, 4.67977237701416, -0.877685546875, 0.0341796875, -0.330810546875, 
209, 3082344592, 0.5628693699836731, -0.388744980096817, -0.2709323465824127, -0.6772234439849854, 8.087712287902832, -1.1466281414031982, 5.309985637664795, 4.367931365966797, 2.454291820526123, 5.11228084564209, -0.877197265625, 0.035888671875, -0.329833984375, 
210, 3082352925, 0.563114583492279, -0.3888102173805237, -0.2708541452884674, -0.6770131587982178, 8.113116264343262, -1.1800905466079712, 5.321758270263672, 1.227639079093933, -0.015330120921134949, 5.034939289093018, -0.877685546875, 0.03515625, -0.332275390625, 
211, 3082361258, 0.5632547736167908, -0.38909855484962463, -0.2708103656768799, -0.6767484545707703, 8.188116073608398, -1.1529467105865479, 5.41273832321167, -1.359974980354309, -2.9506959915161133, 4.578237056732178, -0.87646484375, 0.03466796875, -0.333740234375, 
212, 3082369591, 0.5632492303848267, -0.38960158824920654, -0.27074575424194336, -0.6764893531799316, 8.233736991882324, -0.8918640613555908, 5.660796642303467, -4.063788890838623, -5.3067450523376465, 4.070230484008789, -0.876708984375, 0.03466796875, -0.333251953125, 
213, 3082377924, 0.5630646347999573, -0.39031097292900085, -0.2705612778663635, -0.6763079762458801, 8.32758617401123, -0.5914449691772461, 5.922135353088379, -7.980051517486572, -6.540096282958984, 3.2327983379364014, -0.876220703125, 0.03759765625, -0.332275390625, 
214, 3082386257, 0.5627915859222412, -0.39106446504592896, -0.27022287249565125, -0.6762353181838989, 8.442232131958008, -0.4305247962474823, 6.180016040802002, -10.74691390991211, -5.504473686218262, 2.4933793544769287, -0.877685546875, 0.038818359375, -0.3291015625, 
215, 3082394590, 0.5624606609344482, -0.39177125692367554, -0.26962125301361084, -0.6763416528701782, 8.605244636535645, -0.46335774660110474, 6.385149002075195, -13.693387031555176, -2.2868268489837646, 1.8761407136917114, -0.878662109375, 0.037353515625, -0.3291015625, 
216, 3082402923, 0.562201738357544, -0.3922096788883209, -0.2688482701778412, -0.6766104102134705, 8.803474426269531, -0.6411445140838623, 6.412497520446777, -13.572396278381348, 2.6810553073883057, 1.1360043287277222, -0.878173828125, 0.041259765625, -0.33154296875, 
217, 3082411256, 0.5621951222419739, -0.3921097218990326, -0.2680418789386749, -0.6769937872886658, 8.900269508361816, -0.9680516719818115, 6.396457672119141, -8.63744068145752, 9.49606990814209, 0.8697827458381653, -0.880126953125, 0.0390625, -0.33154296875, 
218, 3082419589, 0.5625030994415283, -0.39149269461631775, -0.2675597369670868, -0.6772855520248413, 8.8284912109375, -1.2804890871047974, 6.155381202697754, 0.4165131449699402, 12.455973625183105, 0.8651721477508545, -0.880126953125, 0.0400390625, -0.3330078125, 
219, 3082427922, 0.5632249116897583, -0.39035534858703613, -0.2677077651023865, -0.6772835850715637, 8.724136352539062, -1.3763344287872314, 5.872636795043945, 13.615762710571289, 12.380952835083008, 1.6719441413879395, -0.877197265625, 0.04248046875, -0.3349609375, 
220, 3082436255, 0.564335286617279, -0.38880455493927, -0.26851212978363037, -0.6769327521324158, 8.67318344116211, -1.2733643054962158, 5.87300968170166, 25.80710220336914, 10.744589805603027, 2.6351940631866455, -0.878173828125, 0.04150390625, -0.333984375, 
221, 3082444588, 0.5656419992446899, -0.3869592547416687, -0.26979517936706543, -0.6763893365859985, 8.682415008544922, -0.9821199774742126, 5.641908168792725, 34.80442810058594, 9.430095672607422, 2.6230030059814453, -0.874755859375, 0.03955078125, -0.336181640625, 
222, 3082452921, 0.5671778321266174, -0.3845753073692322, -0.2715170681476593, -0.6757736802101135, 8.640801429748535, -0.5412244200706482, 5.551429271697998, 45.02386474609375, 11.432320594787598, 1.29567289352417, -0.876220703125, 0.04248046875, -0.33447265625, 
223, 3082461254, 0.5688678026199341, -0.3816533088684082, -0.2735006809234619, -0.6752095222473145, 8.611652374267578, -0.21703174710273743, 5.693231105804443, 51.81317901611328, 15.2976655960083, -1.381199836730957, -0.876220703125, 0.036865234375, -0.340087890625, 
224, 3082469587, 0.5704805850982666, -0.3786226212978363, -0.2754196226596832, -0.6747748255729675, 8.417167663574219, 0.049057669937610626, 5.6780781745910645, 51.37018585205078, 17.17250633239746, -3.0356531143188477, -0.87451171875, 0.034912109375, -0.340576171875, 
225, 3082477920, 0.5718882083892822, -0.3758406341075897, -0.2770710289478302, -0.6744624376296997, 8.152777671813965, 0.313616007566452, 5.587954521179199, 45.20579147338867, 16.8527774810791, -3.7095890045166016, -0.87353515625, 0.033935546875, -0.3408203125, 
226, 3082486253, 0.5730672478675842, -0.37338829040527344, -0.2783357799053192, -0.6743029952049255, 8.075037956237793, 0.4363032579421997, 5.577381134033203, 37.25944519042969, 16.743412017822266, -3.7663354873657227, -0.873046875, 0.03076171875, -0.341796875, 
227, 3082494586, 0.5740411877632141, -0.371196448802948, -0.2790147066116333, -0.6744042634963989, 8.039299964904785, 0.27414795756340027, 5.627313137054443, 27.727642059326172, 19.511432647705078, -3.7280406951904297, -0.87353515625, 0.0302734375, -0.3427734375, 
228, 3082502919, 0.5749001502990723, -0.3692353367805481, -0.27908504009246826, -0.6747199892997742, 7.891143798828125, -0.1173252984881401, 5.572048664093018, 18.845970153808594, 22.816797256469727, -2.484595775604248, -0.870361328125, 0.02734375, -0.345458984375, 
229, 3082511252, 0.5757780075073242, -0.36750179529190063, -0.2788028120994568, -0.6750344634056091, 7.656410217285156, -0.5558769702911377, 5.538633346557617, 13.881949424743652, 23.571666717529297, 0.35393768548965454, -0.869873046875, 0.027587890625, -0.348388671875, 
230, 3082519585, 0.576749324798584, -0.36598825454711914, -0.2783438563346863, -0.6752166748046875, 7.489360332489014, -0.9444686770439148, 5.449927806854248, 11.472800254821777, 22.605161666870117, 4.015289783477783, -0.867431640625, 0.027099609375, -0.35205078125, 
231, 3082527918, 0.5778517723083496, -0.36460691690444946, -0.2777548134326935, -0.6752641797065735, 7.4559855461120605, -1.2425988912582397, 5.140285015106201, 10.399014472961426, 22.24652671813965, 7.45375919342041, -0.866943359375, 0.024658203125, -0.35693359375, 
232, 3082536251, 0.5790917873382568, -0.3632957339286804, -0.27732187509536743, -0.6750864386558533, 7.479872226715088, -1.431890845298767, 4.9046807289123535, 12.83637523651123, 19.736494064331055, 10.01396656036377, -0.864013671875, 0.02734375, -0.3564453125, 
233, 3082544584, 0.5804177522659302, -0.3621034622192383, -0.27722957730293274, -0.6746260523796082, 7.485751628875732, -1.457042932510376, 4.829855442047119, 16.562171936035156, 14.849398612976074, 11.806374549865723, -0.865478515625, 0.028564453125, -0.36083984375, 
234, 3082552917, 0.5816938877105713, -0.361117422580719, -0.27761706709861755, -0.673895537853241, 7.430975437164307, -1.2158721685409546, 4.844664573669434, 20.1458740234375, 7.559750080108643, 11.904516220092773, -0.866455078125, 0.028076171875, -0.35986328125, 
235, 3082561250, 0.5828084945678711, -0.3603472113609314, -0.2784579396247864, -0.672997236251831, 7.558299541473389, -0.7485294342041016, 4.98886775970459, 22.463247299194336, 0.49452149868011475, 10.312591552734375, -0.864990234375, 0.029052734375, -0.36181640625, 
236, 3082569583, 0.583794891834259, -0.35962802171707153, -0.2795472741127014, -0.6720749735832214, 7.821328639984131, -0.29884013533592224, 5.345155715942383, 23.80750846862793, -2.589728355407715, 8.292216300964355, -0.864501953125, 0.0302734375, -0.359130859375, 
237, 3082577916, 0.584600567817688, -0.358960896730423, -0.2806633710861206, -0.671265721321106, 7.899941921234131, 0.0290305707603693, 5.769520282745361, 22.312660217285156, -3.4119455814361572, 5.773771286010742, -0.865478515625, 0.029541015625, -0.360107421875, 
238, 3082586249, 0.5852386355400085, -0.35831260681152344, -0.28174230456352234, -0.6706036925315857, 7.941054344177246, 0.21288175880908966, 6.05192232131958, 20.417757034301758, -3.2157790660858154, 3.306748151779175, -0.864501953125, 0.028564453125, -0.35986328125, 
239, 3082594582, 0.5857007503509521, -0.3576444983482361, -0.2826039791107178, -0.6701942086219788, 7.977363586425781, 0.30074378848075867, 6.164374351501465, 16.730478286743164, -0.7117812037467957, 0.6369748711585999, -0.866943359375, 0.0283203125, -0.355712890625, 
240, 3082602915, 0.585988461971283, -0.3569902181625366, -0.2830466330051422, -0.6701046824455261, 8.02632999420166, 0.3400139808654785, 6.228374481201172, 10.654138565063477, 3.419346570968628, -1.4227043390274048, -0.865478515625, 0.02880859375, -0.35791015625, 
241, 3082611248, 0.5862014293670654, -0.3563890755176544, -0.28308314085006714, -0.6702228784561157, 8.026934623718262, 0.2796255946159363, 6.2469868659973145, 5.312315940856934, 6.944019317626953, -1.5947037935256958, -0.864501953125, 0.0283203125, -0.3583984375, 
242, 3082619581, 0.5864608287811279, -0.3557269871234894, -0.2828899025917053, -0.6704292893409729, 7.952383518218994, 0.048571981489658356, 6.155815601348877, 3.5621211528778076, 9.959020614624023, -0.9780668616294861, -0.864990234375, 0.028076171875, -0.35888671875, 
243, 3082627914, 0.58680659532547, -0.3549501597881317, -0.2826067805290222, -0.6706578731536865, 7.954220771789551, -0.26459285616874695, 6.186819553375244, 4.002417087554932, 12.196822166442871, -0.3793981075286865, -0.864990234375, 0.027099609375, -0.36083984375, 
244, 3082636247, 0.587270200252533, -0.3540940284729004, -0.28234750032424927, -0.6708139181137085, 7.987941741943359, -0.5576193928718567, 6.095958232879639, 5.713679790496826, 12.828573226928711, 0.880118191242218, -0.863525390625, 0.029052734375, -0.36279296875, 
245, 3082644580, 0.5878974199295044, -0.35311222076416016, -0.2822759449481964, -0.6708120703697205, 7.995307922363281, -0.7857537865638733, 6.027772426605225, 9.876786231994629, 12.350225448608398, 2.252068042755127, -0.863525390625, 0.0283203125, -0.365234375, 
246, 3082652913, 0.5886902213096619, -0.35196244716644287, -0.28251373767852783, -0.6706209182739258, 8.062112808227539, -0.8145436644554138, 6.008605003356934, 15.619744300842285, 11.110023498535156, 3.165792226791382, -0.862060546875, 0.028076171875, -0.36279296875, 
247, 3082661246, 0.5896298885345459, -0.35064074397087097, -0.2829587161540985, -0.6703001260757446, 8.133384704589844, -0.7750332355499268, 6.104100704193115, 20.143014907836914, 10.973014831542969, 3.889139175415039, -0.862060546875, 0.027587890625, -0.3642578125, 
248, 3082669579, 0.5906016230583191, -0.34926503896713257, -0.2835202217102051, -0.6699255704879761, 8.190213203430176, -0.6717022657394409, 6.001430511474609, 22.014930725097656, 10.379175186157227, 3.8592984676361084, -0.86181640625, 0.02587890625, -0.367919921875, 
249, 3082677912, 0.5915815234184265, -0.3478524684906006, -0.28419992327690125, -0.6695078611373901, 8.123186111450195, -0.5119093060493469, 5.9050211906433105, 23.614418029785156, 9.596839904785156, 3.561661720275879, -0.861328125, 0.02587890625, -0.367431640625, 
250, 3082686245, 0.5924235582351685, -0.3464979827404022, -0.28495848178863525, -0.66914302110672, 8.031517028808594, -0.2901090681552887, 5.87123966217041, 22.996475219726562, 8.121408462524414, 1.7219436168670654, -0.8623046875, 0.025634765625, -0.370849609375, 
251, 3082694578, 0.5931868553161621, -0.345294713973999, -0.2856650650501251, -0.6687873601913452, 7.849069595336914, -0.11408360302448273, 5.859363555908203, 20.8812198638916, 6.901374340057373, 1.7544221878051758, -0.86279296875, 0.025146484375, -0.371337890625, 
252, 3082702911, 0.593833327293396, -0.3442119359970093, -0.2862357497215271, -0.6685280203819275, 7.6886067390441895, -0.00352654280140996, 5.805016994476318, 17.70985221862793, 6.887810707092285, 1.0224565267562866, -0.8603515625, 0.023681640625, -0.369384765625, 
253, 3082711244, 0.5943785905838013, -0.3432539999485016, -0.28660398721694946, -0.6683781147003174, 7.531499862670898, -0.03415771201252937, 5.692111015319824, 13.924643516540527, 7.525437831878662, 0.6381531953811646, -0.85888671875, 0.024658203125, -0.371337890625, 
254, 3082719577, 0.5948027968406677, -0.34244662523269653, -0.2868112325668335, -0.6683259010314941, 7.45280647277832, -0.060735784471035004, 5.555153846740723, 10.25318717956543, 7.42893648147583, 0.0908408984541893, -0.8583984375, 0.02392578125, -0.367919921875, 
255, 3082727910, 0.5951089859008789, -0.34188348054885864, -0.28689512610435486, -0.6683056354522705, 7.412550926208496, -0.07271871715784073, 5.483770370483398, 6.445079326629639, 5.8918890953063965, 0.27840113639831543, -0.85986328125, 0.022216796875, -0.373291015625, 
256, 3082736243, 0.5953210592269897, -0.3415469527244568, -0.28687742352485657, -0.6682964563369751, 7.440572261810303, -0.0069709462113678455, 5.419425010681152, 3.1646134853363037, 4.305624961853027, 0.7036998271942139, -0.857421875, 0.024658203125, -0.370849609375, 
257, 3082744576, 0.5954375267028809, -0.3414212167263031, -0.2867555618286133, -0.6683093309402466, 7.448347091674805, 0.010776855051517487, 5.494390964508057, -0.04942266643047333, 2.9637975692749023, 0.9560768604278564, -0.85888671875, 0.02294921875, -0.374755859375, 
258, 3082752909, 0.5954431295394897, -0.3415180742740631, -0.28654998540878296, -0.6683428883552551, 7.5346574783325195, 0.020342422649264336, 5.517862319946289, -3.2476162910461426, 1.2494624853134155, 1.0490566492080688, -0.857421875, 0.021728515625, -0.37109375, 
259, 3082761242, 0.5953869819641113, -0.3417477607727051, -0.28633883595466614, -0.6683659553527832, 7.614853858947754, 0.036485373973846436, 5.610016345977783, -4.630836486816406, -0.20692460238933563, 1.1065350770950317, -0.857421875, 0.023193359375, -0.37451171875, 
260, 3082769575, 0.5952494144439697, -0.34204792976379395, -0.2861555814743042, -0.6684134006500244, 7.673403263092041, -0.005707291886210442, 5.593297004699707, -5.437518119812012, -1.3000761270523071, 0.31409457325935364, -0.859375, 0.02197265625, -0.3740234375, 
261, 3082777908, 0.5950108766555786, -0.3423881530761719, -0.2859900891780853, -0.6685225367546082, 7.708501815795898, 0.009426350705325603, 5.542269229888916, -6.3112568855285645, -1.9088624715805054, -1.0537567138671875, -0.859375, 0.024169921875, -0.372802734375, 
262, 3082786241, 0.5947190523147583, -0.3427642583847046, -0.28586602210998535, -0.6686424016952515, 7.695393085479736, -0.0034675169736146927, 5.526357173919678, -6.525328636169434, -2.7490475177764893, -1.6751707792282104, -0.857421875, 0.020751953125, -0.373046875, 
263, 3082794574, 0.5944201946258545, -0.34316205978393555, -0.2857632040977478, -0.6687480211257935, 7.719454765319824, -0.05784149467945099, 5.5388054847717285, -6.477110862731934, -3.203559637069702, -1.6489036083221436, -0.85986328125, 0.023193359375, -0.371337890625, 
264, 3082802907, 0.5940925478935242, -0.34360894560813904, -0.28566601872444153, -0.6688511371612549, 7.76979923248291, -0.1411409229040146, 5.538330554962158, -6.947158336639404, -3.837717294692993, -1.706971287727356, -0.8583984375, 0.025634765625, -0.374755859375, 
265, 3082811240, 0.5937778353691101, -0.34410154819488525, -0.28560057282447815, -0.6689055562019348, 7.801089286804199, -0.17888952791690826, 5.543965816497803, -6.78199577331543, -4.6886467933654785, -1.1802396774291992, -0.85986328125, 0.023681640625, -0.373291015625, 
266, 3082819573, 0.5934561491012573, -0.3446004092693329, -0.2855945825576782, -0.6689366102218628, 7.828249454498291, -0.1498776376247406, 5.6608123779296875, -6.256904125213623, -5.3767991065979, -1.3166612386703491, -0.8583984375, 0.023681640625, -0.370849609375, 
267, 3082827906, 0.5931437015533447, -0.34510090947151184, -0.28557658195495605, -0.6689634323120117, 7.90074348449707, -0.16844972968101501, 5.7921528816223145, -6.290586471557617, -5.2687578201293945, -1.1273720264434814, -0.8583984375, 0.024169921875, -0.370849609375, 
268, 3082836239, 0.5928439497947693, -0.34562066197395325, -0.2854992151260376, -0.6689938902854919, 7.942046642303467, -0.2512694299221039, 5.850869178771973, -6.953303813934326, -4.904139518737793, -0.6710032820701599, -0.85693359375, 0.0244140625, -0.367919921875, 
269, 3082844572, 0.5925701856613159, -0.3461832106113434, -0.28539037704467773, -0.6689920425415039, 8.022964477539062, -0.3679911494255066, 5.887500762939453, -7.336878299713135, -5.084336757659912, 0.13547369837760925, -0.85986328125, 0.0234375, -0.368896484375, 
270, 3082852905, 0.5923323631286621, -0.346727192401886, -0.2852855622768402, -0.6689653992652893, 8.10304069519043, -0.3619404435157776, 5.976254463195801, -6.896824359893799, -4.930087566375732, 0.5814687609672546, -0.8583984375, 0.0283203125, -0.367919921875, 
271, 3082861238, 0.5921013355255127, -0.34724366664886475, -0.28511205315589905, -0.6689761281013489, 8.122922897338867, -0.33598384261131287, 5.98475456237793, -7.401886463165283, -3.905287027359009, 0.5536772608757019, -0.8603515625, 0.025390625, -0.367919921875, 
272, 3082869571, 0.5918722748756409, -0.34772059321403503, -0.284905344247818, -0.6690191626548767, 8.034613609313965, -0.2778262197971344, 5.976230144500732, -7.507033824920654, -3.118213415145874, 0.3265303373336792, -0.86181640625, 0.0263671875, -0.36865234375, 
273, 3082877904, 0.5916223526000977, -0.3481960892677307, -0.284672349691391, -0.6690921783447266, 7.976384162902832, -0.2592199146747589, 5.988047122955322, -7.9506964683532715, -2.8198840618133545, -0.003137743566185236, -0.861572265625, 0.02734375, -0.365234375, 
274, 3082886237, 0.5913308262825012, -0.3487072288990021, -0.2843887507915497, -0.6692042946815491, 7.912698745727539, -0.27287814021110535, 5.98702335357666, -9.066582679748535, -2.720168113708496, -0.3127114772796631, -0.863525390625, 0.025634765625, -0.369140625, 
275, 3082894570, 0.5910001993179321, -0.3492463231086731, -0.284034788608551, -0.6693655848503113, 7.8954572677612305, -0.3054836094379425, 5.911633491516113, -10.312535285949707, -2.314643383026123, -0.634759247303009, -0.861083984375, 0.02783203125, -0.365234375, 
276, 3082902903, 0.5906593203544617, -0.3497923016548157, -0.2835952639579773, -0.6695677638053894, 7.865750789642334, -0.3644598424434662, 5.849549770355225, -11.378701210021973, -1.5354324579238892, -0.6170852780342102, -0.862060546875, 0.0263671875, -0.3662109375, 
277, 3082911236, 0.5903149247169495, -0.3503790497779846, -0.28314414620399475, -0.6697556972503662, 7.82859992980957, -0.4159684181213379, 5.7567667961120605, -11.765222549438477, -1.8876286745071411, -0.32482701539993286, -0.860595703125, 0.02783203125, -0.3662109375, 
278, 3082919569, 0.5899838805198669, -0.35101914405822754, -0.2827478051185608, -0.6698794364929199, 7.856695652008057, -0.44932469725608826, 5.742303848266602, -11.332008361816406, -3.0952372550964355, 0.31315967440605164, -0.861572265625, 0.02783203125, -0.36572265625, 
279, 3082927902, 0.5896811485290527, -0.3516434133052826, -0.2824324071407318, -0.6699515581130981, 7.892309188842773, -0.42027583718299866, 5.723413944244385, -10.167430877685547, -3.732058525085449, 0.4901027977466583, -0.862548828125, 0.028076171875, -0.36328125, 
280, 3082936235, 0.5894187688827515, -0.3522162437438965, -0.2821556627750397, -0.669998049736023, 7.91949462890625, -0.41066774725914, 5.742616653442383, -9.118475914001465, -3.5471231937408447, 0.6845917105674744, -0.861572265625, 0.02880859375, -0.36669921875, 
281, 3082944568, 0.5891770124435425, -0.352763831615448, -0.2819081246852875, -0.6700268983840942, 7.914235591888428, -0.4359467029571533, 5.768624305725098, -8.458090782165527, -3.5480968952178955, 0.77634197473526, -0.861572265625, 0.028564453125, -0.3642578125, 
282, 3082952901, 0.5889265537261963, -0.3533197343349457, -0.28167790174484253, -0.6700509786605835, 7.904633522033691, -0.4235745072364807, 5.75474739074707, -8.46311092376709, -3.8266775608062744, 0.6458117961883545, -0.862548828125, 0.032470703125, -0.364013671875, 
283, 3082961234, 0.5886249542236328, -0.3539176881313324, -0.2814413905143738, -0.6700998544692993, 7.894743919372559, -0.389652281999588, 5.701414108276367, -9.130975723266602, -4.238631248474121, 0.20463211834430695, -0.863037109375, 0.031494140625, -0.362060546875, 
284, 3082969567, 0.588255763053894, -0.35458359122276306, -0.2812028229236603, -0.6701722741127014, 7.885607719421387, -0.33846619725227356, 5.639617919921875, -10.11766242980957, -5.002575874328613, -0.3174244463443756, -0.862060546875, 0.0322265625, -0.365966796875, 
285, 3082977900, 0.5878049731254578, -0.3553290367126465, -0.2809544503688812, -0.6702769994735718, 7.867934703826904, -0.2841830253601074, 5.564614295959473, -11.376730918884277, -5.804763317108154, -0.9936659932136536, -0.862548828125, 0.031494140625, -0.363037109375, 
286, 3082986233, 0.5872585773468018, -0.3561939597129822, -0.28072425723075867, -0.6703934669494629, 7.8391523361206055, -0.2230038195848465, 5.547703266143799, -12.73228931427002, -7.372918605804443, -1.612634301185608, -0.864013671875, 0.03515625, -0.360107421875, 
287, 3082994566, 0.5865589380264282, -0.357231467962265, -0.28049424290657043, -0.6705501675605774, 7.845091342926025, -0.11553690582513809, 5.517597198486328, -14.985086441040039, -9.351978302001953, -2.667736053466797, -0.866455078125, 0.032958984375, -0.363525390625, 
288, 3083002899, 0.5856859683990479, -0.35844886302948, -0.2802077829837799, -0.670783281326294, 7.850983619689941, -0.021529246121644974, 5.478663444519043, -18.094635009765625, -10.859428405761719, -3.8888959884643555, -0.864501953125, 0.031982421875, -0.361083984375, 
289, 3083011232, 0.5846496820449829, -0.3598018288612366, -0.27980345487594604, -0.6711317300796509, 7.846802711486816, 0.06145014986395836, 5.494192123413086, -21.533552169799805, -11.210371017456055, -5.246579647064209, -0.864990234375, 0.031982421875, -0.360107421875, 
290, 3083019565, 0.5834681987762451, -0.3613085448741913, -0.27925270795822144, -0.6715794205665588, 7.807001113891602, 0.04043499380350113, 5.531709671020508, -25.20216941833496, -11.530356407165527, -6.037611961364746, -0.866943359375, 0.033203125, -0.356201171875, 
291, 3083027898, 0.5821439027786255, -0.36305761337280273, -0.2785874307155609, -0.6720616817474365, 7.811533451080322, -0.006855823565274477, 5.570436477661133, -29.064725875854492, -13.218108177185059, -6.163071632385254, -0.866943359375, 0.03271484375, -0.358154296875, 
292, 3083036231, 0.5807211995124817, -0.3649021089076996, -0.2777731120586395, -0.6726304292678833, 7.90070915222168, -0.08792488276958466, 5.663965225219727, -31.914348602294922, -12.868760108947754, -6.558712005615234, -0.866943359375, 0.033447265625, -0.353271484375, 
293, 3083044564, 0.5792679786682129, -0.3667230010032654, -0.2767525911331177, -0.6733133792877197, 7.981905937194824, -0.35442882776260376, 5.752495288848877, -34.336158752441406, -10.52823257446289, -6.903992652893066, -0.866943359375, 0.033447265625, -0.354248046875, 
294, 3083052897, 0.5778458714485168, -0.36849796772003174, -0.27562159299850464, -0.6740298271179199, 8.008012771606445, -0.6582760810852051, 5.7782182693481445, -34.97158432006836, -8.944345474243164, -6.488425254821777, -0.8671875, 0.03369140625, -0.355712890625, 
295, 3083061230, 0.5765098929405212, -0.3702356219291687, -0.27456793189048767, -0.6746514439582825, 8.00987434387207, -0.9845882654190063, 5.808790683746338, -33.155494689941406, -9.358234405517578, -5.482847690582275, -0.865234375, 0.035888671875, -0.35302734375, 
296, 3083069563, 0.5752729177474976, -0.3719460368156433, -0.2736821472644806, -0.675126314163208, 8.130274772644043, -1.1542270183563232, 5.8149943351745605, -30.38379669189453, -10.816195487976074, -4.382099628448486, -0.869140625, 0.033935546875, -0.35302734375, 
297, 3083077896, 0.5741729736328125, -0.37354546785354614, -0.27299764752388, -0.6754565834999084, 8.230576515197754, -1.0568175315856934, 5.816993236541748, -26.33137321472168, -11.596698760986328, -3.389789581298828, -0.87060546875, 0.03515625, -0.34814453125, 
298, 3083086229, 0.5732223987579346, -0.3749733865261078, -0.2725830376148224, -0.6756402254104614, 8.267640113830566, -0.8577405214309692, 5.915536880493164, -21.334529876708984, -12.320672035217285, -2.9839446544647217, -0.86962890625, 0.03759765625, -0.349365234375, 
299, 3083094562, 0.572319507598877, -0.37630051374435425, -0.272410124540329, -0.6757375001907349, 8.254945755004883, -0.5791510939598083, 5.967349052429199, -17.542465209960938, -13.561038970947266, -3.3750226497650146, -0.87158203125, 0.037109375, -0.347900390625, 
300, 3083102895, 0.5714184045791626, -0.3775421380996704, -0.27241188287734985, -0.6758067607879639, 8.262556076049805, -0.3931933641433716, 6.081247806549072, -15.17875862121582, -14.286870956420898, -4.378306865692139, -0.8720703125, 0.03564453125, -0.3447265625, 
301, 3083111228, 0.5705251097679138, -0.37858423590660095, -0.27244606614112854, -0.6759646534919739, 8.322239875793457, -0.2618633806705475, 6.160964012145996, -13.555224418640137, -12.19267463684082, -5.90250825881958, -0.8701171875, 0.037109375, -0.34521484375, 
302, 3083119561, 0.5696759819984436, -0.37934616208076477, -0.2724471390247345, -0.6762531995773315, 8.38720989227295, -0.28611478209495544, 6.178933143615723, -12.113064765930176, -8.475944519042969, -7.505369663238525, -0.873046875, 0.036376953125, -0.341064453125, 
303, 3083127894, 0.568906307220459, -0.37975800037384033, -0.2722960412502289, -0.6767308712005615, 8.415348052978516, -0.4560812711715698, 6.140672206878662, -10.89199447631836, -2.749560594558716, -8.65461540222168, -0.8701171875, 0.034912109375, -0.3427734375, 
304, 3083136227, 0.5682705044746399, -0.37987053394317627, -0.27207323908805847, -0.6772913932800293, 8.343450546264648, -0.7229993939399719, 5.954124927520752, -8.543294906616211, 1.4941167831420898, -8.596444129943848, -0.87548828125, 0.03515625, -0.343505859375, 
305, 3083144560, 0.5678374767303467, -0.3796882927417755, -0.2718859314918518, -0.6778317093849182, 8.324626922607422, -0.9695479869842529, 5.8263349533081055, -5.0602593421936035, 4.652724266052246, -8.045086860656738, -0.873046875, 0.035888671875, -0.342529296875, 
306, 3083152893, 0.5676002502441406, -0.3793294429779053, -0.27177003026008606, -0.6782776117324829, 8.247608184814453, -1.1728183031082153, 5.697042465209961, -1.6711111068725586, 5.970755100250244, -6.5218586921691895, -0.873046875, 0.03271484375, -0.341796875, 
307, 3083161226, 0.567488431930542, -0.3790208697319031, -0.2718740403652191, -0.6785019040107727, 8.16783618927002, -1.2427573204040527, 5.564469337463379, 1.5035812854766846, 3.105290651321411, -4.574459075927734, -0.86962890625, 0.0322265625, -0.34375, 
308, 3083169559, 0.5674557089805603, -0.3788737952709198, -0.27221691608428955, -0.6784737706184387, 8.14519214630127, -1.133976936340332, 5.4802021980285645, 3.954479455947876, -1.3059290647506714, -2.4077253341674805, -0.87109375, 0.02978515625, -0.345458984375, 
309, 3083177892, 0.5675254464149475, -0.3787726163864136, -0.27273544669151306, -0.6782637238502502, 8.18465518951416, -0.8737274408340454, 5.504629611968994, 6.323270320892334, -3.647031545639038, -0.8749566078186035, -0.8701171875, 0.03271484375, -0.3427734375, 
310, 3083186225, 0.5676261782646179, -0.37870243191719055, -0.2732374668121338, -0.6780167818069458, 8.224284172058105, -0.6550056338310242, 5.618490695953369, 6.202462196350098, -3.8927114009857178, -0.10085605829954147, -0.87353515625, 0.0283203125, -0.341552734375, 
311, 3083194558, 0.5676612257957458, -0.37874242663383484, -0.2736753225326538, -0.677788257598877, 8.349050521850586, -0.5135627388954163, 5.777586460113525, 4.356059551239014, -4.561626434326172, -0.10510800778865814, -0.86962890625, 0.030517578125, -0.340576171875, 
312, 3083202891, 0.5676456093788147, -0.378995418548584, -0.27393314242362976, -0.6775556802749634, 8.445186614990234, -0.4141499996185303, 5.785063743591309, 0.697014570236206, -5.356513023376465, 1.1596589088439941, -0.87255859375, 0.032958984375, -0.33984375, 
313, 3083211224, 0.567464292049408, -0.3794735372066498, -0.273934006690979, -0.6774396896362305, 8.478363990783691, -0.3659469187259674, 5.814694881439209, -4.686342716217041, -5.460635185241699, 0.9278245568275452, -0.87109375, 0.029541015625, -0.340576171875, 
314, 3083219557, 0.5671887397766113, -0.37992289662361145, -0.2735195755958557, -0.6775858402252197, 8.394498825073242, -0.42399317026138306, 5.848521709442139, -9.753952980041504, -0.9558720588684082, 0.11429072916507721, -0.87109375, 0.031005859375, -0.3388671875, 
315, 3083227890, 0.5668749213218689, -0.38022127747535706, -0.2727509140968323, -0.6779907941818237, 8.14467716217041, -0.5210150480270386, 5.823704719543457, -13.1055269241333, 4.439115047454834, -1.0290265083312988, -0.87255859375, 0.03125, -0.341796875, 
316, 3083236223, 0.5665283799171448, -0.38054707646369934, -0.2719596028327942, -0.6784156560897827, 8.01215648651123, -0.7137425541877747, 5.687368869781494, -13.912898063659668, 4.340896129608154, -1.3457335233688354, -0.87158203125, 0.03173828125, -0.34228515625, 
317, 3083244556, 0.5662412047386169, -0.3808528184890747, -0.27112650871276855, -0.6788171529769897, 8.02266788482666, -0.8565976023674011, 5.63991117477417, -13.614569664001465, 4.954562187194824, -0.388964980840683, -0.87255859375, 0.03125, -0.34326171875, 
318, 3083252889, 0.56601881980896, -0.3811393976211548, -0.2703765034675598, -0.6791408061981201, 8.049370765686035, -1.011366367340088, 5.539656639099121, -12.236612319946289, 4.322850704193115, 0.20848707854747772, -0.87109375, 0.034423828125, -0.3408203125, 
319, 3083261222, 0.5659201741218567, -0.3813530504703522, -0.2696957290172577, -0.6793737411499023, 8.068699836730957, -1.1871922016143799, 5.459773063659668, -9.860214233398438, 4.447527885437012, 1.5421051979064941, -0.8701171875, 0.03369140625, -0.34521484375, 
320, 3083269555, 0.5659239292144775, -0.38155075907707214, -0.26920005679130554, -0.6794561147689819, 8.015253067016602, -1.3530583381652832, 5.372335433959961, -6.681180000305176, 2.711113929748535, 2.8070647716522217, -0.87255859375, 0.03515625, -0.3447265625, 
321, 3083277888, 0.566038966178894, -0.38172200322151184, -0.26899823546409607, -0.6793440580368042, 7.910139083862305, -1.3823704719543457, 5.365195274353027, -2.654723644256592, 0.09776954352855682, 3.5557940006256104, -0.87158203125, 0.03515625, -0.34423828125, 
322, 3083286221, 0.5662193298339844, -0.3818879723548889, -0.2691000998020172, -0.6790600419044495, 7.8639421463012695, -1.2489173412322998, 5.440281867980957, 1.0532445907592773, -2.8764021396636963, 3.8012936115264893, -0.87060546875, 0.038330078125, -0.341552734375, 
323, 3083294554, 0.5664262771606445, -0.38207709789276123, -0.2693202793598175, -0.678693950176239, 7.852043628692627, -0.993783175945282, 5.623043060302734, 2.5696966648101807, -4.349386215209961, 4.238720417022705, -0.8701171875, 0.034912109375, -0.341796875, 
324, 3083302887, 0.5666146874427795, -0.3823155462741852, -0.2695576548576355, -0.6783079504966736, 7.903814315795898, -0.7574052810668945, 5.7813615798950195, 2.257638692855835, -5.121681213378906, 4.281905174255371, -0.8720703125, 0.03662109375, -0.343505859375, 
325, 3083311220, 0.5667973160743713, -0.3825128674507141, -0.26964274048805237, -0.6780102252960205, 8.01164436340332, -0.6490037441253662, 5.906081676483154, 0.8648903369903564, -3.1033055782318115, 4.222327709197998, -0.87109375, 0.037109375, -0.344482421875, 
326, 3083319553, 0.5669900178909302, -0.38256874680519104, -0.2696572542190552, -0.6778118014335632, 8.130420684814453, -0.6716627478599548, 5.866160869598389, 0.66153883934021, -0.6550200581550598, 3.176651954650879, -0.873046875, 0.036865234375, -0.339111328125, 
327, 3083327886, 0.5672564506530762, -0.38240644335746765, -0.26965099573135376, -0.6776829361915588, 8.156644821166992, -0.7609539031982422, 5.711436748504639, 2.632503032684326, 2.1613550186157227, 2.834317922592163, -0.873046875, 0.038330078125, -0.342529296875, 
328, 3083336219, 0.5676001310348511, -0.3820878267288208, -0.2697962522506714, -0.6775171756744385, 8.067339897155762, -0.8018145561218262, 5.579585075378418, 5.823703765869141, 2.5122952461242676, 2.4866042137145996, -0.8720703125, 0.038330078125, -0.340087890625, 
329, 3083344552, 0.5679512023925781, -0.38175761699676514, -0.27005547285079956, -0.6773055791854858, 7.941051006317139, -0.7390052080154419, 5.609804630279541, 7.167556285858154, 1.531629204750061, 2.250134229660034, -0.873046875, 0.038818359375, -0.342041015625, 
330, 3083352885, 0.5681732892990112, -0.3816171884536743, -0.27038630843162537, -0.6770663261413574, 7.870928764343262, -0.5632851719856262, 5.724339485168457, 5.748974323272705, -1.4276095628738403, 1.5833569765090942, -0.8720703125, 0.037841796875, -0.339599609375, 
331, 3083361218, 0.5683754086494446, -0.38152799010276794, -0.27065086364746094, -0.676841139793396, 7.97942590713501, -0.5160703063011169, 5.649677753448486, 4.603684425354004, -1.3786861896514893, 1.8356568813323975, -0.87353515625, 0.037353515625, -0.340576171875, 
332, 3083369551, 0.5686103701591492, -0.3813483715057373, -0.2710835337638855, -0.6765718460083008, 8.035351753234863, -0.5536741018295288, 5.430267810821533, 7.2468180656433105, -1.9770604372024536, 1.3020356893539429, -0.871826171875, 0.04150390625, -0.33837890625, 
333, 3083377884, 0.5690847039222717, -0.38076886534690857, -0.2716984450817108, -0.6762527823448181, 7.987471580505371, -0.5482237935066223, 5.365808486938477, 13.475278854370117, 0.9675393104553223, 1.4383034706115723, -0.87353515625, 0.035400390625, -0.340087890625, 
334, 3083386217, 0.5695560574531555, -0.3801577091217041, -0.27254971861839294, -0.6758570671081543, 7.9705305099487305, -0.4349766969680786, 5.373816967010498, 15.949051856994629, -0.9903489351272583, 0.5008480548858643, -0.8720703125, 0.035888671875, -0.342041015625, 
335, 3083394550, 0.569881796836853, -0.3797776699066162, -0.273455411195755, -0.6754302978515625, 8.11497974395752, -0.2673186957836151, 5.182929039001465, 14.242082595825195, -4.282740116119385, 0.12543293833732605, -0.8740234375, 0.038330078125, -0.340576171875, 
336, 3083402883, 0.5700967311859131, -0.37951895594596863, -0.27414369583129883, -0.6751152873039246, 8.199681282043457, -0.15683121979236603, 5.212561130523682, 10.240726470947266, -3.549787759780884, -0.19739612936973572, -0.8720703125, 0.037353515625, -0.339599609375, 
337, 3083411216, 0.5701100826263428, -0.3794284164905548, -0.27451932430267334, -0.6750020980834961, 8.15207576751709, -0.17575165629386902, 5.327888488769531, 4.238963603973389, -2.3556385040283203, -1.3761504888534546, -0.87548828125, 0.034912109375, -0.338134765625, 
338, 3083419549, 0.5699571371078491, -0.37953466176986694, -0.2747615873813629, -0.6749731302261353, 8.094643592834473, -0.20201843976974487, 5.317072868347168, 0.3777458965778351, -3.3469600677490234, -2.0577449798583984, -0.8720703125, 0.033447265625, -0.33740234375, 
339, 3083427882, 0.5697517395019531, -0.37971606850624084, -0.27499064803123474, -0.6749510169029236, 8.149065971374512, -0.22833070158958435, 5.319779872894287, -0.737933337688446, -4.082332611083984, -2.3280651569366455, -0.8740234375, 0.034912109375, -0.338134765625, 
340, 3083436215, 0.5694997906684875, -0.37992602586746216, -0.2752183973789215, -0.6749527454376221, 8.202978134155273, -0.22474077343940735, 5.3855061531066895, -1.2578511238098145, -4.405431270599365, -2.787431001663208, -0.873046875, 0.034423828125, -0.33740234375, 
341, 3083444548, 0.5691772103309631, -0.3802433907985687, -0.27544882893562317, -0.6749521493911743, 8.231559753417969, -0.23353756964206696, 5.424342632293701, -2.483696699142456, -5.68580961227417, -3.077767848968506, -0.87353515625, 0.033935546875, -0.33740234375, 
342, 3083452881, 0.5687885880470276, -0.38065704703330994, -0.27558934688568115, -0.6749892830848694, 8.232218742370605, -0.20858259499073029, 5.529456615447998, -4.570476531982422, -5.9401469230651855, -3.144071102142334, -0.87353515625, 0.037109375, -0.337158203125, 
343, 3083461214, 0.5683364868164062, -0.3811435103416443, -0.27554014325141907, -0.675115704536438, 8.297821998596191, -0.21863694489002228, 5.6771416664123535, -7.563141822814941, -4.893165111541748, -3.1701722145080566, -0.8740234375, 0.03564453125, -0.334716796875, 
344, 3083469547, 0.567882776260376, -0.38157621026039124, -0.27519598603248596, -0.675393283367157, 8.410920143127441, -0.3357275426387787, 5.790145397186279, -10.386458396911621, -1.3221943378448486, -2.9601993560791016, -0.87451171875, 0.033203125, -0.33544921875, 
345, 3083477880, 0.5674580335617065, -0.38190051913261414, -0.27460718154907227, -0.6758065819740295, 8.44166374206543, -0.5389367341995239, 5.81173038482666, -12.249588012695312, 2.436042308807373, -2.9412193298339844, -0.87548828125, 0.033203125, -0.333984375, 
346, 3083486213, 0.5670841336250305, -0.3821481466293335, -0.27397632598876953, -0.6762363910675049, 8.339158058166504, -0.766941249370575, 5.7353105545043945, -11.79365348815918, 3.740088701248169, -2.62288498878479, -0.87353515625, 0.0341796875, -0.33447265625, 
347, 3083494546, 0.566798746585846, -0.3823826014995575, -0.27349919080734253, -0.6765360832214355, 8.234140396118164, -0.8704536557197571, 5.638554096221924, -9.349003791809082, 2.327104330062866, -1.6855576038360596, -0.87255859375, 0.034912109375, -0.337890625, 
348, 3083502879, 0.5665698051452637, -0.38262003660202026, -0.27322083711624146, -0.676706075668335, 8.218334197998047, -0.9197691679000854, 5.65240478515625, -6.879317283630371, 0.2818205952644348, -1.2638319730758667, -0.87451171875, 0.033935546875, -0.33740234375, 
349, 3083511212, 0.5663967728614807, -0.38280344009399414, -0.2730385363101959, -0.6768207550048828, 8.217513084411621, -0.863219141960144, 5.599367141723633, -4.921877384185791, -0.04413332790136337, -0.9409646391868591, -0.87158203125, 0.032470703125, -0.33740234375, 
350, 3083519545, 0.5662851929664612, -0.3828802704811096, -0.2728658616542816, -0.676940381526947, 8.204939842224121, -0.8433584570884705, 5.608738899230957, -3.815765142440796, 1.128255844116211, -0.9240719079971313, -0.8740234375, 0.0341796875, -0.3349609375, 
351, 3083527878, 0.5662071704864502, -0.38289231061935425, -0.2726699113845825, -0.6770777702331543, 8.16171646118164, -0.8062856793403625, 5.521191120147705, -3.299100399017334, 2.132641315460205, -0.8048888444900513, -0.8740234375, 0.0341796875, -0.3359375, 
352, 3083536211, 0.5661163926124573, -0.38294127583503723, -0.272543340921402, -0.6771769523620605, 8.074846267700195, -0.6988533139228821, 5.421565055847168, -2.8014674186706543, 0.9823314547538757, -0.7991769909858704, -0.87255859375, 0.034423828125, -0.33740234375, 
353, 3083544544, 0.5659747123718262, -0.3831079602241516, -0.27253100275993347, -0.6772062182426453, 7.996554374694824, -0.5984253883361816, 5.3517584800720215, -2.723010778427124, -1.5447561740875244, -0.9415409564971924, -0.873046875, 0.03466796875, -0.33447265625, 
354, 3083552877, 0.5657647848129272, -0.38335710763931274, -0.27258431911468506, -0.6772189140319824, 7.997354984283447, -0.5013760924339294, 5.3027167320251465, -3.0527942180633545, -3.1789188385009766, -1.474291443824768, -0.8720703125, 0.03515625, -0.33740234375, 
355, 3083561210, 0.5655182003974915, -0.38359636068344116, -0.27257126569747925, -0.6772948503494263, 8.067042350769043, -0.5206210613250732, 5.394296646118164, -4.022523403167725, -2.359903335571289, -2.007246732711792, -0.875, 0.034912109375, -0.336669921875, 
356, 3083569543, 0.5652604103088379, -0.3837698698043823, -0.2723867893218994, -0.6774858832359314, 8.115503311157227, -0.6021468639373779, 5.446283340454102, -5.595545291900635, 0.13483335077762604, -2.333111047744751, -0.873046875, 0.033203125, -0.33544921875, 
357, 3083577876, 0.5649826526641846, -0.38393813371658325, -0.2720678746700287, -0.6777503490447998, 8.110483169555664, -0.7868508100509644, 5.416548728942871, -7.190428733825684, 1.5552581548690796, -2.416651964187622, -0.87451171875, 0.033447265625, -0.3369140625, 
358, 3083586209, 0.564693808555603, -0.3841716945171356, -0.2717464864253998, -0.6779877543449402, 8.060412406921387, -0.9056265354156494, 5.3907084465026855, -7.695708274841309, 0.7707067728042603, -2.0501763820648193, -0.87353515625, 0.034423828125, -0.33740234375, 
359, 3083594542, 0.5643694996833801, -0.38457342982292175, -0.27155640721321106, -0.6781061291694641, 8.053661346435547, -0.9682368040084839, 5.387081146240234, -7.501885414123535, -2.5679683685302734, -1.5235222578048706, -0.8740234375, 0.033935546875, -0.3369140625, 
360, 3083602875, 0.564045250415802, -0.3850649297237396, -0.27151596546173096, -0.6781129240989685, 8.154081344604492, -0.9104278683662415, 5.444580078125, -6.3520355224609375, -5.169861793518066, -1.0784488916397095, -0.87255859375, 0.034423828125, -0.33740234375, 
361, 3083611208, 0.5638037323951721, -0.38547101616859436, -0.27157557010650635, -0.6780593991279602, 8.285408020019531, -0.8673708438873291, 5.529721260070801, -4.128540992736816, -5.146091461181641, -0.7226671576499939, -0.8740234375, 0.033203125, -0.3349609375, 
362, 3083619541, 0.5636386871337891, -0.38571059703826904, -0.2716602087020874, -0.6780264973640442, 8.353672981262207, -0.8209721446037292, 5.567831039428711, -2.112905502319336, -3.4194869995117188, -0.8044533133506775, -0.875, 0.03369140625, -0.3330078125, 
363, 3083627874, 0.5635493397712708, -0.3858203887939453, -0.2717938721179962, -0.6779846549034119, 8.270177841186523, -0.7712517380714417, 5.590096473693848, -0.3782966732978821, -2.3279242515563965, -0.8932196497917175, -0.87451171875, 0.03173828125, -0.33447265625, 
364, 3083636207, 0.5634695291519165, -0.3859252333641052, -0.272015243768692, -0.6779024600982666, 8.209220886230469, -0.7390782237052917, 5.560586929321289, 0.6862821578979492, -3.1508452892303467, -0.9614686369895935, -0.8759765625, 0.03466796875, -0.332763671875, 
365, 3083644540, 0.5633964538574219, -0.38604384660720825, -0.27224278450012207, -0.6778044104576111, 8.230464935302734, -0.6997822523117065, 5.578317642211914, 0.7267014980316162, -3.3739712238311768, -0.770488977432251, -0.876953125, 0.03271484375, -0.333251953125, 
366, 3083652873, 0.5632930397987366, -0.38622844219207764, -0.2723831832408905, -0.6777287721633911, 8.254280090332031, -0.6896639466285706, 5.645380020141602, -0.6445438861846924, -3.339033365249634, -0.37707996368408203, -0.87646484375, 0.03369140625, -0.332763671875, 
367, 3083661206, 0.5631906390190125, -0.38643085956573486, -0.2724721133708954, -0.6776627898216248, 8.263763427734375, -0.6808494925498962, 5.609416484832764, -1.4903770685195923, -3.021186351776123, -0.24188803136348724, -0.875, 0.0322265625, -0.33349609375, 
368, 3083669539, 0.5631012320518494, -0.38653820753097534, -0.2725772261619568, -0.67763352394104, 8.24290943145752, -0.6344202756881714, 5.554465293884277, -0.6322105526924133, -2.0322587490081787, -0.8117662072181702, -0.8759765625, 0.03173828125, -0.3349609375, 
369, 3083677872, 0.5630369782447815, -0.3865780234336853, -0.27268755435943604, -0.6776198148727417, 8.207237243652344, -0.6166468262672424, 5.639472961425781, -0.025524580851197243, -1.251600980758667, -1.016385555267334, -0.875, 0.032958984375, -0.330078125, 
370, 3083686205, 0.5629783868789673, -0.3866392970085144, -0.27275288105010986, -0.6776070594787598, 8.242829322814941, -0.6679396033287048, 5.674729347229004, -0.5803545117378235, -1.0865941047668457, -0.6369107365608215, -0.8759765625, 0.03466796875, -0.332275390625, 
371, 3083694538, 0.5629431009292603, -0.386692613363266, -0.2727624773979187, -0.6776021122932434, 8.232328414916992, -0.6940836310386658, 5.605412006378174, -0.9470992088317871, -0.44167909026145935, -0.2270830124616623, -0.87451171875, 0.03369140625, -0.33447265625, 
372, 3083702871, 0.5629360675811768, -0.38667136430740356, -0.27275019884109497, -0.6776251792907715, 8.216127395629883, -0.764495849609375, 5.569689750671387, 0.02072191797196865, 0.6144598126411438, 0.0269461739808321, -0.87451171875, 0.033447265625, -0.32958984375, 
373, 3083711204, 0.5630293488502502, -0.38655102252960205, -0.2728731036186218, -0.6775668859481812, 8.170602798461914, -0.7202600240707397, 5.516470909118652, 2.3364665508270264, 0.4999770522117615, 0.1296720653772354, -0.875, 0.03271484375, -0.33154296875, 
374, 3083719537, 0.563174843788147, -0.38634997606277466, -0.2731468081474304, -0.6774501204490662, 8.147829055786133, -0.5955538153648376, 5.464495658874512, 4.802976608276367, -0.03884398937225342, -0.0641508549451828, -0.8759765625, 0.03271484375, -0.33251953125, 
375, 3083727870, 0.5633565187454224, -0.3861146867275238, -0.27347391843795776, -0.677301287651062, 8.201706886291504, -0.5295796394348145, 5.455384731292725, 5.9397358894348145, -0.1628168672323227, 0.13757404685020447, -0.876220703125, 0.03564453125, -0.332763671875, 
376, 3083736203, 0.5634899139404297, -0.3859425187110901, -0.2737399935722351, -0.6771809458732605, 8.231231689453125, -0.48241955041885376, 5.461961269378662, 4.599009990692139, -0.3259924054145813, 0.09203194826841354, -0.8759765625, 0.033935546875, -0.329833984375, 
377, 3083744536, 0.5635485649108887, -0.3858393430709839, -0.2739125192165375, -0.6771213412284851, 8.209772109985352, -0.4468349516391754, 5.458331108093262, 2.4874496459960938, -0.1825142353773117, -0.3825101852416992, -0.87646484375, 0.0322265625, -0.3330078125, 
378, 3083752869, 0.5635281205177307, -0.38581663370132446, -0.27396997809410095, -0.6771279573440552, 8.242400169372559, -0.4493415951728821, 5.447304725646973, 0.13306595385074615, -0.0013191329780966043, -0.6992045640945435, -0.87744140625, 0.033203125, -0.331298828125, 
379, 3083761202, 0.5634507536888123, -0.38588863611221313, -0.27390795946121216, -0.677176296710968, 8.281743049621582, -0.4844413101673126, 5.473520278930664, -2.1831653118133545, 0.0639331266283989, -0.5806618928909302, -0.87451171875, 0.032958984375, -0.3291015625, 
380, 3083769535, 0.563334584236145, -0.3860165476799011, -0.2737449109554291, -0.6772660613059998, 8.289027214050293, -0.5326383113861084, 5.441657543182373, -3.905568838119507, 0.38733845949172974, -0.49605807662010193, -0.87646484375, 0.0322265625, -0.3310546875, 
381, 3083777868, 0.563205361366272, -0.38617315888404846, -0.2735259234905243, -0.6773727536201477, 8.28057861328125, -0.5521048903465271, 5.473779201507568, -4.794984817504883, 0.606404185295105, -0.3624926507472992, -0.87548828125, 0.033935546875, -0.330322265625, 
382, 3083786201, 0.5630633234977722, -0.3863697648048401, -0.2732889950275421, -0.6774742007255554, 8.232109069824219, -0.6057387590408325, 5.490415573120117, -5.310701847076416, 0.28220483660697937, -0.17970947921276093, -0.875244140625, 0.034912109375, -0.329345703125, 
383, 3083794534, 0.5629186034202576, -0.386596143245697, -0.2730707824230194, -0.6775532960891724, 8.242295265197754, -0.7291396260261536, 5.496878623962402, -5.307487487792969, -0.25318390130996704, -0.035847123712301254, -0.875, 0.033935546875, -0.328857421875, 
384, 3083802867, 0.5628218650817871, -0.38679128885269165, -0.272868275642395, -0.677604079246521, 8.295618057250977, -0.7916515469551086, 5.487700939178467, -4.501407623291016, -0.07244987040758133, 0.476988285779953, -0.8740234375, 0.035888671875, -0.327880859375, 
385, 3083811200, 0.5627796053886414, -0.3869177997112274, -0.2727903425693512, -0.677598237991333, 8.213062286376953, -0.7637833952903748, 5.451814651489258, -2.361645221710205, -0.47766709327697754, 0.456496924161911, -0.875, 0.033203125, -0.33349609375, 
386, 3083819533, 0.5627795457839966, -0.38695043325424194, -0.27287137508392334, -0.6775469779968262, 8.086453437805176, -0.5936287641525269, 5.441396713256836, 0.4976973831653595, -0.9509283900260925, 0.18036262691020966, -0.875, 0.033203125, -0.333984375, 
387, 3083827866, 0.562805712223053, -0.38691359758377075, -0.27303677797317505, -0.6774797439575195, 8.075383186340332, -0.4701860249042511, 5.45181131362915, 1.7631301879882812, -0.9075506329536438, -0.33929893374443054, -0.87548828125, 0.03271484375, -0.33154296875, 
388, 3083836199, 0.5628373622894287, -0.38681885600090027, -0.2731018364429474, -0.6774814128875732, 8.110980987548828, -0.47613614797592163, 5.481502532958984, 1.1675480604171753, 0.7712959051132202, -0.4152195453643799, -0.87451171875, 0.033935546875, -0.33056640625, 
389, 3083844532, 0.562856137752533, -0.38671568036079407, -0.2730323374271393, -0.6775527000427246, 8.086413383483887, -0.5414801239967346, 5.468636512756348, -0.47189104557037354, 2.238645553588867, -0.4792935252189636, -0.87451171875, 0.032958984375, -0.3291015625, 
390, 3083852865, 0.5628384351730347, -0.38663867115974426, -0.27292105555534363, -0.6776561141014099, 8.07468318939209, -0.6091476678848267, 5.381595134735107, -1.366237759590149, 2.3369534015655518, -0.7294934391975403, -0.87548828125, 0.03369140625, -0.330810546875, 
391, 3083861198, 0.5627961754798889, -0.386628121137619, -0.27286243438720703, -0.6777207851409912, 8.099268913269043, -0.682652473449707, 5.3548994064331055, -1.3879331350326538, 1.0271180868148804, -0.7083361148834229, -0.87548828125, 0.033935546875, -0.329345703125, 
392, 3083869531, 0.5627338886260986, -0.3867034912109375, -0.2728399336338043, -0.677738606929779, 8.23456859588623, -0.7194972038269043, 5.4039788246154785, -1.6514391899108887, -0.3912446200847626, -0.39526602625846863, -0.8740234375, 0.035400390625, -0.331298828125, 
393, 3083877864, 0.5626828670501709, -0.38681042194366455, -0.27284637093544006, -0.6777173280715942, 8.3272705078125, -0.763053834438324, 5.441126346588135, -1.4137648344039917, -1.062977910041809, -0.029084963724017143, -0.875732421875, 0.037841796875, -0.328857421875, 
394, 3083886197, 0.5626516938209534, -0.38684558868408203, -0.2728554308414459, -0.6777194738388062, 8.316224098205566, -0.7008498311042786, 5.491495132446289, -0.5417026877403259, -0.25087863206863403, -0.11863234639167786, -0.8740234375, 0.031005859375, -0.326171875, 
395, 3083894530, 0.5626547336578369, -0.38677746057510376, -0.2728863060474396, -0.6777434349060059, 8.247049331665039, -0.6266748905181885, 5.523646831512451, 0.2876734435558319, 0.8229341506958008, -0.6621151566505432, -0.87451171875, 0.03466796875, -0.331787109375, 
396, 3083902863, 0.562641441822052, -0.38671910762786865, -0.2728537917137146, -0.6778008341789246, 8.230819702148438, -0.6390063762664795, 5.584954261779785, -0.34862253069877625, 1.3056855201721191, -0.5276916027069092, -0.87646484375, 0.03271484375, -0.3310546875, 
397, 3083911196, 0.562629222869873, -0.38672804832458496, -0.2727473974227905, -0.677848756313324, 8.2306489944458, -0.6975862383842468, 5.587750434875488, -1.759326457977295, 1.2365014553070068, 0.02884162776172161, -0.87451171875, 0.03173828125, -0.3330078125, 
398, 3083919529, 0.5626322031021118, -0.3867496848106384, -0.2726523280143738, -0.6778721809387207, 8.19735050201416, -0.7800040245056152, 5.520705699920654, -1.4398914575576782, 0.9323069453239441, 0.45106667280197144, -0.875, 0.033203125, -0.3310546875, 
399, 3083927862, 0.5626906156539917, -0.3867114186286926, -0.2726839482784271, -0.6778326034545898, 8.108541488647461, -0.7423792481422424, 5.487253189086914, 0.5949034094810486, 0.41068580746650696, 0.4536665081977844, -0.87451171875, 0.033203125, -0.33154296875, 
400, 3083936195, 0.5627686977386475, -0.3866257965564728, -0.2728676199913025, -0.6777428984642029, 8.074329376220703, -0.6373467445373535, 5.473128795623779, 2.693234443664551, -0.5339671969413757, 0.06429173052310944, -0.876220703125, 0.035400390625, -0.329833984375, 
401, 3083944528, 0.5628560185432434, -0.3865155279636383, -0.2730713486671448, -0.6776511073112488, 8.123967170715332, -0.5435855388641357, 5.512637615203857, 3.1054699420928955, -0.4211108684539795, -0.05915607511997223, -0.87548828125, 0.032958984375, -0.32958984375, 
402, 3083952861, 0.5629304647445679, -0.38642725348472595, -0.27317047119140625, -0.6775997281074524, 8.163312911987305, -0.5225123763084412, 5.549686908721924, 1.6670640707015991, 0.3441656529903412, 0.11064068228006363, -0.875732421875, 0.034912109375, -0.330810546875, 
403, 3083961194, 0.562962532043457, -0.38640594482421875, -0.2732040584087372, -0.6775716543197632, 8.163346290588379, -0.5171571969985962, 5.510070323944092, 0.29911020398139954, 0.19806204736232758, 0.1722429096698761, -0.877197265625, 0.03466796875, -0.332275390625, 
404, 3083969527, 0.5629907846450806, -0.38638049364089966, -0.27324679493904114, -0.677545428276062, 8.18211555480957, -0.485492467880249, 5.474236011505127, 0.2587805986404419, 0.16195881366729736, -0.015663105994462967, -0.8759765625, 0.0322265625, -0.33154296875, 
405, 3083977860, 0.5630452036857605, -0.3862875998020172, -0.27330851554870605, -0.6775282025337219, 8.248594284057617, -0.5297178030014038, 5.475930213928223, 1.1934185028076172, 0.7887647747993469, -0.12127059698104858, -0.873046875, 0.035400390625, -0.330810546875, 
406, 3083986193, 0.5631515979766846, -0.3861057758331299, -0.2733405828475952, -0.6775305867195129, 8.278623580932617, -0.542602002620697, 5.426474571228027, 1.785888433456421, 2.1366755962371826, 0.029750937595963478, -0.8759765625, 0.0322265625, -0.33203125, 
407, 3083994526, 0.5632543563842773, -0.3859216868877411, -0.2733054757118225, -0.6775643825531006, 8.220830917358398, -0.5694993734359741, 5.304934501647949, 1.062977910041809, 2.8407340049743652, 0.1054922342300415, -0.8759765625, 0.033203125, -0.33154296875, 
408, 3084002859, 0.5633169412612915, -0.38580629229545593, -0.27329012751579285, -0.677584171295166, 8.127050399780273, -0.49064886569976807, 5.239867210388184, 0.5394229292869568, 1.8112976551055908, -0.005353374872356653, -0.875, 0.032470703125, -0.330078125, 
409, 3084011192, 0.5632798671722412, -0.3858175277709961, -0.27323707938194275, -0.6776300072669983, 8.09630298614502, -0.37387195229530334, 5.2973527908325195, -1.4058501720428467, 0.6992174386978149, -0.46291324496269226, -0.8740234375, 0.031005859375, -0.33056640625, 
410, 3084019525, 0.5630754232406616, -0.3860427439212799, -0.27292102575302124, -0.6777989864349365, 8.187545776367188, -0.3615717887878418, 5.458744049072266, -6.7028608322143555, 0.7380357384681702, -0.6597714424133301, -0.87451171875, 0.03466796875, -0.332763671875, 
411, 3084027858, 0.5627177357673645, -0.3864418566226959, -0.27219048142433167, -0.6781622171401978, 8.386639595031738, -0.5792545080184937, 5.688558101654053, -13.617171287536621, 2.81317400932312, -0.8554388880729675, -0.876953125, 0.0341796875, -0.333251953125, 
412, 3084036191, 0.5622965693473816, -0.38697555661201477, -0.27119696140289307, -0.6786050796508789, 8.464961051940918, -0.9965982437133789, 5.766636848449707, -17.771045684814453, 3.7671122550964355, -0.16806785762310028, -0.87548828125, 0.03369140625, -0.331787109375, 
413, 3084044524, 0.5619560480117798, -0.3874879777431488, -0.27028289437294006, -0.678959310054779, 8.353934288024902, -1.3221572637557983, 5.666774272918701, -16.07901954650879, 3.18904972076416, 0.7754198908805847, -0.87451171875, 0.033203125, -0.33154296875, 
414, 3084052857, 0.5617952346801758, -0.38784146308898926, -0.2698988616466522, -0.6790433526039124, 8.111494064331055, -1.246803879737854, 5.432894706726074, -8.15855598449707, -0.18530617654323578, 0.9923210740089417, -0.873046875, 0.0341796875, -0.3359375, 
415, 3084061190, 0.5618258714675903, -0.3878905475139618, -0.2701098918914795, -0.6789060831069946, 7.987131595611572, -0.7745643258094788, 5.205657005310059, 1.8098379373550415, -2.419520616531372, 0.31839776039123535, -0.87451171875, 0.0361328125, -0.333740234375, 
416, 3084069523, 0.5619829297065735, -0.3876456022262573, -0.27055537700653076, -0.6787386536598206, 7.91567850112915, -0.3182457983493805, 5.189997673034668, 7.112753391265869, -1.1940845251083374, -0.5648707151412964, -0.87353515625, 0.03515625, -0.333740234375, 
417, 3084077856, 0.5620497465133667, -0.3873836100101471, -0.2707027792930603, -0.6787742376327515, 7.91077995300293, -0.1401536911725998, 5.366356372833252, 3.17052960395813, 2.033334732055664, -1.4964220523834229, -0.87548828125, 0.03466796875, -0.333251953125, 
418, 3084086189, 0.5618827939033508, -0.3874075710773468, -0.27020710706710815, -0.6790962219238281, 7.949835300445557, -0.34370964765548706, 5.55426549911499, -7.278298377990723, 4.969878673553467, -1.3423012495040894, -0.87451171875, 0.03271484375, -0.33544921875, 
419, 3084094522, 0.5615140199661255, -0.38784635066986084, -0.2691943645477295, -0.6795527338981628, 8.068041801452637, -0.7981216311454773, 5.700962543487549, -16.96217155456543, 5.0782790184021, -0.029341112822294235, -0.8740234375, 0.0361328125, -0.336181640625, 
420, 3084102855, 0.5609647035598755, -0.38867101073265076, -0.2680208683013916, -0.6799988150596619, 8.302855491638184, -1.3692331314086914, 5.9126362800598145, -22.397977828979492, 1.978930950164795, 0.6410220861434937, -0.87451171875, 0.03515625, -0.334228515625, 
421, 3084111188, 0.5604380965232849, -0.38970422744750977, -0.26693814992904663, -0.6802675127983093, 8.612425804138184, -1.8656944036483765, 6.036379814147949, -22.356460571289062, -1.5260326862335205, 2.510836362838745, -0.87451171875, 0.03662109375, -0.337158203125, 
422, 3084119521, 0.5601013898849487, -0.39077135920524597, -0.2662644684314728, -0.6801965832710266, 8.904611587524414, -2.0855422019958496, 6.001580238342285, -16.75226402282715, -6.107856750488281, 4.7002387046813965, -0.875732421875, 0.03955078125, -0.33447265625, 
423, 3084127854, 0.5601638555526733, -0.39126378297805786, -0.26598459482192993, -0.6799715757369995, 9.043899536132812, -1.8984065055847168, 5.975958347320557, -5.7046613693237305, -3.1425721645355225, 5.539181232452393, -0.872802734375, 0.041015625, -0.33544921875, 
424, 3084136187, 0.560664713382721, -0.3908439874649048, -0.26616573333740234, -0.6797292828559875, 8.832893371582031, -1.4175570011138916, 5.772299766540527, 7.464168071746826, 3.39565372467041, 3.5753376483917236, -0.876220703125, 0.0419921875, -0.33447265625, 
425, 3084144520, 0.5614736676216125, -0.38961872458457947, -0.2667292654514313, -0.6795440316200256, 8.349023818969727, -0.8638609647750854, 5.452000141143799, 19.284812927246094, 9.360905647277832, 1.390367031097412, -0.874755859375, 0.0419921875, -0.3349609375, 
426, 3084152853, 0.562416672706604, -0.38806653022766113, -0.26763975620269775, -0.6792944669723511, 7.7313232421875, -0.4232477843761444, 5.122177600860596, 26.084938049316406, 9.86509895324707, 0.14126259088516235, -0.873779296875, 0.0400390625, -0.336669921875, 
427, 3084161186, 0.5632948875427246, -0.3867243826389313, -0.26863381266593933, -0.6789398193359375, 7.339652061462402, -0.1200171485543251, 5.000035285949707, 25.2050724029541, 6.477804183959961, 0.6176490783691406, -0.873779296875, 0.04052734375, -0.337890625, 
428, 3084169519, 0.5639805793762207, -0.38586127758026123, -0.26955318450927734, -0.6784970164299011, 7.219677925109863, 0.07237455248832703, 4.859076023101807, 20.07830047607422, 1.3931972980499268, 1.6630431413650513, -0.87353515625, 0.035888671875, -0.337646484375, 
429, 3084177852, 0.5644911527633667, -0.3853656053543091, -0.27039986848831177, -0.6780170202255249, 7.346564769744873, 0.15032953023910522, 4.760420799255371, 15.777807235717773, -2.3087007999420166, 2.0702965259552, -0.873291015625, 0.039306640625, -0.340087890625, 
430, 3084186185, 0.5648136138916016, -0.3850846290588379, -0.2710157632827759, -0.6776623129844666, 7.597020626068115, 0.12153790146112442, 4.919473648071289, 10.880274772644043, -2.6020989418029785, 1.6274389028549194, -0.87353515625, 0.037109375, -0.337158203125, 
431, 3084194518, 0.5648787021636963, -0.3851040303707123, -0.2711356282234192, -0.6775489449501038, 7.8943400382995605, -0.028558628633618355, 5.357404708862305, 1.2786496877670288, -1.1811234951019287, 0.8398779034614563, -0.8740234375, 0.036865234375, -0.338134765625, 
432, 3084202851, 0.5644844770431519, -0.38574954867362976, -0.2705346345901489, -0.6777504682540894, 8.294378280639648, -0.2603503167629242, 5.5978007316589355, -13.963706970214844, -1.467004418373108, 0.238737553358078, -0.873046875, 0.03662109375, -0.335205078125, 
433, 3084211184, 0.5637881755828857, -0.3869301974773407, -0.26934921741485596, -0.6781290173530579, 8.773260116577148, -0.5432033538818359, 5.477427005767822, -25.770572662353516, -2.096346855163574, 1.1665881872177124, -0.873291015625, 0.0390625, -0.334716796875, 
434, 3084219517, 0.5630952715873718, -0.3881525695323944, -0.2681084871292114, -0.6784979104995728, 8.945223808288574, -0.8558157086372375, 5.313790798187256, -26.531190872192383, -2.110588550567627, 1.7486463785171509, -0.873291015625, 0.04150390625, -0.3349609375, 
435, 3084227850, 0.5625365972518921, -0.38905104994773865, -0.2673518657684326, -0.6787452101707458, 8.677064895629883, -0.907433807849884, 5.29946231842041, -18.364349365234375, -2.975670576095581, 0.14005868136882782, -0.874267578125, 0.041259765625, -0.3330078125, 
436, 3084236183, 0.5620971322059631, -0.38955017924308777, -0.2672421634197235, -0.6788661479949951, 8.335886001586914, -0.7017980217933655, 5.427008628845215, -8.10205078125, -4.506145000457764, -2.667888879776001, -0.876220703125, 0.041015625, -0.3369140625, 
437, 3084244516, 0.5618493556976318, -0.38971778750419617, -0.26744699478149414, -0.6788944005966187, 8.23098373413086, -0.44903939962387085, 5.614350318908691, -1.2688652276992798, -3.61833119392395, -3.098003625869751, -0.877197265625, 0.04150390625, -0.33349609375, 
438, 3084252849, 0.5617296695709229, -0.389766126871109, -0.2674604058265686, -0.6789604425430298, 8.187124252319336, -0.3541243076324463, 5.799374103546143, -1.561354160308838, -0.3662451505661011, -1.5791304111480713, -0.875732421875, 0.04052734375, -0.333984375, 
439, 3084261182, 0.5616852045059204, -0.38972556591033936, -0.2670193910598755, -0.6791941523551941, 7.956998348236084, -0.5350924134254456, 5.898681640625, -5.358305931091309, 5.16267728805542, -0.09173738211393356, -0.872314453125, 0.0419921875, -0.3349609375, 
440, 3084269515, 0.5616622567176819, -0.3897090256214142, -0.2664002776145935, -0.6794654726982117, 7.769677639007568, -0.9281467199325562, 5.959646224975586, -7.211573123931885, 6.581757068634033, 0.885356068611145, -0.875732421875, 0.04248046875, -0.33642578125, 
441, 3084277848, 0.5617996454238892, -0.38965654373168945, -0.2659456729888916, -0.679560124874115, 7.898742198944092, -1.4064093828201294, 5.958497047424316, -3.906926393508911, 5.300405025482178, 2.7109081745147705, -0.873779296875, 0.0439453125, -0.3349609375, 
442, 3084286181, 0.5621716380119324, -0.3894028663635254, -0.26580971479415894, -0.679451048374176, 8.31406307220459, -1.7773445844650269, 5.972721099853516, 2.430035352706909, 4.492262840270996, 3.9157893657684326, -0.875244140625, 0.04150390625, -0.337890625, 
443, 3084294514, 0.562763512134552, -0.3888896703720093, -0.2660040855407715, -0.6791788935661316, 8.71984577178955, -2.044078826904297, 5.884792804718018, 9.493084907531738, 4.287042617797852, 4.633449554443359, -0.874755859375, 0.04248046875, -0.3388671875, 
444, 3084302847, 0.5635401010513306, -0.38813167810440063, -0.26653364300727844, -0.6787607669830322, 8.845720291137695, -2.1250483989715576, 5.722797393798828, 16.107707977294922, 3.855161190032959, 4.852451801300049, -0.874267578125, 0.04296875, -0.3369140625, 
445, 3084311180, 0.5644829273223877, -0.38709238171577454, -0.26739197969436646, -0.6782330274581909, 8.701129913330078, -1.9827969074249268, 5.4797163009643555, 22.578033447265625, 3.9762532711029053, 4.413692951202393, -0.873291015625, 0.0439453125, -0.33740234375, 
446, 3084319513, 0.5654958486557007, -0.3858221769332886, -0.26873669028282166, -0.677581250667572, 8.414371490478516, -1.6785075664520264, 5.309625148773193, 29.50087547302246, 1.9639856815338135, 2.4429211616516113, -0.872314453125, 0.04248046875, -0.33935546875, 
447, 3084327846, 0.5665563344955444, -0.3844197690486908, -0.27051565051078796, -0.6767842769622803, 8.173661231994629, -1.1436266899108887, 5.385326385498047, 35.60026550292969, -0.7880868315696716, 1.3726425170898438, -0.872802734375, 0.04248046875, -0.3359375, 
