sep=,
PacketCounter,SampleTimeFine,Quat_W,Quat_X,Quat_Y,Quat_Z,Acc_X,Acc_Y,Acc_Z,Gyr_X,Gyr_Y,Gyr_Z,Mag_X,Mag_Y,Mag_Z,
0, 3253521078, 0.6130293607711792, -0.39060738682746887, -0.47729042172431946, -0.4937555193901062, 0, 0, 0, 0, 0, 0, -0.814453125, 0.1083984375, 0.100341796875, 
1, 3253529411, 0.6128250360488892, -0.39070451259613037, -0.47733640670776367, -0.49388784170150757, 9.593710899353027, -0.005943550728261471, 2.359654188156128, -2.9275786876678467, -1.3570934534072876, -2.1853551864624023, -0.811279296875, 0.107177734375, 0.1005859375, 
2, 3253537744, 0.6126415133476257, -0.390775203704834, -0.4773953855037689, -0.49400272965431213, 9.592700004577637, 0.008653500117361546, 2.3861243724823, -2.3922669887542725, -1.27858567237854, -2.153106927871704, -0.812744140625, 0.106689453125, 0.10302734375, 
3, 3253546077, 0.6124813556671143, -0.3908121883869171, -0.47745972871780396, -0.4941096901893616, 9.557046890258789, -0.03744993731379509, 2.4111087322235107, -1.8948129415512085, -0.9482132792472839, -2.1651458740234375, -0.81494140625, 0.106689453125, 0.103759765625, 
4, 3253554410, 0.6123331189155579, -0.3908347487449646, -0.47751984000205994, -0.49421751499176025, 9.589359283447266, -0.09920809417963028, 2.4138362407684326, -1.7411020994186401, -0.7663779854774475, -2.1740596294403076, -0.812255859375, 0.10400390625, 0.099609375, 
5, 3253562743, 0.6122052073478699, -0.3908422589302063, -0.47758370637893677, -0.4943082928657532, 9.601446151733398, -0.1279073804616928, 2.377976655960083, -1.3697212934494019, -0.618891179561615, -1.9994473457336426, -0.812744140625, 0.107177734375, 0.1015625, 
6, 3253571076, 0.612095057964325, -0.39082640409469604, -0.4776756763458252, -0.4943685233592987, 9.6017427444458, -0.11532990634441376, 2.3645761013031006, -0.6859235763549805, -0.7787752151489258, -1.9390486478805542, -0.815185546875, 0.104248046875, 0.10302734375, 
7, 3253579409, 0.6119941473007202, -0.3907987177371979, -0.4777626097202301, -0.4944313168525696, 9.61703872680664, -0.11007837951183319, 2.3686740398406982, -0.5875649452209473, -0.5487337708473206, -1.9369230270385742, -0.810791015625, 0.105224609375, 0.1025390625, 
8, 3253587742, 0.611864447593689, -0.3908085525035858, -0.4778500199317932, -0.49449974298477173, 9.63144588470459, -0.06615900993347168, 2.3729774951934814, -1.0920884609222412, -1.0006712675094604, -1.9480392932891846, -0.812255859375, 0.107666015625, 0.1015625, 
9, 3253596075, 0.6117154359817505, -0.39084529876708984, -0.47791510820388794, -0.49459198117256165, 9.631488800048828, -0.027733707800507545, 2.3398280143737793, -1.7295244932174683, -0.9620450735092163, -1.9712460041046143, -0.809814453125, 0.104736328125, 0.1015625, 
10, 3253604408, 0.611565351486206, -0.3909062445163727, -0.47794491052627563, -0.49470052123069763, 9.624199867248535, -0.053874753415584564, 2.293700695037842, -2.286787748336792, -0.7803121209144592, -1.7774744033813477, -0.813232421875, 0.105224609375, 0.10302734375, 
11, 3253612741, 0.6113889813423157, -0.3910028338432312, -0.4779612421989441, -0.49482637643814087, 9.627740859985352, -0.06790657341480255, 2.2915139198303223, -2.9330859184265137, -0.9574857950210571, -1.7846461534500122, -0.812744140625, 0.10595703125, 0.1005859375, 
12, 3253621074, 0.6112160682678223, -0.39110279083251953, -0.47796210646629333, -0.49495992064476013, 9.64859676361084, -0.04914669692516327, 2.2527413368225098, -3.0972864627838135, -0.8178753852844238, -1.731355905532837, -0.814208984375, 0.106201171875, 0.10205078125, 
13, 3253629407, 0.6110484004020691, -0.391198992729187, -0.4779530167579651, -0.4951000213623047, 9.645907402038574, -0.05515624210238457, 2.2801740169525146, -3.1484124660491943, -0.607275128364563, -1.7106852531433105, -0.812255859375, 0.104248046875, 0.1025390625, 
14, 3253637740, 0.6108813881874084, -0.39131098985671997, -0.4779233932495117, -0.49524614214897156, 9.632736206054688, -0.05682096257805824, 2.253030300140381, -3.458331346511841, -0.5386417508125305, -1.5543229579925537, -0.811279296875, 0.103271484375, 0.10205078125, 
15, 3253646073, 0.6107100248336792, -0.391450971364975, -0.47789087891578674, -0.4953779876232147, 9.626873016357422, -0.07847386598587036, 2.273162841796875, -3.6417548656463623, -0.7765723466873169, -1.2521262168884277, -0.811767578125, 0.103271484375, 0.10400390625, 
16, 3253654406, 0.6105331182479858, -0.39160484075546265, -0.4778538942337036, -0.4955103099346161, 9.622428894042969, -0.04619651660323143, 2.2681937217712402, -3.8234493732452393, -0.9001737833023071, -1.1922273635864258, -0.809326171875, 0.103271484375, 0.104248046875, 
17, 3253662739, 0.6103883385658264, -0.3917267322540283, -0.47781655192375183, -0.4956282675266266, 9.593256950378418, 0.017162756994366646, 2.3019297122955322, -3.2901999950408936, -0.5134885907173157, -1.0495688915252686, -0.811279296875, 0.104736328125, 0.1015625, 
18, 3253671072, 0.6102522015571594, -0.3918415307998657, -0.4777592718601227, -0.49576038122177124, 9.586304664611816, 0.01618029549717903, 2.3151936531066895, -3.4122769832611084, -0.19697345793247223, -1.058098316192627, -0.811767578125, 0.099365234375, 0.103271484375, 
19, 3253679405, 0.610107958316803, -0.391976535320282, -0.47766950726509094, -0.49591752886772156, 9.604514122009277, 0.005220749881118536, 2.3072874546051025, -4.010471820831299, 0.05280374363064766, -1.0036425590515137, -0.812255859375, 0.103271484375, 0.10498046875, 
20, 3253687738, 0.6099658012390137, -0.39212357997894287, -0.4775562286376953, -0.49608534574508667, 9.626324653625488, -0.03889314457774162, 2.3217341899871826, -4.330855369567871, 0.20682214200496674, -0.8854328989982605, -0.811767578125, 0.103271484375, 0.10400390625, 
21, 3253696071, 0.6098153591156006, -0.3922867476940155, -0.47743403911590576, -0.4962587356567383, 9.634952545166016, -0.061136145144701004, 2.3082375526428223, -4.609384536743164, 0.17910754680633545, -0.8246759176254272, -0.812255859375, 0.102294921875, 0.103759765625, 
22, 3253704404, 0.6096867322921753, -0.39243820309638977, -0.47730815410614014, -0.4964183270931244, 9.638947486877441, -0.08118724822998047, 2.2867629528045654, -4.326154708862305, 0.3248141407966614, -0.6279202103614807, -0.810791015625, 0.102783203125, 0.103271484375, 
23, 3253712737, 0.6095871329307556, -0.39255982637405396, -0.4771946370601654, -0.4965536296367645, 9.676420211791992, -0.09372888505458832, 2.34344482421875, -3.678255081176758, 0.5186753869056702, -0.476757675409317, -0.812255859375, 0.099365234375, 0.102783203125, 
24, 3253721070, 0.6095128655433655, -0.39265501499176025, -0.47710296511650085, -0.49665743112564087, 9.697321891784668, -0.14369425177574158, 2.329709529876709, -2.9619534015655518, 0.4789990484714508, -0.34141212701797485, -0.810791015625, 0.101806640625, 0.102783203125, 
25, 3253729403, 0.6094883680343628, -0.39270704984664917, -0.4770239591598511, -0.49672216176986694, 9.720724105834961, -0.17192243039608002, 2.3224658966064453, -1.9872546195983887, 0.8162360787391663, -0.014241514727473259, -0.809814453125, 0.100830078125, 0.101806640625, 
26, 3253737736, 0.6094835996627808, -0.3927476406097412, -0.47695499658584595, -0.49676230549812317, 9.691893577575684, -0.154395192861557, 2.3213038444519043, -1.5582677125930786, 0.77394700050354, 0.184076726436615, -0.813720703125, 0.100341796875, 0.103271484375, 
27, 3253746069, 0.609484076499939, -0.39278745651245117, -0.47692108154296875, -0.496762752532959, 9.700592994689941, -0.10706375539302826, 2.289696455001831, -1.0255427360534668, 0.33701929450035095, 0.3671928644180298, -0.813720703125, 0.101806640625, 0.10546875, 
28, 3253754402, 0.6094881296157837, -0.3928268551826477, -0.4768981635570526, -0.4967486560344696, 9.71378231048584, -0.048074182122945786, 2.3118062019348145, -0.8288125991821289, 0.16185633838176727, 0.4438946545124054, -0.811767578125, 0.100830078125, 0.104736328125, 
29, 3253762735, 0.6094778180122375, -0.3928793668746948, -0.47685739398002625, -0.4967588186264038, 9.692209243774414, -0.02300354279577732, 2.2962558269500732, -1.2962980270385742, 0.2908240258693695, 0.33536720275878906, -0.814697265625, 0.101806640625, 0.1044921875, 
30, 3253771068, 0.6094608306884766, -0.3929569721221924, -0.4767935574054718, -0.4967796802520752, 9.658886909484863, -0.03104838915169239, 2.3202316761016846, -1.7721463441848755, 0.29286032915115356, 0.47743651270866394, -0.814208984375, 0.103271484375, 0.10498046875, 
31, 3253779401, 0.6094381809234619, -0.3930407762527466, -0.47674012184143066, -0.49679240584373474, 9.683039665222168, -0.015347459353506565, 2.3331902027130127, -1.7296524047851562, 0.11778705567121506, 0.5033836960792542, -0.811767578125, 0.102294921875, 0.102783203125, 
32, 3253787734, 0.6094236969947815, -0.39311450719833374, -0.47669538855552673, -0.4967946410179138, 9.69628620147705, -0.057537470012903214, 2.365044593811035, -1.4730234146118164, 0.0755491778254509, 0.52254319190979, -0.811767578125, 0.103271484375, 0.10400390625, 
33, 3253796067, 0.6094347834587097, -0.3931373357772827, -0.4766707718372345, -0.49678677320480347, 9.678433418273926, -0.0427883081138134, 2.350259780883789, -0.7046475410461426, 0.40108048915863037, 0.35072287917137146, -0.812255859375, 0.100830078125, 0.102783203125, 
34, 3253804400, 0.6094486713409424, -0.3931453227996826, -0.4766504168510437, -0.4967828094959259, 9.654993057250977, -0.08496113866567612, 2.362384080886841, -0.5610541701316833, 0.47308212518692017, 0.2061561644077301, -0.809326171875, 0.102294921875, 0.102294921875, 
35, 3253812733, 0.6094574928283691, -0.3931490480899811, -0.4766547977924347, -0.4967649281024933, 9.626453399658203, -0.0681096762418747, 2.3311610221862793, -0.29443562030792236, 0.2197573184967041, 0.13607561588287354, -0.812744140625, 0.102294921875, 0.10400390625, 
36, 3253821066, 0.6094682812690735, -0.3931432068347931, -0.4766923189163208, -0.49672019481658936, 9.619379043579102, -0.07563415914773941, 2.3241803646087646, 0.20119979977607727, -0.15784770250320435, 0.12266656011343002, -0.821044921875, 0.0986328125, 0.10302734375, 
37, 3253829399, 0.6095013618469238, -0.39310526847839355, -0.47673630714416504, -0.49666762351989746, 9.631932258605957, -0.07635674625635147, 2.3756954669952393, 0.683746337890625, 0.14477165043354034, 0.10578678548336029, -0.811767578125, 0.101806640625, 0.102783203125, 
38, 3253837732, 0.6095356941223145, -0.3930569887161255, -0.47678637504577637, -0.496615469455719, 9.576927185058594, -0.04830314964056015, 2.331390380859375, 0.817875325679779, 0.13994336128234863, 0.0000640355865471065, -0.810791015625, 0.102783203125, 0.104248046875, 
39, 3253846065, 0.6095499396324158, -0.39302119612693787, -0.47683510184288025, -0.4965794086456299, 9.558880805969238, -0.029934648424386978, 2.329995632171631, 0.4885787069797516, 0.05697886645793915, -0.17230695486068726, -0.813720703125, 0.101806640625, 0.10400390625, 
40, 3253854398, 0.6095378398895264, -0.3930095434188843, -0.47687992453575134, -0.49656060338020325, 9.563322067260742, -0.016008062288165092, 2.346912145614624, 0.005673553328961134, -0.19151762127876282, -0.32947590947151184, -0.809326171875, 0.101318359375, 0.103271484375, 
41, 3253862731, 0.6094983816146851, -0.3930150866508484, -0.47693249583244324, -0.49655401706695557, 9.594159126281738, -0.04682278260588646, 2.3739712238311768, -0.3137487471103668, -0.45224490761756897, -0.5359522104263306, -0.812255859375, 0.101806640625, 0.101806640625, 
42, 3253871064, 0.6094400882720947, -0.39302316308021545, -0.47697338461875916, -0.4965800344944, 9.613763809204102, -0.0577949695289135, 2.358778715133667, -0.7307484745979309, -0.352656751871109, -0.8688603043556213, -0.810791015625, 0.101318359375, 0.102294921875, 
43, 3253879397, 0.609380841255188, -0.39303141832351685, -0.4770072102546692, -0.49661386013031006, 9.595108032226562, -0.04388967901468277, 2.327971935272217, -0.8393528461456299, -0.22555893659591675, -0.8919132351875305, -0.809326171875, 0.100341796875, 0.103759765625, 
44, 3253887730, 0.6092979907989502, -0.3930470049381256, -0.47705399990081787, -0.49665823578834534, 9.603578567504883, -0.03313196823000908, 2.331511974334717, -1.0056915283203125, -0.5134885311126709, -1.172132968902588, -0.810791015625, 0.101806640625, 0.104736328125, 
45, 3253896063, 0.6092203259468079, -0.3930475413799286, -0.4770989716053009, -0.49670958518981934, 9.606945991516113, -0.06855987012386322, 2.3389158248901367, -0.9091772437095642, -0.2936672270298004, -1.2757937908172607, -0.810302734375, 0.099853515625, 0.104736328125, 
46, 3253904396, 0.6091247200965881, -0.39304471015930176, -0.47716110944747925, -0.4967695474624634, 9.606027603149414, -0.09376154839992523, 2.3241989612579346, -0.9183471202850342, -0.5180478692054749, -1.5939993858337402, -0.810791015625, 0.101318359375, 0.105712890625, 
47, 3253912729, 0.6090272665023804, -0.3930436372756958, -0.4772354066371918, -0.49681851267814636, 9.579519271850586, -0.0795765072107315, 2.299053192138672, -0.7884830236434937, -0.6686595678329468, -1.5591896772384644, -0.808837890625, 0.101318359375, 0.101806640625, 
48, 3253921062, 0.6089386343955994, -0.39300569891929626, -0.4773547649383545, -0.496842622756958, 9.585531234741211, -0.09742208570241928, 2.275477409362793, 0.038459766656160355, -0.9045410752296448, -1.7854145765304565, -0.809814453125, 0.099853515625, 0.105224609375, 
49, 3253929395, 0.6088511347770691, -0.3929479420185089, -0.47749537229537964, -0.49686044454574585, 9.604445457458496, -0.1244848370552063, 2.2853026390075684, 0.3975970149040222, -0.9402729868888855, -1.9607441425323486, -0.812255859375, 0.100341796875, 0.103759765625, 
50, 3253937728, 0.6087407469749451, -0.39290672540664673, -0.4776390492916107, -0.4968901574611664, 9.619208335876465, -0.14435331523418427, 2.2846686840057373, 0.07846920192241669, -1.1987460851669312, -2.135586738586426, -0.812255859375, 0.099365234375, 0.103759765625, 
51, 3253946061, 0.6086353659629822, -0.39286568760871887, -0.477784663438797, -0.4969116449356079, 9.657916069030762, -0.1246078759431839, 2.285332202911377, 0.17114150524139404, -1.195365071296692, -2.032156467437744, -0.813232421875, 0.098876953125, 0.103271484375, 
52, 3253954394, 0.6085526347160339, -0.39280202984809875, -0.47794365882873535, -0.49691042304039, 9.688620567321777, -0.09517857432365417, 2.370692491531372, 0.7247675657272339, -1.160273551940918, -1.9172766208648682, -0.809326171875, 0.097412109375, 0.10498046875, 
53, 3253962727, 0.6084809303283691, -0.392728716135025, -0.4780994653701782, -0.4969062805175781, 9.695798873901367, -0.10071026533842087, 2.361506938934326, 0.8610864877700806, -0.9767475724220276, -1.8560843467712402, -0.810791015625, 0.098388671875, 0.106689453125, 
54, 3253971060, 0.6083973050117493, -0.39267468452453613, -0.47824326157569885, -0.49691304564476013, 9.7125825881958, -0.065817691385746, 2.3483457565307617, 0.48173969984054565, -1.059558391571045, -1.8448140621185303, -0.809326171875, 0.097900390625, 0.10546875, 
55, 3253979393, 0.6083685159683228, -0.39255669713020325, -0.4783868193626404, -0.4969031512737274, 9.719542503356934, -0.004466354846954346, 2.3087706565856934, 1.4219359159469604, -0.3188460171222687, -1.7409738302230835, -0.809814453125, 0.1005859375, 0.107177734375, 
56, 3253987726, 0.6083589792251587, -0.39243072271347046, -0.4785199761390686, -0.4968862533569336, 9.695390701293945, -0.027570396661758423, 2.27142071723938, 1.565913438796997, -0.11928549408912659, -1.5567048788070679, -0.808349609375, 0.100341796875, 0.103271484375, 
57, 3253996059, 0.608354389667511, -0.39230868220329285, -0.4786638915538788, -0.4968496859073639, 9.667884826660156, -0.02269933372735977, 2.2265331745147705, 1.7620928287506104, -0.2758652865886688, -1.3809657096862793, -0.811767578125, 0.097412109375, 0.105712890625, 
58, 3254004392, 0.6083499193191528, -0.39219388365745544, -0.47881564497947693, -0.4967995285987854, 9.661707878112793, 0.027810806408524513, 2.237931966781616, 1.848387360572815, -0.4992983043193817, -1.2697490453720093, -0.808349609375, 0.098388671875, 0.10595703125, 
59, 3254012725, 0.6083503365516663, -0.39208558201789856, -0.4789765179157257, -0.4967292845249176, 9.648426055908203, 0.051404401659965515, 2.2850396633148193, 2.0134451389312744, -0.6625378131866455, -1.0673964023590088, -0.809814453125, 0.099365234375, 0.105224609375, 
60, 3254021058, 0.6083504557609558, -0.3919914662837982, -0.4791269600391388, -0.4966583251953125, 9.637600898742676, 0.05220050364732742, 2.302980661392212, 1.8264869451522827, -0.7106925249099731, -0.9213951826095581, -0.811279296875, 0.096923828125, 0.10546875, 
61, 3254029391, 0.6083448529243469, -0.39190542697906494, -0.47927987575531006, -0.4965856075286865, 9.642670631408691, 0.07571090757846832, 2.278794050216675, 1.758430004119873, -0.8008034229278564, -0.8957810401916504, -0.80810546875, 0.096923828125, 0.10400390625, 
62, 3254037724, 0.6083458662033081, -0.3918232023715973, -0.4794166088104248, -0.4965173304080963, 9.638566017150879, 0.08599617332220078, 2.276235818862915, 1.6200618743896484, -0.6566720604896545, -0.786075234413147, -0.808349609375, 0.097900390625, 0.10498046875, 
63, 3254046057, 0.6083506941795349, -0.3917500376701355, -0.47952741384506226, -0.49646198749542236, 9.644378662109375, 0.10375198721885681, 2.318737030029297, 1.3033418655395508, -0.3742239475250244, -0.6587980389595032, -0.80908203125, 0.096923828125, 0.10302734375, 
64, 3254054390, 0.6083490252494812, -0.3916974663734436, -0.47958916425704956, -0.4964461326599121, 9.668261528015137, 0.07867412269115448, 2.359815835952759, 0.5009759068489075, 0.031723227351903915, -0.6431478261947632, -0.80712890625, 0.096923828125, 0.1044921875, 
65, 3254062723, 0.6083317995071411, -0.39167869091033936, -0.47963517904281616, -0.4964374005794525, 9.682568550109863, 0.053717825561761856, 2.3324134349823, -0.020670685917139053, -0.09807690232992172, -0.49192139506340027, -0.811767578125, 0.095947265625, 0.10498046875, 
66, 3254071056, 0.6083265542984009, -0.39164549112319946, -0.479695588350296, -0.4964115023612976, 9.701057434082031, -0.03354683518409729, 2.347377061843872, 0.37595295906066895, -0.16426409780979156, -0.44745510816574097, -0.809814453125, 0.0966796875, 0.1083984375, 
67, 3254079389, 0.6083400249481201, -0.3915950655937195, -0.4797491431236267, -0.4963831603527069, 9.708739280700684, -0.05612131208181381, 2.3063056468963623, 0.5908563137054443, 0.15223819017410278, -0.3665909171104431, -0.810791015625, 0.096435546875, 0.1064453125, 
68, 3254087722, 0.6083902716636658, -0.3915032148361206, -0.4798290729522705, -0.4963168501853943, 9.693553924560547, -0.09619846194982529, 2.3121562004089355, 1.5654268264770508, 0.22003908455371857, -0.222075417637825, -0.80859375, 0.097412109375, 0.103515625, 
69, 3254096055, 0.6084506511688232, -0.39141276478767395, -0.47993528842926025, -0.49621134996414185, 9.673395156860352, -0.11675048619508743, 2.3027868270874023, 2.0460264682769775, -0.12297394126653671, 0.04903845116496086, -0.809814453125, 0.096435546875, 0.10546875, 
70, 3254104388, 0.6085306406021118, -0.3913264572620392, -0.4800308644771576, -0.49608880281448364, 9.690128326416016, -0.0702333003282547, 2.3174102306365967, 2.157858371734619, -0.0548400804400444, 0.402591735124588, -0.809814453125, 0.098388671875, 0.10546875, 
71, 3254112721, 0.6086230874061584, -0.39123496413230896, -0.48012566566467285, -0.49595582485198975, 9.668610572814941, -0.027748383581638336, 2.320918083190918, 2.33134388923645, 0.04417175054550171, 0.5528960227966309, -0.811279296875, 0.098388671875, 0.105224609375, 
72, 3254121054, 0.6087204217910767, -0.39114245772361755, -0.48022720217704773, -0.49581101536750793, 9.643409729003906, 0.03760279342532158, 2.314563035964966, 2.488717555999756, -0.06895352154970169, 0.632658839225769, -0.810791015625, 0.097900390625, 0.106201171875, 
73, 3254129387, 0.6088002324104309, -0.39106127619743347, -0.480314701795578, -0.49569228291511536, 9.638801574707031, 0.04044600576162338, 2.3314311504364014, 2.0357038974761963, 0.029315492138266563, 0.45663774013519287, -0.807861328125, 0.09765625, 0.107421875, 
74, 3254137720, 0.60890132188797, -0.39096078276634216, -0.48038920760154724, -0.49557507038116455, 9.669122695922852, 0.033632323145866394, 2.361212730407715, 2.211596727371216, 0.3841494619846344, 0.5213648676872253, -0.808837890625, 0.09765625, 0.10693359375, 
75, 3254146053, 0.6090065240859985, -0.3908381760120392, -0.48045963048934937, -0.49547427892684937, 9.645706176757812, 0.023736240342259407, 2.3315024375915527, 2.2827022075653076, 0.7173394560813904, 0.29519122838974, -0.810791015625, 0.09912109375, 0.107177734375, 
76, 3254154386, 0.6090965270996094, -0.39072513580322266, -0.48054760694503784, -0.49536749720573425, 9.62203598022461, 0.009200549684464931, 2.3450307846069336, 2.278014659881592, 0.34081020951271057, 0.20315930247306824, -0.808349609375, 0.0986328125, 0.10791015625, 
77, 3254162719, 0.6091679334640503, -0.39061659574508667, -0.48065316677093506, -0.49526283144950867, 9.647852897644043, 0.011581582948565483, 2.3324778079986572, 2.245356559753418, 0.08466785401105881, 0.0025230019818991423, -0.811279296875, 0.099853515625, 0.106201171875, 
78, 3254171052, 0.6092523336410522, -0.39048728346824646, -0.4807279109954834, -0.4951883852481842, 9.650524139404297, -0.01632854714989662, 2.268911838531494, 2.0816307067871094, 0.6991534233093262, -0.142543226480484, -0.807861328125, 0.097900390625, 0.1044921875, 
79, 3254179385, 0.60930997133255, -0.3903709948062897, -0.4808123707771301, -0.49512720108032227, 9.626049995422363, -0.021105896681547165, 2.2947516441345215, 1.8071483373641968, 0.4544861912727356, -0.3931785225868225, -0.80712890625, 0.098388671875, 0.1044921875, 
80, 3254187718, 0.6093810796737671, -0.39025044441223145, -0.48090431094169617, -0.49504533410072327, 9.668588638305664, -0.08841181546449661, 2.281219720840454, 2.1011486053466797, 0.369703084230423, -0.20604093372821808, -0.809814453125, 0.098388671875, 0.10498046875, 
81, 3254196051, 0.6094627976417542, -0.39011821150779724, -0.480984628200531, -0.49497124552726746, 9.70297908782959, -0.10235034674406052, 2.251530885696411, 2.1279666423797607, 0.6874475479125977, -0.20422227680683136, -0.810302734375, 0.098876953125, 0.104248046875, 
82, 3254204384, 0.6095535159111023, -0.3899720013141632, -0.48108971118927, -0.4948726296424866, 9.694437980651855, -0.08470132201910019, 2.2349750995635986, 2.6227824687957764, 0.47362005710601807, -0.17074450850486755, -0.809326171875, 0.097900390625, 0.10693359375, 
83, 3254212717, 0.6096457242965698, -0.3898324966430664, -0.48120903968811035, -0.49475276470184326, 9.695250511169434, -0.053250256925821304, 2.2623045444488525, 2.8104066848754883, 0.23494656383991241, -0.008042870089411736, -0.811279296875, 0.098876953125, 0.106201171875, 
84, 3254221050, 0.6097485423088074, -0.38968148827552795, -0.4813380539417267, -0.4946194291114807, 9.705747604370117, 0.01877186819911003, 2.3261101245880127, 3.1217989921569824, 0.19747294485569, 0.04073943942785263, -0.809326171875, 0.098388671875, 0.10498046875, 
85, 3254229383, 0.6098725199699402, -0.38950395584106445, -0.48145192861557007, -0.4944957494735718, 9.728780746459961, 0.056564558297395706, 2.3436055183410645, 3.2910068035125732, 0.7298392653465271, 0.018275756388902664, -0.809326171875, 0.099853515625, 0.106201171875, 
86, 3254237716, 0.6099733710289001, -0.38936176896095276, -0.48151952028274536, -0.4944174587726593, 9.681891441345215, 0.08337210863828659, 2.2867515087127686, 2.254833936691284, 0.935444712638855, -0.04559333994984627, -0.809814453125, 0.098388671875, 0.10400390625, 
87, 3254246049, 0.6100384593009949, -0.3892655372619629, -0.4815707206726074, -0.4943629205226898, 9.649571418762207, 0.09702146053314209, 2.2590463161468506, 1.4089367389678955, 0.6821839809417725, -0.08907350897789001, -0.811767578125, 0.099853515625, 0.106201171875, 
88, 3254254382, 0.6100881695747375, -0.38917529582977295, -0.48162129521369934, -0.49432337284088135, 9.666109085083008, 0.11275026202201843, 2.2963273525238037, 1.171543836593628, 0.5948393940925598, -0.282025545835495, -0.807373046875, 0.09912109375, 0.10693359375, 
89, 3254262715, 0.610115110874176, -0.38910016417503357, -0.48166871070861816, -0.49430304765701294, 9.652425765991211, 0.095046766102314, 2.3425066471099854, 0.774215817451477, 0.49993863701820374, -0.4753105342388153, -0.810791015625, 0.09814453125, 0.108642578125, 
90, 3254271048, 0.6101250648498535, -0.3890303373336792, -0.4816994369029999, -0.49431565403938293, 9.647089004516602, 0.045728184282779694, 2.299267053604126, 0.3087155818939209, 0.6376535892486572, -0.7491906881332397, -0.809814453125, 0.10009765625, 0.107666015625, 
91, 3254279381, 0.6101588606834412, -0.3889397382736206, -0.48173245787620544, -0.4943133294582367, 9.641059875488281, 0.043618034571409225, 2.257415771484375, 0.723153829574585, 0.8689244389533997, -0.6044190526008606, -0.808837890625, 0.0986328125, 0.10693359375, 
92, 3254287714, 0.6101958155632019, -0.38884639739990234, -0.4817729592323303, -0.4943017363548279, 9.598835945129395, 0.011981012299656868, 2.2734310626983643, 0.8767113089561462, 0.764059841632843, -0.5710437893867493, -0.812255859375, 0.1005859375, 0.107177734375, 
93, 3254296047, 0.6102588176727295, -0.38871604204177856, -0.48182412981987, -0.4942764341831207, 9.587841033935547, 0.06305909156799316, 2.276337146759033, 1.4877898693084717, 1.0590589046478271, -0.57322096824646, -0.808837890625, 0.09765625, 0.10693359375, 
94, 3254304380, 0.6103507876396179, -0.38855090737342834, -0.48186758160591125, -0.4942503571510315, 9.597858428955078, 0.021781370043754578, 2.322786808013916, 1.8902922868728638, 1.5128920078277588, -0.5673553347587585, -0.809814453125, 0.097412109375, 0.10498046875, 
95, 3254312713, 0.6104296445846558, -0.388395756483078, -0.4819202125072479, -0.4942236840724945, 9.574957847595215, -0.004289361648261547, 2.3034682273864746, 1.802794098854065, 1.3115898370742798, -0.6248337030410767, -0.811767578125, 0.09912109375, 0.109130859375, 
96, 3254321046, 0.6104973554611206, -0.3882558345794678, -0.4819795489311218, -0.4941922426223755, 9.591788291931152, 0.018737265840172768, 2.2723305225372314, 1.6899887323379517, 1.0212267637252808, -0.6050850749015808, -0.809326171875, 0.1005859375, 0.108154296875, 
97, 3254329379, 0.610564649105072, -0.3881070911884308, -0.4820604920387268, -0.49414700269699097, 9.608145713806152, 0.022346407175064087, 2.257389783859253, 2.0022006034851074, 0.8528643250465393, -0.6574149131774902, -0.809814453125, 0.099365234375, 0.105224609375, 
98, 3254337712, 0.6106500625610352, -0.3879503905773163, -0.48212945461273193, -0.4940970838069916, 9.605456352233887, 0.04075084254145622, 2.225384473800659, 2.1148264408111572, 1.073274850845337, -0.49240803718566895, -0.809814453125, 0.100830078125, 0.105712890625, 
99, 3254346045, 0.6107048988342285, -0.3878222703933716, -0.4821860194206238, -0.49407467246055603, 9.612558364868164, 0.060685787349939346, 2.1977438926696777, 1.4443994760513306, 0.9580363631248474, -0.6660212278366089, -0.810791015625, 0.100341796875, 0.106201171875, 
100, 3254354378, 0.6107421517372131, -0.38772833347320557, -0.48222753405570984, -0.49406206607818604, 9.62889289855957, 0.04417595639824867, 2.2048637866973877, 0.8948718309402466, 0.7561963200569153, -0.5709412693977356, -0.810791015625, 0.095947265625, 0.10546875, 
101, 3254362711, 0.6107569932937622, -0.38766181468963623, -0.4822700619697571, -0.4940541386604309, 9.640236854553223, 0.05044900253415108, 2.241615056991577, 0.5245923399925232, 0.470136433839798, -0.5761409997940063, -0.808349609375, 0.098876953125, 0.10595703125, 
102, 3254371044, 0.6107664108276367, -0.38760772347450256, -0.4822857081890106, -0.4940696954727173, 9.637404441833496, 0.07599180191755295, 2.21832537651062, 0.051420580595731735, 0.6679808497428894, -0.5941734910011292, -0.808837890625, 0.099853515625, 0.104736328125, 
103, 3254379377, 0.6107775568962097, -0.3875601291656494, -0.482290655374527, -0.494088351726532, 9.637876510620117, 0.09146340191364288, 2.2721505165100098, -0.0870627909898758, 0.7740750312805176, -0.498965322971344, -0.809326171875, 0.098876953125, 0.104248046875, 
104, 3254387710, 0.6107855439186096, -0.3875230848789215, -0.48228347301483154, -0.49411457777023315, 9.644944190979004, 0.08663546293973923, 2.275047540664673, -0.3252495527267456, 0.7906986474990845, -0.4582130014896393, -0.807373046875, 0.09912109375, 0.10595703125, 
105, 3254396043, 0.610806405544281, -0.387470006942749, -0.4822874963283539, -0.494126558303833, 9.664599418640137, 0.06273043155670166, 2.3177785873413086, 0.04851336032152176, 0.8481897711753845, -0.4089568555355072, -0.808837890625, 0.098388671875, 0.10400390625, 
106, 3254404376, 0.6108469367027283, -0.38739773631095886, -0.4822932779788971, -0.49412745237350464, 9.655107498168945, 0.04108592867851257, 2.2755911350250244, 0.3994539678096771, 1.0043853521347046, -0.326799213886261, -0.808349609375, 0.099853515625, 0.104248046875, 
107, 3254412709, 0.6109057068824768, -0.38729819655418396, -0.4823133647441864, -0.4941132366657257, 9.62451457977295, 0.052072372287511826, 2.2550411224365234, 0.922893762588501, 1.1402561664581299, -0.3240200877189636, -0.810791015625, 0.099365234375, 0.105224609375, 
108, 3254421042, 0.6109861731529236, -0.3871757686138153, -0.4823611378669739, -0.494063138961792, 9.63294506072998, 0.07714547216892242, 2.268932580947876, 1.6569721698760986, 0.9854692220687866, -0.1823989748954773, -0.816650390625, 0.095703125, 0.102294921875, 
109, 3254429375, 0.6110625267028809, -0.38705509901046753, -0.48242202401161194, -0.49400365352630615, 9.622957229614258, 0.08757253736257553, 2.264505386352539, 1.770904302597046, 0.817977786064148, -0.1819891333580017, -0.807373046875, 0.099853515625, 0.1025390625, 
110, 3254437708, 0.6111209392547607, -0.3869561553001404, -0.4824739694595337, -0.49395817518234253, 9.609193801879883, 0.11870142817497253, 2.2547550201416016, 1.3412511348724365, 0.6679039597511292, -0.23767447471618652, -0.810791015625, 0.098388671875, 0.104736328125, 
111, 3254446041, 0.6111505627632141, -0.3868999481201172, -0.4825170040130615, -0.49392348527908325, 9.598028182983398, 0.11211337149143219, 2.2332396507263184, 0.695644199848175, 0.352131724357605, -0.1853446066379547, -0.811767578125, 0.099609375, 0.102294921875, 
112, 3254454374, 0.6111845374107361, -0.3868396580219269, -0.48256000876426697, -0.493886798620224, 9.646788597106934, 0.09577656537294388, 2.2661993503570557, 0.7662370204925537, 0.3644777536392212, -0.1745610237121582, -0.807861328125, 0.100341796875, 0.105224609375, 
113, 3254462707, 0.6112284064292908, -0.3867645561695099, -0.48260101675987244, -0.4938511252403259, 9.635973930358887, 0.04716584458947182, 2.2537105083465576, 0.9231753945350647, 0.5867324471473694, -0.19384850561618805, -0.809814453125, 0.097900390625, 0.10205078125, 
114, 3254471040, 0.6112909913063049, -0.38667380809783936, -0.48264625668525696, -0.4938005805015564, 9.618814468383789, 0.035606853663921356, 2.297278642654419, 1.282773733139038, 0.6691590547561646, -0.07786726951599121, -0.811279296875, 0.098388671875, 0.104248046875, 
115, 3254479373, 0.6113764643669128, -0.3865508437156677, -0.48270660638809204, -0.49373215436935425, 9.634117126464844, 0.044738322496414185, 2.2712900638580322, 1.893545150756836, 0.849790632724762, -0.058272380381822586, -0.811279296875, 0.096435546875, 0.10302734375, 
116, 3254487706, 0.6114698052406311, -0.38642650842666626, -0.4827832877635956, -0.4936388432979584, 9.626212120056152, 0.03321520611643791, 2.261195659637451, 2.2253005504608154, 0.611296534538269, 0.10026691854000092, -0.809326171875, 0.098388671875, 0.10400390625, 
117, 3254496039, 0.6115469336509705, -0.3863205909729004, -0.48286861181259155, -0.4935428500175476, 9.630799293518066, 0.034680504351854324, 2.2527146339416504, 2.062573194503784, 0.3220093548297882, 0.09862760454416275, -0.808837890625, 0.097900390625, 0.1025390625, 
118, 3254504372, 0.6116144061088562, -0.3862367868423462, -0.4829366207122803, -0.49345827102661133, 9.634443283081055, 0.038575127720832825, 2.2492547035217285, 1.6305124759674072, 0.28251218795776367, 0.16645410656929016, -0.810302734375, 0.097900390625, 0.10546875, 
119, 3254512705, 0.6116506457328796, -0.3861861824989319, -0.482998251914978, -0.49339258670806885, 9.601224899291992, 0.08905289322137833, 2.2487680912017822, 1.0156428813934326, 0.03638501837849617, 0.058899931609630585, -0.808349609375, 0.099853515625, 0.102783203125, 
120, 3254521038, 0.6116603016853333, -0.3861581087112427, -0.48306161165237427, -0.49334052205085754, 9.584230422973633, 0.11212796717882156, 2.27720046043396, 0.6056101322174072, -0.26669541001319885, -0.10378887504339218, -0.810302734375, 0.099853515625, 0.106201171875, 
121, 3254529371, 0.6116710901260376, -0.38611143827438354, -0.48312124609947205, -0.4933052361011505, 9.5862398147583, 0.10007543116807938, 2.316183090209961, 0.6329917907714844, 0.01932593807578087, -0.3315506875514984, -0.807373046875, 0.10009765625, 0.106689453125, 
122, 3254537704, 0.6116775274276733, -0.38606876134872437, -0.4831576645374298, -0.4932951033115387, 9.567113876342773, 0.052044086158275604, 2.2302134037017822, 0.250853031873703, 0.2602790594100952, -0.43129247426986694, -0.808837890625, 0.097412109375, 0.10400390625, 
123, 3254546037, 0.6116858124732971, -0.38602349162101746, -0.4832078814506531, -0.4932708442211151, 9.56531810760498, 0.05386090651154518, 2.2151782512664795, 0.47023895382881165, 0.1311320811510086, -0.3825230002403259, -0.807373046875, 0.098388671875, 0.1044921875, 
124, 3254554370, 0.6116997599601746, -0.3859533667564392, -0.4832838177680969, -0.4932340979576111, 9.580768585205078, 0.017152518033981323, 2.224369525909424, 0.966437816619873, 0.0226557906717062, -0.549988865852356, -0.809326171875, 0.098876953125, 0.104736328125, 
125, 3254562703, 0.6117166876792908, -0.38587120175361633, -0.4833809733390808, -0.49318215250968933, 9.624650955200195, 0.007996835745871067, 2.2140119075775146, 1.3311333656311035, -0.10424992442131042, -0.5844399929046631, -0.808837890625, 0.099609375, 0.106689453125, 
126, 3254571036, 0.6117298007011414, -0.38580065965652466, -0.4834877848625183, -0.49311643838882446, 9.677989959716797, -0.002989888424053788, 2.2183897495269775, 1.3660968542099, -0.3923332393169403, -0.4789861738681793, -0.807861328125, 0.099365234375, 0.10498046875, 
127, 3254579369, 0.6117360591888428, -0.38575124740600586, -0.483583927154541, -0.49305301904678345, 9.727058410644531, 0.0633026584982872, 2.208089828491211, 1.0671018362045288, -0.44832587242126465, -0.3377749025821686, -0.810791015625, 0.099365234375, 0.103271484375, 
128, 3254587702, 0.6117473840713501, -0.3857146203517914, -0.4836519658565521, -0.4930008351802826, 9.747715950012207, 0.12810765206813812, 2.2399203777313232, 0.7197728753089905, -0.23782818019390106, -0.17369015514850616, -0.808349609375, 0.098876953125, 0.10595703125, 
129, 3254596035, 0.6117116808891296, -0.38572731614112854, -0.48370060324668884, -0.49298736453056335, 9.726014137268066, 0.21608738601207733, 2.297593355178833, -0.3327800929546356, -0.4822903871536255, -0.37655481696128845, -0.80712890625, 0.09814453125, 0.1064453125, 
130, 3254604368, 0.6116369962692261, -0.3857863247394562, -0.48373597860336304, -0.4929993152618408, 9.728145599365234, 0.21644502878189087, 2.3637499809265137, -1.1897810697555542, -0.8419654965400696, -0.4856458902359009, -0.807373046875, 0.099609375, 0.1064453125, 
131, 3254612701, 0.611528217792511, -0.38586896657943726, -0.48371559381484985, -0.4930897355079651, 9.712421417236328, 0.18651850521564484, 2.3484935760498047, -2.466343641281128, -0.3107006847858429, -0.913147509098053, -0.808349609375, 0.099853515625, 0.105224609375, 
132, 3254621034, 0.6114322543144226, -0.3859480619430542, -0.4836571216583252, -0.49320411682128906, 9.661967277526855, 0.14704634249210358, 2.2954094409942627, -2.787545919418335, 0.21020323038101196, -0.8612274527549744, -0.8076171875, 0.096923828125, 0.10498046875, 
133, 3254629367, 0.6113283038139343, -0.38602548837661743, -0.4836445152759552, -0.4932846426963806, 9.656332969665527, 0.07429058849811554, 2.342761278152466, -2.279282808303833, -0.362082839012146, -0.8739832639694214, -0.812255859375, 0.097412109375, 0.106201171875, 
134, 3254637700, 0.6112523078918457, -0.38606536388397217, -0.4836523234844208, -0.4933401048183441, 9.661118507385254, 0.0037990929558873177, 2.3424148559570312, -1.5117263793945312, -0.2593185007572174, -0.843220591545105, -0.809326171875, 0.0986328125, 0.10693359375, 
135, 3254646033, 0.6112107038497925, -0.3860619366168976, -0.4837091863155365, -0.49333834648132324, 9.63339900970459, 0.00010013980499934405, 2.2955403327941895, -0.25224897265434265, -0.419868528842926, -0.6664823293685913, -0.810791015625, 0.097900390625, 0.1064453125, 
136, 3254654366, 0.6112068891525269, -0.38600704073905945, -0.48382288217544556, -0.4932745695114136, 9.62666130065918, -0.002668010536581278, 2.2749831676483154, 1.1805983781814575, -0.6604117751121521, -0.5429962277412415, -0.811279296875, 0.098876953125, 0.104248046875, 
137, 3254662699, 0.611221432685852, -0.385932981967926, -0.48395392298698425, -0.4931860566139221, 9.616710662841797, 0.01125958189368248, 2.2954065799713135, 1.724388599395752, -0.651293158531189, -0.4195099174976349, -0.810302734375, 0.09765625, 0.10791015625, 
138, 3254671032, 0.6112650036811829, -0.3858370780944824, -0.4840920567512512, -0.4930715262889862, 9.634642601013184, 0.0663469210267067, 2.3221235275268555, 2.2794747352600098, -0.5407420992851257, -0.19758819043636322, -0.809326171875, 0.098876953125, 0.106201171875, 
139, 3254679365, 0.6113100647926331, -0.3857608735561371, -0.4841907024383545, -0.49297839403152466, 9.631528854370117, 0.14071336388587952, 2.3542470932006836, 1.7108643054962158, -0.18729127943515778, -0.018621549010276794, -0.809814453125, 0.098388671875, 0.10546875, 
140, 3254687698, 0.6113414764404297, -0.38573479652404785, -0.48422229290008545, -0.49292880296707153, 9.64511489868164, 0.21859072148799896, 2.3697869777679443, 0.4732357859611511, 0.14470763504505157, 0.2045937031507492, -0.810791015625, 0.09765625, 0.10791015625, 
141, 3254696031, 0.6113696694374084, -0.38578686118125916, -0.4841270446777344, -0.4929466247558594, 9.734000205993652, 0.18219619989395142, 2.4051318168640137, -1.5092933177947998, 1.0509393215179443, 0.8204624652862549, -0.808349609375, 0.097900390625, 0.1044921875, 
142, 3254704364, 0.6113821864128113, -0.385922908782959, -0.48392507433891296, -0.49302297830581665, 9.779269218444824, 0.12535406649112701, 2.4063987731933594, -3.411278009414673, 1.5516718626022339, 1.3352829217910767, -0.811279296875, 0.099609375, 0.108154296875, 
143, 3254712697, 0.6113795042037964, -0.38612881302833557, -0.4836379885673523, -0.4931466281414032, 9.840522766113281, 0.0693332627415657, 2.4478793144226074, -4.969443321228027, 1.9758435487747192, 1.762476921081543, -0.809326171875, 0.100341796875, 0.105224609375, 
144, 3254721030, 0.6113882660865784, -0.38637229800224304, -0.4832562506198883, -0.4933195114135742, 9.958780288696289, 0.0390009731054306, 2.564633369445801, -6.195724964141846, 2.820857524871826, 2.1672592163085938, -0.809326171875, 0.09912109375, 0.107666015625, 
145, 3254729363, 0.6114281415939331, -0.3866456151008606, -0.48277735710144043, -0.49352461099624634, 10.056197166442871, -0.04541376605629921, 2.6323187351226807, -7.156156539916992, 3.8470404148101807, 2.8340744972229004, -0.811279296875, 0.098388671875, 0.106201171875, 
146, 3254737696, 0.611560583114624, -0.386913001537323, -0.4822186231613159, -0.4936971962451935, 10.124114036560059, -0.17731042206287384, 2.6193337440490723, -6.937463283538818, 4.9676384925842285, 4.1097917556762695, -0.80712890625, 0.098388671875, 0.103515625, 
147, 3254746029, 0.6118916273117065, -0.3870643675327301, -0.4815690815448761, -0.4938023090362549, 10.186296463012695, -0.2683882415294647, 2.6848878860473633, -5.078893661499023, 7.507726192474365, 5.747232913970947, -0.810791015625, 0.101318359375, 0.103271484375, 
148, 3254754362, 0.6124359369277954, -0.3870845437049866, -0.48079320788383484, -0.4938678741455078, 10.058645248413086, -0.2719946503639221, 2.8484935760498047, -3.43182110786438, 10.633609771728516, 7.324532508850098, -0.809814453125, 0.099853515625, 0.102294921875, 
149, 3254762695, 0.6131618022918701, -0.38700705766677856, -0.47993937134742737, -0.4938581585884094, 9.840173721313477, -0.324130117893219, 2.9508957862854004, -1.6736599206924438, 12.780339241027832, 8.967992782592773, -0.810302734375, 0.10302734375, 0.099853515625, 
150, 3254771028, 0.6140993237495422, -0.3868451416492462, -0.47899341583251953, -0.4937386214733124, 9.811379432678223, -0.3823471665382385, 2.9341883659362793, 0.26340407133102417, 14.91405963897705, 11.256268501281738, -0.808837890625, 0.105224609375, 0.099609375, 
151, 3254779361, 0.6152887940406799, -0.38654619455337524, -0.47783005237579346, -0.49361902475357056, 9.741339683532715, -0.4233191907405853, 2.9838662147521973, 1.286718726158142, 19.366636276245117, 13.229052543640137, -0.812744140625, 0.10498046875, 0.0986328125, 
152, 3254787694, 0.6166806817054749, -0.38620954751968384, -0.476386696100235, -0.4935409426689148, 9.685205459594727, -0.5164462924003601, 3.092043876647949, 0.505715012550354, 23.516151428222656, 15.48452091217041, -0.810791015625, 0.107421875, 0.09716796875, 
153, 3254796027, 0.6182198524475098, -0.38590940833091736, -0.47470223903656006, -0.49347299337387085, 9.662145614624023, -0.6980175971984863, 3.1335694789886475, -0.7235003709793091, 26.3547306060791, 17.922439575195312, -0.810791015625, 0.107177734375, 0.09130859375, 
154, 3254804360, 0.619924008846283, -0.3855954110622406, -0.4728248417377472, -0.49338287115097046, 9.657495498657227, -0.8501531481742859, 3.144483804702759, -0.8968321084976196, 29.025585174560547, 20.159053802490234, -0.810302734375, 0.111328125, 0.087158203125, 
155, 3254812693, 0.621758222579956, -0.3852877616882324, -0.4707157611846924, -0.49333199858665466, 9.644625663757324, -0.7740679979324341, 3.3158419132232666, -2.083566904067993, 32.03147888183594, 21.980539321899414, -0.81396484375, 0.1162109375, 0.08349609375, 
156, 3254821026, 0.6236632466316223, -0.3850540518760681, -0.4683580994606018, -0.49335405230522156, 9.698200225830078, -0.6258824467658997, 3.4629266262054443, -4.503040313720703, 34.47915267944336, 23.629152297973633, -0.8134765625, 0.116943359375, 0.08056640625, 
157, 3254829359, 0.6256791353225708, -0.3848491907119751, -0.4657231867313385, -0.49345558881759644, 9.768118858337402, -0.6357381939888, 3.562335729598999, -6.553746700286865, 37.81199645996094, 25.35236167907715, -0.81396484375, 0.122802734375, 0.076416015625, 
158, 3254837692, 0.6278190612792969, -0.3846695125102997, -0.46279433369636536, -0.49363309144973755, 9.86297607421875, -0.6956442594528198, 3.6703662872314453, -8.596386909484863, 41.35090255737305, 27.259740829467773, -0.8134765625, 0.12548828125, 0.0703125, 
159, 3254846025, 0.6300880908966064, -0.3845100402832031, -0.4595751464366913, -0.4938738942146301, 10.000975608825684, -0.8125468492507935, 3.732041358947754, -10.464452743530273, 44.89011001586914, 29.249223709106445, -0.816162109375, 0.1298828125, 0.062744140625, 
160, 3254854358, 0.6326057314872742, -0.3842630684375763, -0.45602479577064514, -0.4941385090351105, 10.16288948059082, -1.0501880645751953, 3.756959915161133, -10.788968086242676, 50.038055419921875, 31.933439254760742, -0.816162109375, 0.132568359375, 0.055419921875, 
161, 3254862691, 0.6353878974914551, -0.3839205205440521, -0.45218032598495483, -0.4943681061267853, 10.240930557250977, -1.3446751832962036, 3.868150234222412, -10.333564758300781, 54.72731399536133, 34.982940673828125, -0.816650390625, 0.13720703125, 0.0498046875, 
162, 3254871024, 0.6384184956550598, -0.3835003674030304, -0.44808194041252136, -0.4945216178894043, 10.196257591247559, -1.3970686197280884, 3.9950737953186035, -9.60284423828125, 58.60947799682617, 38.2028923034668, -0.818115234375, 0.144287109375, 0.041748046875, 
163, 3254879357, 0.6417034268379211, -0.3829454779624939, -0.4437992572784424, -0.494562029838562, 10.100532531738281, -1.2827892303466797, 4.1178460121154785, -7.634257793426514, 62.11969757080078, 41.055450439453125, -0.81787109375, 0.1484375, 0.03515625, 
164, 3254887690, 0.6452136635780334, -0.3822385370731354, -0.43935030698776245, -0.4945138692855835, 9.968579292297363, -1.2484042644500732, 4.263489723205566, -5.6962785720825195, 65.52438354492188, 43.327392578125, -0.81884765625, 0.155517578125, 0.027587890625, 
165, 3254896023, 0.6489507555961609, -0.38137105107307434, -0.4347304701805115, -0.4943765103816986, 9.900980949401855, -1.2958012819290161, 4.361048221588135, -3.696873188018799, 69.03331756591797, 45.575870513916016, -0.818359375, 0.160888671875, 0.01806640625, 
166, 3254904356, 0.6528571248054504, -0.38040637969970703, -0.42996883392333984, -0.49414071440696716, 9.839902877807617, -1.339347243309021, 4.406909465789795, -2.322457790374756, 71.45712280273438, 47.782962799072266, -0.817626953125, 0.16943359375, 0.00927734375, 
167, 3254912689, 0.6568652391433716, -0.3794339895248413, -0.4250532388687134, -0.4938293695449829, 9.980025291442871, -1.4283078908920288, 4.388636112213135, -2.316131830215454, 73.09114837646484, 49.89303970336914, -0.819580078125, 0.17578125, -0.001708984375, 
168, 3254921022, 0.6610862612724304, -0.37835007905960083, -0.41987887024879456, -0.49345484375953674, 10.227133750915527, -1.5468541383743286, 4.26115608215332, -1.5906689167022705, 77.10775756835938, 52.62681579589844, -0.820068359375, 0.181640625, -0.01171875, 
169, 3254929355, 0.6655074954032898, -0.37720224261283875, -0.41438981890678406, -0.49303045868873596, 10.296513557434082, -1.708925724029541, 4.39647102355957, -1.8115309476852417, 81.2911605834961, 55.687496185302734, -0.8193359375, 0.189697265625, -0.022216796875, 
170, 3254937688, 0.67007976770401, -0.376046359539032, -0.4085794687271118, -0.49256962537765503, 10.209258079528809, -1.7588012218475342, 4.567681789398193, -2.928093194961548, 84.96622467041016, 58.68659210205078, -0.82080078125, 0.19775390625, -0.031005859375, 
171, 3254946021, 0.6747637987136841, -0.37493014335632324, -0.4024675786495209, -0.4920576214790344, 10.081707000732422, -1.6874645948410034, 4.7330708503723145, -4.460483074188232, 87.82810974121094, 61.67232131958008, -0.821044921875, 0.20849609375, -0.043701171875, 
172, 3254954354, 0.679543673992157, -0.3738483488559723, -0.3959606885910034, -0.4915817379951477, 10.083629608154297, -1.7247885465621948, 4.842782020568848, -7.170323371887207, 91.98968505859375, 64.23773956298828, -0.817138671875, 0.216796875, -0.05615234375, 
173, 3254962687, 0.6843962073326111, -0.3729240298271179, -0.3889930546283722, -0.4911145567893982, 10.096896171569824, -1.8605480194091797, 4.938104629516602, -11.428135871887207, 95.65672302246094, 67.84332275390625, -0.817138671875, 0.2275390625, -0.06884765625, 
174, 3254971020, 0.6892988085746765, -0.3721340596675873, -0.38163840770721436, -0.4906277060508728, 10.079818725585938, -1.8888100385665894, 5.050191402435303, -14.947359085083008, 98.57328796386719, 71.10009765625, -0.81396484375, 0.2353515625, -0.081787109375, 
175, 3254979353, 0.6942092776298523, -0.37144720554351807, -0.3740355670452118, -0.49007928371429443, 10.000993728637695, -1.795836091041565, 5.1218695640563965, -17.21700096130371, 99.9397964477539, 73.52362060546875, -0.814453125, 0.2451171875, -0.09423828125, 
176, 3254987686, 0.699139416217804, -0.3708042800426483, -0.36619430780410767, -0.4894792437553406, 9.915764808654785, -1.7190957069396973, 5.167482852935791, -18.89389991760254, 101.77350616455078, 75.61961364746094, -0.809814453125, 0.259033203125, -0.1064453125, 
177, 3254996019, 0.7042062878608704, -0.36987942457199097, -0.35827744007110596, -0.4887735843658447, 9.725225448608398, -1.7156791687011719, 5.282889366149902, -15.452301025390625, 104.53245544433594, 76.49053955078125, -0.809814453125, 0.265869140625, -0.12060546875, 
178, 3255004352, 0.7094493508338928, -0.36853429675102234, -0.35034459829330444, -0.4879573583602905, 9.508228302001953, -1.8727710247039795, 5.433618545532227, -10.0618257522583, 107.83364868164062, 76.78512573242188, -0.806884765625, 0.280029296875, -0.1357421875, 
179, 3255012685, 0.7147842049598694, -0.36697494983673096, -0.3423472046852112, -0.48702263832092285, 9.361778259277344, -2.0508196353912354, 5.4874958992004395, -7.3552446365356445, 109.72618103027344, 77.8275375366211, -0.8037109375, 0.289794921875, -0.150146484375, 
180, 3255021018, 0.7201955318450928, -0.36526399850845337, -0.33427315950393677, -0.4859441816806793, 9.319561958312988, -2.1945066452026367, 5.47259521484375, -5.327874183654785, 111.1454086303711, 79.44998931884766, -0.79931640625, 0.299072265625, -0.1640625, 
181, 3255029351, 0.7256436347961426, -0.36343252658843994, -0.3260570466518402, -0.4847935736179352, 9.341984748840332, -2.2955222129821777, 5.606820583343506, -4.556414604187012, 113.1490478515625, 80.54306030273438, -0.79443359375, 0.313232421875, -0.17822265625, 
182, 3255037684, 0.7310823202133179, -0.36147555708885193, -0.3177286386489868, -0.4836137890815735, 9.308455467224121, -2.334597110748291, 5.86325740814209, -3.979573965072632, 114.9353256225586, 80.79837799072266, -0.791259765625, 0.323486328125, -0.192626953125, 
183, 3255046017, 0.7365467548370361, -0.35931694507598877, -0.309224396944046, -0.48244214057922363, 9.253437042236328, -2.404756784439087, 5.991674900054932, -3.017360210418701, 118.18023681640625, 80.85346984863281, -0.786865234375, 0.33544921875, -0.205810546875, 
184, 3255054350, 0.7419848442077637, -0.35703063011169434, -0.3006676733493805, -0.4812135398387909, 8.986275672912598, -2.566122531890869, 5.954148292541504, -1.971589207649231, 119.18069458007812, 80.99861145019531, -0.779541015625, 0.34765625, -0.22119140625, 
185, 3255062683, 0.7473459839820862, -0.35464707016944885, -0.29223665595054626, -0.4798716902732849, 8.862881660461426, -2.7922189235687256, 5.954647064208984, -0.045081861317157745, 117.65596771240234, 80.60043334960938, -0.774169921875, 0.3583984375, -0.23779296875, 
186, 3255071016, 0.7526944875717163, -0.35205069184303284, -0.2839365601539612, -0.4784046411514282, 8.765205383300781, -2.940913438796997, 6.10803747177124, 3.4360954761505127, 117.06568908691406, 80.3365707397461, -0.767333984375, 0.369140625, -0.252197265625, 
187, 3255079349, 0.7579842805862427, -0.34934282302856445, -0.27574896812438965, -0.4768245220184326, 8.615870475769043, -2.9131076335906982, 6.249022960662842, 5.501074314117432, 115.8455810546875, 80.1143798828125, -0.76611328125, 0.37939453125, -0.2666015625, 
188, 3255087682, 0.7632262110710144, -0.34651899337768555, -0.26757514476776123, -0.4751774072647095, 8.381391525268555, -2.761319160461426, 6.276963233947754, 6.809830665588379, 115.96952056884766, 80.0166015625, -0.754150390625, 0.389892578125, -0.281494140625, 
189, 3255096015, 0.7683685421943665, -0.34368544816970825, -0.25934088230133057, -0.47351017594337463, 8.074379920959473, -2.7331318855285645, 6.25699520111084, 6.13196325302124, 116.19793701171875, 79.80868530273438, -0.747314453125, 0.399658203125, -0.294921875, 
190, 3255104348, 0.7734076380729675, -0.34084391593933105, -0.25102776288986206, -0.4718378484249115, 7.995900630950928, -2.838317632675171, 6.317540645599365, 5.216494083404541, 116.69904327392578, 79.55609893798828, -0.740234375, 0.412353515625, -0.310791015625, 
191, 3255112681, 0.7783692479133606, -0.3379666209220886, -0.24264183640480042, -0.4701322913169861, 8.013368606567383, -2.9563586711883545, 6.450568675994873, 4.891214847564697, 117.27668762207031, 79.60292053222656, -0.733642578125, 0.421142578125, -0.326171875, 
192, 3255121014, 0.7832304239273071, -0.3351046144962311, -0.23419189453125, -0.4683895409107208, 7.962323188781738, -3.072784900665283, 6.370299816131592, 3.9559712409973145, 117.36061096191406, 79.72161102294922, -0.72412109375, 0.43310546875, -0.337646484375, 
193, 3255129347, 0.7879557013511658, -0.3322252035140991, -0.22577938437461853, -0.46664273738861084, 7.649325370788574, -3.114729881286621, 6.182964324951172, 3.7868614196777344, 116.6097183227539, 78.642333984375, -0.717041015625, 0.441650390625, -0.35107421875, 
194, 3255137680, 0.7924605011940002, -0.3293827772140503, -0.21756206452846527, -0.46492999792099, 7.281497001647949, -2.971994161605835, 6.081080913543701, 3.5105786323547363, 113.73390197753906, 76.10110473632812, -0.707275390625, 0.450439453125, -0.3681640625, 
195, 3255146013, 0.7966904044151306, -0.3267456591129303, -0.20945002138614655, -0.4632839560508728, 7.02769136428833, -2.5612266063690186, 6.189979076385498, 0.5190165638923645, 110.75110626220703, 73.73735046386719, -0.697509765625, 0.460205078125, -0.380615234375, 
196, 3255154346, 0.8005955219268799, -0.3244699537754059, -0.2012389898300171, -0.4617882966995239, 6.73750638961792, -2.320148468017578, 6.390587329864502, -5.981450080871582, 109.27470397949219, 71.52310180664062, -0.689697265625, 0.4697265625, -0.393798828125, 
197, 3255162679, 0.804213285446167, -0.3225628733634949, -0.19288532435894012, -0.4604012370109558, 6.502424240112305, -2.357363224029541, 6.617588996887207, -12.511661529541016, 108.19738006591797, 70.14575958251953, -0.678955078125, 0.479248046875, -0.404296875, 
198, 3255171012, 0.8076013326644897, -0.3209678530693054, -0.1845182329416275, -0.4590126872062683, 6.308715343475342, -2.4842166900634766, 6.810471534729004, -17.080251693725586, 105.75035858154297, 69.60797882080078, -0.673095703125, 0.48681640625, -0.4140625, 
199, 3255179345, 0.810836911201477, -0.3194551169872284, -0.17611178755760193, -0.4576640725135803, 6.2073259353637695, -2.635891914367676, 6.7686686515808105, -19.00172996520996, 105.46317291259766, 68.57742309570312, -0.661376953125, 0.497802734375, -0.425537109375, 
200, 3255187678, 0.8139470815658569, -0.3178879916667938, -0.16771498322486877, -0.4563867449760437, 6.117757320404053, -2.929227590560913, 6.9501237869262695, -19.072601318359375, 105.70014190673828, 66.8264389038086, -0.65283203125, 0.50537109375, -0.436767578125, 
201, 3255196011, 0.8169140815734863, -0.3163038194179535, -0.15940263867378235, -0.45516353845596313, 6.048585891723633, -3.136101722717285, 7.2890753746032715, -19.09339714050293, 104.77945709228516, 64.9078598022461, -0.64208984375, 0.5146484375, -0.4462890625, 
202, 3255204344, 0.8197168707847595, -0.3148091435432434, -0.15118256211280823, -0.4539637267589569, 5.958339214324951, -3.181725025177002, 7.355714321136475, -20.29573631286621, 102.91486358642578, 63.417144775390625, -0.6318359375, 0.522216796875, -0.45654296875, 
203, 3255212677, 0.8224222660064697, -0.3132838010787964, -0.14301994442939758, -0.45276904106140137, 5.775045394897461, -3.2644591331481934, 7.380983352661133, -20.014427185058594, 102.29010009765625, 62.436100006103516, -0.62158203125, 0.53271484375, -0.465576171875, 
204, 3255221010, 0.8250528573989868, -0.3116554021835327, -0.13495232164859772, -0.4515819251537323, 5.592247486114502, -3.538707733154297, 7.526858329772949, -18.604366302490234, 101.73043060302734, 61.27716064453125, -0.613037109375, 0.541259765625, -0.478759765625, 
205, 3255229343, 0.8276040554046631, -0.30999964475631714, -0.12705126404762268, -0.4503438472747803, 5.490105628967285, -3.8199915885925293, 7.621786117553711, -17.49691390991211, 99.6583251953125, 60.59791564941406, -0.605712890625, 0.549072265625, -0.4853515625, 
206, 3255237676, 0.8301604390144348, -0.3081006109714508, -0.1193544864654541, -0.4490456283092499, 5.321466445922852, -3.9878761768341064, 7.464781761169434, -13.343483924865723, 98.57965087890625, 60.01664733886719, -0.591552734375, 0.5556640625, -0.494384765625, 
207, 3255246009, 0.8327862024307251, -0.30577245354652405, -0.11186909675598145, -0.44770002365112305, 5.0964765548706055, -4.076794624328613, 7.426745891571045, -6.757857322692871, 98.7435531616211, 59.388797760009766, -0.583740234375, 0.565185546875, -0.50634765625, 
208, 3255254342, 0.8354454040527344, -0.3031198978424072, -0.10463826358318329, -0.44629600644111633, 4.869062423706055, -3.9812121391296387, 7.381876468658447, -1.2551630735397339, 97.61564636230469, 58.691734313964844, -0.5712890625, 0.571044921875, -0.51416015625, 
209, 3255262675, 0.8380590081214905, -0.3002711534500122, -0.09770696610212326, -0.44489026069641113, 4.602526664733887, -3.7852251529693604, 7.399410247802734, 2.65987491607666, 95.32732391357422, 56.90623474121094, -0.5634765625, 0.57763671875, -0.5234375, 
210, 3255271008, 0.840554416179657, -0.2974615693092346, -0.09101133793592453, -0.44348782300949097, 4.559165000915527, -3.580216407775879, 7.577600479125977, 3.147880792617798, 92.20449829101562, 55.21782684326172, -0.550537109375, 0.58251953125, -0.529541015625, 
211, 3255279341, 0.8428852558135986, -0.2948591113090515, -0.08432422578334808, -0.44212183356285095, 4.506418704986572, -3.435790538787842, 7.694099426269531, 0.09650257974863052, 90.80647277832031, 54.026187896728516, -0.540771484375, 0.5859375, -0.542724609375, 
212, 3255287674, 0.8450619578361511, -0.29243093729019165, -0.07761197537183762, -0.4408069849014282, 4.323572635650635, -3.4135375022888184, 7.699283123016357, -2.7705137729644775, 90.0457763671875, 52.79122543334961, -0.534423828125, 0.59130859375, -0.546630859375, 
213, 3255296007, 0.8471469283103943, -0.28992655873298645, -0.07097554951906204, -0.43957585096359253, 4.161205768585205, -3.5916552543640137, 7.571842670440674, -1.875235676765442, 89.88984680175781, 50.88951873779297, -0.5205078125, 0.59814453125, -0.557373046875, 
214, 3255304340, 0.8491600155830383, -0.287246435880661, -0.06450879573822021, -0.4384463429450989, 3.895803928375244, -3.8010780811309814, 7.508217811584473, 0.804665744304657, 89.28672790527344, 48.41071319580078, -0.50830078125, 0.603271484375, -0.56494140625, 
215, 3255312673, 0.8511145710945129, -0.28446507453918457, -0.058338843286037445, -0.43733274936676025, 3.7486844062805176, -3.840162992477417, 7.468506336212158, 3.536369562149048, 86.46760559082031, 46.62297439575195, -0.502197265625, 0.6064453125, -0.5732421875, 
216, 3255321006, 0.8529849052429199, -0.2817678153514862, -0.052364569157361984, -0.4361896812915802, 3.6890923976898193, -3.766868829727173, 7.49901819229126, 3.417106866836548, 83.4633560180664, 45.74965286254883, -0.494384765625, 0.61083984375, -0.580078125, 
217, 3255329339, 0.8547154664993286, -0.2793377637863159, -0.04643431678414345, -0.43503493070602417, 3.690138578414917, -3.715830087661743, 7.566198348999023, 0.0185832679271698, 81.22505187988281, 45.08204650878906, -0.4833984375, 0.615234375, -0.586669921875, 
218, 3255337672, 0.856322705745697, -0.2771547734737396, -0.04049699380993843, -0.4338620901107788, 3.577106237411499, -3.7221546173095703, 7.725122451782227, -3.3943979740142822, 79.65449523925781, 44.73240280151367, -0.47216796875, 0.619873046875, -0.594970703125, 
219, 3255346005, 0.8578499555587769, -0.27511489391326904, -0.03459212929010391, -0.43265268206596375, 3.417999029159546, -3.7620739936828613, 7.885904312133789, -5.1664276123046875, 78.26535034179688, 44.6552619934082, -0.461669921875, 0.623779296875, -0.60107421875, 
220, 3255354338, 0.8593024611473083, -0.27309948205947876, -0.02866344526410103, -0.4314790964126587, 3.261268377304077, -3.90728759765625, 7.866745471954346, -5.901101112365723, 78.46945190429688, 43.873130798339844, -0.450439453125, 0.629150390625, -0.60693359375, 
221, 3255362671, 0.8606421947479248, -0.2711103558540344, -0.02277369052171707, -0.4304128885269165, 3.019404649734497, -4.115816593170166, 7.7972869873046875, -6.4426140785217285, 78.24679565429688, 41.81802749633789, -0.44384765625, 0.630859375, -0.614013671875, 
222, 3255371004, 0.8618834018707275, -0.2691580057144165, -0.01704264059662819, -0.4294184148311615, 2.7831408977508545, -4.153817176818848, 7.827152252197266, -6.332931041717529, 76.3528060913086, 39.78776550292969, -0.43212890625, 0.6357421875, -0.618408203125, 
223, 3255379337, 0.8630474805831909, -0.2671467363834381, -0.011453535407781601, -0.428521066904068, 2.6249232292175293, -4.09810209274292, 7.7501373291015625, -5.100671291351318, 75.3952407836914, 37.66236877441406, -0.4296875, 0.638427734375, -0.624755859375, 
224, 3255387670, 0.8641642928123474, -0.2651824653148651, -0.006004594266414642, -0.4276005029678345, 2.509178638458252, -4.112858295440674, 7.616806507110596, -5.005819797515869, 73.32779693603516, 37.131370544433594, -0.414794921875, 0.643798828125, -0.6318359375, 
225, 3255396003, 0.8652389645576477, -0.26335474848747253, -0.0007349215447902679, -0.4265970289707184, 2.3831562995910645, -4.0727925300598145, 7.602661609649658, -5.7168731689453125, 70.12199401855469, 37.24721908569336, -0.407470703125, 0.64794921875, -0.63525390625, 
226, 3255404336, 0.8662720322608948, -0.2615693211555481, 0.004358764737844467, -0.4255760610103607, 2.274855375289917, -3.9973256587982178, 7.683474540710449, -5.342951774597168, 67.6836166381836, 36.55219650268555, -0.3955078125, 0.650390625, -0.640380859375, 
227, 3255412669, 0.86728835105896, -0.2597539722919464, 0.009376460686326027, -0.42453593015670776, 2.1769793033599854, -3.891690969467163, 7.954159259796143, -4.599008560180664, 66.91985321044922, 36.43330001831055, -0.3876953125, 0.65478515625, -0.643798828125, 
228, 3255421002, 0.8683104515075684, -0.25783681869506836, 0.014380985870957375, -0.4234740138053894, 1.996864676475525, -3.8752129077911377, 8.050334930419922, -3.293879747390747, 67.24298095703125, 36.67228317260742, -0.378662109375, 0.658203125, -0.647705078125, 
229, 3255429335, 0.8693388104438782, -0.2557179629802704, 0.019359279423952103, -0.42244940996170044, 1.820473551750183, -3.968390941619873, 8.044490814208984, -0.7006810307502747, 68.27241516113281, 36.23127746582031, -0.368896484375, 0.66162109375, -0.650390625, 
230, 3255437668, 0.870347261428833, -0.25335416197776794, 0.024343907833099365, -0.4215383231639862, 1.7778185606002808, -4.057170391082764, 8.054366111755371, 2.1488535404205322, 70.13886260986328, 34.824310302734375, -0.361572265625, 0.663330078125, -0.65869140625, 
231, 3255446001, 0.8712932467460632, -0.2508782148361206, 0.029429862275719643, -0.4207395911216736, 1.8519763946533203, -4.166950225830078, 8.124258995056152, 2.724358320236206, 72.45092010498047, 33.53087615966797, -0.3544921875, 0.665771484375, -0.665283203125, 
232, 3255454334, 0.8721979856491089, -0.24849921464920044, 0.034458886831998825, -0.41989418864250183, 1.7364267110824585, -4.247051239013672, 8.311634063720703, 1.7300844192504883, 71.02613067626953, 33.59210968017578, -0.341064453125, 0.666748046875, -0.6669921875, 
233, 3255462667, 0.8730599284172058, -0.24614210426807404, 0.039412569254636765, -0.4190545976161957, 1.2443523406982422, -4.2466044425964355, 8.211019515991211, 1.7599503993988037, 70.07469940185547, 33.03214645385742, -0.333740234375, 0.671142578125, -0.671875, 
234, 3255471000, 0.8739311695098877, -0.2437070608139038, 0.04414094612002373, -0.4181896448135376, 1.2679951190948486, -4.181246757507324, 8.23795223236084, 4.010376930236816, 67.68975830078125, 32.645877838134766, -0.327392578125, 0.671630859375, -0.676513671875, 
235, 3255479333, 0.8748304843902588, -0.24112063646316528, 0.04867802560329437, -0.41730377078056335, 1.2780979871749878, -4.129856586456299, 8.238162994384766, 7.012506008148193, 66.21105194091797, 32.531883239746094, -0.31640625, 0.675048828125, -0.682373046875, 
236, 3255487666, 0.875729501247406, -0.23835480213165283, 0.05293766036629677, -0.41648805141448975, 1.2390140295028687, -4.0456929206848145, 8.264067649841309, 10.807909965515137, 64.09894561767578, 30.8640193939209, -0.307861328125, 0.673828125, -0.688720703125, 
237, 3255495999, 0.876578152179718, -0.23557552695274353, 0.057025641202926636, -0.4157435894012451, 1.1692973375320435, -3.8571414947509766, 8.376480102539062, 11.838526725769043, 62.41693878173828, 29.187789916992188, -0.300048828125, 0.67578125, -0.693115234375, 
238, 3255504332, 0.8773767948150635, -0.23277311027050018, 0.06102125346660614, -0.4150698781013489, 0.9797654151916504, -3.708160638809204, 8.32209587097168, 12.540281295776367, 61.66599655151367, 27.744110107421875, -0.29345703125, 0.676025390625, -0.69775390625, 
239, 3255512665, 0.878121554851532, -0.22997279465198517, 0.06497360020875931, -0.4144551455974579, 0.7383588552474976, -3.7244937419891357, 8.338215827941895, 12.635642051696777, 61.405826568603516, 26.608442306518555, -0.2822265625, 0.677001953125, -0.702880859375, 
240, 3255520998, 0.8787711262702942, -0.227401003241539, 0.06895574927330017, -0.4138537049293518, 0.6075039505958557, -3.8656396865844727, 8.504085540771484, 9.420632362365723, 60.55059051513672, 25.772825241088867, -0.275146484375, 0.677978515625, -0.70751953125, 
241, 3255529331, 0.8793343305587769, -0.22508205473423004, 0.07291358709335327, -0.4132462739944458, 0.5076174736022949, -4.084462642669678, 8.453221321105957, 6.220733642578125, 58.91877746582031, 25.059789657592773, -0.272216796875, 0.676513671875, -0.70849609375, 
242, 3255537664, 0.8798400163650513, -0.22274067997932434, 0.07694074511528015, -0.41270825266838074, 0.46099624037742615, -4.411017894744873, 8.348018646240234, 5.99617338180542, 60.1201171875, 24.1082706451416, -0.259765625, 0.677001953125, -0.711181640625, 
243, 3255545997, 0.8803103566169739, -0.22031651437282562, 0.0809786468744278, -0.41223347187042236, 0.4063449501991272, -4.622128009796143, 8.4075927734375, 6.888628959655762, 60.98811721801758, 23.28753662109375, -0.252197265625, 0.678955078125, -0.716796875, 
244, 3255554330, 0.8807991743087769, -0.21773883700370789, 0.08483557403087616, -0.4117829203605652, 0.2882244288921356, -4.511842250823975, 8.318401336669922, 9.862810134887695, 59.68183135986328, 22.696792602539062, -0.243408203125, 0.679443359375, -0.719482421875, 
245, 3255562663, 0.8813353776931763, -0.21488209068775177, 0.08849005401134491, -0.4113670289516449, 0.21998821198940277, -4.263851165771484, 8.315082550048828, 14.566600799560547, 58.89717102050781, 22.289627075195312, -0.23583984375, 0.6806640625, -0.72607421875, 
246, 3255570996, 0.8819008469581604, -0.21169055998325348, 0.09201917052268982, -0.41103535890579224, 0.0891915112733841, -4.1762375831604, 8.306819915771484, 19.527202606201172, 59.44618225097656, 21.44635581970215, -0.23193359375, 0.67822265625, -0.728515625, 
247, 3255579329, 0.8824548125267029, -0.20839911699295044, 0.09538479149341583, -0.4107610285282135, 0.03290141746401787, -4.214076042175293, 8.1861572265625, 21.696735382080078, 58.24905776977539, 20.355697631835938, -0.221923828125, 0.678955078125, -0.73486328125, 
248, 3255587662, 0.882982075214386, -0.20518094301223755, 0.0985504686832428, -0.41050100326538086, 0.011085763573646545, -4.1418609619140625, 8.06196403503418, 21.88558006286621, 55.44569778442383, 19.342771530151367, -0.213134765625, 0.677734375, -0.736572265625, 
249, 3255595995, 0.8834584355354309, -0.20218895375728607, 0.1014716625213623, -0.41024887561798096, 0.011951291933655739, -3.934968948364258, 8.048592567443848, 20.380704879760742, 51.33183288574219, 17.982412338256836, -0.2060546875, 0.677001953125, -0.7412109375, 
250, 3255604328, 0.883842408657074, -0.19954685866832733, 0.10427183657884598, -0.4100133776664734, -0.02882521227002144, -3.7825024127960205, 8.064821243286133, 16.58422088623047, 48.02338409423828, 16.4140625, -0.200439453125, 0.6767578125, -0.74658203125, 
251, 3255612661, 0.8841433525085449, -0.19720090925693512, 0.10707032680511475, -0.40977782011032104, -0.09360001981258392, -3.7189078330993652, 8.079334259033203, 12.760514259338379, 46.488365173339844, 15.541688919067383, -0.193603515625, 0.673828125, -0.7509765625, 
252, 3255620994, 0.8843697905540466, -0.195088192820549, 0.10988150537014008, -0.4095563292503357, -0.26700296998023987, -3.801332712173462, 8.118030548095703, 9.677014350891113, 45.4391975402832, 14.618855476379395, -0.193603515625, 0.67431640625, -0.7529296875, 
253, 3255629327, 0.8845190405845642, -0.19322717189788818, 0.11261981725692749, -0.4093725085258484, -0.4535697400569916, -3.9533355236053467, 8.047633171081543, 6.870096206665039, 43.391197204589844, 13.17154312133789, -0.18212890625, 0.6728515625, -0.754150390625, 
254, 3255637660, 0.8846436738967896, -0.19147667288780212, 0.11519172787666321, -0.409210205078125, -0.5905153751373291, -3.990129232406616, 8.022234916687012, 6.436751842498779, 40.801326751708984, 12.135263442993164, -0.175048828125, 0.6748046875, -0.75732421875, 
255, 3255645993, 0.884764552116394, -0.18971747159957886, 0.11755000799894333, -0.4090974032878876, -0.7047478556632996, -4.033031463623047, 8.09659481048584, 7.807525157928467, 38.425575256347656, 10.986051559448242, -0.171630859375, 0.673828125, -0.75634765625, 
256, 3255654326, 0.8848784565925598, -0.187916100025177, 0.11972363293170929, -0.4090522527694702, -0.6771185994148254, -4.114335060119629, 8.150674819946289, 9.456493377685547, 36.56658172607422, 9.687994956970215, -0.165771484375, 0.6748046875, -0.761474609375, 
257, 3255662659, 0.8850065469741821, -0.18609978258609772, 0.12175381183624268, -0.40900617837905884, -0.6560764908790588, -4.080306053161621, 8.169026374816895, 10.475337982177734, 34.91775131225586, 9.453251838684082, -0.16162109375, 0.6748046875, -0.762451171875, 
258, 3255670992, 0.885164737701416, -0.1841404139995575, 0.12364934384822845, -0.40898215770721436, -0.7535648345947266, -4.144834518432617, 8.259598731994629, 13.092387199401855, 34.051544189453125, 9.228474617004395, -0.1572265625, 0.67138671875, -0.76416015625, 
259, 3255679325, 0.8853529095649719, -0.18203778564929962, 0.1252860128879547, -0.40901821851730347, -0.8366626501083374, -4.2109599113464355, 8.242359161376953, 16.466115951538086, 31.842714309692383, 8.273163795471191, -0.15771484375, 0.670654296875, -0.767578125, 
260, 3255687658, 0.8855382204055786, -0.1799573302268982, 0.12666581571102142, -0.4091126322746277, -0.8724367618560791, -4.126999378204346, 8.183321952819824, 17.73967933654785, 28.704835891723633, 6.847063064575195, -0.148681640625, 0.668701171875, -0.76953125, 
261, 3255695991, 0.8856899738311768, -0.17807841300964355, 0.12782101333141327, -0.40924668312072754, -0.8272473216056824, -3.9320173263549805, 8.057670593261719, 16.530658721923828, 25.02885627746582, 5.286974906921387, -0.148681640625, 0.66845703125, -0.7734375, 
262, 3255704324, 0.8858065605163574, -0.17641128599643707, 0.12883608043193817, -0.4093981087207794, -0.7680241465568542, -3.7223117351531982, 8.015734672546387, 14.687712669372559, 22.198246002197266, 4.143348693847656, -0.1416015625, 0.6669921875, -0.775634765625, 
263, 3255712657, 0.8859105110168457, -0.1748863160610199, 0.1296950876712799, -0.40955638885498047, -0.7694489359855652, -3.621060848236084, 8.049789428710938, 13.81316089630127, 19.570602416992188, 3.377866268157959, -0.140625, 0.66455078125, -0.777099609375, 
264, 3255720990, 0.8860085010528564, -0.17351177334785461, 0.13042721152305603, -0.409696102142334, -0.8376054763793945, -3.644848108291626, 8.067429542541504, 12.651633262634277, 17.10940933227539, 2.978591203689575, -0.13916015625, 0.66259765625, -0.77734375, 
265, 3255729323, 0.8861130475997925, -0.17231212556362152, 0.13108471035957336, -0.40976643562316895, -0.8832319378852844, -3.7326953411102295, 7.978084087371826, 10.827461242675781, 15.071639060974121, 3.384755849838257, -0.1357421875, 0.664306640625, -0.783203125, 
266, 3255737656, 0.8862225413322449, -0.17125630378723145, 0.13167771697044373, -0.4097822904586792, -0.9244133234024048, -3.7593111991882324, 7.800048828125, 9.356050491333008, 13.303359031677246, 3.6487109661102295, -0.134765625, 0.661865234375, -0.781494140625, 
267, 3255745989, 0.8863186836242676, -0.17028379440307617, 0.13221758604049683, -0.4098057746887207, -0.9714803099632263, -3.765108108520508, 7.783725738525391, 8.619510650634766, 12.262778282165527, 3.2199785709381104, -0.131591796875, 0.66162109375, -0.779541015625, 
268, 3255754322, 0.8863868713378906, -0.16940495371818542, 0.13273736834526062, -0.4098544418811798, -1.0695712566375732, -3.692530632019043, 7.973548889160156, 7.574502468109131, 11.565816879272461, 2.5215556621551514, -0.130615234375, 0.661865234375, -0.786376953125, 
269, 3255762655, 0.8864127397537231, -0.16865158081054688, 0.13321125507354736, -0.40995535254478455, -1.2231802940368652, -3.577146053314209, 8.228069305419922, 6.298553943634033, 10.529974937438965, 1.3271888494491577, -0.129638671875, 0.659912109375, -0.7861328125, 
270, 3255770988, 0.8863780498504639, -0.16802693903446198, 0.1336553990840912, -0.4101422429084778, -1.4351375102996826, -3.6783385276794434, 8.197561264038086, 4.915743350982666, 9.720283508300781, -0.38329142332077026, -0.133544921875, 0.65625, -0.78662109375, 
271, 3255779321, 0.8863053917884827, -0.16757439076900482, 0.13402347266674042, -0.41036468744277954, -1.6330268383026123, -3.817728281021118, 8.158814430236816, 3.222130060195923, 8.004128456115723, -1.5077052116394043, -0.128662109375, 0.65771484375, -0.78857421875, 
272, 3255787654, 0.8862218856811523, -0.16731604933738708, 0.13420574367046356, -0.4105907082557678, -1.6706961393356323, -3.819333553314209, 8.124220848083496, 1.8880895376205444, 4.64095401763916, -2.4122719764709473, -0.125244140625, 0.657958984375, -0.78662109375, 
273, 3255795987, 0.8861621022224426, -0.16712194681167603, 0.1342441737651825, -0.41078636050224304, -1.5700433254241943, -3.750072956085205, 8.132109642028809, 1.913421630859375, 2.4405624866485596, -2.3507206439971924, -0.127197265625, 0.658203125, -0.78759765625, 
274, 3255804320, 0.8861187696456909, -0.16689030826091766, 0.13421028852462769, -0.41098475456237793, -1.427828073501587, -3.821671724319458, 8.149934768676758, 2.8250064849853516, 1.7185227870941162, -2.3976712226867676, -0.127685546875, 0.658203125, -0.79052734375, 
275, 3255812653, 0.8861063122749329, -0.16670767962932587, 0.13404235243797302, -0.4111406207084656, -1.2779690027236938, -3.9733636379241943, 8.194384574890137, 2.9762332439422607, -0.3225088119506836, -2.08966064453125, -0.127685546875, 0.6572265625, -0.787109375, 
276, 3255820986, 0.8861101269721985, -0.16672080755233765, 0.1336660534143448, -0.411249577999115, -1.186751365661621, -4.123104572296143, 8.236485481262207, 1.7205979824066162, -4.129143714904785, -2.277003288269043, -0.128173828125, 0.65869140625, -0.78759765625, 
277, 3255829319, 0.8861093521118164, -0.16685429215431213, 0.13318461179733276, -0.41135334968566895, -1.1251403093338013, -4.176830291748047, 8.165889739990234, 0.8295554518699646, -6.07082986831665, -2.694053888320923, -0.135498046875, 0.655517578125, -0.7890625, 
278, 3255837652, 0.8861085772514343, -0.1669309139251709, 0.13269351422786713, -0.411482572555542, -1.1906501054763794, -4.1649861335754395, 8.24280834197998, 1.6226489543914795, -5.832514762878418, -2.930985450744629, -0.130126953125, 0.6552734375, -0.78759765625, 
279, 3255845985, 0.8861300945281982, -0.16687795519828796, 0.1321418732404709, -0.41163527965545654, -1.2816282510757446, -4.094724655151367, 8.432805061340332, 3.641947031021118, -5.801674842834473, -2.9825215339660645, -0.129638671875, 0.654296875, -0.785888671875, 
280, 3255854318, 0.8861854672431946, -0.16655083000659943, 0.13149137794971466, -0.4118570387363434, -1.3353369235992432, -3.98193621635437, 8.595332145690918, 7.74224853515625, -5.379296779632568, -3.371473550796509, -0.129638671875, 0.6552734375, -0.787109375, 
281, 3255862651, 0.8862764835357666, -0.16597920656204224, 0.13072040677070618, -0.4121369421482086, -1.3729275465011597, -3.9742913246154785, 8.694297790527344, 11.595552444458008, -5.376838684082031, -3.698977470397949, -0.131103515625, 0.654296875, -0.787109375, 
282, 3255870984, 0.8864008784294128, -0.16528095304965973, 0.12986740469932556, -0.41241949796676636, -1.3497648239135742, -3.9157326221466064, 8.692270278930664, 13.680194854736328, -5.729547023773193, -3.514657974243164, -0.132080078125, 0.652587890625, -0.791259765625, 
283, 3255879317, 0.8865525126457214, -0.16454973816871643, 0.12892743945121765, -0.4126809537410736, -1.322386384010315, -3.887796640396118, 8.624929428100586, 14.604073524475098, -6.682524681091309, -3.233285427093506, -0.13330078125, 0.648681640625, -0.788818359375, 
284, 3255887650, 0.8867460489273071, -0.16380922496318817, 0.1278076171875, -0.41290783882141113, -1.309948444366455, -3.865213394165039, 8.5751371383667, 15.767242431640625, -8.992775917053223, -2.9739415645599365, -0.136962890625, 0.6484375, -0.792236328125, 
285, 3255895983, 0.8869656324386597, -0.16304706037044525, 0.12650345265865326, -0.4131394624710083, -1.2245986461639404, -3.8411526679992676, 8.530034065246582, 17.150390625, -11.136099815368652, -3.256108522415161, -0.139892578125, 0.64404296875, -0.792236328125, 
286, 3255904316, 0.8871633410453796, -0.1624387949705124, 0.1250852644443512, -0.41338664293289185, -1.1151033639907837, -3.7123377323150635, 8.43679428100586, 15.893420219421387, -13.345226287841797, -4.096383571624756, -0.1376953125, 0.64453125, -0.793701171875, 
287, 3255912649, 0.8873274922370911, -0.16195595264434814, 0.12366655468940735, -0.41365018486976624, -0.9998880624771118, -3.5556368827819824, 8.263919830322266, 14.325472831726074, -13.95617961883545, -4.695065498352051, -0.13720703125, 0.64208984375, -0.7939453125, 
288, 3255920982, 0.8874818682670593, -0.16152438521385193, 0.12224847078323364, -0.4139096736907959, -0.9353106617927551, -3.4317073822021484, 8.195670127868652, 13.661164283752441, -14.246333122253418, -4.798648834228516, -0.150634765625, 0.640380859375, -0.792236328125, 
289, 3255929315, 0.8876084089279175, -0.1612217277288437, 0.120745450258255, -0.41419699788093567, -0.8702501654624939, -3.403116226196289, 8.072020530700684, 12.563209533691406, -15.896071434020996, -5.693124294281006, -0.14404296875, 0.639892578125, -0.794921875, 
290, 3255937648, 0.8877023458480835, -0.161063551902771, 0.11909420043230057, -0.41453468799591064, -0.784386157989502, -3.3525736331939697, 7.927105903625488, 11.649447441101074, -18.37532615661621, -7.068968296051025, -0.1455078125, 0.63623046875, -0.79443359375, 
291, 3255945981, 0.8877969980239868, -0.1609974503517151, 0.117197185754776, -0.41489869356155396, -0.7682186961174011, -3.3418357372283936, 7.739111423492432, 11.976672172546387, -21.829208374023438, -8.078657150268555, -0.150146484375, 0.63623046875, -0.794921875, 
292, 3255954314, 0.8879197239875793, -0.1608949452638626, 0.11494698375463486, -0.4153051972389221, -0.7295309901237488, -3.307704448699951, 7.683713912963867, 14.560182571411133, -25.898500442504883, -9.163860321044922, -0.14990234375, 0.634033203125, -0.7978515625, 
293, 3255962647, 0.8880987167358398, -0.16056542098522186, 0.11227096617221832, -0.4157816767692566, -0.6314418315887451, -3.276660203933716, 7.666175842285156, 20.006240844726562, -29.724279403686523, -10.274906158447266, -0.155517578125, 0.63037109375, -0.79345703125, 
294, 3255970980, 0.8883243799209595, -0.16005897521972656, 0.10915221273899078, -0.41632509231567383, -0.5441195964813232, -3.309170961380005, 7.603881359100342, 24.897960662841797, -34.05351638793945, -11.536466598510742, -0.159912109375, 0.627685546875, -0.79443359375, 
295, 3255979313, 0.8885700106620789, -0.15952199697494507, 0.10559914261102676, -0.4169228672981262, -0.44394534826278687, -3.266286611557007, 7.507565975189209, 27.891389846801758, -39.08613204956055, -12.989134788513184, -0.163818359375, 0.625, -0.794921875, 
296, 3255987646, 0.8888362050056458, -0.15909847617149353, 0.10163674503564835, -0.41750168800354004, -0.30016204714775085, -2.9059042930603027, 7.5337347984313965, 28.861797332763672, -44.82052230834961, -13.708698272705078, -0.172119140625, 0.622314453125, -0.7958984375, 
297, 3255995979, 0.8890724778175354, -0.1588824838399887, 0.09747323393821716, -0.4180733859539032, -0.16666355729103088, -2.4030566215515137, 7.445058822631836, 27.4118595123291, -48.430511474609375, -14.51685905456543, -0.177001953125, 0.61669921875, -0.7978515625, 
298, 3256004312, 0.8892292380332947, -0.15892472863197327, 0.09340884536504745, -0.4186514616012573, -0.0668037161231041, -2.006626605987549, 7.565871715545654, 23.511873245239258, -48.59492492675781, -15.188029289245605, -0.18359375, 0.617431640625, -0.793212890625, 
299, 3256012645, 0.8892600536346436, -0.15963704884052277, 0.08962170779705048, -0.41914239525794983, -0.05509740859270096, -1.7925629615783691, 7.65462064743042, 13.33922004699707, -49.079193115234375, -15.097527503967285, -0.19189453125, 0.61083984375, -0.793212890625, 
300, 3256020978, 0.8891249895095825, -0.16116127371788025, 0.08615167438983917, -0.4195728302001953, -0.19203214347362518, -1.904036045074463, 7.576679706573486, 1.1389013528823853, -49.82183074951172, -15.622979164123535, -0.19775390625, 0.609375, -0.792236328125, 
301, 3256029311, 0.8888257741928101, -0.16341814398765564, 0.0829121321439743, -0.41998639702796936, -0.3406310975551605, -2.1818437576293945, 7.4985480308532715, -9.534232139587402, -51.0588264465332, -16.71814727783203, -0.203125, 0.609130859375, -0.79248046875, 
302, 3256037644, 0.8883929252624512, -0.1662943959236145, 0.07973036915063858, -0.4203888773918152, -0.3513677418231964, -2.4788308143615723, 7.43888521194458, -17.749771118164062, -53.81830978393555, -17.934371948242188, -0.208251953125, 0.60888671875, -0.78564453125, 
303, 3256045977, 0.8878505825996399, -0.1694098263978958, 0.07643172144889832, -0.4209033250808716, -0.24615029990673065, -2.743222713470459, 7.357093334197998, -20.128429412841797, -56.239295959472656, -20.461515426635742, -0.215087890625, 0.610595703125, -0.781005859375, 
304, 3256054310, 0.8872212767601013, -0.1726445108652115, 0.07289526611566544, -0.4215426445007324, -0.23553086817264557, -2.892390251159668, 7.518678665161133, -20.274721145629883, -59.46404266357422, -23.16990852355957, -0.22607421875, 0.613525390625, -0.777099609375, 
305, 3256062643, 0.8864939212799072, -0.17609478533267975, 0.06898006051778793, -0.42230403423309326, -0.32351574301719666, -2.95741605758667, 7.723087787628174, -20.82431411743164, -64.93601989746094, -26.33980369567871, -0.232666015625, 0.611328125, -0.775146484375, 
306, 3256070976, 0.8856879472732544, -0.179754838347435, 0.06462539732456207, -0.42314112186431885, -0.25051671266555786, -2.960866689682007, 7.9563422203063965, -20.944366455078125, -71.26383972167969, -28.988637924194336, -0.241455078125, 0.611083984375, -0.77001953125, 
307, 3256079309, 0.8848257064819336, -0.1836160570383072, 0.05990283936262131, -0.4239809215068817, -0.09141276031732559, -2.950622320175171, 8.142865180969238, -21.39488983154297, -76.85136413574219, -30.433208465576172, -0.25, 0.61328125, -0.7607421875, 
308, 3256087642, 0.8839040398597717, -0.18757225573062897, 0.05496664345264435, -0.4248396158218384, 0.18206103146076202, -3.1355366706848145, 8.166038513183594, -21.43534278869629, -79.9160385131836, -31.63090705871582, -0.261474609375, 0.61376953125, -0.758056640625, 
309, 3256095975, 0.8829315900802612, -0.1914570927619934, 0.05001429095864296, -0.42573949694633484, 0.568109929561615, -3.5329225063323975, 8.215185165405273, -20.57933235168457, -79.5445556640625, -32.4133415222168, -0.27490234375, 0.61279296875, -0.750244140625, 
310, 3256104308, 0.8819363713264465, -0.19515013694763184, 0.04504218325018883, -0.42667973041534424, 0.9029123187065125, -3.8414804935455322, 8.351996421813965, -18.160282135009766, -78.5456771850586, -32.957908630371094, -0.287841796875, 0.612060546875, -0.74267578125, 
311, 3256112641, 0.8809588551521301, -0.19854435324668884, 0.039899926632642746, -0.42764392495155334, 1.005547285079956, -3.9496991634368896, 8.228530883789062, -13.480399131774902, -78.79663848876953, -33.41288757324219, -0.295166015625, 0.611572265625, -0.738037109375, 
312, 3256120974, 0.8800086975097656, -0.201682448387146, 0.03449886664748192, -0.42860087752342224, 0.9565138816833496, -3.9103622436523438, 8.089923858642578, -8.78005599975586, -80.46656036376953, -33.735538482666016, -0.30419921875, 0.6123046875, -0.73291015625, 
313, 3256129307, 0.8790664672851562, -0.20468832552433014, 0.02878737449645996, -0.4295297861099243, 0.9117770791053772, -3.6744308471679688, 8.043098449707031, -5.343924045562744, -83.51851654052734, -34.146034240722656, -0.312744140625, 0.6123046875, -0.726806640625, 
314, 3256137640, 0.878117024898529, -0.2075941264629364, 0.02283518575131893, -0.43043434619903564, 1.0455234050750732, -3.342195749282837, 8.084383010864258, -2.739872932434082, -85.91007995605469, -34.53190994262695, -0.325927734375, 0.60791015625, -0.72265625, 
315, 3256145973, 0.8770730495452881, -0.21064621210098267, 0.016778524965047836, -0.43135756254196167, 1.2015012502670288, -3.0846331119537354, 8.386652946472168, -4.153996467590332, -87.94847869873047, -35.66065216064453, -0.337890625, 0.60400390625, -0.71728515625, 
316, 3256154306, 0.8758797645568848, -0.21407778561115265, 0.010748269036412239, -0.43228426575660706, 1.3766549825668335, -2.745415210723877, 8.555821418762207, -9.317127227783203, -89.84326171875, -36.600460052490234, -0.347900390625, 0.603515625, -0.711181640625, 
317, 3256162639, 0.8745205998420715, -0.2178189605474472, 0.004972517490386963, -0.43327105045318604, 1.5321154594421387, -2.5631072521209717, 8.608622550964355, -15.043749809265137, -88.41144561767578, -37.60285568237305, -0.358642578125, 0.600341796875, -0.7041015625, 
318, 3256170972, 0.8729761838912964, -0.22184835374355316, -0.0005137473344802856, -0.4343680739402771, 1.6009925603866577, -2.76656436920166, 8.688855171203613, -20.777978897094727, -86.3080062866211, -39.1889533996582, -0.3720703125, 0.601318359375, -0.697265625, 
319, 3256179305, 0.8712495565414429, -0.22615699470043182, -0.005968466401100159, -0.4355703592300415, 1.8689169883728027, -3.2145848274230957, 8.750079154968262, -24.88488006591797, -87.27452850341797, -41.43855667114258, -0.382568359375, 0.59912109375, -0.689697265625, 
320, 3256187638, 0.8694027066230774, -0.23057721555233002, -0.011581219732761383, -0.43682801723480225, 2.245105743408203, -3.62959361076355, 8.881260871887207, -25.643573760986328, -89.6781997680664, -43.30867385864258, -0.39697265625, 0.59765625, -0.68017578125, 
321, 3256195971, 0.8675611019134521, -0.23467901349067688, -0.017440639436244965, -0.43810850381851196, 2.514779806137085, -3.910898447036743, 8.927130699157715, -20.353466033935547, -90.63729858398438, -44.37789535522461, -0.404052734375, 0.5966796875, -0.671630859375, 
322, 3256204304, 0.8657840490341187, -0.23821315169334412, -0.02361283078789711, -0.43942540884017944, 2.7455859184265137, -4.323048114776611, 8.9718656539917, -11.484990119934082, -90.82073974609375, -45.575008392333984, -0.416015625, 0.59716796875, -0.66650390625, 
323, 3256212637, 0.8640645146369934, -0.24128156900405884, -0.03011540323495865, -0.44073623418807983, 2.9279115200042725, -4.542490482330322, 8.9464693069458, -3.764328718185425, -91.93463897705078, -46.383583068847656, -0.43017578125, 0.59130859375, -0.655517578125, 
324, 3256220970, 0.8624361753463745, -0.24381600320339203, -0.03691742569208145, -0.44201183319091797, 3.1583547592163086, -4.513088703155518, 9.027607917785645, 4.72360372543335, -92.34062194824219, -46.631534576416016, -0.440673828125, 0.588134765625, -0.648193359375, 
325, 3256229303, 0.8609421849250793, -0.24582447111606598, -0.043918393552303314, -0.44316986203193665, 3.503448724746704, -4.338641166687012, 8.98658275604248, 12.673337936401367, -91.82302856445312, -45.346893310546875, -0.449462890625, 0.582763671875, -0.643310546875, 
326, 3256237636, 0.8595625758171082, -0.24740512669086456, -0.05097459256649017, -0.4442116320133209, 3.7439136505126953, -4.263620853424072, 8.762825012207031, 18.539995193481445, -90.2001724243164, -43.72607421875, -0.46142578125, 0.576904296875, -0.63720703125, 
327, 3256245969, 0.8582955598831177, -0.24871273338794708, -0.05808987095952034, -0.44505709409713745, 3.8341004848480225, -4.095016002655029, 8.615036964416504, 22.64284324645996, -89.81024169921875, -41.103233337402344, -0.4697265625, 0.570068359375, -0.631591796875, 
328, 3256254302, 0.8570762276649475, -0.24979452788829803, -0.06521850824356079, -0.44581305980682373, 3.8946967124938965, -3.926807165145874, 8.427098274230957, 25.63022804260254, -88.86284637451172, -39.98850631713867, -0.4833984375, 0.564697265625, -0.62646484375, 
329, 3256262635, 0.8557606339454651, -0.2509324252605438, -0.07232924550771713, -0.44660335779190063, 3.9134931564331055, -3.701058864593506, 8.26634407043457, 24.49456214904785, -88.95104217529297, -40.862037658691406, -0.492431640625, 0.562255859375, -0.620849609375, 
330, 3256270968, 0.8542500734329224, -0.25246888399124146, -0.07942632585763931, -0.4474230706691742, 3.9217989444732666, -3.3639307022094727, 8.248008728027344, 19.021703720092773, -91.34473419189453, -41.97135925292969, -0.503173828125, 0.552734375, -0.61083984375, 
331, 3256279301, 0.8525062799453735, -0.2545560896396637, -0.08640265464782715, -0.44827255606651306, 4.002872467041016, -2.9906160831451416, 8.267333984375, 10.962520599365234, -93.4504165649414, -42.72581100463867, -0.511474609375, 0.54931640625, -0.606201171875, 
332, 3256287634, 0.8505173921585083, -0.25730031728744507, -0.09314055740833282, -0.4491337537765503, 4.125988006591797, -2.949392557144165, 8.292820930480957, 0.9232867360115051, -94.97201538085938, -42.766578674316406, -0.52099609375, 0.545654296875, -0.595947265625, 
333, 3256295967, 0.8483189344406128, -0.2606286108493805, -0.09972800314426422, -0.44995754957199097, 4.322474956512451, -3.155587911605835, 8.475726127624512, -7.53895902633667, -97.20208740234375, -42.333656311035156, -0.53173828125, 0.539794921875, -0.589599609375, 
334, 3256304300, 0.8460122346878052, -0.2642340660095215, -0.10621412098407745, -0.45071250200271606, 4.510368347167969, -3.4055864810943604, 8.57185173034668, -11.6846923828125, -98.1467514038086, -41.466739654541016, -0.542236328125, 0.5361328125, -0.578125, 
335, 3256312633, 0.8437293171882629, -0.26763680577278137, -0.11255662143230438, -0.45144423842430115, 4.724742889404297, -3.6276965141296387, 8.59800910949707, -10.106013298034668, -95.25072479248047, -40.81505584716797, -0.55322265625, 0.53173828125, -0.56640625, 
336, 3256320966, 0.8415429592132568, -0.27060654759407043, -0.11877000331878662, -0.4521624743938446, 4.801811218261719, -3.8173696994781494, 8.56161880493164, -5.498246192932129, -90.98432159423828, -40.26362228393555, -0.56298828125, 0.527099609375, -0.554931640625, 
337, 3256329299, 0.8394484519958496, -0.2731034457683563, -0.12496678531169891, -0.45288389921188354, 4.863497734069824, -3.8480401039123535, 8.378868103027344, 0.20047146081924438, -87.66946411132812, -40.42543411254883, -0.573486328125, 0.521240234375, -0.547119140625, 
338, 3256337632, 0.8374409079551697, -0.2750653028488159, -0.1312803477048874, -0.4536265432834625, 4.844432830810547, -3.6576967239379883, 8.130538940429688, 7.40171480178833, -85.4754867553711, -41.5012321472168, -0.582275390625, 0.51806640625, -0.539794921875, 
339, 3256345965, 0.8354308009147644, -0.2767693102359772, -0.13774625957012177, -0.4543783664703369, 4.910888671875, -3.290661096572876, 7.926523685455322, 11.28955364227295, -85.5722427368164, -42.65047836303711, -0.588134765625, 0.514404296875, -0.532958984375, 
340, 3256354298, 0.833305835723877, -0.2785818576812744, -0.14427870512008667, -0.45514512062072754, 5.073410511016846, -2.884793281555176, 7.65675163269043, 9.996898651123047, -87.19497680664062, -43.600868225097656, -0.59765625, 0.507568359375, -0.526123046875, 
341, 3256362631, 0.8309628367424011, -0.280764102935791, -0.15078192949295044, -0.4559788703918457, 5.352779865264893, -2.7118990421295166, 7.555843830108643, 4.603776931762695, -89.32759094238281, -44.87333297729492, -0.607421875, 0.5029296875, -0.515625, 
342, 3256370964, 0.8283305764198303, -0.2834664285182953, -0.15720783174037933, -0.45692509412765503, 5.628071308135986, -2.6844162940979004, 7.703862190246582, -3.1673061847686768, -91.89468383789062, -46.61090850830078, -0.61376953125, 0.497314453125, -0.506591796875, 
343, 3256379297, 0.825446605682373, -0.286763459444046, -0.1635221540927887, -0.4578697979450226, 6.040607452392578, -2.6904098987579346, 7.922214031219482, -11.629568099975586, -94.88477325439453, -46.43775939941406, -0.624267578125, 0.4921875, -0.49462890625, 
344, 3256387630, 0.8224215507507324, -0.2904863953590393, -0.1695711314678192, -0.45876574516296387, 6.414951801300049, -2.7472681999206543, 8.250388145446777, -18.573965072631836, -95.0879898071289, -44.785072326660156, -0.630615234375, 0.487548828125, -0.48779296875, 
345, 3256395963, 0.819385290145874, -0.2943118214607239, -0.1752951294183731, -0.45960843563079834, 6.58275032043457, -2.9209225177764893, 8.472612380981445, -21.71308708190918, -92.27149963378906, -42.69493103027344, -0.6435546875, 0.482666015625, -0.47119140625, 
346, 3256404296, 0.8165159821510315, -0.2977536618709564, -0.18072591722011566, -0.4603937566280365, 6.513833522796631, -3.2203781604766846, 8.50108814239502, -18.42021942138672, -86.40101623535156, -40.752742767333984, -0.64697265625, 0.47900390625, -0.46337890625, 
347, 3256412629, 0.813900887966156, -0.3006167709827423, -0.1860516369342804, -0.46104171872138977, 6.48735237121582, -3.472870349884033, 8.394164085388184, -11.217170715332031, -81.45806121826172, -38.58586883544922, -0.65478515625, 0.477294921875, -0.453369140625, 
348, 3256420962, 0.8115403652191162, -0.3026764690876007, -0.1914207637310028, -0.46165701746940613, 6.372851848602295, -3.776259422302246, 8.284430503845215, -0.8017820119857788, -76.36280822753906, -38.86509323120117, -0.66015625, 0.472412109375, -0.44189453125, 
349, 3256429295, 0.8094480633735657, -0.30390289425849915, -0.1969846934080124, -0.46218341588974, 6.138020038604736, -3.6097605228424072, 7.960934162139893, 11.075366973876953, -72.88103485107422, -39.14798355102539, -0.667236328125, 0.466552734375, -0.43603515625, 
350, 3256437628, 0.8075084090232849, -0.30448582768440247, -0.202737495303154, -0.462704598903656, 6.038717269897461, -3.1208183765411377, 7.682611465454102, 20.099855422973633, -70.53170776367188, -40.678192138671875, -0.675048828125, 0.4609375, -0.427734375, 
351, 3256445961, 0.8055785894393921, -0.3047254979610443, -0.2086753249168396, -0.463270902633667, 6.092973709106445, -2.6914777755737305, 7.4896345138549805, 24.996721267700195, -70.1578598022461, -42.825889587402344, -0.682861328125, 0.4560546875, -0.42041015625, 
352, 3256454294, 0.8035164475440979, -0.3049420416355133, -0.2147441804409027, -0.4639360010623932, 6.262181282043457, -2.5514791011810303, 7.209578037261963, 25.257688522338867, -71.45529174804688, -45.4007453918457, -0.687255859375, 0.447265625, -0.416259765625, 
353, 3256462627, 0.8012533783912659, -0.30535033345222473, -0.22085367143154144, -0.46471238136291504, 6.636433124542236, -2.46392560005188, 6.976307392120361, 22.215757369995117, -73.2283706665039, -47.492977142333984, -0.689697265625, 0.442138671875, -0.40771484375, 
354, 3256470960, 0.7988148331642151, -0.30594876408576965, -0.22692400217056274, -0.4655916094779968, 6.897982597351074, -2.5171451568603516, 6.88118839263916, 18.832887649536133, -74.13871002197266, -49.0305061340332, -0.699462890625, 0.43310546875, -0.3984375, 
355, 3256479293, 0.7962233424186707, -0.3068048655986786, -0.23299413919448853, -0.4664683938026428, 7.261865615844727, -2.614950656890869, 6.960478782653809, 15.352478981018066, -76.2454605102539, -49.15144348144531, -0.703857421875, 0.424560546875, -0.391357421875, 
356, 3256487626, 0.7935284972190857, -0.3079541325569153, -0.23896095156669617, -0.4672839641571045, 7.806525230407715, -2.752716541290283, 7.047475814819336, 11.252070426940918, -77.61277770996094, -47.79328536987305, -0.708251953125, 0.4208984375, -0.381591796875, 
357, 3256495959, 0.7907376885414124, -0.30950331687927246, -0.24467214941978455, -0.46803492307662964, 8.193723678588867, -2.842031717300415, 7.063607692718506, 5.039828300476074, -77.94947814941406, -45.28241729736328, -0.714599609375, 0.412841796875, -0.37255859375, 
358, 3256504292, 0.7878909111022949, -0.3114038407802582, -0.2500903606414795, -0.468711256980896, 8.296928405761719, -2.796757459640503, 7.085423946380615, -0.6407445073127747, -77.56425476074219, -42.42860794067383, -0.722900390625, 0.406982421875, -0.365234375, 
359, 3256512625, 0.7851020097732544, -0.3133692741394043, -0.25523361563682556, -0.4693083167076111, 8.222258567810059, -2.936264753341675, 7.143376350402832, -2.608262538909912, -75.10565948486328, -39.767547607421875, -0.726806640625, 0.400634765625, -0.354248046875, 
360, 3256520958, 0.7824665904045105, -0.315185010433197, -0.2601376473903656, -0.4698006212711334, 7.980822563171387, -3.237400770187378, 7.079261779785156, -1.4950602054595947, -71.50752258300781, -37.16967010498047, -0.7421875, 0.393310546875, -0.345703125, 
361, 3256529291, 0.7799656391143799, -0.31677553057670593, -0.26499971747398376, -0.47017213702201843, 7.6479811668396, -3.3864147663116455, 6.921376705169678, 1.6646652221679688, -69.60347747802734, -35.594886779785156, -0.734619140625, 0.391357421875, -0.337158203125, 
362, 3256537624, 0.7775324583053589, -0.3181654214859009, -0.26992905139923096, -0.4704592227935791, 7.367590427398682, -3.2219276428222656, 6.731557369232178, 4.862030029296875, -69.18830871582031, -35.30482482910156, -0.73974609375, 0.388671875, -0.329833984375, 
363, 3256545957, 0.7751384973526001, -0.3193730413913727, -0.27499109506607056, -0.47065994143486023, 7.136420249938965, -2.884556770324707, 6.555537700653076, 8.155091285705566, -69.62101745605469, -35.35792541503906, -0.7451171875, 0.383544921875, -0.321533203125, 
364, 3256554290, 0.772679328918457, -0.32056984305381775, -0.28012585639953613, -0.4708617925643921, 6.9610114097595215, -2.57059645652771, 6.3108930587768555, 8.456445693969727, -70.60465240478516, -36.179386138916016, -0.7509765625, 0.37646484375, -0.31103515625, 
365, 3256562623, 0.7701206803321838, -0.3218110501766205, -0.2853044271469116, -0.47109749913215637, 6.980166435241699, -2.2804224491119385, 6.158308506011963, 7.693754196166992, -71.55559539794922, -37.182044982910156, -0.75, 0.372314453125, -0.303466796875, 
366, 3256570956, 0.7674704790115356, -0.3230467140674591, -0.29057133197784424, -0.471357524394989, 7.143732070922852, -2.1126160621643066, 6.119650363922119, 7.829895973205566, -72.7460708618164, -38.46784591674805, -0.7548828125, 0.3662109375, -0.296142578125, 
367, 3256579289, 0.7648072242736816, -0.3240952789783478, -0.296038419008255, -0.47156471014022827, 7.4204888343811035, -2.0239322185516357, 6.187804222106934, 11.250778198242188, -73.89397430419922, -39.60743713378906, -0.76025390625, 0.360595703125, -0.28857421875, 
368, 3256587622, 0.7621756792068481, -0.32490313053131104, -0.3017078936100006, -0.4716762602329254, 7.7989044189453125, -2.0888166427612305, 6.325310707092285, 15.630047798156738, -74.79647827148438, -40.30233383178711, -0.76416015625, 0.354248046875, -0.27587890625, 
369, 3256595955, 0.7595397233963013, -0.3255680501461029, -0.3076191246509552, -0.4716513156890869, 8.19027328491211, -2.2233846187591553, 6.511074542999268, 19.240331649780273, -76.99359893798828, -40.54779815673828, -0.77099609375, 0.348388671875, -0.268798828125, 
370, 3256604288, 0.7570871710777283, -0.3258741497993469, -0.31368687748908997, -0.4713866412639618, 8.618165969848633, -2.3012514114379883, 6.562784194946289, 25.840911865234375, -76.63689422607422, -39.099403381347656, -0.76904296875, 0.343505859375, -0.26025390625, 
371, 3256612621, 0.7549864053726196, -0.32570773363113403, -0.3197478950023651, -0.4707983732223511, 8.927495002746582, -2.49707293510437, 6.589280605316162, 33.68567657470703, -73.39895629882812, -35.43397521972656, -0.775146484375, 0.335205078125, -0.253173828125, 
372, 3256620954, 0.7532756924629211, -0.3249545693397522, -0.32572633028030396, -0.46995994448661804, 8.74450397491455, -2.564687490463257, 6.347222805023193, 42.09454345703125, -68.1861572265625, -32.54481506347656, -0.778076171875, 0.329833984375, -0.243896484375, 
373, 3256629287, 0.7517845630645752, -0.32376906275749207, -0.3317779004573822, -0.46893155574798584, 8.241689682006836, -1.9944372177124023, 5.902005672454834, 48.87501907348633, -65.9759292602539, -31.398550033569336, -0.780517578125, 0.3251953125, -0.23486328125, 
374, 3256637620, 0.7502487301826477, -0.3224908709526062, -0.3378587067127228, -0.46792951226234436, 7.897144317626953, -0.9607832431793213, 5.685802459716797, 49.70494842529297, -65.80492401123047, -32.53634262084961, -0.78955078125, 0.317626953125, -0.2255859375, 
375, 3256645953, 0.7484220266342163, -0.3216225206851959, -0.34370139241218567, -0.4671962559223175, 7.81907320022583, -0.2855081260204315, 5.615569591522217, 41.4018669128418, -66.10639953613281, -34.196754455566406, -0.788818359375, 0.3134765625, -0.218994140625, 
376, 3256654286, 0.7461895942687988, -0.3213937282562256, -0.34919029474258423, -0.46685463190078735, 7.851287841796875, -0.16912727057933807, 5.530287742614746, 28.90500259399414, -66.79901123046875, -36.26897048950195, -0.795654296875, 0.30419921875, -0.2119140625, 
377, 3256662619, 0.7435111403465271, -0.32188987731933594, -0.3543076813220978, -0.4669305086135864, 7.98872709274292, -0.5046525597572327, 5.348261833190918, 15.095514297485352, -67.90038299560547, -38.267242431640625, -0.794189453125, 0.298095703125, -0.204345703125, 
378, 3256670952, 0.7405112385749817, -0.32287609577178955, -0.3591889441013336, -0.46728700399398804, 8.263648986816406, -0.9124118685722351, 5.169219970703125, 5.78727388381958, -68.99406433105469, -39.794803619384766, -0.799072265625, 0.294189453125, -0.195068359375, 
379, 3256679285, 0.7373348474502563, -0.32406359910964966, -0.3639618158340454, -0.4677947163581848, 8.572270393371582, -1.3137035369873047, 5.084111213684082, 1.501015543937683, -69.3466567993164, -40.96085739135742, -0.798583984375, 0.28955078125, -0.18798828125, 
380, 3256687618, 0.734062910079956, -0.3253074288368225, -0.3687569797039032, -0.46832114458084106, 8.850210189819336, -1.5789366960525513, 5.158074855804443, 0.5627351403236389, -70.36587524414062, -41.61448287963867, -0.799072265625, 0.283447265625, -0.177490234375, 
381, 3256695951, 0.7306843996047974, -0.32673126459121704, -0.37361785769462585, -0.4687606394290924, 9.138976097106934, -1.7513879537582397, 5.2321648597717285, -0.8770880103111267, -73.08016204833984, -40.7750129699707, -0.802734375, 0.275634765625, -0.16796875, 
382, 3256704284, 0.7273388504981995, -0.32824188470840454, -0.3783060610294342, -0.46914801001548767, 9.49246883392334, -1.9034993648529053, 5.235584735870361, -2.436260938644409, -72.00851440429688, -38.846805572509766, -0.80419921875, 0.27197265625, -0.1591796875, 
383, 3256712617, 0.7241351008415222, -0.32977187633514404, -0.38277941942214966, -0.4694024920463562, 9.582856178283691, -2.067399024963379, 5.265551567077637, -2.6946322917938232, -69.80664825439453, -35.504722595214844, -0.806640625, 0.264404296875, -0.148681640625, 
384, 3256720950, 0.7211710810661316, -0.33115431666374207, -0.38713282346725464, -0.46942225098609924, 9.584169387817383, -2.1813669204711914, 5.287207126617432, 0.33397284150123596, -67.50259399414062, -31.879837036132812, -0.81005859375, 0.261474609375, -0.140380859375, 
385, 3256729283, 0.7185359001159668, -0.33218997716903687, -0.3913850784301758, -0.4692051410675049, 9.524316787719727, -2.2000885009765625, 5.261911392211914, 5.873254299163818, -63.54811477661133, -28.769365310668945, -0.80859375, 0.2568359375, -0.1318359375, 
386, 3256737616, 0.7161487936973572, -0.3329605162143707, -0.39559584856033325, -0.46877723932266235, 9.265954971313477, -2.042937994003296, 5.041276931762695, 10.498355865478516, -61.09550476074219, -26.346908569335938, -0.8115234375, 0.2529296875, -0.122314453125, 
387, 3256745949, 0.7139025330543518, -0.33355996012687683, -0.39981651306152344, -0.4681960940361023, 9.007887840270996, -1.6192272901535034, 4.7981038093566895, 13.722481727600098, -59.98676681518555, -24.886474609375, -0.81201171875, 0.247314453125, -0.114013671875, 
388, 3256754282, 0.7117643356323242, -0.3340337872505188, -0.4039723873138428, -0.4675459563732147, 8.827095031738281, -1.1192049980163574, 4.600522994995117, 15.4162015914917, -58.30077362060547, -23.926448822021484, -0.81396484375, 0.24365234375, -0.10693359375, 
389, 3256762615, 0.709589958190918, -0.33453986048698425, -0.408077210187912, -0.4669240713119507, 8.70628547668457, -0.7245193719863892, 4.474431991577148, 14.444931983947754, -58.04173278808594, -24.004159927368164, -0.8134765625, 0.241455078125, -0.09814453125, 
390, 3256770948, 0.707319974899292, -0.3351663649082184, -0.41208961606025696, -0.4663945734500885, 8.724472045898438, -0.5722212195396423, 4.3816118240356445, 11.721461296081543, -58.06486129760742, -24.43716812133789, -0.8134765625, 0.2373046875, -0.093017578125, 
391, 3256779281, 0.704947292804718, -0.3359033763408661, -0.41600340604782104, -0.4659818112850189, 8.848673820495605, -0.5729756951332092, 4.293304443359375, 8.877605438232422, -57.818687438964844, -25.13090705871582, -0.81640625, 0.232421875, -0.0830078125, 
392, 3256787614, 0.7025083899497986, -0.336687296628952, -0.419852614402771, -0.4656471610069275, 8.984249114990234, -0.6500118970870972, 4.1588215827941895, 7.25872802734375, -57.55010986328125, -25.763195037841797, -0.815673828125, 0.229248046875, -0.076171875, 
393, 3256795947, 0.7000550627708435, -0.33740395307540894, -0.4237525165081024, -0.46529048681259155, 9.083334922790527, -0.7343782782554626, 4.084510326385498, 8.290090560913086, -57.75546646118164, -26.24569320678711, -0.81884765625, 0.2255859375, -0.06689453125, 
394, 3256804280, 0.6975624561309814, -0.33808931708335876, -0.4277331829071045, -0.4648941457271576, 9.202301979064941, -0.7760657072067261, 3.995821952819824, 9.160491943359375, -58.78606414794922, -26.696435928344727, -0.82177734375, 0.220947265625, -0.059814453125, 
395, 3256812613, 0.6950936913490295, -0.33865368366241455, -0.43175235390663147, -0.4644653797149658, 9.366042137145996, -0.7029649615287781, 4.011046409606934, 10.865177154541016, -58.35219192504883, -27.100526809692383, -0.819091796875, 0.216796875, -0.052734375, 
396, 3256820946, 0.6927053928375244, -0.3390725255012512, -0.4357306659221649, -0.46401259303092957, 9.49189281463623, -0.5823906660079956, 4.097665309906006, 12.515378952026367, -56.70338821411133, -27.051599502563477, -0.822021484375, 0.214111328125, -0.0458984375, 
397, 3256829279, 0.6903570890426636, -0.33947068452835083, -0.43955326080322266, -0.463615745306015, 9.512298583984375, -0.49731898307800293, 4.085807800292969, 11.567645072937012, -54.550411224365234, -26.70546531677246, -0.819091796875, 0.21044921875, -0.033935546875, 
398, 3256837612, 0.6879184246063232, -0.34006261825561523, -0.44327473640441895, -0.4632633328437805, 9.578319549560547, -0.4140860438346863, 4.190463542938232, 8.395721435546875, -55.20219039916992, -26.08183479309082, -0.824462890625, 0.202880859375, -0.03125, 
399, 3256845945, 0.685563325881958, -0.34059810638427734, -0.4468044936656952, -0.46297019720077515, 9.728238105773926, -0.33988597989082336, 4.085800647735596, 7.733216285705566, -52.2048225402832, -25.536277770996094, -0.818603515625, 0.201904296875, -0.023681640625, 
400, 3256854278, 0.6833308935165405, -0.3411080837249756, -0.45008420944213867, -0.46271812915802, 9.697402954101562, -0.4619378447532654, 4.094755172729492, 6.708514213562012, -48.7779426574707, -24.150432586669922, -0.81982421875, 0.198486328125, -0.015380859375, 
401, 3256862611, 0.6812083721160889, -0.34158629179000854, -0.4531461000442505, -0.46250659227371216, 9.653141975402832, -0.6802417635917664, 3.9693644046783447, 5.882950305938721, -45.620086669921875, -22.982425689697266, -0.81884765625, 0.193115234375, -0.0107421875, 
402, 3256870944, 0.6791894435882568, -0.34199097752571106, -0.45611318945884705, -0.46226003766059875, 9.588533401489258, -0.815732479095459, 3.8116815090179443, 6.67745304107666, -43.822898864746094, -22.031517028808594, -0.818359375, 0.189453125, -0.005615234375, 
403, 3256879277, 0.6772620677947998, -0.3422805070877075, -0.4590788781642914, -0.461937814950943, 9.51414680480957, -0.6707547307014465, 3.663165807723999, 8.643682479858398, -42.82178497314453, -21.43841552734375, -0.82080078125, 0.189697265625, 0.00146484375, 
404, 3256887610, 0.6754018068313599, -0.34245458245277405, -0.4620276987552643, -0.4615924060344696, 9.48855209350586, -0.5156485438346863, 3.521585464477539, 10.078414916992188, -41.65333938598633, -21.466745376586914, -0.82177734375, 0.18408203125, 0.008544921875, 
405, 3256895943, 0.6735574007034302, -0.3425705134868622, -0.46499383449554443, -0.461222767829895, 9.453455924987793, -0.43529680371284485, 3.445974826812744, 10.955805778503418, -41.42300796508789, -21.571273803710938, -0.81982421875, 0.181396484375, 0.01171875, 
406, 3256904276, 0.6716845035552979, -0.3427177369594574, -0.4679499864578247, -0.460854709148407, 9.400947570800781, -0.3704754710197449, 3.337286949157715, 10.459835052490234, -41.73765563964844, -21.53853988647461, -0.8193359375, 0.177978515625, 0.0205078125, 
407, 3256912609, 0.6697617769241333, -0.34293365478515625, -0.4708540141582489, -0.4605342149734497, 9.405067443847656, -0.2940407693386078, 3.307616710662842, 8.950362205505371, -41.75474548339844, -21.58759307861328, -0.818115234375, 0.17724609375, 0.025634765625, 
408, 3256920942, 0.667782723903656, -0.34323906898498535, -0.4736866056919098, -0.46027588844299316, 9.435067176818848, -0.23202115297317505, 3.312145471572876, 7.009514808654785, -41.76862716674805, -21.619558334350586, -0.819091796875, 0.171875, 0.03076171875, 
409, 3256929275, 0.6657558679580688, -0.34365394711494446, -0.47642290592193604, -0.4600785970687866, 9.473886489868164, -0.2101600021123886, 3.336108446121216, 4.767804145812988, -41.568782806396484, -21.296916961669922, -0.818115234375, 0.168701171875, 0.0361328125, 
410, 3256937608, 0.6636837124824524, -0.34414899349212646, -0.4790360629558563, -0.45998895168304443, 9.463851928710938, -0.09986231476068497, 3.439940929412842, 2.3391478061676025, -40.768455505371094, -21.4796142578125, -0.818603515625, 0.1669921875, 0.0390625, 
411, 3256945941, 0.6616523861885071, -0.34464672207832336, -0.4814397096633911, -0.46003270149230957, 9.427657127380371, -0.020674630999565125, 3.4585909843444824, 0.299943208694458, -37.94178009033203, -21.410579681396484, -0.820068359375, 0.165283203125, 0.046630859375, 
412, 3256954274, 0.6596642732620239, -0.34509891271591187, -0.48366615176200867, -0.46021345257759094, 9.63155460357666, -0.06728930026292801, 3.552095651626587, -1.1047178506851196, -35.13914108276367, -21.865753173828125, -0.818115234375, 0.16064453125, 0.05078125, 
413, 3256962607, 0.6576464176177979, -0.3455162048339844, -0.4857102334499359, -0.4606355130672455, 9.967211723327637, 0.0180843286216259, 3.471888303756714, -3.693603277206421, -32.28509521484375, -23.589359283447266, -0.81591796875, 0.157958984375, 0.0576171875, 
414, 3256970940, 0.6556253433227539, -0.3458813726902008, -0.48742467164993286, -0.46143072843551636, 10.148076057434082, 0.5274693965911865, 3.2292299270629883, -7.812839031219482, -27.25225257873535, -25.78570556640625, -0.831787109375, 0.15283203125, 0.062255859375, 
415, 3256979273, 0.6534641981124878, -0.34636592864990234, -0.4887144863605499, -0.4627668261528015, 10.105305671691895, 1.265049695968628, 3.1630818843841553, -15.881922721862793, -22.519990921020508, -28.710783004760742, -0.818359375, 0.150146484375, 0.063232421875, 
416, 3256987606, 0.6508036255836487, -0.34732407331466675, -0.4895816445350647, -0.4648765027523041, 9.77153205871582, 1.391458511352539, 3.285520553588867, -30.397579193115234, -21.434934616088867, -33.66324996948242, -0.8173828125, 0.144287109375, 0.065185546875, 
417, 3256995939, 0.6474782228469849, -0.34894946217536926, -0.4901347756385803, -0.4677112102508545, 9.380212783813477, 0.9816502928733826, 3.123257875442505, -46.44131851196289, -23.87655258178711, -38.383663177490234, -0.818359375, 0.13916015625, 0.069580078125, 
418, 3257004272, 0.6438072919845581, -0.35089796781539917, -0.4905224144458771, -0.47090351581573486, 9.346867561340332, 0.7742822766304016, 2.8747410774230957, -54.44647979736328, -25.122377395629883, -40.847721099853516, -0.816162109375, 0.13330078125, 0.072021484375, 
419, 3257012605, 0.6401205062866211, -0.35291174054145813, -0.4908471703529358, -0.4740757942199707, 9.54711627960205, 0.638819694519043, 2.9563095569610596, -55.38007354736328, -25.16725730895996, -39.994327545166016, -0.81689453125, 0.1240234375, 0.0751953125, 
420, 3257020938, 0.6365609169006348, -0.3549991548061371, -0.49092257022857666, -0.477221816778183, 9.738128662109375, 0.2576299011707306, 3.0242488384246826, -56.85210418701172, -22.742984771728516, -37.26081848144531, -0.81640625, 0.120361328125, 0.077392578125, 
421, 3257029271, 0.6331335306167603, -0.3571716547012329, -0.4907674491405487, -0.48030978441238403, 9.822710990905762, -0.23091059923171997, 2.8024940490722656, -58.08308792114258, -20.654512405395508, -34.15060806274414, -0.814453125, 0.115966796875, 0.08056640625, 
422, 3257037604, 0.6300053000450134, -0.3591531217098236, -0.49054306745529175, -0.4831661581993103, 9.862085342407227, -0.5163645148277283, 2.6318228244781494, -53.832481384277344, -17.9306697845459, -31.142234802246094, -0.8193359375, 0.107421875, 0.081298828125, 
423, 3257045937, 0.6272258162498474, -0.36088529229164124, -0.49036040902137756, -0.48567062616348267, 9.850289344787598, -0.8108655214309692, 2.5330989360809326, -47.308135986328125, -15.999617576599121, -27.630842208862305, -0.819091796875, 0.100830078125, 0.08544921875, 
424, 3257054270, 0.6248099207878113, -0.36231836676597595, -0.4904043972492218, -0.4876691401004791, 9.90630054473877, -1.0262730121612549, 2.5954484939575195, -37.98936080932617, -16.03733253479004, -24.01287841796875, -0.814697265625, 0.097900390625, 0.087158203125, 
425, 3257062603, 0.6228734850883484, -0.3632515072822571, -0.4906834661960602, -0.4891691505908966, 10.0277738571167, -1.1613388061523438, 2.7283108234405518, -26.37316131591797, -13.93305778503418, -21.030488967895508, -0.813232421875, 0.096435546875, 0.087890625, 
426, 3257070936, 0.6214909553527832, -0.3636792302131653, -0.4910781979560852, -0.49021264910697937, 9.995922088623047, -0.9982293844223022, 2.668170690536499, -15.412144660949707, -10.088504791259766, -17.408493041992188, -0.8134765625, 0.09375, 0.09130859375, 
427, 3257079269, 0.6206105351448059, -0.3637198507785797, -0.49148648977279663, -0.4908883571624756, 9.7720947265625, -0.6492816209793091, 2.62144136428833, -7.022426128387451, -6.022215843200684, -13.54360580444336, -0.814453125, 0.091552734375, 0.08984375, 
428, 3257087602, 0.6199979782104492, -0.3635961711406708, -0.4918656051158905, -0.4913741946220398, 9.46414566040039, -0.3149493336677551, 2.5432820320129395, -3.189305305480957, -3.8235135078430176, -11.09910774230957, -0.8125, 0.08984375, 0.092529296875, 
429, 3257095935, 0.6194499135017395, -0.36351266503334045, -0.4921947419643402, -0.4917971193790436, 9.282499313354492, 0.02712284028530121, 2.5914969444274902, -3.125013828277588, -3.5299746990203857, -9.590892791748047, -0.81396484375, 0.084716796875, 0.09033203125, 
430, 3257104268, 0.6188271045684814, -0.36362069845199585, -0.49240103363990784, -0.4922944903373718, 9.230889320373535, 0.25101932883262634, 2.6396102905273438, -6.461702823638916, -3.9283273220062256, -8.832223892211914, -0.8125, 0.085205078125, 0.09130859375, 
431, 3257112601, 0.6181126832962036, -0.36397576332092285, -0.4923538267612457, -0.4929766058921814, 9.260515213012695, 0.39826861023902893, 2.625765323638916, -11.991384506225586, -3.1237335205078125, -8.070561408996582, -0.81494140625, 0.08447265625, 0.093505859375, 
432, 3257120934, 0.617382287979126, -0.36453384160995483, -0.4920071065425873, -0.4938248097896576, 9.39293098449707, 0.4720357656478882, 2.6476969718933105, -16.948637008666992, -1.2489502429962158, -6.732446670532227, -0.81298828125, 0.08349609375, 0.09375, 
433, 3257129267, 0.6166501641273499, -0.3652513325214386, -0.49137741327285767, -0.4948353171348572, 9.507678031921387, 0.3597472906112671, 2.662324905395508, -21.331619262695312, 0.8890319466590881, -5.610543727874756, -0.81591796875, 0.081787109375, 0.09326171875, 
434, 3257137600, 0.6158843636512756, -0.3660820722579956, -0.4906435012817383, -0.49590224027633667, 9.618008613586426, 0.09397045522928238, 2.6393158435821533, -23.55209732055664, 1.0415650606155396, -5.043266296386719, -0.812744140625, 0.079833984375, 0.092529296875, 
435, 3257145933, 0.6151497960090637, -0.36688220500946045, -0.4899873733520508, -0.4968704581260681, 9.78486156463623, -0.23325927555561066, 2.6688990592956543, -21.94159698486328, 0.3224961757659912, -4.578008651733398, -0.812744140625, 0.08056640625, 0.09326171875, 
436, 3257154266, 0.6146167516708374, -0.3674304485321045, -0.4895229935646057, -0.4975823760032654, 9.982405662536621, -0.43937617540359497, 2.703002452850342, -15.753397941589355, 0.4687789976596832, -3.7119901180267334, -0.811767578125, 0.078369140625, 0.092529296875, 
437, 3257162599, 0.6143724918365479, -0.3676528036594391, -0.48925483226776123, -0.4979832172393799, 10.102126121520996, -0.5159658193588257, 2.7292912006378174, -8.107442855834961, 1.426110863685608, -2.2834579944610596, -0.812255859375, 0.079833984375, 0.091552734375, 
438, 3257170932, 0.6143967509269714, -0.3675970733165741, -0.48916736245155334, -0.49808043241500854, 10.139655113220215, -0.46922457218170166, 2.7254996299743652, -1.115858554840088, 2.0643410682678223, -0.6718869805335999, -0.811767578125, 0.076904296875, 0.092041015625, 
439, 3257179265, 0.6146495342254639, -0.36735156178474426, -0.48922136425971985, -0.4978964924812317, 10.090592384338379, -0.32306772470474243, 2.6794071197509766, 4.50407075881958, 2.2959446907043457, 1.2831834554672241, -0.812744140625, 0.076416015625, 0.091552734375, 
440, 3257187598, 0.6151396632194519, -0.36689963936805725, -0.48938918113708496, -0.4974595308303833, 10.058685302734375, -0.19733233749866486, 2.706636428833008, 9.92719554901123, 3.0548946857452393, 3.0762829780578613, -0.813720703125, 0.077392578125, 0.090087890625, 
441, 3257195931, 0.6158014535903931, -0.366286039352417, -0.48963651061058044, -0.4968491494655609, 10.012236595153809, -0.10908292233943939, 2.728005886077881, 13.872225761413574, 3.7799065113067627, 4.229948997497559, -0.814208984375, 0.079345703125, 0.091064453125, 
442, 3257204264, 0.6165297627449036, -0.36562180519104004, -0.4899428188800812, -0.49613267183303833, 9.86820125579834, 0.07405757158994675, 2.637716054916382, 15.755559921264648, 3.527452230453491, 4.944149971008301, -0.81201171875, 0.082275390625, 0.08984375, 
443, 3257212597, 0.6172327995300293, -0.3649810254573822, -0.4902823269367218, -0.4953942894935608, 9.780132293701172, 0.26782602071762085, 2.646650791168213, 15.80305004119873, 2.8175792694091797, 4.946455001831055, -0.81396484375, 0.081787109375, 0.0888671875, 
444, 3257220930, 0.6179078817367554, -0.3643721044063568, -0.49060070514678955, -0.49468520283699036, 9.697443962097168, 0.3965564966201782, 2.571465492248535, 15.04968547821045, 2.7251884937286377, 4.830602169036865, -0.812744140625, 0.080078125, 0.088134765625, 
445, 3257229263, 0.6185071468353271, -0.363869845867157, -0.49082159996032715, -0.49408671259880066, 9.585983276367188, 0.46439221501350403, 2.5608668327331543, 12.352836608886719, 2.8843040466308594, 4.580427169799805, -0.8154296875, 0.085693359375, 0.090576171875, 
