sep=,
PacketCounter,SampleTimeFine,Quat_W,Quat_X,Quat_Y,Quat_Z,Acc_X,Acc_Y,Acc_Z,Gyr_X,Gyr_Y,Gyr_Z,Mag_X,Mag_Y,Mag_Z,
0, 3283794867, 0.4830764830112457, -0.453366756439209, -0.5110824108123779, -0.5476040840148926, 0, 0, 0, 0, 0, 0, -0.76025390625, -0.101318359375, 0.23828125, 
1, 3283803200, 0.48291435837745667, -0.45352330803871155, -0.5109953284263611, -0.5476987361907959, 9.834355354309082, 1.183512568473816, 0.5750541687011719, -3.8287642002105713, -0.8621237874031067, -0.2924376428127289, -0.7685546875, -0.099609375, 0.238525390625, 
2, 3283811533, 0.48275941610336304, -0.4536808729171753, -0.5108972787857056, -0.5477962493896484, 9.840275764465332, 1.24496328830719, 0.5773152709007263, -3.909090280532837, -0.6593871116638184, -0.20647631585597992, -0.767578125, -0.10205078125, 0.23583984375, 
3, 3283819866, 0.48262226581573486, -0.45381757616996765, -0.5107911825180054, -0.5479029417037964, 9.840505599975586, 1.2336256504058838, 0.6130493879318237, -3.767751455307007, -0.3358282148838043, -0.20496509969234467, -0.76708984375, -0.10107421875, 0.23583984375, 
4, 3283828199, 0.4825179874897003, -0.45392894744873047, -0.5106856822967529, -0.5480007529258728, 9.81509780883789, 1.1756700277328491, 0.5971980094909668, -3.343963861465454, 0.09747496247291565, -0.10407064110040665, -0.76953125, -0.10205078125, 0.235595703125, 
5, 3283836532, 0.48246869444847107, -0.45398879051208496, -0.5106096863746643, -0.5480654239654541, 9.814210891723633, 1.0937684774398804, 0.6000232696533203, -2.1884799003601074, 0.39831411838531494, 0.008516732603311539, -0.76806640625, -0.1015625, 0.23583984375, 
6, 3283844865, 0.48250412940979004, -0.45399168133735657, -0.5105593204498291, -0.5480786561965942, 9.773981094360352, 1.0655089616775513, 0.5968832969665527, -0.7443753480911255, 1.000684142112732, 0.402412474155426, -0.765625, -0.101806640625, 0.23828125, 
7, 3283853198, 0.4825764298439026, -0.45398178696632385, -0.5105207562446594, -0.5480591654777527, 9.752845764160156, 1.1173027753829956, 0.57634037733078, -0.09349196404218674, 1.0053203105926514, 0.7612422704696655, -0.76611328125, -0.1025390625, 0.2373046875, 
8, 3283861531, 0.48269614577293396, -0.4539446532726288, -0.5105215311050415, -0.5479837656021118, 9.72319221496582, 1.190690040588379, 0.5931667685508728, 1.0545507669448853, 1.0019391775131226, 1.0264776945114136, -0.767578125, -0.1015625, 0.23681640625, 
9, 3283869864, 0.4828217625617981, -0.4538945257663727, -0.5105289220809937, -0.547907829284668, 9.688874244689941, 1.2110490798950195, 0.6206448078155518, 1.2494239807128906, 1.0243773460388184, 0.9661561846733093, -0.76806640625, -0.1015625, 0.23486328125, 
10, 3283878197, 0.48291027545928955, -0.4538707435131073, -0.5105302333831787, -0.5478482246398926, 9.652583122253418, 1.2588074207305908, 0.6609298586845398, 0.6653425693511963, 0.776610791683197, 0.7750739455223083, -0.767578125, -0.10107421875, 0.23779296875, 
11, 3283886530, 0.4828924238681793, -0.45391231775283813, -0.5104690790176392, -0.5478866100311279, 9.649800300598145, 1.237062692642212, 0.7231881618499756, -1.5737130641937256, 0.4952128529548645, 0.1993427872657776, -0.76611328125, -0.0986328125, 0.236572265625, 
12, 3283894863, 0.48282089829444885, -0.454017698764801, -0.5103470087051392, -0.5479758977890015, 9.631628036499023, 1.2304002046585083, 0.67330002784729, -3.1654839515686035, 0.42730945348739624, 0.2576408088207245, -0.76953125, -0.10107421875, 0.236083984375, 
13, 3283903196, 0.48273396492004395, -0.45416635274887085, -0.5101873874664307, -0.5480778813362122, 9.581045150756836, 1.2137137651443481, 0.5833839774131775, -3.9051718711853027, 0.25579652190208435, 0.6235144138336182, -0.7705078125, -0.1025390625, 0.239501953125, 
14, 3283911529, 0.48265230655670166, -0.4543670415878296, -0.5100134611129761, -0.548145592212677, 9.615044593811035, 1.1706212759017944, 0.5156328678131104, -4.100839138031006, -0.15322436392307281, 1.318044662475586, -0.763671875, -0.10205078125, 0.2353515625, 
15, 3283919862, 0.48262324929237366, -0.4545665979385376, -0.509823203086853, -0.5481825470924377, 9.702354431152344, 1.1287399530410767, 0.4990512430667877, -3.6544339656829834, 0.07434531301259995, 2.0396230220794678, -0.7646484375, -0.099609375, 0.23583984375, 
16, 3283928195, 0.4826676845550537, -0.4547525644302368, -0.5096178650856018, -0.5481798648834229, 9.735614776611328, 1.130490779876709, 0.46822860836982727, -2.9578804969787598, 0.6134225130081177, 2.830411195755005, -0.759521484375, -0.102294921875, 0.236083984375, 
17, 3283936528, 0.48276036977767944, -0.45492878556251526, -0.5093976855278015, -0.5481569170951843, 9.761144638061523, 1.1668521165847778, 0.45258384943008423, -2.545363187789917, 0.927939772605896, 3.3786075115203857, -0.7685546875, -0.1005859375, 0.236572265625, 
18, 3283944861, 0.48285260796546936, -0.45511242747306824, -0.5091930627822876, -0.5481134057044983, 9.845696449279785, 1.2814390659332275, 0.4875590205192566, -2.3519248962402344, 0.7052239179611206, 3.4384422302246094, -0.7685546875, -0.10205078125, 0.23486328125, 
19, 3283953194, 0.48294317722320557, -0.4552830755710602, -0.5089426636695862, -0.548124372959137, 9.96065616607666, 1.3636094331741333, 0.5242307782173157, -2.985262393951416, 1.3678386211395264, 3.2874975204467773, -0.767578125, -0.10107421875, 0.23486328125, 
20, 3283961527, 0.4829457402229309, -0.45551127195358276, -0.508628249168396, -0.5482245683670044, 10.04103946685791, 1.4300214052200317, 0.549724817276001, -5.042956352233887, 1.3727308511734009, 2.811098337173462, -0.76708984375, -0.0986328125, 0.235595703125, 
21, 3283969860, 0.48284316062927246, -0.45581021904945374, -0.50823974609375, -0.5484264492988586, 10.072049140930176, 1.4197969436645508, 0.6280171275138855, -7.425440311431885, 1.1624125242233276, 2.325683116912842, -0.76708984375, -0.099609375, 0.234619140625, 
22, 3283978193, 0.4826335310935974, -0.45617055892944336, -0.5078070163726807, -0.5487121343612671, 10.146108627319336, 1.2293996810913086, 0.708692729473114, -9.442739486694336, 0.8400316834449768, 1.6439601182937622, -0.77001953125, -0.09814453125, 0.236572265625, 
23, 3283986526, 0.4824444353580475, -0.45649558305740356, -0.5073379874229431, -0.5490418672561646, 10.156042098999023, 1.0587667226791382, 0.5981238484382629, -9.641120910644531, 1.6960082054138184, 1.512431025505066, -0.76904296875, -0.099609375, 0.234619140625, 
24, 3283994859, 0.48231810331344604, -0.456753671169281, -0.5069401860237122, -0.5493057370185852, 10.1001615524292, 0.9721930027008057, 0.5528164505958557, -7.823150157928467, 1.82425856590271, 1.4850236177444458, -0.77001953125, -0.098388671875, 0.232177734375, 
25, 3284003192, 0.48226913809776306, -0.4569483697414398, -0.5066226720809937, -0.5494795441627502, 10.070008277893066, 0.9115409255027771, 0.6146144270896912, -5.664050579071045, 1.6737239360809326, 1.7431640625, -0.7724609375, -0.099853515625, 0.233642578125, 
26, 3284011525, 0.4822958707809448, -0.4570782780647278, -0.5063967108726501, -0.5495564341545105, 10.031007766723633, 0.9806702733039856, 0.6535937190055847, -3.4122774600982666, 1.5466259717941284, 1.9085808992385864, -0.7705078125, -0.09814453125, 0.234130859375, 
27, 3284019858, 0.4824043810367584, -0.45712220668792725, -0.5062716007232666, -0.5495400428771973, 10.017403602600098, 1.018206000328064, 0.6795748472213745, -0.8967800736427307, 1.4376885890960693, 1.9348353147506714, -0.7685546875, -0.09765625, 0.235595703125, 
28, 3284028191, 0.4825761318206787, -0.4570988714694977, -0.506193220615387, -0.5494807958602905, 10.003456115722656, 1.049786925315857, 0.6040544509887695, 0.5807130932807922, 1.878663182258606, 1.9111419916152954, -0.77099609375, -0.099853515625, 0.232666015625, 
29, 3284036524, 0.4827677607536316, -0.45703786611557007, -0.5061706900596619, -0.5493839383125305, 9.963723182678223, 1.056976079940796, 0.6014533042907715, 1.6576380729675293, 1.6246724128723145, 1.7237995862960815, -0.76708984375, -0.097900390625, 0.231689453125, 
30, 3284044857, 0.48292115330696106, -0.4569791853427887, -0.5061616897583008, -0.549306333065033, 9.949969291687012, 1.073764681816101, 0.5777668356895447, 1.3541604280471802, 1.4444762468338013, 1.2112586498260498, -0.77001953125, -0.098388671875, 0.233154296875, 
31, 3284053190, 0.4830353260040283, -0.45695772767066956, -0.5060979127883911, -0.5492824912071228, 9.888681411743164, 1.147151231765747, 0.4442239999771118, 0.08717804402112961, 1.518731951713562, 1.1872581243515015, -0.76806640625, -0.097900390625, 0.232177734375, 
32, 3284061523, 0.48308053612709045, -0.4570082128047943, -0.5060310363769531, -0.5492623448371887, 9.86636734008789, 1.1233396530151367, 0.5084455609321594, -0.8883785009384155, 0.611219584941864, 1.1369774341583252, -0.76806640625, -0.097900390625, 0.232177734375, 
33, 3284069856, 0.4830506443977356, -0.45711225271224976, -0.505933403968811, -0.5492920279502869, 9.848312377929688, 1.0850425958633423, 0.5807780027389526, -2.2792062759399414, 0.12992820143699646, 0.8279674053192139, -0.7705078125, -0.097412109375, 0.233154296875, 
34, 3284078189, 0.4830132722854614, -0.45722419023513794, -0.5058109760284424, -0.5493443012237549, 9.82723617553711, 1.0562350749969482, 0.5224716067314148, -2.7413125038146973, 0.39918503165245056, 0.8087310194969177, -0.76904296875, -0.100830078125, 0.230224609375, 
35, 3284086522, 0.4830276370048523, -0.45729488134384155, -0.5057171583175659, -0.549359142780304, 9.78553581237793, 1.1104638576507568, 0.5536355972290039, -1.6481223106384277, 0.5712870359420776, 1.0075488090515137, -0.76953125, -0.097900390625, 0.232666015625, 
36, 3284094855, 0.48306334018707275, -0.4573345482349396, -0.5056684017181396, -0.549339771270752, 9.734747886657715, 1.1133257150650024, 0.6800780296325684, -0.7455024123191833, 0.5131427645683289, 0.869052529335022, -0.755126953125, -0.09716796875, 0.232421875, 
37, 3284103188, 0.48311978578567505, -0.45734304189682007, -0.5056306719779968, -0.5493177175521851, 9.726508140563965, 1.0821822881698608, 0.6912222504615784, -0.289031058549881, 0.728865921497345, 0.7838340401649475, -0.76953125, -0.0966796875, 0.233154296875, 
38, 3284111521, 0.48321565985679626, -0.4573158323764801, -0.5055849552154541, -0.5492981672286987, 9.709281921386719, 1.0981402397155762, 0.6070259809494019, 0.10282833874225616, 1.4146356582641602, 0.8418245315551758, -0.77001953125, -0.099609375, 0.235107421875, 
39, 3284119854, 0.48334410786628723, -0.4572589099407196, -0.5055857300758362, -0.5492318868637085, 9.673208236694336, 1.1625996828079224, 0.5549429059028625, 1.1962231397628784, 1.1893842220306396, 0.9250965118408203, -0.772216796875, -0.098388671875, 0.233154296875, 
40, 3284128187, 0.4834645986557007, -0.4571996033191681, -0.5056203007698059, -0.5491434335708618, 9.665642738342285, 1.2062736749649048, 0.619908332824707, 1.5543869733810425, 0.8602413535118103, 0.755479097366333, -0.771240234375, -0.09619140625, 0.23388671875, 
41, 3284136520, 0.48357275128364563, -0.45711749792099, -0.5056683421134949, -0.5490723848342896, 9.707051277160645, 1.2143487930297852, 0.6662545800209045, 1.6248005628585815, 0.8958194255828857, 0.3320501446723938, -0.770751953125, -0.094970703125, 0.2314453125, 
42, 3284144853, 0.48362669348716736, -0.4570673108100891, -0.505670964717865, -0.5490642189979553, 9.743409156799316, 1.247405767440796, 0.5660902857780457, 0.27475112676620483, 1.048557162284851, -0.014753800816833973, -0.76806640625, -0.099365234375, 0.232666015625, 
43, 3284153186, 0.48364678025245667, -0.45702990889549255, -0.505643367767334, -0.5491029620170593, 9.75710678100586, 1.2092167139053345, 0.5321428775787354, -0.5573657751083374, 1.1371054649353027, -0.27673619985580444, -0.76611328125, -0.098388671875, 0.231201171875, 
44, 3284161519, 0.48363474011421204, -0.4570363759994507, -0.5056012272834778, -0.5491468906402588, 9.764245986938477, 1.1751195192337036, 0.5786506533622742, -1.2157796621322632, 0.7861905097961426, -0.18237334489822388, -0.769775390625, -0.095947265625, 0.232421875, 
45, 3284169852, 0.4836209714412689, -0.4570532739162445, -0.5055550932884216, -0.5491873025894165, 9.812005043029785, 1.1430811882019043, 0.5633077621459961, -1.2858858108520508, 0.6266138553619385, -0.05143338441848755, -0.7705078125, -0.09619140625, 0.22802734375, 
46, 3284178185, 0.48360970616340637, -0.4570949375629425, -0.5055160522460938, -0.5491986274719238, 9.851095199584961, 1.1384965181350708, 0.6087641716003418, -1.1958516836166382, 0.30123618245124817, 0.26627275347709656, -0.7646484375, -0.09619140625, 0.231689453125, 
47, 3284186518, 0.4835679233074188, -0.45716145634651184, -0.5054770708084106, -0.5492157936096191, 9.895214080810547, 1.0995278358459473, 0.6415098905563354, -1.574173927307129, -0.13683123886585236, 0.1935795545578003, -0.76904296875, -0.096435546875, 0.231201171875, 
48, 3284194851, 0.4835202097892761, -0.457241415977478, -0.5054087042808533, -0.5492541790008545, 9.910361289978027, 1.1181179285049438, 0.6200445890426636, -2.090557336807251, 0.12544572353363037, 0.26168784499168396, -0.7705078125, -0.099365234375, 0.232666015625, 
49, 3284203184, 0.48349517583847046, -0.45729514956474304, -0.5053442716598511, -0.5492908358573914, 9.871889114379883, 1.125421166419983, 0.6386229991912842, -1.7128496170043945, 0.36703920364379883, 0.26074013113975525, -0.76806640625, -0.097412109375, 0.229736328125, 
50, 3284211517, 0.48350250720977783, -0.4573187828063965, -0.5053216814994812, -0.5492855310440063, 9.85630989074707, 1.0799224376678467, 0.7349192500114441, -0.7201954126358032, 0.35333555936813354, 0.28812170028686523, -0.7646484375, -0.09814453125, 0.232177734375, 
51, 3284219850, 0.4834597706794739, -0.4573523998260498, -0.505317211151123, -0.5492992997169495, 9.89034366607666, 1.0198380947113037, 0.7709905505180359, -1.0782313346862793, -0.14571937918663025, -0.23664991557598114, -0.76904296875, -0.097900390625, 0.232666015625, 
52, 3284228183, 0.4833863377571106, -0.4574210047721863, -0.5052631497383118, -0.5493563413619995, 9.8770170211792, 1.0109407901763916, 0.6679262518882751, -2.197061061859131, 0.05229146033525467, -0.22714701294898987, -0.76953125, -0.09814453125, 0.233642578125, 
53, 3284236516, 0.483307421207428, -0.4574885368347168, -0.5052244663238525, -0.5494052171707153, 9.816195487976074, 1.000109076499939, 0.6893866658210754, -2.0341544151306152, -0.20429912209510803, -0.29295000433921814, -0.76611328125, -0.09619140625, 0.233642578125, 
54, 3284244849, 0.4832276999950409, -0.4575447738170624, -0.5051984190940857, -0.549452543258667, 9.840239524841309, 1.0128666162490845, 0.7172378897666931, -1.8745265007019043, -0.145463228225708, -0.4723520874977112, -0.767578125, -0.097900390625, 0.230224609375, 
55, 3284253182, 0.4831962287425995, -0.45754286646842957, -0.5051947832107544, -0.5494851469993591, 9.827977180480957, 1.0001176595687866, 0.6965510249137878, -0.89537113904953, 0.3123784065246582, -0.5291644930839539, -0.76806640625, -0.098388671875, 0.229736328125, 
56, 3284261515, 0.48323026299476624, -0.4574877917766571, -0.5052441358566284, -0.5494557023048401, 9.82938003540039, 0.9978069067001343, 0.7241399884223938, 0.6833236813545227, 0.5016419887542725, -0.3517858684062958, -0.7666015625, -0.097412109375, 0.231689453125, 
57, 3284269848, 0.4832988381385803, -0.4574030637741089, -0.5053110718727112, -0.5494043827056885, 9.853184700012207, 0.997056245803833, 0.6908931136131287, 1.4006505012512207, 0.6381914615631104, -0.2347288429737091, -0.77001953125, -0.098388671875, 0.229736328125, 
58, 3284278181, 0.48341017961502075, -0.45728904008865356, -0.5054059624671936, -0.5493140816688538, 9.9450101852417, 1.0337554216384888, 0.6404170989990234, 2.3282697200775146, 0.7974351644515991, -0.05973239988088608, -0.767578125, -0.096923828125, 0.231201171875, 
59, 3284286514, 0.4835655689239502, -0.45715412497520447, -0.5055172443389893, -0.5491872429847717, 9.950444221496582, 1.0265134572982788, 0.6475914716720581, 3.141291618347168, 0.8507128357887268, 0.2955498993396759, -0.76806640625, -0.095947265625, 0.231689453125, 
60, 3284294847, 0.4837435185909271, -0.45701858401298523, -0.5056418776512146, -0.5490284562110901, 9.974488258361816, 1.1035163402557373, 0.6389915943145752, 3.590846061706543, 0.7961287498474121, 0.5618353486061096, -0.76318359375, -0.097900390625, 0.229736328125, 
61, 3284303180, 0.48391735553741455, -0.4568961262702942, -0.5057557821273804, -0.548872172832489, 9.972570419311523, 1.1864584684371948, 0.6198393106460571, 3.398202419281006, 0.6816588640213013, 0.700280487537384, -0.770751953125, -0.095458984375, 0.23095703125, 
62, 3284311513, 0.4840649664402008, -0.4567888677120209, -0.5058375000953674, -0.5487560033798218, 9.986072540283203, 1.260408639907837, 0.6587731242179871, 2.592787981033325, 0.9230217337608337, 0.5154736638069153, -0.7705078125, -0.09765625, 0.233642578125, 
63, 3284319846, 0.48415517807006836, -0.4567200541496277, -0.5058441162109375, -0.5487276315689087, 9.941822052001953, 1.3296633958816528, 0.6647422909736633, 0.8154932260513306, 1.2133336067199707, 0.2641980051994324, -0.76904296875, -0.095458984375, 0.23193359375, 
64, 3284328179, 0.48416176438331604, -0.4567127823829651, -0.5058180093765259, -0.548751950263977, 9.856789588928223, 1.2799726724624634, 0.6947484612464905, -0.7520340085029602, 0.7899301648139954, -0.10980822145938873, -0.76953125, -0.096435546875, 0.230224609375, 
65, 3284336512, 0.4840877652168274, -0.4567525088787079, -0.5057470202445984, -0.5488495230674744, 9.853564262390137, 1.214966893196106, 0.7236063480377197, -2.397850751876831, 0.5580444931983948, -0.5707619786262512, -0.7685546875, -0.095703125, 0.23291015625, 
66, 3284344845, 0.48401516675949097, -0.4567793607711792, -0.5056827068328857, -0.5489504337310791, 9.841425895690918, 1.1321182250976562, 0.648486316204071, -2.2969822883605957, 0.7171089053153992, -0.7386889457702637, -0.7685546875, -0.098876953125, 0.229248046875, 
67, 3284353178, 0.48400193452835083, -0.4567599594593048, -0.5056312680244446, -0.5490257740020752, 9.75979232788086, 1.039790391921997, 0.6434748768806458, -1.322770357131958, 1.1599534749984741, -0.496070921421051, -0.7685546875, -0.098388671875, 0.232666015625, 
68, 3284361511, 0.4840170741081238, -0.45672667026519775, -0.5056157112121582, -0.5490543246269226, 9.75600528717041, 0.9695249199867249, 0.6771954298019409, -0.4737609326839447, 0.9993777871131897, -0.32017794251441956, -0.76806640625, -0.094970703125, 0.22998046875, 
69, 3284369844, 0.4840521812438965, -0.4566764533519745, -0.5055907368659973, -0.5490881204605103, 9.739546775817871, 0.9893311858177185, 0.659699559211731, -0.32560813426971436, 1.2913542985916138, -0.23731589317321777, -0.768798828125, -0.095703125, 0.234375, 
70, 3284378177, 0.48409807682037354, -0.45662203431129456, -0.5055658221244812, -0.5491159558296204, 9.732272148132324, 1.0406099557876587, 0.605666995048523, -0.20360755920410156, 1.4319766759872437, -0.17143608629703522, -0.76513671875, -0.0986328125, 0.232666015625, 
71, 3284386510, 0.48414626717567444, -0.45658034086227417, -0.5055363178253174, -0.5491352081298828, 9.753323554992676, 1.0796215534210205, 0.5382013916969299, -0.23257724940776825, 1.2547004222869873, 0.04622088000178337, -0.771240234375, -0.097412109375, 0.2333984375, 
72, 3284394843, 0.4842195510864258, -0.4565243124961853, -0.5055115818977356, -0.5491399765014648, 9.743975639343262, 1.0915666818618774, 0.562907338142395, 0.13963600993156433, 1.4901210069656372, 0.17723770439624786, -0.76904296875, -0.096923828125, 0.231201171875, 
73, 3284403176, 0.4842891991138458, -0.4564659595489502, -0.5055186748504639, -0.5491206049919128, 9.751907348632812, 1.0579555034637451, 0.6804428100585938, 0.5574554204940796, 1.0440235137939453, 0.12001549452543259, -0.77001953125, -0.09716796875, 0.233642578125, 
74, 3284411509, 0.48432132601737976, -0.4564354717731476, -0.5055343508720398, -0.5491031408309937, 9.822755813598633, 0.9964839816093445, 0.6930246353149414, 0.17180748283863068, 0.6024595499038696, -0.061704691499471664, -0.76806640625, -0.094482421875, 0.2294921875, 
75, 3284419842, 0.4844003915786743, -0.45637625455856323, -0.5055332183837891, -0.5490835905075073, 9.862303733825684, 1.0533992052078247, 0.5966472625732422, 0.5622965097427368, 1.1688928604125977, 0.23707255721092224, -0.76953125, -0.097412109375, 0.231689453125, 
76, 3284428175, 0.4844954311847687, -0.45632103085517883, -0.5055505037307739, -0.5490298271179199, 9.858963966369629, 1.1445125341415405, 0.6209169626235962, 0.9952282905578613, 0.9869804978370667, 0.4715196192264557, -0.769775390625, -0.095458984375, 0.23046875, 
77, 3284436508, 0.48459354043006897, -0.4562685489654541, -0.5055605173110962, -0.5489776730537415, 9.883026123046875, 1.1870712041854858, 0.6395712494850159, 0.9473809599876404, 0.9724572896957397, 0.5751548409461975, -0.76953125, -0.096435546875, 0.231201171875, 
78, 3284444841, 0.4846920371055603, -0.4562215805053711, -0.5055548548698425, -0.5489348769187927, 9.910527229309082, 1.183345079421997, 0.6706649661064148, 0.7121909856796265, 1.1702759265899658, 0.6273565888404846, -0.768798828125, -0.093994140625, 0.2314453125, 
79, 3284453174, 0.4847797155380249, -0.4561741352081299, -0.5055656433105469, -0.5488869547843933, 9.92190170288086, 1.1577162742614746, 0.7665916085243225, 0.8246631622314453, 0.8830636143684387, 0.4983377456665039, -0.7685546875, -0.097412109375, 0.232666015625, 
80, 3284461507, 0.4848824143409729, -0.4560994505882263, -0.5055842399597168, -0.5488412380218506, 9.90119743347168, 1.114692211151123, 0.7791102528572083, 1.1273465156555176, 1.228702187538147, 0.33315154910087585, -0.770263671875, -0.09326171875, 0.23388671875, 
81, 3284469840, 0.4850034713745117, -0.4560028910636902, -0.5055806636810303, -0.5488177537918091, 9.954408645629883, 1.0684653520584106, 0.6969432234764099, 1.0830081701278687, 1.7359660863876343, 0.3372497856616974, -0.770751953125, -0.096435546875, 0.23095703125, 
82, 3284478173, 0.4851105511188507, -0.45592057704925537, -0.505589485168457, -0.5487834215164185, 9.915030479431152, 1.0822869539260864, 0.597890317440033, 1.052194356918335, 1.4543378353118896, 0.29913583397865295, -0.770263671875, -0.096435546875, 0.22998046875, 
83, 3284486506, 0.48521649837493896, -0.4558379054069519, -0.5055931210517883, -0.5487549304962158, 9.921735763549805, 1.157454013824463, 0.60091632604599, 0.9844189286231995, 1.4469096660614014, 0.30771660804748535, -0.770751953125, -0.094482421875, 0.22998046875, 
84, 3284494839, 0.48529964685440063, -0.45577746629714966, -0.5055952072143555, -0.5487297773361206, 9.856975555419922, 1.2116916179656982, 0.6015684008598328, 0.6429044604301453, 1.2240146398544312, 0.2511347532272339, -0.767578125, -0.096435546875, 0.231201171875, 
85, 3284503172, 0.4853234589099884, -0.45575088262557983, -0.5056012868881226, -0.5487250089645386, 9.824880599975586, 1.2048392295837402, 0.6777032613754272, -0.04910248890519142, 0.5844528079032898, -0.09536179900169373, -0.76611328125, -0.095458984375, 0.228271484375, 
86, 3284511505, 0.4852878451347351, -0.45576322078704834, -0.505592405796051, -0.5487546324729919, 9.83113956451416, 1.136679768562317, 0.6835900545120239, -1.054051399230957, 0.26542752981185913, -0.43613356351852417, -0.76904296875, -0.095458984375, 0.22900390625, 
87, 3284519838, 0.48523950576782227, -0.4557782709598541, -0.5055513978004456, -0.5488227605819702, 9.816473007202148, 1.1114524602890015, 0.6183575987815857, -1.6435885429382324, 0.5397303104400635, -0.5424326658248901, -0.76806640625, -0.097412109375, 0.231201171875, 
88, 3284528171, 0.48521414399147034, -0.45575931668281555, -0.5055446624755859, -0.5488669872283936, 9.808865547180176, 1.1288974285125732, 0.5676639080047607, -0.8643779754638672, 0.6488982439041138, -0.6870250701904297, -0.771240234375, -0.094482421875, 0.23095703125, 
89, 3284536504, 0.4852297008037567, -0.45569998025894165, -0.50556880235672, -0.5488802194595337, 9.798944473266602, 1.0828689336776733, 0.648784339427948, 0.12690570950508118, 0.7687984108924866, -0.6183788180351257, -0.771240234375, -0.095458984375, 0.22998046875, 
90, 3284544837, 0.4852621555328369, -0.4556421637535095, -0.5056096911430359, -0.5488618612289429, 9.783608436584473, 1.0119913816452026, 0.6934323310852051, 0.5504114627838135, 0.6338882446289062, -0.40314242243766785, -0.77001953125, -0.096435546875, 0.23193359375, 
91, 3284553170, 0.4852992296218872, -0.45558497309684753, -0.5056764483451843, -0.548815131187439, 9.764538764953613, 1.0347301959991455, 0.6822021007537842, 0.9855716824531555, 0.24124766886234283, -0.3077550232410431, -0.768798828125, -0.094970703125, 0.2294921875, 
92, 3284561503, 0.48539164662361145, -0.45549172163009644, -0.5057517886161804, -0.5487414598464966, 9.798760414123535, 1.0989805459976196, 0.6403753757476807, 1.8085826635360718, 0.7437988519668579, -0.04177681729197502, -0.770263671875, -0.095947265625, 0.23095703125, 
93, 3284569836, 0.4855049252510071, -0.455378919839859, -0.5058392286300659, -0.5486542582511902, 9.794210433959961, 1.1029502153396606, 0.6444393992424011, 2.271611452102661, 0.798997700214386, 0.020581038668751717, -0.769775390625, -0.093505859375, 0.228515625, 
94, 3284578169, 0.48560941219329834, -0.45526570081710815, -0.5059192180633545, -0.5485820174217224, 9.791948318481445, 1.1465911865234375, 0.5903449654579163, 2.042184591293335, 0.9566788077354431, -0.12868592143058777, -0.769775390625, -0.094482421875, 0.23095703125, 
95, 3284586502, 0.48572224378585815, -0.45514947175979614, -0.5059851408004761, -0.5485177040100098, 9.79544448852539, 1.1915725469589233, 0.5682657957077026, 1.972590684890747, 1.1078540086746216, -0.024410365149378777, -0.76904296875, -0.095947265625, 0.23193359375, 
96, 3284594835, 0.48580992221832275, -0.4550565183162689, -0.506072998046875, -0.5484360456466675, 9.799568176269531, 1.1942832469940186, 0.6307100653648376, 1.9269717931747437, 0.5750524401664734, -0.1015092208981514, -0.767578125, -0.096435546875, 0.230712890625, 
97, 3284603168, 0.48584020137786865, -0.4550066888332367, -0.5061172246932983, -0.5484098792076111, 9.823864936828613, 1.2034801244735718, 0.6021906733512878, 0.5808666944503784, 0.41737112402915955, -0.30342623591423035, -0.77001953125, -0.096435546875, 0.2294921875, 
98, 3284611501, 0.48583099246025085, -0.45497119426727295, -0.5061254501342773, -0.5484398603439331, 9.838470458984375, 1.1940884590148926, 0.5988073945045471, -0.4408978223800659, 0.6996911764144897, -0.677266001701355, -0.770263671875, -0.094970703125, 0.2294921875, 
99, 3284619834, 0.4858008027076721, -0.4549448788166046, -0.5061244368553162, -0.5484894514083862, 9.781505584716797, 1.177729845046997, 0.6206164360046387, -0.8229854702949524, 0.5933921933174133, -0.8216022849082947, -0.76708984375, -0.094970703125, 0.229248046875, 
100, 3284628167, 0.48572808504104614, -0.45494183897972107, -0.5061270594596863, -0.5485536456108093, 9.777832984924316, 1.122931957244873, 0.6575703024864197, -1.3344762325286865, 0.26501768827438354, -1.123671054840088, -0.7666015625, -0.096435546875, 0.229736328125, 
101, 3284636500, 0.4856352210044861, -0.45494580268859863, -0.5061291456222534, -0.5486308336257935, 9.77828311920166, 1.1317763328552246, 0.6513285636901855, -1.5849319696426392, 0.08192712813615799, -1.285527229309082, -0.770263671875, -0.095947265625, 0.2314453125, 
102, 3284644833, 0.48555994033813477, -0.4549335837364197, -0.5061405897140503, -0.5486969947814941, 9.792445182800293, 1.08925461769104, 0.621213972568512, -1.2382944822311401, 0.2685268223285675, -1.2763060331344604, -0.770751953125, -0.096923828125, 0.2294921875, 
103, 3284653166, 0.4855136275291443, -0.45490044355392456, -0.5061728954315186, -0.5487355589866638, 9.79659652709961, 1.1039624214172363, 0.6589632034301758, -0.5493229627609253, 0.243527352809906, -1.123927116394043, -0.7685546875, -0.095947265625, 0.228759765625, 
104, 3284661499, 0.48550286889076233, -0.45485609769821167, -0.5061960816383362, -0.5487605333328247, 9.854264259338379, 1.1375881433486938, 0.6865799427032471, -0.24681876599788666, 0.6249232292175293, -0.8100245594978333, -0.76708984375, -0.096923828125, 0.231201171875, 
105, 3284669832, 0.48552191257476807, -0.4547960162162781, -0.5062131881713867, -0.54877769947052, 9.915664672851562, 1.2835562229156494, 0.7077594995498657, 0.07250109314918518, 0.8677974343299866, -0.5809308290481567, -0.76806640625, -0.096435546875, 0.232177734375, 
106, 3284678165, 0.48555344343185425, -0.45473235845565796, -0.5062234401702881, -0.5487931370735168, 9.94583511352539, 1.3249926567077637, 0.6450719833374023, 0.11742845922708511, 1.0906925201416016, -0.4812658727169037, -0.76904296875, -0.096435546875, 0.229248046875, 
107, 3284686498, 0.4855470359325409, -0.4546954035758972, -0.5062106251716614, -0.5488413572311401, 9.937280654907227, 1.295559287071228, 0.611961305141449, -0.6834646463394165, 0.9105220437049866, -0.6322361826896667, -0.76416015625, -0.097900390625, 0.231201171875, 
108, 3284694831, 0.48548728227615356, -0.4547174870967865, -0.5061678290367126, -0.5489152669906616, 9.933491706848145, 1.2566890716552734, 0.5805705785751343, -1.8312127590179443, 0.5287674069404602, -0.6298027038574219, -0.7705078125, -0.096923828125, 0.228515625, 
109, 3284703164, 0.4853828549385071, -0.4547831118106842, -0.5061174035072327, -0.5489998459815979, 9.859081268310547, 1.2359261512756348, 0.6237394213676453, -2.5180842876434326, -0.06764720380306244, -0.6648687124252319, -0.76904296875, -0.096923828125, 0.230224609375, 
110, 3284711497, 0.48525211215019226, -0.4548620581626892, -0.5060772895812988, -0.5490869283676147, 9.81351089477539, 1.158504843711853, 0.6351973414421082, -2.7285563945770264, -0.33003944158554077, -0.8758019804954529, -0.763671875, -0.09619140625, 0.230712890625, 
111, 3284719830, 0.4851239323616028, -0.4549204111099243, -0.5060412287712097, -0.5491852164268494, 9.789371490478516, 1.0720795392990112, 0.647881269454956, -2.603712797164917, -0.18885374069213867, -1.0760284662246704, -0.77001953125, -0.097412109375, 0.228759765625, 
112, 3284728163, 0.48501837253570557, -0.45495036244392395, -0.5059947967529297, -0.5492962002754211, 9.727595329284668, 1.0465880632400513, 0.5893225073814392, -2.4584286212921143, 0.40984058380126953, -1.1446746587753296, -0.76806640625, -0.097412109375, 0.229248046875, 
113, 3284736496, 0.4849267601966858, -0.4549638032913208, -0.5059531927108765, -0.5494042634963989, 9.67857837677002, 1.066834807395935, 0.5963046550750732, -2.1841256618499756, 0.5023335218429565, -1.1430350542068481, -0.76953125, -0.097900390625, 0.230224609375, 
114, 3284744829, 0.4848101735115051, -0.4550037980079651, -0.5059244632720947, -0.5495006442070007, 9.669669151306152, 1.0305513143539429, 0.6470016837120056, -2.3625800609588623, 0.04691247269511223, -1.1722866296768188, -0.76513671875, -0.095458984375, 0.229736328125, 
115, 3284753162, 0.4847160577774048, -0.4550408720970154, -0.5058801770210266, -0.5495937466621399, 9.665093421936035, 1.0314924716949463, 0.6019664406776428, -2.272955894470215, 0.23007988929748535, -0.8816933035850525, -0.76904296875, -0.096923828125, 0.229736328125, 
116, 3284761495, 0.48463955521583557, -0.4550662636756897, -0.5058497786521912, -0.5496678948402405, 9.657145500183105, 1.0516166687011719, 0.637496292591095, -1.8680973052978516, 0.30971449613571167, -0.8123810291290283, -0.7685546875, -0.098388671875, 0.229736328125, 
117, 3284769828, 0.4845588207244873, -0.4550941586494446, -0.5058342218399048, -0.5497304201126099, 9.680663108825684, 1.0770199298858643, 0.6334858536720276, -1.700324296951294, 0.011283070780336857, -0.819783627986908, -0.7666015625, -0.098388671875, 0.231201171875, 
118, 3284778161, 0.48445776104927063, -0.4551215171813965, -0.5058444738388062, -0.5497874617576599, 9.725197792053223, 1.117199182510376, 0.610466718673706, -1.6092654466629028, -0.2550409138202667, -1.1248490810394287, -0.76611328125, -0.099365234375, 0.229248046875, 
119, 3284786494, 0.48436614871025085, -0.45513319969177246, -0.5058354139328003, -0.5498668551445007, 9.794879913330078, 1.1258670091629028, 0.6565806865692139, -1.727872371673584, 0.11997708678245544, -1.1684318780899048, -0.7666015625, -0.100341796875, 0.22998046875, 
120, 3284794827, 0.4842846393585205, -0.4551391899585724, -0.5058426856994629, -0.5499270558357239, 9.802955627441406, 1.1048344373703003, 0.6599476933479309, -1.3902894258499146, 0.08169659972190857, -1.1278972625732422, -0.767578125, -0.099609375, 0.227783203125, 
121, 3284803160, 0.48421159386634827, -0.4551536440849304, -0.5058484077453613, -0.5499740242958069, 9.8529052734375, 1.04697585105896, 0.7193688750267029, -1.2925325632095337, -0.07288529723882675, -0.884702742099762, -0.7685546875, -0.096435546875, 0.229248046875, 
122, 3284811493, 0.48418325185775757, -0.45517054200172424, -0.5058595538139343, -0.549974799156189, 9.87472152709961, 1.0113977193832397, 0.7568780779838562, -0.6871018409729004, -0.028457412496209145, -0.2796306014060974, -0.76708984375, -0.10009765625, 0.227783203125, 
123, 3284819826, 0.484183669090271, -0.4551791548728943, -0.5058731436729431, -0.5499547719955444, 9.894492149353027, 0.9701186418533325, 0.7652540802955627, -0.26917997002601624, 0.010104815475642681, 0.027445651590824127, -0.76904296875, -0.098876953125, 0.229248046875, 
124, 3284828159, 0.4842067062854767, -0.4551880955696106, -0.5058722496032715, -0.5499279499053955, 9.8457670211792, 1.0412535667419434, 0.6683972477912903, -0.21293115615844727, 0.29713794589042664, 0.31266018748283386, -0.767578125, -0.099365234375, 0.229736328125, 
125, 3284836492, 0.48425230383872986, -0.4551984667778015, -0.5058822631835938, -0.549869954586029, 9.813772201538086, 1.1352348327636719, 0.6680898666381836, 0.23999257385730743, 0.09729565680027008, 0.6566593050956726, -0.76611328125, -0.098388671875, 0.230224609375, 
126, 3284844825, 0.4842674434185028, -0.4552353322505951, -0.5058619976043701, -0.5498447418212891, 9.822526931762695, 1.166828989982605, 0.6997697949409485, -0.6037275195121765, 0.16868257522583008, 0.5564308762550354, -0.77001953125, -0.096435546875, 0.2294921875, 
127, 3284853158, 0.4842716157436371, -0.4552812874317169, -0.5058076977729797, -0.5498530268669128, 9.816254615783691, 1.1763134002685547, 0.7085103392601013, -1.2041507959365845, 0.3836372196674347, 0.5520764589309692, -0.767578125, -0.099853515625, 0.230224609375, 
128, 3284861491, 0.484237402677536, -0.4553501605987549, -0.5057345032691956, -0.5498933792114258, 9.834197998046875, 1.1457985639572144, 0.6619210243225098, -1.9813123941421509, 0.34580498933792114, 0.3008776009082794, -0.7705078125, -0.097900390625, 0.229248046875, 
129, 3284869824, 0.4842226505279541, -0.4554045796394348, -0.505659282207489, -0.5499304533004761, 9.865848541259766, 1.1932934522628784, 0.6678245067596436, -1.7371829748153687, 0.5075588226318359, 0.4068436622619629, -0.7666015625, -0.099853515625, 0.228759765625, 
130, 3284878157, 0.48421531915664673, -0.4554596543312073, -0.5055888295173645, -0.5499561429023743, 9.907658576965332, 1.1750479936599731, 0.7185781598091125, -1.5987892150878906, 0.5282807946205139, 0.4907047152519226, -0.76708984375, -0.0986328125, 0.226806640625, 
131, 3284886490, 0.48418599367141724, -0.45553407073020935, -0.5055306553840637, -0.549973726272583, 9.960758209228516, 1.134965181350708, 0.7119671106338501, -1.698684811592102, 0.01922348327934742, 0.4572780728340149, -0.765625, -0.098876953125, 0.230712890625, 
132, 3284894823, 0.4841903746128082, -0.4555872082710266, -0.5054857134819031, -0.5499672293663025, 9.980425834655762, 1.0547653436660767, 0.7339532375335693, -1.095751404762268, 0.2525947690010071, 0.6221057176589966, -0.7666015625, -0.098876953125, 0.228759765625, 
133, 3284903156, 0.48425358533859253, -0.455594927072525, -0.5054606199264526, -0.5499282479286194, 9.97973918914795, 1.0027570724487305, 0.7216216921806335, -0.029891809448599815, 0.5909075736999512, 0.8624440431594849, -0.7685546875, -0.098876953125, 0.229248046875, 
134, 3284911489, 0.4843721091747284, -0.4555779993534088, -0.5054659247398376, -0.5498329401016235, 9.97778606414795, 0.9951468706130981, 0.6941062808036804, 1.0823678970336914, 0.6852447986602783, 1.2717851400375366, -0.76806640625, -0.098388671875, 0.230712890625, 
135, 3284919822, 0.48450055718421936, -0.45557284355163574, -0.5054636001586914, -0.5497263073921204, 9.947039604187012, 1.018627643585205, 0.6754372119903564, 1.107060194015503, 0.5668046474456787, 1.5754420757293701, -0.767578125, -0.098388671875, 0.229736328125, 
136, 3284928155, 0.4846237301826477, -0.45559507608413696, -0.5054697394371033, -0.5495936274528503, 9.890115737915039, 1.0776784420013428, 0.6429856419563293, 1.1154870986938477, 0.18125911056995392, 1.8218251466751099, -0.76904296875, -0.095947265625, 0.22900390625, 
137, 3284936488, 0.4847477376461029, -0.4556424617767334, -0.505469024181366, -0.5494456887245178, 9.884445190429688, 1.047882080078125, 0.6907261610031128, 1.0279632806777954, -0.1299666166305542, 2.1733548641204834, -0.7666015625, -0.100830078125, 0.22998046875, 
138, 3284944821, 0.4848186671733856, -0.4557359516620636, -0.5054544806480408, -0.5493189096450806, 9.874194145202637, 1.0020267963409424, 0.6744107604026794, 0.11796636134386063, -0.5450965166091919, 2.011857509613037, -0.7646484375, -0.097412109375, 0.228271484375, 
139, 3284953154, 0.48490026593208313, -0.45581942796707153, -0.5054121017456055, -0.5492167472839355, 9.817100524902344, 1.0636847019195557, 0.5384587049484253, -0.10978260636329651, -0.1335269957780838, 2.059217929840088, -0.76416015625, -0.096923828125, 0.228271484375, 
140, 3284961487, 0.4849745035171509, -0.4559227228164673, -0.505362331867218, -0.5491108894348145, 9.746881484985352, 1.146779179573059, 0.5660147070884705, -0.33872267603874207, -0.23070740699768066, 2.185854911804199, -0.7666015625, -0.098876953125, 0.228759765625, 
141, 3284969820, 0.4850117266178131, -0.456068217754364, -0.5053043365478516, -0.5490106344223022, 9.738934516906738, 1.1758155822753906, 0.5998215675354004, -0.9343816041946411, -0.7930935025215149, 2.240157127380371, -0.76953125, -0.097900390625, 0.228271484375, 
142, 3284978153, 0.4850488007068634, -0.4562293291091919, -0.5052261352539062, -0.5489158630371094, 9.756370544433594, 1.1856695413589478, 0.6173858642578125, -1.2494879961013794, -0.6654066443443298, 2.412771463394165, -0.767578125, -0.094970703125, 0.23095703125, 
143, 3284986486, 0.4851120114326477, -0.4563595950603485, -0.505146861076355, -0.548824667930603, 9.76048755645752, 1.123178243637085, 0.6411990523338318, -0.8950383067131042, -0.2985595166683197, 2.403294086456299, -0.7685546875, -0.095947265625, 0.227294921875, 
144, 3284994819, 0.4851824641227722, -0.4564790725708008, -0.5050746202468872, -0.5487295985221863, 9.75464153289795, 1.1313451528549194, 0.6536536812782288, -0.7155080437660217, -0.16098548471927643, 2.341794490814209, -0.76806640625, -0.094482421875, 0.22998046875, 
145, 3285003152, 0.4852936863899231, -0.4565473198890686, -0.5050382614135742, -0.5486078262329102, 9.772562980651855, 1.1230158805847168, 0.6842060089111328, 0.35720327496528625, 0.023501059040427208, 2.267333507537842, -0.76806640625, -0.096923828125, 0.230712890625, 
146, 3285011485, 0.48542681336402893, -0.4565903842449188, -0.5049859285354614, -0.5485025644302368, 9.761037826538086, 1.0719407796859741, 0.6133092641830444, 0.4074072241783142, 0.653892993927002, 2.2255311012268066, -0.7685546875, -0.095947265625, 0.230224609375, 
147, 3285019818, 0.4855581820011139, -0.45664745569229126, -0.504971981048584, -0.5483514070510864, 9.751324653625488, 1.070443034172058, 0.5895744562149048, 0.9337798357009888, -0.0853978618979454, 2.4004509449005127, -0.76708984375, -0.095458984375, 0.229248046875, 
148, 3285028151, 0.48565128445625305, -0.45672672986984253, -0.5049614310264587, -0.5482126474380493, 9.74824333190918, 1.043394684791565, 0.6340247392654419, 0.465372234582901, -0.3864419758319855, 2.135650873184204, -0.767333984375, -0.0927734375, 0.23193359375, 
149, 3285036484, 0.48574328422546387, -0.4567974805831909, -0.5049632787704468, -0.54807049036026, 9.7256441116333, 1.1063345670700073, 0.5704141855239868, 0.649769127368927, -0.5118492841720581, 2.0374972820281982, -0.7646484375, -0.094482421875, 0.229736328125, 
150, 3285044817, 0.4858019948005676, -0.45686501264572144, -0.504996657371521, -0.5479313731193542, 9.765260696411133, 1.0937633514404297, 0.6672796010971069, 0.6597073674201965, -0.8326162695884705, 1.5214470624923706, -0.770263671875, -0.093994140625, 0.232421875, 
151, 3285053150, 0.48580798506736755, -0.45694848895072937, -0.5049874782562256, -0.5478649139404297, 9.807785034179688, 1.0684915781021118, 0.6441996097564697, -0.5821090936660767, -0.6544948816299438, 1.0438696146011353, -0.769287109375, -0.093017578125, 0.2294921875, 
152, 3285061483, 0.48584622144699097, -0.4570083022117615, -0.5049864053726196, -0.5477820634841919, 9.811790466308594, 1.0703656673431396, 0.6224547028541565, -0.06944018602371216, -0.3324471116065979, 1.1536778211593628, -0.768798828125, -0.09326171875, 0.23193359375, 
153, 3285069816, 0.4858965277671814, -0.457054078578949, -0.5049867630004883, -0.547698974609375, 9.82638931274414, 1.0517969131469727, 0.6866586208343506, 0.13377034664154053, -0.23006705939769745, 1.1657679080963135, -0.766357421875, -0.09130859375, 0.23095703125, 
154, 3285078149, 0.48592227697372437, -0.45713359117507935, -0.5049666166305542, -0.5476283431053162, 9.82706356048584, 1.116544485092163, 0.6088287830352783, -0.5037551522254944, -0.36390143632888794, 1.2366681098937988, -0.768310546875, -0.09375, 0.2333984375, 
155, 3285086482, 0.485948771238327, -0.45721256732940674, -0.5049660801887512, -0.5475393533706665, 9.87014389038086, 1.1081041097640991, 0.6322326064109802, -0.20378686487674713, -0.6780856251716614, 1.2603868246078491, -0.768310546875, -0.09130859375, 0.232421875, 
156, 3285094815, 0.4859893023967743, -0.4572831094264984, -0.5049642324447632, -0.5474462509155273, 9.889442443847656, 1.1794179677963257, 0.6238924264907837, -0.05937379598617554, -0.45672738552093506, 1.3202216625213623, -0.766845703125, -0.092529296875, 0.228515625, 
157, 3285103148, 0.4860231578350067, -0.4573284983634949, -0.504974901676178, -0.5473683476448059, 9.901350021362305, 1.1672937870025635, 0.6990902423858643, 0.0753442794084549, -0.3810117840766907, 0.9383136034011841, -0.766845703125, -0.09228515625, 0.2314453125, 
158, 3285111481, 0.48605877161026, -0.45734792947769165, -0.505017101764679, -0.5472815632820129, 9.90427017211914, 1.1558350324630737, 0.7034677863121033, 0.538142204284668, -0.3600080609321594, 0.6103487610816956, -0.766845703125, -0.09228515625, 0.23095703125, 
159, 3285119814, 0.4860505759716034, -0.45738643407821655, -0.5050931572914124, -0.5471864938735962, 9.878934860229492, 1.0697863101959229, 0.7908755540847778, 0.466601699590683, -1.163757085800171, 0.27882373332977295, -0.766357421875, -0.09130859375, 0.23095703125, 
160, 3285128147, 0.48596230149269104, -0.4574638903141022, -0.505150318145752, -0.5471473932266235, 9.85265827178955, 1.0304973125457764, 0.6793145537376404, -0.846601665019989, -1.459294319152832, -0.33188360929489136, -0.767822265625, -0.091552734375, 0.23046875, 
161, 3285136480, 0.48583757877349854, -0.4575570225715637, -0.505233108997345, -0.5471039414405823, 9.812178611755371, 1.001749038696289, 0.6241868138313293, -0.9388898611068726, -2.1054131984710693, -0.6062121391296387, -0.767333984375, -0.093017578125, 0.2294921875, 
162, 3285144813, 0.485653817653656, -0.4577052593231201, -0.5052931308746338, -0.5470878481864929, 9.819605827331543, 1.053985357284546, 0.5525098443031311, -2.0581552982330322, -2.528355598449707, -0.7304155230522156, -0.767822265625, -0.0908203125, 0.232421875, 
163, 3285153146, 0.4854884445667267, -0.45783543586730957, -0.505355954170227, -0.5470674633979797, 9.797879219055176, 1.1413277387619019, 0.5628765821456909, -1.753012776374817, -2.3871700763702393, -0.6833622455596924, -0.766845703125, -0.09228515625, 0.23291015625, 
164, 3285161479, 0.4853690266609192, -0.4579080641269684, -0.5054659843444824, -0.5470109581947327, 9.820942878723145, 1.2400214672088623, 0.6800592541694641, -0.4915883541107178, -2.1009819507598877, -0.8153778910636902, -0.76416015625, -0.09130859375, 0.23388671875, 
165, 3285169812, 0.48528414964675903, -0.4579203724861145, -0.5055914521217346, -0.5469599962234497, 9.844472885131836, 1.292612910270691, 0.7873430252075195, 0.22578945755958557, -1.5524402856826782, -1.0877724885940552, -0.765625, -0.0927734375, 0.232421875, 
166, 3285178145, 0.48519590497016907, -0.45790353417396545, -0.505702018737793, -0.5469502210617065, 9.869339942932129, 1.2608904838562012, 0.7399334907531738, -0.017827507108449936, -0.9204477071762085, -1.5167213678359985, -0.767578125, -0.09423828125, 0.23193359375, 
167, 3285186478, 0.48511114716529846, -0.4578588008880615, -0.5058065056800842, -0.5469662547111511, 9.879929542541504, 1.2180334329605103, 0.5996012687683105, -0.01808365061879158, -0.5606187582015991, -1.7989901304244995, -0.766845703125, -0.09375, 0.23291015625, 
168, 3285194811, 0.4849986433982849, -0.45783019065856934, -0.5059276223182678, -0.5469777584075928, 9.904495239257812, 1.234802007675171, 0.5753368735313416, -0.15985843539237976, -0.9397093653678894, -1.9891248941421509, -0.763671875, -0.09521484375, 0.231689453125, 
169, 3285203144, 0.4848531484603882, -0.45782244205474854, -0.5060545206069946, -0.5469961166381836, 9.905043601989746, 1.2123314142227173, 0.6067624092102051, -0.49440598487854004, -1.3951817750930786, -2.1544389724731445, -0.76513671875, -0.0927734375, 0.23388671875, 
170, 3285211477, 0.48467880487442017, -0.45784175395965576, -0.5061532258987427, -0.5470430850982666, 9.920150756835938, 1.1774961948394775, 0.6253337860107422, -1.2862187623977661, -1.3576058149337769, -2.2159900665283203, -0.766357421875, -0.0927734375, 0.2333984375, 
171, 3285219810, 0.48445144295692444, -0.4578743577003479, -0.5062510371208191, -0.5471265316009521, 9.868317604064941, 1.1055514812469482, 0.6878867745399475, -1.9492688179016113, -1.6653095483779907, -2.738725423812866, -0.766845703125, -0.09375, 0.234375, 
172, 3285228143, 0.4841623902320862, -0.45791858434677124, -0.5063470005989075, -0.547256588935852, 9.812352180480957, 1.0685640573501587, 0.6300434470176697, -2.773944854736328, -1.8007830381393433, -3.440119981765747, -0.765625, -0.09423828125, 0.233642578125, 
173, 3285236476, 0.48382866382598877, -0.45797398686408997, -0.5064650177955627, -0.547396183013916, 9.893004417419434, 1.0798687934875488, 0.5486969351768494, -3.0105435848236084, -2.358123302459717, -3.883195161819458, -0.767578125, -0.095703125, 0.234619140625, 
174, 3285244809, 0.4835827350616455, -0.4579457640647888, -0.5065476894378662, -0.5475606918334961, 9.924241065979004, 1.1421054601669312, 0.5236760973930359, -2.3599419593811035, -0.6498587727546692, -3.766291379928589, -0.76513671875, -0.095458984375, 0.236083984375, 
175, 3285253142, 0.4833208918571472, -0.4578893184661865, -0.5066478252410889, -0.5477463603019714, 9.667104721069336, 1.1721640825271606, 0.52073073387146, -2.269446849822998, -0.606545090675354, -4.314717769622803, -0.76611328125, -0.0966796875, 0.233642578125, 
176, 3285261475, 0.4830023944377899, -0.45787757635116577, -0.5067427158355713, -0.5479492545127869, 9.605539321899414, 1.336408019065857, 0.5108762979507446, -3.104778528213501, -1.1170625686645508, -4.529032230377197, -0.763671875, -0.09716796875, 0.234619140625, 
177, 3285269808, 0.4826430678367615, -0.45789003372192383, -0.5067903399467468, -0.5482112765312195, 9.68970012664795, 1.5014019012451172, 0.5988329648971558, -4.268099784851074, -0.9756463170051575, -4.744857311248779, -0.76416015625, -0.09765625, 0.234130859375, 
178, 3285278141, 0.48224467039108276, -0.4578876495361328, -0.5067896246910095, -0.5485645532608032, 9.754568099975586, 1.470895528793335, 0.6823299527168274, -5.435943603515625, -0.1630474478006363, -5.4606614112854, -0.76416015625, -0.10107421875, 0.2333984375, 
179, 3285286474, 0.48180466890335083, -0.4578845202922821, -0.5067499876022339, -0.5489902496337891, 9.799177169799805, 1.327764630317688, 0.7476314306259155, -6.471333980560303, 0.18802130222320557, -5.999417304992676, -0.76611328125, -0.0986328125, 0.234619140625, 
180, 3285294807, 0.4813315272331238, -0.4578852653503418, -0.5066993236541748, -0.5494511723518372, 9.873553276062012, 1.1684311628341675, 0.7569136023521423, -7.055160045623779, 0.3008520305156708, -6.399127960205078, -0.76513671875, -0.10107421875, 0.23291015625, 
181, 3285303140, 0.48087847232818604, -0.45784956216812134, -0.5066748857498169, -0.5499002933502197, 9.925296783447266, 0.9913811683654785, 0.7479515075683594, -6.386653900146484, 0.39032256603240967, -6.57496976852417, -0.763671875, -0.10107421875, 0.23486328125, 
182, 3285311473, 0.48044705390930176, -0.4577869772911072, -0.5066767930984497, -0.5503271222114563, 9.9429349899292, 0.8721485733985901, 0.7156428098678589, -5.743018627166748, 0.5064318776130676, -6.631960391998291, -0.7646484375, -0.102294921875, 0.23291015625, 
183, 3285319806, 0.480012446641922, -0.45775532722473145, -0.5066527128219604, -0.5507547855377197, 9.942560195922852, 0.838559627532959, 0.6781159043312073, -6.1455464363098145, 0.35154256224632263, -6.26718807220459, -0.762939453125, -0.10498046875, 0.234130859375, 
184, 3285328139, 0.4795968234539032, -0.45774567127227783, -0.506601095199585, -0.551172137260437, 9.8932466506958, 0.9519045948982239, 0.4988194704055786, -6.326767921447754, 0.509300708770752, -5.746246814727783, -0.763671875, -0.10498046875, 0.234619140625, 
185, 3285336472, 0.4792192578315735, -0.4576961398124695, -0.5066280961036682, -0.5515167713165283, 9.825104713439941, 1.0816216468811035, 0.47462183237075806, -4.703619003295898, 0.023603519424796104, -5.734387397766113, -0.762451171875, -0.106201171875, 0.232666015625, 
186, 3285344805, 0.4788552224636078, -0.45764049887657166, -0.5066704154014587, -0.5518401861190796, 9.845130920410156, 1.1866741180419922, 0.5575904846191406, -4.331801891326904, 0.00564793823286891, -5.647375106811523, -0.764892578125, -0.107177734375, 0.233642578125, 
187, 3285353138, 0.47848212718963623, -0.4576035141944885, -0.5066125988960266, -0.5522475242614746, 9.857065200805664, 1.324220061302185, 0.6004572510719299, -5.837613582611084, 0.913365364074707, -5.493972301483154, -0.762451171875, -0.107666015625, 0.233154296875, 
188, 3285361471, 0.4780585765838623, -0.4576018452644348, -0.5064737796783447, -0.5527427196502686, 9.84369945526123, 1.457582712173462, 0.6518415212631226, -7.634578704833984, 1.4564894437789917, -5.712665557861328, -0.763427734375, -0.108642578125, 0.232666015625, 
189, 3285369804, 0.47754955291748047, -0.45766979455947876, -0.5062432885169983, -0.553337574005127, 9.893702507019043, 1.5271387100219727, 0.718562662601471, -10.002154350280762, 1.4847933053970337, -5.941273212432861, -0.759521484375, -0.109619140625, 0.2314453125, 
190, 3285378137, 0.477012574672699, -0.45776042342185974, -0.5059515237808228, -0.5539921522140503, 10.017407417297363, 1.5018203258514404, 0.7445172667503357, -11.228565216064453, 1.972078561782837, -6.0157341957092285, -0.763427734375, -0.11181640625, 0.22998046875, 
191, 3285386470, 0.4764997065067291, -0.45782655477523804, -0.505603015422821, -0.5546965599060059, 10.054372787475586, 1.4206568002700806, 0.7407572269439697, -11.67407512664795, 2.935225486755371, -5.958845615386963, -0.764404296875, -0.110595703125, 0.23193359375, 
192, 3285394803, 0.47602635622024536, -0.4578463137149811, -0.5052779912948608, -0.5553824305534363, 10.104565620422363, 1.2895622253417969, 0.7258298993110657, -10.834773063659668, 3.369079828262329, -6.019731044769287, -0.75732421875, -0.113525390625, 0.230712890625, 
193, 3285403136, 0.47560206055641174, -0.4578171670436859, -0.5050159096717834, -0.5560080409049988, 10.062403678894043, 1.2180869579315186, 0.8429712057113647, -9.284700393676758, 3.2179806232452393, -5.971446990966797, -0.760009765625, -0.1142578125, 0.226806640625, 
194, 3285411469, 0.4752137064933777, -0.45772629976272583, -0.5048375725746155, -0.5565764307975769, 10.103744506835938, 1.120428442955017, 0.9389744400978088, -7.637936115264893, 3.104945421218872, -6.291189670562744, -0.759765625, -0.116943359375, 0.230712890625, 
195, 3285419802, 0.4748777151107788, -0.4575628638267517, -0.5046470761299133, -0.5571702122688293, 10.062278747558594, 1.0272787809371948, 0.8910570740699768, -7.083540916442871, 4.190271377563477, -6.471334934234619, -0.760498046875, -0.115234375, 0.228271484375, 
196, 3285428135, 0.47460123896598816, -0.4573582708835602, -0.504490315914154, -0.5577151775360107, 9.962838172912598, 1.0381362438201904, 0.8095581531524658, -5.863022327423096, 4.461705684661865, -6.209352493286133, -0.759765625, -0.115234375, 0.226318359375, 
197, 3285436468, 0.4743773341178894, -0.45711517333984375, -0.5043451189994812, -0.5582362413406372, 9.902450561523438, 1.152148723602295, 0.6588580012321472, -5.005636692047119, 4.824146747589111, -5.976698398590088, -0.759765625, -0.11865234375, 0.22705078125, 
198, 3285444801, 0.4741785228252411, -0.45686081051826477, -0.5042208433151245, -0.5587252974510193, 9.859492301940918, 1.200027585029602, 0.5802377462387085, -4.411514759063721, 4.818665027618408, -5.799806118011475, -0.759765625, -0.1181640625, 0.227294921875, 
199, 3285453134, 0.4739622175693512, -0.4566314220428467, -0.5041187405586243, -0.5591884851455688, 9.815508842468262, 1.118121862411499, 0.6015394926071167, -4.316497802734375, 4.125735759735107, -5.716725826263428, -0.75830078125, -0.120361328125, 0.224609375, 
200, 3285461467, 0.47372931241989136, -0.45644423365592957, -0.5040267109870911, -0.5596213936805725, 9.752525329589844, 1.0708098411560059, 0.5261090993881226, -4.427319049835205, 3.503835916519165, -5.431807518005371, -0.76123046875, -0.119873046875, 0.22412109375, 
201, 3285469800, 0.4735163748264313, -0.4562637209892273, -0.5039176940917969, -0.5600467324256897, 9.707011222839355, 1.1552042961120605, 0.5017979741096497, -4.404854774475098, 3.5818562507629395, -5.061809062957764, -0.76123046875, -0.121337890625, 0.2236328125, 
202, 3285478133, 0.4733021855354309, -0.4561096727848053, -0.5037863254547119, -0.5604715347290039, 9.617961883544922, 1.2583988904953003, 0.499932199716568, -4.771882057189941, 3.5839316844940186, -4.760534286499023, -0.759765625, -0.120849609375, 0.22314453125, 
203, 3285486466, 0.4730646014213562, -0.4559868276119232, -0.5036472678184509, -0.5608967542648315, 9.550909042358398, 1.252334713935852, 0.486518532037735, -5.1663408279418945, 3.162065029144287, -4.662995338439941, -0.7578125, -0.122802734375, 0.222412109375, 
204, 3285494799, 0.47279345989227295, -0.45590460300445557, -0.5035011768341064, -0.5613232851028442, 9.534149169921875, 1.1808890104293823, 0.4949232041835785, -5.722707271575928, 2.7433745861053467, -4.6205267906188965, -0.76123046875, -0.12158203125, 0.220703125, 
205, 3285503132, 0.4725063443183899, -0.4558630883693695, -0.5033305883407593, -0.5617515444755554, 9.512715339660645, 1.1656607389450073, 0.47994735836982727, -6.268009662628174, 2.4155123233795166, -4.302961826324463, -0.7607421875, -0.123046875, 0.22119140625, 
206, 3285511465, 0.4722336530685425, -0.455855131149292, -0.5031576156616211, -0.5621418952941895, 9.512443542480469, 1.2059273719787598, 0.4986066520214081, -6.17313289642334, 2.1086533069610596, -3.715703248977661, -0.7626953125, -0.12255859375, 0.2216796875, 
207, 3285519798, 0.4720154404640198, -0.4558403491973877, -0.5030345916748047, -0.5624472498893738, 9.533409118652344, 1.2478944063186646, 0.5969886183738708, -4.793191909790039, 1.6073060035705566, -3.086233377456665, -0.7607421875, -0.12451171875, 0.221435546875, 
208, 3285528131, 0.4718462824821472, -0.4558119475841522, -0.5029370784759521, -0.5626991987228394, 9.647804260253906, 1.2462661266326904, 0.7370036840438843, -3.8521251678466797, 1.6269779205322266, -2.629711151123047, -0.759765625, -0.12451171875, 0.219970703125, 
209, 3285536464, 0.47175440192222595, -0.4557456970214844, -0.5028440952301025, -0.5629130601882935, 9.732507705688477, 1.2059284448623657, 0.7951278686523438, -2.800737142562866, 2.109600782394409, -2.059281826019287, -0.756103515625, -0.125, 0.219970703125, 
210, 3285544797, 0.471752405166626, -0.455647736787796, -0.5027439594268799, -0.5630835294723511, 9.782837867736816, 1.2106658220291138, 0.6366410255432129, -1.809671401977539, 2.8270561695098877, -1.2745132446289062, -0.76123046875, -0.12841796875, 0.221435546875, 
211, 3285553130, 0.47182905673980713, -0.4555317163467407, -0.5026860237121582, -0.5631647706031799, 9.779973983764648, 1.1921794414520264, 0.640984833240509, -0.232321098446846, 2.601829767227173, -0.4559333920478821, -0.76171875, -0.12646484375, 0.221435546875, 
212, 3285561463, 0.47187861800193787, -0.4554966688156128, -0.5026293396949768, -0.5632023215293884, 9.837181091308594, 1.124104619026184, 0.5070290565490723, -0.6386653184890747, 1.5824601650238037, 0.14959992468357086, -0.76123046875, -0.126953125, 0.218994140625, 
213, 3285569796, 0.47196751832962036, -0.4554893672466278, -0.5025684237480164, -0.5631880760192871, 9.836567878723145, 1.197257161140442, 0.3378073275089264, -0.22607123851776123, 1.2662781476974487, 1.0267081260681152, -0.755126953125, -0.12841796875, 0.21875, 
214, 3285578129, 0.4720025360584259, -0.45558175444602966, -0.5025544166564941, -0.5630966424942017, 9.76932430267334, 1.3698338270187378, 0.4362947940826416, -0.3341633081436157, -0.5891017317771912, 1.4870471954345703, -0.76416015625, -0.1240234375, 0.2197265625, 
215, 3285586462, 0.47194936871528625, -0.45578280091285706, -0.5024895668029785, -0.5630363821983337, 9.770720481872559, 1.4647589921951294, 0.5089057087898254, -2.180232286453247, -1.5921039581298828, 1.6893993616104126, -0.7607421875, -0.126708984375, 0.218505859375, 
216, 3285594795, 0.4718780517578125, -0.4560251533985138, -0.5023456811904907, -0.5630283355712891, 9.788573265075684, 1.5049394369125366, 0.5036252737045288, -3.559610605239868, -1.1183432340621948, 1.9723345041275024, -0.76025390625, -0.12646484375, 0.218505859375, 
217, 3285603128, 0.47181224822998047, -0.45627501606941223, -0.5021779537200928, -0.563030481338501, 9.756904602050781, 1.4481151103973389, 0.6082562208175659, -3.8030223846435547, -0.9980843663215637, 2.1707682609558105, -0.76025390625, -0.125, 0.219970703125, 
218, 3285611461, 0.47176453471183777, -0.45652154088020325, -0.5020076632499695, -0.5630223751068115, 9.711690902709961, 1.2883965969085693, 0.6665342450141907, -3.6396806240081787, -0.8156340718269348, 2.3488638401031494, -0.75927734375, -0.12548828125, 0.218017578125, 
219, 3285619794, 0.4717503488063812, -0.45678016543388367, -0.5018450617790222, -0.5629695653915405, 9.683331489562988, 1.130456805229187, 0.680147647857666, -3.118379831314087, -1.0877598524093628, 2.9553322792053223, -0.76171875, -0.125244140625, 0.218017578125, 
220, 3285628127, 0.4717791676521301, -0.4570560157299042, -0.5017428398132324, -0.5628125667572021, 9.680622100830078, 1.099034309387207, 0.6258836388587952, -1.7948919534683228, -1.889664649963379, 3.684159278869629, -0.759765625, -0.125, 0.220947265625, 
221, 3285636460, 0.47183993458747864, -0.4573196768760681, -0.5017244219779968, -0.5625638365745544, 9.668669700622559, 1.1449371576309204, 0.6335384845733643, -0.2111637443304062, -2.7764806747436523, 3.934051990509033, -0.75927734375, -0.12353515625, 0.218994140625, 
222, 3285644793, 0.47191452980041504, -0.45757782459259033, -0.5017528533935547, -0.562265932559967, 9.632890701293945, 1.2313768863677979, 0.6258763670921326, 0.5910612344741821, -3.1707348823547363, 4.006539821624756, -0.76171875, -0.12255859375, 0.220703125, 
223, 3285653126, 0.4719662368297577, -0.45783448219299316, -0.5018190145492554, -0.56195467710495, 9.61904525756836, 1.281606674194336, 0.7481042146682739, 0.8619830012321472, -3.7250781059265137, 3.691408157348633, -0.751708984375, -0.125244140625, 0.22021484375, 
224, 3285661459, 0.47191759943962097, -0.4581151306629181, -0.5018692016601562, -0.5617218017578125, 9.716564178466797, 1.264212965965271, 0.7374195456504822, -0.6110020279884338, -3.926252841949463, 2.6512398719787598, -0.7607421875, -0.12255859375, 0.22021484375, 
225, 3285669792, 0.4718683063983917, -0.45835092663764954, -0.501918375492096, -0.5615268349647522, 9.65023422241211, 1.2282826900482178, 0.6333890557289124, -0.5708132386207581, -3.4209089279174805, 2.117464780807495, -0.76025390625, -0.1240234375, 0.220458984375, 
226, 3285678125, 0.47182390093803406, -0.45858263969421387, -0.5020285248756409, -0.5612764358520508, 9.661238670349121, 1.1318997144699097, 0.7265332341194153, 0.3170657753944397, -4.0186686515808105, 2.0806829929351807, -0.75927734375, -0.124267578125, 0.222900390625, 
227, 3285686458, 0.4718039333820343, -0.4588112235069275, -0.5021003484725952, -0.5610421299934387, 9.733036994934082, 1.1015698909759521, 0.6713125109672546, 0.10661926120519638, -3.557023286819458, 2.407546043395996, -0.76171875, -0.121337890625, 0.2236328125, 
228, 3285694791, 0.4718605875968933, -0.45900478959083557, -0.5022228956222534, -0.5607264041900635, 9.71054744720459, 1.1743535995483398, 0.6380372047424316, 1.748799204826355, -3.5188069343566895, 2.9428069591522217, -0.7626953125, -0.121337890625, 0.22314453125, 
229, 3285703124, 0.471975177526474, -0.4591601490974426, -0.5024017691612244, -0.56034255027771, 9.748032569885254, 1.2708630561828613, 0.6867585778236389, 3.287318229675293, -3.701846122741699, 3.2320938110351562, -0.76123046875, -0.119873046875, 0.224609375, 
230, 3285711457, 0.47212186455726624, -0.4592748284339905, -0.502591609954834, -0.5599544048309326, 9.86752986907959, 1.3610939979553223, 0.7137739658355713, 3.848039388656616, -3.1834909915924072, 3.139011859893799, -0.76025390625, -0.12158203125, 0.220703125, 
231, 3285719790, 0.4722856879234314, -0.4593666195869446, -0.5027323365211487, -0.5596145987510681, 9.93342399597168, 1.3569127321243286, 0.7445963025093079, 3.4132375717163086, -2.344778299331665, 3.128228187561035, -0.75634765625, -0.11962890625, 0.2265625, 
232, 3285728123, 0.4724231958389282, -0.4594617784023285, -0.5028504133224487, -0.5593141913414001, 9.951889991760254, 1.3563796281814575, 0.7722855806350708, 2.757385492324829, -2.0765204429626465, 2.8149919509887695, -0.7607421875, -0.119384765625, 0.22412109375, 
233, 3285736456, 0.47257083654403687, -0.4595395624637604, -0.5029387474060059, -0.5590460896492004, 9.953503608703613, 1.363559365272522, 0.6904590129852295, 2.504777193069458, -1.5580112934112549, 2.7703709602355957, -0.7607421875, -0.119873046875, 0.22607421875, 
234, 3285744789, 0.47271785140037537, -0.4596230387687683, -0.503040611743927, -0.558761477470398, 9.954753875732422, 1.3754816055297852, 0.7072440385818481, 2.6585142612457275, -1.715590238571167, 2.8100481033325195, -0.7607421875, -0.119873046875, 0.22607421875, 
235, 3285753122, 0.4727843999862671, -0.45976436138153076, -0.5031569004058838, -0.5584841966629028, 9.906167984008789, 1.3490831851959229, 0.7823144197463989, 1.8578389883041382, -2.8468685150146484, 2.470864772796631, -0.76171875, -0.119384765625, 0.2236328125, 
236, 3285761455, 0.4727407395839691, -0.4599626362323761, -0.5032630562782288, -0.5582622289657593, 9.930813789367676, 1.3462737798690796, 0.7551392912864685, 0.3068200647830963, -3.5499022006988525, 1.7027446031570435, -0.75830078125, -0.116455078125, 0.230712890625, 
237, 3285769788, 0.4726938307285309, -0.46013182401657104, -0.5033457279205322, -0.5580878853797913, 9.911543846130371, 1.3415595293045044, 0.7677475214004517, -0.01032253634184599, -2.9749650955200195, 1.3377161026000977, -0.759765625, -0.1162109375, 0.227783203125, 
238, 3285778121, 0.47261905670166016, -0.4602908492088318, -0.5033992528915405, -0.5579718947410583, 9.883293151855469, 1.2744855880737305, 0.8747550249099731, -0.7703225016593933, -2.453075408935547, 0.8369579315185547, -0.7607421875, -0.11669921875, 0.226806640625, 
239, 3285786454, 0.4725107252597809, -0.4604719281196594, -0.5033786296844482, -0.5579327940940857, 9.895275115966797, 1.2015535831451416, 0.6849138736724854, -2.206563711166382, -1.963792085647583, 0.7228208780288696, -0.75927734375, -0.11572265625, 0.227294921875, 
240, 3285794787, 0.4724491238594055, -0.4606117308139801, -0.5033931136131287, -0.5578564405441284, 9.932424545288086, 1.1340500116348267, 0.621063232421875, -1.1361706256866455, -1.7103393077850342, 0.7950274348258972, -0.759765625, -0.1201171875, 0.22705078125, 
241, 3285803120, 0.4724501371383667, -0.4607136845588684, -0.5034279823303223, -0.5577399134635925, 9.903878211975098, 1.0744974613189697, 0.6475328207015991, -0.03785783797502518, -1.4503546953201294, 1.1654348373413086, -0.7587890625, -0.1162109375, 0.229248046875, 
242, 3285811453, 0.47251972556114197, -0.4607754945755005, -0.5035010576248169, -0.5575639605522156, 9.862566947937012, 1.083652377128601, 0.6261333227157593, 1.3403288125991821, -1.2159589529037476, 1.536636233329773, -0.76123046875, -0.11669921875, 0.228271484375, 
243, 3285819786, 0.4726283550262451, -0.4608003497123718, -0.503616452217102, -0.5573471188545227, 9.82582950592041, 1.1972101926803589, 0.6379663348197937, 2.4572887420654297, -1.2737958431243896, 1.598136067390442, -0.75830078125, -0.11767578125, 0.22998046875, 
244, 3285828119, 0.4727603495121002, -0.4607960283756256, -0.5037481188774109, -0.5571197867393494, 9.823514938354492, 1.2975759506225586, 0.6882045865058899, 2.9713666439056396, -0.9825621843338013, 1.5199358463287354, -0.7568359375, -0.115478515625, 0.230224609375, 
245, 3285836452, 0.472866952419281, -0.46077483892440796, -0.503866970539093, -0.5569393634796143, 9.808475494384766, 1.3223446607589722, 0.732728898525238, 2.5173287391662598, -0.7276492714881897, 1.0040652751922607, -0.7587890625, -0.1171875, 0.228759765625, 
246, 3285844785, 0.47290828824043274, -0.46079182624816895, -0.5039128661155701, -0.556848406791687, 9.818750381469727, 1.301445722579956, 0.7330374121665955, 0.6565056443214417, -0.3530409634113312, 0.6304559111595154, -0.759765625, -0.115234375, 0.227783203125, 
247, 3285853118, 0.4729052484035492, -0.4608212411403656, -0.5039175748825073, -0.5568225383758545, 9.82244873046875, 1.3295775651931763, 0.6370536684989929, -0.45201435685157776, -0.15307065844535828, 0.23364022374153137, -0.75927734375, -0.117919921875, 0.230712890625, 
248, 3285861451, 0.4729048013687134, -0.46082091331481934, -0.5039473176002502, -0.5567961931228638, 9.816167831420898, 1.3275104761123657, 0.6444997787475586, -0.07020861655473709, 0.005058811511844397, -0.12732836604118347, -0.76123046875, -0.11767578125, 0.230712890625, 
249, 3285869784, 0.47291290760040283, -0.4608035087585449, -0.5039739012718201, -0.556779682636261, 9.857504844665527, 1.2808023691177368, 0.6801280975341797, 0.026856524869799614, 0.20003436505794525, -0.2041710764169693, -0.760498046875, -0.114990234375, 0.230712890625, 
250, 3285878117, 0.47294023633003235, -0.4607628583908081, -0.5040243268013, -0.5567443370819092, 9.849529266357422, 1.2429280281066895, 0.7130025625228882, 0.5886791348457336, 0.3109952211380005, -0.26889821887016296, -0.7607421875, -0.116943359375, 0.231201171875, 
251, 3285886450, 0.4729703664779663, -0.46071508526802063, -0.5040676593780518, -0.5567191243171692, 9.850050926208496, 1.2694507837295532, 0.6688265800476074, 0.5516921877861023, 0.4225964844226837, -0.2947942614555359, -0.759765625, -0.1162109375, 0.229248046875, 
252, 3285894783, 0.47303202748298645, -0.4606477618217468, -0.5040725469589233, -0.5567179918289185, 9.865209579467773, 1.2787851095199585, 0.5947446823120117, 0.39623939990997314, 1.2677381038665771, -0.1216932162642479, -0.75830078125, -0.11572265625, 0.229248046875, 
253, 3285903116, 0.47310513257980347, -0.4605860710144043, -0.504073441028595, -0.5567061901092529, 9.834415435791016, 1.242098331451416, 0.6085782051086426, 0.49677523970603943, 1.1866692304611206, 0.11730039119720459, -0.75830078125, -0.1171875, 0.22900390625, 
254, 3285911449, 0.4731826186180115, -0.46053028106689453, -0.5040557384490967, -0.5567025542259216, 9.847490310668945, 1.2363617420196533, 0.5704034566879272, 0.26563242077827454, 1.4200403690338135, 0.23802027106285095, -0.75927734375, -0.11669921875, 0.228759765625, 
255, 3285919782, 0.4732610285282135, -0.4604797065258026, -0.5040236115455627, -0.5567067265510559, 9.874601364135742, 1.2935630083084106, 0.5151119828224182, 0.09445248544216156, 1.4548500776290894, 0.34057968854904175, -0.75927734375, -0.115234375, 0.229736328125, 
256, 3285928115, 0.4733361005783081, -0.46044692397117615, -0.5039862990379333, -0.5567036867141724, 9.878225326538086, 1.354254961013794, 0.5237454175949097, -0.05304707959294319, 1.358975887298584, 0.5007966756820679, -0.761474609375, -0.11474609375, 0.228271484375, 
257, 3285936448, 0.4733509421348572, -0.46046197414398193, -0.5039213299751282, -0.5567375421524048, 9.870100975036621, 1.3892749547958374, 0.575131356716156, -1.193904995918274, 0.91400545835495, 0.32436585426330566, -0.7587890625, -0.115966796875, 0.230224609375, 
258, 3285944781, 0.4733114540576935, -0.4605213701725006, -0.5038039684295654, -0.5568281412124634, 9.909818649291992, 1.354647159576416, 0.5584045052528381, -2.6390089988708496, 0.9750185608863831, 0.160434752702713, -0.760986328125, -0.1142578125, 0.229248046875, 
259, 3285953114, 0.4732401371002197, -0.46059638261795044, -0.5036520957946777, -0.5569641590118408, 9.861634254455566, 1.3098571300506592, 0.5656063556671143, -3.5016446113586426, 1.069227695465088, -0.0345279835164547, -0.7578125, -0.11669921875, 0.228759765625, 
260, 3285961447, 0.4731437563896179, -0.46070319414138794, -0.5034881234169006, -0.557106077671051, 9.81102466583252, 1.225968360900879, 0.6040970683097839, -4.023099422454834, 0.8452312350273132, 0.013690806925296783, -0.760498046875, -0.11572265625, 0.228759765625, 
261, 3285969780, 0.47308027744293213, -0.4607815146446228, -0.5033153891563416, -0.5572512149810791, 9.797029495239258, 1.216973900794983, 0.5817642211914062, -3.6956725120544434, 1.2929167747497559, 0.12275620549917221, -0.76025390625, -0.11669921875, 0.228271484375, 
262, 3285978113, 0.4730471670627594, -0.46084022521972656, -0.5031759738922119, -0.557356595993042, 9.785049438476562, 1.2272151708602905, 0.6231771111488342, -2.8674368858337402, 1.2599002122879028, 0.24680598080158234, -0.7568359375, -0.11669921875, 0.228515625, 
263, 3285986446, 0.47303494811058044, -0.4608668088912964, -0.5030485987663269, -0.5574600696563721, 9.803733825683594, 1.1717411279678345, 0.7169989943504333, -2.3986194133758545, 1.4843577146530151, 0.1405325084924698, -0.75390625, -0.113525390625, 0.229736328125, 
264, 3285994779, 0.4730150103569031, -0.46088510751724243, -0.5029126405715942, -0.557584285736084, 9.820491790771484, 1.1635496616363525, 0.6671603322029114, -2.6257410049438477, 1.7571492195129395, -0.0758693665266037, -0.759765625, -0.1171875, 0.228271484375, 
265, 3286003112, 0.4730360209941864, -0.4608721137046814, -0.5028113126754761, -0.5576686859130859, 9.802535057067871, 1.2001736164093018, 0.6184455156326294, -1.6008386611938477, 1.7295628786087036, 0.07987799495458603, -0.7587890625, -0.11669921875, 0.227783203125, 
266, 3286011445, 0.47302255034446716, -0.46085286140441895, -0.5027838349342346, -0.5577206611633301, 9.746020317077637, 1.230224609375, 0.6501147150993347, -1.0055123567581177, 0.9267870187759399, -0.5024744272232056, -0.75830078125, -0.11474609375, 0.225341796875, 
267, 3286019778, 0.47288960218429565, -0.46089231967926025, -0.5028239488601685, -0.5577648282051086, 9.744309425354004, 1.173761248588562, 0.5793735384941101, -1.554937720298767, -0.9135828614234924, -1.3726667165756226, -0.75830078125, -0.1171875, 0.22900390625, 
268, 3286028111, 0.4727291464805603, -0.46090710163116455, -0.5029420852661133, -0.557781994342804, 9.770946502685547, 1.1533669233322144, 0.4567604064941406, -0.8028526306152344, -1.5189241170883179, -2.0920684337615967, -0.75927734375, -0.117431640625, 0.224853515625, 
269, 3286036444, 0.4725918471813202, -0.46088743209838867, -0.5030655264854431, -0.5578032732009888, 9.8269681930542, 1.2118600606918335, 0.4513809382915497, -0.3983269929885864, -1.1783316135406494, -2.1949350833892822, -0.76123046875, -0.11767578125, 0.227294921875, 
270, 3286044777, 0.4724235534667969, -0.46088752150535583, -0.5031582117080688, -0.557862401008606, 9.832320213317871, 1.306695818901062, 0.5303956270217896, -1.2426745891571045, -1.0273869037628174, -2.36411714553833, -0.75732421875, -0.11669921875, 0.22900390625, 
271, 3286053110, 0.4722495675086975, -0.460886150598526, -0.503144383430481, -0.5580233931541443, 9.812602043151855, 1.4487382173538208, 0.5911858677864075, -2.769334077835083, 0.2051059901714325, -2.3879125118255615, -0.75830078125, -0.11669921875, 0.229248046875, 
272, 3286061443, 0.4720170795917511, -0.4609232544898987, -0.5030956268310547, -0.5582330822944641, 9.809785842895508, 1.4325361251831055, 0.6097074151039124, -4.019027233123779, 0.11876040697097778, -2.68129825592041, -0.75830078125, -0.1181640625, 0.2255859375, 
273, 3286069776, 0.4717690050601959, -0.46097642183303833, -0.5030339956283569, -0.5584545731544495, 9.85618782043457, 1.3546305894851685, 0.6282348036766052, -4.379419326782227, -0.03240200877189636, -2.6681067943573, -0.7578125, -0.1201171875, 0.22705078125, 
274, 3286078109, 0.47151339054107666, -0.4610286056995392, -0.5029757022857666, -0.5586795806884766, 9.88568115234375, 1.230948805809021, 0.6966514587402344, -4.4414567947387695, 0.0019594889599829912, -2.7943336963653564, -0.75830078125, -0.119140625, 0.2275390625, 
275, 3286086442, 0.4712657332420349, -0.4610990285873413, -0.5028712153434753, -0.5589245557785034, 9.924150466918945, 1.239531397819519, 0.6491060256958008, -4.980278015136719, 0.2654787600040436, -2.4254119396209717, -0.755859375, -0.119140625, 0.2294921875, 
276, 3286094775, 0.4710736870765686, -0.4611344337463379, -0.5028009414672852, -0.5591203570365906, 9.930793762207031, 1.2291556596755981, 0.5849019885063171, -3.818288803100586, 0.461222767829895, -2.15543794631958, -0.75732421875, -0.11962890625, 0.2275390625, 
277, 3286103108, 0.4709307849407196, -0.4611482620239258, -0.5027999877929688, -0.5592303276062012, 9.960793495178223, 1.1266847848892212, 0.6279013752937317, -2.221010208129883, -0.10156044363975525, -1.7939441204071045, -0.7568359375, -0.12158203125, 0.22705078125, 
278, 3286111441, 0.4707932472229004, -0.46110984683036804, -0.5029515624046326, -0.5592414736747742, 10.002049446105957, 1.206213355064392, 0.6266684532165527, -0.012627818621695042, -1.2019990682601929, -2.4577114582061768, -0.75927734375, -0.11865234375, 0.2275390625, 
279, 3286119774, 0.4707123637199402, -0.46087533235549927, -0.5031862258911133, -0.5592917203903198, 9.928787231445312, 1.4070913791656494, 0.47083622217178345, 2.0066065788269043, 0.3315378725528717, -4.142795562744141, -0.75830078125, -0.12109375, 0.228515625, 
280, 3286128107, 0.4705883860588074, -0.4606117010116577, -0.5033265352249146, -0.5594869256019592, 9.899102210998535, 1.6001554727554321, 0.5719829201698303, 0.16653095185756683, 1.8647547960281372, -5.0320963859558105, -0.75732421875, -0.12158203125, 0.22802734375, 
281, 3286136440, 0.47028878331184387, -0.4604407548904419, -0.5034363269805908, -0.5597808957099915, 10.035374641418457, 1.8015878200531006, 0.839627206325531, -2.436476945877075, 0.6825809478759766, -6.170955657958984, -0.75732421875, -0.12158203125, 0.22705078125, 
282, 3286144773, 0.4697743356227875, -0.4600868821144104, -0.5038477778434753, -0.560133159160614, 10.222108840942383, 1.9812425374984741, 0.8357064127922058, -0.7197856307029724, -0.9021846652030945, -11.39016342163086, -0.7548828125, -0.122802734375, 0.224365234375, 
283, 3286153106, 0.46914100646972656, -0.45953086018562317, -0.5040155649185181, -0.5609689354896545, 10.209236145019531, 1.9574177265167236, 0.5855568051338196, -5.3689494132995605, 4.3868608474731445, -15.277280807495117, -0.7568359375, -0.125, 0.228759765625, 
284, 3286161439, 0.46826833486557007, -0.4592304229736328, -0.5037089586257935, -0.5622180700302124, 9.876463890075684, 1.9661835432052612, 0.8005778193473816, -15.078441619873047, 6.505596160888672, -15.030671119689941, -0.754638671875, -0.125732421875, 0.225830078125, 
285, 3286169772, 0.4672420620918274, -0.45895957946777344, -0.5031258463859558, -0.5638129711151123, 9.840890884399414, 2.0715558528900146, 1.169722557067871, -20.749387741088867, 9.101730346679688, -16.481822967529297, -0.758544921875, -0.1318359375, 0.22265625, 
286, 3286178105, 0.4662207365036011, -0.45861735939979553, -0.5023446083068848, -0.5656306743621826, 9.856439590454102, 2.0707626342773438, 1.4526780843734741, -23.35943603515625, 12.441422462463379, -17.126026153564453, -0.755126953125, -0.1328125, 0.222412109375, 
287, 3286186438, 0.46509233117103577, -0.458377480506897, -0.5013864040374756, -0.5676007270812988, 10.124948501586914, 1.751997709274292, 1.4712262153625488, -27.096403121948242, 12.927607536315918, -17.1065616607666, -0.756591796875, -0.1357421875, 0.222412109375, 
288, 3286194771, 0.4638623595237732, -0.45812004804611206, -0.5003633499145508, -0.5697138905525208, 10.330979347229004, 1.4817686080932617, 1.2811412811279297, -29.13743019104004, 13.750340461730957, -18.528797149658203, -0.75341796875, -0.139404296875, 0.21826171875, 
289, 3286203104, 0.46252647042274475, -0.4577788710594177, -0.4990844428539276, -0.5721905827522278, 10.181912422180176, 1.5326874256134033, 1.0763309001922607, -33.75759506225586, 17.53104019165039, -20.63980484008789, -0.7548828125, -0.1416015625, 0.212890625, 
290, 3286211437, 0.46110469102859497, -0.4574151337146759, -0.49755507707595825, -0.5749542713165283, 10.078629493713379, 1.6210296154022217, 1.0892399549484253, -38.117279052734375, 20.58538246154785, -21.719751358032227, -0.755859375, -0.145751953125, 0.209228515625, 
291, 3286219770, 0.45989546179771423, -0.456711083650589, -0.4959844946861267, -0.5778324604034424, 10.239498138427734, 1.889930009841919, 1.4184569120407104, -35.71037673950195, 25.644487380981445, -22.834997177124023, -0.75634765625, -0.15087890625, 0.20458984375, 
292, 3286228103, 0.45880934596061707, -0.4557245075702667, -0.4943902790546417, -0.5808331966400146, 10.388618469238281, 2.2092719078063965, 1.8468708992004395, -34.19395065307617, 29.713796615600586, -24.408292770385742, -0.752685546875, -0.152099609375, 0.19970703125, 
293, 3286236436, 0.4576960802078247, -0.45457935333251953, -0.4924977719783783, -0.5842069387435913, 10.446344375610352, 2.4971888065338135, 1.9432220458984375, -38.25963592529297, 34.94938278198242, -26.18865966796875, -0.756103515625, -0.158447265625, 0.195556640625, 
294, 3286244769, 0.45661064982414246, -0.45326584577560425, -0.4901902973651886, -0.588005006313324, 10.604658126831055, 2.878068685531616, 2.040332078933716, -43.25653076171875, 41.8144645690918, -27.17552375793457, -0.7529296875, -0.160888671875, 0.18505859375, 
295, 3286253102, 0.4556121230125427, -0.4517582654953003, -0.48760637640953064, -0.5920741558074951, 10.79397201538086, 3.304111957550049, 2.455937147140503, -45.5388298034668, 47.33745193481445, -27.766082763671875, -0.7568359375, -0.1669921875, 0.179443359375, 
296, 3286261435, 0.4546118676662445, -0.45001646876335144, -0.48464328050613403, -0.5965851545333862, 11.030105590820312, 3.4267425537109375, 2.721538543701172, -50.15074920654297, 54.40448760986328, -29.748743057250977, -0.754638671875, -0.174072265625, 0.16943359375, 
297, 3286269768, 0.4535777270793915, -0.4480621814727783, -0.4811442494392395, -0.6016541123390198, 11.027960777282715, 3.1890475749969482, 2.738276481628418, -57.127281188964844, 62.67376708984375, -31.62981414794922, -0.755615234375, -0.177734375, 0.162841796875, 
298, 3286278101, 0.452485054731369, -0.4459666311740875, -0.4772596061229706, -0.6071029901504517, 11.008098602294922, 3.108187675476074, 2.9639639854431152, -62.33182907104492, 68.2431411743164, -33.01882553100586, -0.757080078125, -0.183837890625, 0.15234375, 
299, 3286286434, 0.4512711465358734, -0.44364479184150696, -0.47314485907554626, -0.6129006147384644, 11.014110565185547, 3.205700635910034, 3.2154345512390137, -65.85696411132812, 72.86643981933594, -36.2996940612793, -0.75634765625, -0.18701171875, 0.137939453125, 
300, 3286294767, 0.4499965310096741, -0.4410007894039154, -0.4687882661819458, -0.6190627217292786, 10.777484893798828, 3.14915132522583, 3.2867212295532227, -68.65504455566406, 78.94466400146484, -39.65938949584961, -0.755615234375, -0.193359375, 0.12890625, 
301, 3286303100, 0.4487394094467163, -0.4379972815513611, -0.46420183777809143, -0.6255298852920532, 10.80008602142334, 2.985781192779541, 3.4223618507385254, -70.23023986816406, 85.3572006225586, -42.355224609375, -0.753662109375, -0.201171875, 0.10986328125, 
302, 3286311433, 0.44757208228111267, -0.43454402685165405, -0.45946139097213745, -0.6322386264801025, 10.863399505615234, 2.8223490715026855, 3.6547882556915283, -69.79692840576172, 92.22591400146484, -44.98073196411133, -0.75, -0.207763671875, 0.094482421875, 
303, 3286319766, 0.44650891423225403, -0.4307028651237488, -0.45459437370300293, -0.6390999555587769, 10.768047332763672, 2.709951400756836, 3.7495851516723633, -68.83692932128906, 97.92720794677734, -46.74429702758789, -0.7568359375, -0.213134765625, 0.081298828125, 
304, 3286328099, 0.4455273449420929, -0.42658424377441406, -0.44963139295578003, -0.6460206508636475, 10.796311378479004, 2.6967997550964355, 3.7582006454467773, -67.87899780273438, 101.82939910888672, -47.517452239990234, -0.756591796875, -0.21923828125, 0.064697265625, 
305, 3286336432, 0.4446271061897278, -0.42217668890953064, -0.44454747438430786, -0.6530167460441589, 10.784524917602539, 2.706305742263794, 3.6563732624053955, -67.1590347290039, 106.0701904296875, -48.37696838378906, -0.7548828125, -0.223876953125, 0.04931640625, 
306, 3286344765, 0.4438320994377136, -0.417483925819397, -0.43929949402809143, -0.6600879430770874, 10.698057174682617, 2.690559148788452, 3.7534329891204834, -66.746826171875, 110.71772766113281, -48.63631057739258, -0.755126953125, -0.232177734375, 0.031982421875, 
307, 3286353098, 0.4430522918701172, -0.41259482502937317, -0.4339093267917633, -0.6672125458717346, 10.77802848815918, 2.811497211456299, 3.9643707275390625, -67.06282043457031, 113.76263427734375, -49.23936080932617, -0.752685546875, -0.238037109375, 0.013427734375, 
308, 3286361431, 0.4423215389251709, -0.4073987603187561, -0.42826592922210693, -0.6744968891143799, 10.793789863586426, 2.814063549041748, 3.9770967960357666, -68.20540618896484, 119.31832122802734, -50.110172271728516, -0.75048828125, -0.246337890625, -0.00634765625, 
309, 3286369764, 0.4416889548301697, -0.40196657180786133, -0.4224235415458679, -0.6818152666091919, 10.64363956451416, 2.8738865852355957, 4.13824987411499, -68.25233459472656, 123.490478515625, -49.730960845947266, -0.748291015625, -0.250244140625, -0.0224609375, 
310, 3286378097, 0.4410979151725769, -0.396291047334671, -0.41635629534721375, -0.6892120838165283, 10.597603797912598, 2.9141321182250977, 4.342195510864258, -69.12173461914062, 127.80595397949219, -49.93893814086914, -0.74462890625, -0.254638671875, -0.045166015625, 
311, 3286386430, 0.44046550989151, -0.39037513732910156, -0.41021156311035156, -0.6966373920440674, 10.570857048034668, 2.85437273979187, 4.439228057861328, -68.7734146118164, 130.48123168945312, -51.505489349365234, -0.743408203125, -0.262451171875, -0.0654296875, 
312, 3286394763, 0.44003885984420776, -0.38428688049316406, -0.40395012497901917, -0.7039129734039307, 10.395565032958984, 2.5613300800323486, 4.543379783630371, -66.91199493408203, 133.18560791015625, -48.92478942871094, -0.73046875, -0.267333984375, -0.086181640625, 
313, 3286403096, 0.4396931827068329, -0.37806734442710876, -0.3975817859172821, -0.711086094379425, 10.285523414611816, 2.498562812805176, 4.656418800354004, -66.13999938964844, 135.02127075195312, -47.73384475708008, -0.736328125, -0.2705078125, -0.107666015625, 
314, 3286411429, 0.4393543601036072, -0.3717135488986969, -0.3911495804786682, -0.7181771993637085, 10.31233024597168, 2.5209810733795166, 4.840799331665039, -65.48567199707031, 136.3206787109375, -47.525421142578125, -0.732177734375, -0.273193359375, -0.12744140625, 
315, 3286419762, 0.4391181468963623, -0.36509931087493896, -0.3846670389175415, -0.7251818180084229, 10.305736541748047, 2.478848457336426, 4.880941390991211, -63.40314483642578, 139.3174285888672, -47.18141174316406, -0.72900390625, -0.2783203125, -0.149658203125, 
316, 3286428095, 0.43898841738700867, -0.35821428894996643, -0.3781012296676636, -0.7321140766143799, 10.089119911193848, 2.28054141998291, 4.8456010818481445, -61.699073791503906, 142.70875549316406, -46.65236282348633, -0.718994140625, -0.282470703125, -0.168701171875, 
317, 3286436428, 0.43894731998443604, -0.35113561153411865, -0.3714652955532074, -0.7389332056045532, 9.726584434509277, 2.4164960384368896, 4.938347816467285, -60.193153381347656, 144.99693298339844, -45.7841911315918, -0.71826171875, -0.28759765625, -0.19140625, 
318, 3286444761, 0.4388534724712372, -0.34402066469192505, -0.36479467153549194, -0.7456286549568176, 9.425773620605469, 2.599738597869873, 5.287079811096191, -59.96489334106445, 144.69705200195312, -45.54783630371094, -0.713134765625, -0.2919921875, -0.21142578125, 
319, 3286453094, 0.4386911392211914, -0.3369492292404175, -0.3580537438392639, -0.752191960811615, 9.429519653320312, 2.697488307952881, 5.37216329574585, -60.59558868408203, 143.7186279296875, -44.94400405883789, -0.70654296875, -0.29150390625, -0.233154296875, 
320, 3286461427, 0.43856343626976013, -0.3296756148338318, -0.35116544365882874, -0.7587084770202637, 9.315628051757812, 2.673267364501953, 5.392566680908203, -60.52711486816406, 146.6422576904297, -44.57587814331055, -0.697998046875, -0.294677734375, -0.25390625, 
321, 3286469760, 0.4384405016899109, -0.32236653566360474, -0.3441626727581024, -0.7651023268699646, 9.090555191040039, 2.546440601348877, 5.629886627197266, -60.874916076660156, 147.1800537109375, -43.479488372802734, -0.6923828125, -0.29833984375, -0.27734375, 
322, 3286478093, 0.4382784068584442, -0.31504687666893005, -0.3370390236377716, -0.7713896632194519, 9.12415885925293, 2.577296018600464, 5.708832263946533, -61.775489807128906, 147.35435485839844, -42.72605514526367, -0.682373046875, -0.298828125, -0.294189453125, 
323, 3286486426, 0.4381885230541229, -0.30762600898742676, -0.32980674505233765, -0.7775373458862305, 9.104175567626953, 2.4931387901306152, 5.518762111663818, -61.335182189941406, 148.82070922851562, -41.15415573120117, -0.67626953125, -0.3017578125, -0.31640625, 
324, 3286494759, 0.43814581632614136, -0.3000442087650299, -0.3225928544998169, -0.7835274338722229, 8.66903018951416, 2.1679739952087402, 5.592791557312012, -59.27961730957031, 149.97451782226562, -40.47329330444336, -0.666748046875, -0.3056640625, -0.337890625, 
325, 3286503092, 0.43806901574134827, -0.2925983667373657, -0.315390408039093, -0.789297342300415, 8.433015823364258, 2.245741128921509, 5.862768173217773, -59.11336135864258, 147.38429260253906, -38.99098587036133, -0.6572265625, -0.30322265625, -0.359619140625, 
326, 3286511425, 0.4379594624042511, -0.2852615416049957, -0.30811429023742676, -0.7948979139328003, 8.398506164550781, 2.379016637802124, 5.961802959442139, -59.99122619628906, 145.82089233398438, -37.5287971496582, -0.6484375, -0.302978515625, -0.37841796875, 
327, 3286519758, 0.43789130449295044, -0.2779545783996582, -0.300716757774353, -0.8003385663032532, 8.31042194366455, 2.43556809425354, 5.84672212600708, -60.63566589355469, 145.7747344970703, -35.54005432128906, -0.638916015625, -0.30419921875, -0.396240234375, 
328, 3286528091, 0.43780291080474854, -0.2707033157348633, -0.2931768596172333, -0.8056521415710449, 8.050521850585938, 2.2555549144744873, 6.022700309753418, -62.11714172363281, 145.4547882080078, -34.197532653808594, -0.6279296875, -0.304931640625, -0.417236328125, 
329, 3286536424, 0.4376770257949829, -0.26358282566070557, -0.28557661175727844, -0.8107951283454895, 7.749013900756836, 2.1752572059631348, 6.279101371765137, -62.996612548828125, 143.57794189453125, -32.85763168334961, -0.61767578125, -0.30615234375, -0.4384765625, 
330, 3286544757, 0.43757688999176025, -0.2563955783843994, -0.27792856097221375, -0.8157960176467896, 7.4449944496154785, 2.0195584297180176, 6.308172225952148, -62.506961822509766, 144.20779418945312, -31.78409194946289, -0.611328125, -0.30322265625, -0.4599609375, 
331, 3286553090, 0.437456876039505, -0.24940168857574463, -0.2702910602092743, -0.820580780506134, 7.102315425872803, 1.7734808921813965, 6.3984575271606445, -62.764896392822266, 141.1238555908203, -30.02494239807129, -0.601318359375, -0.303466796875, -0.47705078125, 
332, 3286561423, 0.43735235929489136, -0.24250119924545288, -0.26275700330734253, -0.8251391649246216, 7.052461624145508, 1.8860960006713867, 6.479482650756836, -61.296592712402344, 138.74783325195312, -28.47991371154785, -0.5869140625, -0.302978515625, -0.493896484375, 
333, 3286569756, 0.4372328519821167, -0.23572596907615662, -0.2553272843360901, -0.8294869065284729, 7.046114444732666, 1.7428501844406128, 6.878760814666748, -60.1244010925293, 135.9235076904297, -27.296459197998047, -0.576416015625, -0.299560546875, -0.51123046875, 
334, 3286578089, 0.43717870116233826, -0.22881971299648285, -0.24798151850700378, -0.8336673378944397, 7.005189895629883, 1.6184667348861694, 6.898205757141113, -57.610870361328125, 136.6238250732422, -26.26357078552246, -0.56640625, -0.29736328125, -0.527587890625, 
335, 3286586422, 0.437226265668869, -0.22175532579421997, -0.2407042533159256, -0.8376747965812683, 6.571325778961182, 1.5787746906280518, 6.735350608825684, -54.932472229003906, 137.8036651611328, -24.824432373046875, -0.55517578125, -0.29541015625, -0.5439453125, 
336, 3286594755, 0.43727269768714905, -0.2147238850593567, -0.2335589975118637, -0.8414963483810425, 5.981686592102051, 1.6480000019073486, 6.784004211425781, -53.028480529785156, 136.09027099609375, -24.007789611816406, -0.54248046875, -0.294677734375, -0.563232421875, 
337, 3286603088, 0.437227725982666, -0.20801696181297302, -0.22649921476840973, -0.8451263904571533, 5.728247165679932, 1.7144564390182495, 6.816954135894775, -53.6160774230957, 130.9317169189453, -23.128202438354492, -0.5302734375, -0.291748046875, -0.578125, 
338, 3286611421, 0.4371770918369293, -0.20163249969482422, -0.21951204538345337, -0.8485369086265564, 5.701024055480957, 1.6805747747421265, 6.998651504516602, -54.07270050048828, 126.13646697998047, -21.073881149291992, -0.519775390625, -0.288818359375, -0.594970703125, 
339, 3286619754, 0.4372215270996094, -0.1953096240758896, -0.21253077685832977, -0.8517641425132751, 5.807830333709717, 1.638887643814087, 7.073851108551025, -53.52705764770508, 125.12564086914062, -18.698625564575195, -0.51025390625, -0.28515625, -0.606201171875, 
340, 3286628087, 0.43739718198776245, -0.18889005482196808, -0.2056504487991333, -0.8548051118850708, 5.652259349822998, 1.4976184368133545, 7.476339340209961, -50.89793395996094, 125.57554626464844, -16.592275619506836, -0.493408203125, -0.283203125, -0.623291015625, 
341, 3286636420, 0.43760713934898376, -0.18233686685562134, -0.19908063113689423, -0.8576712608337402, 5.600490093231201, 1.0545789003372192, 7.669651985168457, -45.82902145385742, 124.88068389892578, -16.324926376342773, -0.482421875, -0.279296875, -0.638427734375, 
342, 3286644753, 0.43790653347969055, -0.17543630301952362, -0.1929117739200592, -0.8603634238243103, 5.331920623779297, 0.7254863381385803, 7.485864639282227, -38.33864974975586, 126.41812896728516, -16.181095123291016, -0.4736328125, -0.27587890625, -0.65087890625, 
343, 3286653086, 0.43827158212661743, -0.16834421455860138, -0.18726719915866852, -0.8628377914428711, 4.739147186279297, 0.7197039127349854, 7.353143215179443, -30.2164363861084, 125.13107299804688, -15.863027572631836, -0.461669921875, -0.275146484375, -0.659912109375, 
344, 3286661419, 0.4386335015296936, -0.16151225566864014, -0.1820988804101944, -0.8650631308555603, 4.440290451049805, 1.0829757452011108, 7.34324836730957, -25.52568817138672, 118.63992309570312, -14.84146499633789, -0.44970703125, -0.272705078125, -0.67431640625, 
345, 3286669752, 0.43905532360076904, -0.15485909581184387, -0.17718297243118286, -0.867084264755249, 4.4744696617126465, 1.3362853527069092, 7.246548175811768, -22.92878532409668, 114.63519287109375, -13.000253677368164, -0.438720703125, -0.2734375, -0.686767578125, 
346, 3286678085, 0.43950116634368896, -0.1485128104686737, -0.17221641540527344, -0.8689672350883484, 4.390178203582764, 1.3682832717895508, 7.36265230178833, -25.02454948425293, 111.10086822509766, -11.0328950881958, -0.423828125, -0.27001953125, -0.693603515625, 
347, 3286686418, 0.4398871660232544, -0.14241012930870056, -0.1671159863471985, -0.8707875609397888, 4.165217399597168, 1.7469688653945923, 7.635568618774414, -28.04498291015625, 108.67586517333984, -10.510842323303223, -0.41845703125, -0.27001953125, -0.703857421875, 
348, 3286694751, 0.4401650130748749, -0.1365378350019455, -0.1618138551712036, -0.8725870251655579, 4.0049662590026855, 2.021972179412842, 7.850039005279541, -32.04414749145508, 106.90467071533203, -10.763733863830566, -0.400146484375, -0.266845703125, -0.714599609375, 
349, 3286703084, 0.44037696719169617, -0.13076549768447876, -0.15623760223388672, -0.8743787407875061, 3.9699790477752686, 2.0247490406036377, 7.901923656463623, -36.01835250854492, 107.14545440673828, -10.762993812561035, -0.394287109375, -0.26171875, -0.724853515625, 
350, 3286711417, 0.4405583143234253, -0.12515071034431458, -0.15037372708320618, -0.8761353492736816, 3.7702038288116455, 1.7267377376556396, 8.162869453430176, -40.4393424987793, 106.92639923095703, -10.072093963623047, -0.384765625, -0.259521484375, -0.733642578125, 
351, 3286719750, 0.4407660961151123, -0.11974354088306427, -0.14451254904270172, -0.8777715563774109, 3.5685527324676514, 1.3123019933700562, 8.08373737335205, -41.342750549316406, 104.1935043334961, -8.58864974975586, -0.372802734375, -0.255859375, -0.7451171875, 
352, 3286728083, 0.4409571886062622, -0.11443889141082764, -0.13888955116271973, -0.8792895078659058, 3.4461965560913086, 0.9035753607749939, 7.902756214141846, -38.91099548339844, 101.34989929199219, -8.275609970092773, -0.357421875, -0.251220703125, -0.756591796875, 
353, 3286736416, 0.4411235451698303, -0.10913185775279999, -0.13349010050296783, -0.8807159066200256, 3.1524240970611572, 0.9280563592910767, 7.99303674697876, -36.02705764770508, 99.76543426513672, -8.360004425048828, -0.3515625, -0.25048828125, -0.76611328125, 
354, 3286744749, 0.4412652254104614, -0.10394002497196198, -0.12832146883010864, -0.8820401430130005, 2.9782135486602783, 1.2144490480422974, 8.218851089477539, -33.808746337890625, 96.84066772460938, -8.191764831542969, -0.338134765625, -0.24560546875, -0.7685546875, 
355, 3286753082, 0.4413709044456482, -0.09875407069921494, -0.12331899255514145, -0.8832958936691284, 3.2326419353485107, 1.2088439464569092, 8.25236701965332, -31.729736328125, 95.53070831298828, -8.422164916992188, -0.328857421875, -0.244384765625, -0.781494140625, 
356, 3286761415, 0.4414818584918976, -0.09351828694343567, -0.11839519441127777, -0.8844832181930542, 3.0813653469085693, 0.9399263858795166, 8.435425758361816, -30.378164291381836, 95.64591217041016, -8.152238845825195, -0.31396484375, -0.239501953125, -0.78759765625, 
357, 3286769748, 0.44162359833717346, -0.0881807953119278, -0.11366800218820572, -0.8855801820755005, 2.5544893741607666, 0.9937680959701538, 8.849523544311523, -27.153810501098633, 95.5523910522461, -7.63018798828125, -0.307861328125, -0.23828125, -0.79443359375, 
358, 3286778081, 0.4417516589164734, -0.08277474343776703, -0.1090393215417862, -0.8866193890571594, 2.2028021812438965, 0.8726339936256409, 9.051032066345215, -25.49071502685547, 95.77037048339844, -7.690665245056152, -0.297607421875, -0.23486328125, -0.800048828125, 
359, 3286786414, 0.4419288635253906, -0.0774264708161354, -0.10467720031738281, -0.8875395655632019, 2.1926498413085938, 0.5350390672683716, 9.03354263305664, -22.329416275024414, 93.31084442138672, -6.568055629730225, -0.2861328125, -0.233154296875, -0.81103515625, 
360, 3286794747, 0.4421730041503906, -0.07197923958301544, -0.1005355715751648, -0.888355016708374, 2.4395275115966797, 0.32726290822029114, 8.698472023010254, -18.839698791503906, 93.23651123046875, -5.510126113891602, -0.275390625, -0.229736328125, -0.814697265625, 
361, 3286803080, 0.44242042303085327, -0.06651969254016876, -0.09650339186191559, -0.8891042470932007, 2.1019248962402344, 0.5162459015846252, 8.739219665527344, -17.309057235717773, 92.5873794555664, -5.1744232177734375, -0.264892578125, -0.228515625, -0.8212890625, 
362, 3286811413, 0.4426475763320923, -0.06125997379422188, -0.092568039894104, -0.8897872567176819, 1.8095369338989258, 1.12466299533844, 8.867283821105957, -17.292041778564453, 89.54273986816406, -4.863691806793213, -0.255859375, -0.2275390625, -0.826416015625, 
363, 3286819746, 0.44276654720306396, -0.056163959205150604, -0.08836695551872253, -0.890491247177124, 1.8318816423416138, 1.4042073488235474, 8.77167797088623, -21.636913299560547, 88.96260070800781, -5.861706256866455, -0.245849609375, -0.226806640625, -0.833984375, 
364, 3286828079, 0.44279128313064575, -0.05131158605217934, -0.08384885638952255, -0.891208291053772, 1.6239094734191895, 1.3576329946517944, 8.666069030761719, -27.112125396728516, 87.87844848632812, -6.570535182952881, -0.231689453125, -0.2216796875, -0.83642578125, 
365, 3286836412, 0.4426625072956085, -0.04665330797433853, -0.07898759841918945, -0.8919721841812134, 1.4315338134765625, 1.2652784585952759, 8.563179969787598, -32.6413459777832, 87.37174987792969, -8.256325721740723, -0.22119140625, -0.2197265625, -0.844482421875, 
366, 3286844745, 0.44240260124206543, -0.042219068855047226, -0.07402955740690231, -0.8927469253540039, 1.2653133869171143, 1.0399510860443115, 8.5871000289917, -35.31249237060547, 85.15133666992188, -9.64073371887207, -0.20947265625, -0.216796875, -0.8486328125, 
367, 3286853078, 0.4420148730278015, -0.03799882531166077, -0.06892720609903336, -0.8935368061065674, 1.1547771692276, 0.6808840036392212, 8.710315704345703, -38.451454162597656, 83.20655059814453, -10.984210014343262, -0.202392578125, -0.211181640625, -0.85693359375, 
368, 3286861411, 0.44159096479415894, -0.0341460220515728, -0.063632532954216, -0.894294261932373, 1.2381395101547241, 0.529296875, 8.788166046142578, -43.05979537963867, 79.88333892822266, -10.800731658935547, -0.193115234375, -0.207275390625, -0.86279296875, 
369, 3286869744, 0.44120585918426514, -0.030514605343341827, -0.05832010135054588, -0.8949776291847229, 1.1645009517669678, 0.5069624781608582, 8.906338691711426, -44.51590347290039, 77.19357299804688, -9.654687881469727, -0.18212890625, -0.203857421875, -0.868408203125, 
370, 3286878077, 0.44092679023742676, -0.027003346011042595, -0.05324085056781769, -0.8955443501472473, 0.8573743104934692, 0.4152582883834839, 9.33917236328125, -42.25914764404297, 74.41078186035156, -7.65837287902832, -0.1748046875, -0.199462890625, -0.872802734375, 
371, 3286886410, 0.4406605660915375, -0.02355116978287697, -0.048371024429798126, -0.8960490226745605, 0.8652815818786621, 0.24905478954315186, 9.496489524841309, -39.96495056152344, 72.32400512695312, -7.143801212310791, -0.16259765625, -0.194091796875, -0.877197265625, 
372, 3286894743, 0.4403204321861267, -0.01993374340236187, -0.04376042261719704, -0.8965407609939575, 0.7979528903961182, 0.02576868049800396, 9.268275260925293, -35.806278228759766, 72.81192016601562, -8.188278198242188, -0.146728515625, -0.189697265625, -0.88232421875, 
373, 3286903076, 0.4398992657661438, -0.016166547313332558, -0.03956839442253113, -0.8970181941986084, 0.3157406449317932, 0.027788423001766205, 9.19371223449707, -29.731496810913086, 71.99608612060547, -9.285260200500488, -0.147705078125, -0.185791015625, -0.886474609375, 
374, 3286911409, 0.43940821290016174, -0.012408124282956123, -0.03582393378019333, -0.8974758386611938, 0.09125617891550064, 0.04799291118979454, 9.323158264160156, -24.283926010131836, 69.21104431152344, -10.139726638793945, -0.13720703125, -0.183837890625, -0.89013671875, 
375, 3286919742, 0.43899694085121155, -0.00866570882499218, -0.032530687749385834, -0.8978464007377625, 0.2092171609401703, -0.0713135153055191, 9.251229286193848, -18.739864349365234, 66.2375259399414, -8.682058334350586, -0.1298828125, -0.179443359375, -0.8916015625, 
376, 3286928075, 0.43871575593948364, -0.004876431077718735, -0.029728220775723457, -0.8981095552444458, 0.30599814653396606, -0.21361105144023895, 9.02304744720459, -12.346902847290039, 63.96980285644531, -6.522510528564453, -0.118408203125, -0.178955078125, -0.8955078125, 
377, 3286936408, 0.43850743770599365, -0.0011021418031305075, -0.027357926592230797, -0.8982990980148315, 0.21003738045692444, -0.18576228618621826, 8.922599792480469, -7.051442623138428, 61.13200378417969, -5.184927463531494, -0.112060546875, -0.178466796875, -0.8974609375, 
378, 3286944741, 0.4383987784385681, 0.002242600778117776, -0.02522559091448784, -0.8984124064445496, 0.19213859736919403, 0.11454097181558609, 8.760061264038086, -6.679928302764893, 54.496646881103516, -3.354090452194214, -0.10546875, -0.177490234375, -0.903076171875, 
379, 3286953074, 0.4383784532546997, 0.005189006216824055, -0.023396112024784088, -0.8984597325325012, 0.2601443827152252, 0.5673481225967407, 8.658161163330078, -5.311685562133789, 47.712154388427734, -1.699379801750183, -0.091064453125, -0.17822265625, -0.904052734375, 
380, 3286961407, 0.4383632242679596, 0.007775109261274338, -0.02153877541422844, -0.8984949588775635, 0.1299307495355606, 0.8972291350364685, 8.812326431274414, -7.830874443054199, 43.50004959106445, -1.4631900787353516, -0.09228515625, -0.174560546875, -0.9072265625, 
381, 3286969740, 0.43840518593788147, 0.009995495900511742, -0.01950041577219963, -0.8984991312026978, -0.009996692650020123, 1.0431386232376099, 8.762222290039062, -12.263089179992676, 40.0230598449707, -0.4673579931259155, -0.086181640625, -0.177734375, -0.906005859375, 
382, 3286978073, 0.43848371505737305, 0.012165013700723648, -0.01729625090956688, -0.8984791040420532, -0.008991148322820663, 0.8935661315917969, 8.522089958190918, -14.627748489379883, 40.47845458984375, 0.10444220155477524, -0.082275390625, -0.17529296875, -0.909423828125, 
383, 3286986406, 0.4385070204734802, 0.013988219201564789, -0.01500044483691454, -0.8984823822975159, -0.21956484019756317, 0.6106436848640442, 8.521875381469727, -17.833553314208984, 36.663719177246094, -0.6348752975463867, -0.075927734375, -0.1708984375, -0.909912109375, 
384, 3286994739, 0.43852895498275757, 0.0158114992082119, -0.01274183765053749, -0.8984763622283936, -0.31863531470298767, 0.5160701274871826, 8.472455978393555, -17.38407325744629, 36.51210403442383, -0.6060593128204346, -0.073974609375, -0.1689453125, -0.912841796875, 
385, 3287003072, 0.4384988844394684, 0.01767493039369583, -0.010672181844711304, -0.8984832763671875, -0.4679749310016632, 0.1667015105485916, 8.66170883178711, -14.78542709350586, 35.78693771362305, -1.273592472076416, -0.0634765625, -0.166748046875, -0.91259765625, 
386, 3287011405, 0.4385756254196167, 0.01941412314772606, -0.008873622864484787, -0.8984294533729553, -0.4184842109680176, -0.1298423409461975, 8.57985782623291, -12.21474838256836, 32.71405792236328, 0.4815865159034729, -0.06005859375, -0.1650390625, -0.916015625, 
387, 3287019738, 0.4387482702732086, 0.02111208438873291, -0.007367003709077835, -0.8983205556869507, -0.2916795015335083, -0.11873745918273926, 8.665886878967285, -8.862634658813477, 30.404010772705078, 2.0956430435180664, -0.060546875, -0.1640625, -0.916015625, 
388, 3287028071, 0.4389626085758209, 0.022671250626444817, -0.006128914188593626, -0.8981871008872986, -0.2353692352771759, 0.09839065372943878, 8.709087371826172, -6.4026665687561035, 27.147842407226562, 2.836355686187744, -0.0556640625, -0.162109375, -0.9189453125, 
389, 3287036404, 0.4391804337501526, 0.02410772442817688, -0.004976145923137665, -0.8980502486228943, -0.3938964605331421, 0.3616047203540802, 8.696126937866211, -6.0793890953063965, 25.050495147705078, 2.952157735824585, -0.05224609375, -0.161865234375, -0.9189453125, 
390, 3287044737, 0.43936365842819214, 0.02543097920715809, -0.003850924549624324, -0.8979297280311584, -0.7211220860481262, 0.5567918419837952, 8.592315673828125, -6.424001693725586, 23.545654296875, 2.426783323287964, -0.048583984375, -0.1640625, -0.921142578125, 
391, 3287053070, 0.4395439326763153, 0.026436029002070427, -0.002555438783019781, -0.8978169560432434, -0.9459609389305115, 0.6689474582672119, 8.791715621948242, -10.437882423400879, 20.575347900390625, 2.3161044120788574, -0.045654296875, -0.161376953125, -0.918212890625, 
392, 3287061403, 0.43971824645996094, 0.027236128225922585, -0.0010434528812766075, -0.8977107405662537, -0.9296605587005615, 0.7403292655944824, 8.765218734741211, -14.358782768249512, 19.413768768310547, 2.120180606842041, -0.045166015625, -0.158935546875, -0.92236328125, 
393, 3287069736, 0.4398692548274994, 0.027869688346982002, 0.0006153951399028301, -0.897617757320404, -1.0546351671218872, 0.44969406723976135, 8.70304012298584, -17.15959930419922, 18.178701400756836, 1.7107372283935547, -0.040771484375, -0.156494140625, -0.922607421875, 
394, 3287078069, 0.44004130363464355, 0.02832615375518799, 0.0023276894353330135, -0.8975164294242859, -1.1250100135803223, 0.1645238995552063, 8.767294883728027, -18.912433624267578, 16.377124786376953, 1.9900861978530884, -0.039306640625, -0.154052734375, -0.9248046875, 
395, 3287086402, 0.4402209520339966, 0.028636742383241653, 0.0038588973693549633, -0.8974130749702454, -0.9416934847831726, -0.03817480802536011, 8.774797439575195, -17.548885345458984, 13.422954559326172, 2.170794725418091, -0.0380859375, -0.151123046875, -0.92431640625, 
396, 3287094735, 0.4403887391090393, 0.02876671589910984, 0.005135398358106613, -0.8973202109336853, -0.7615629434585571, -0.07718399912118912, 9.0137300491333, -15.507193565368652, 9.703146934509277, 2.0431325435638428, -0.030029296875, -0.1513671875, -0.925048828125, 
397, 3287103068, 0.4405699372291565, 0.02896341122686863, 0.006190650165081024, -0.8972183465957642, -0.7415059208869934, 0.03737051039934158, 8.942668914794922, -12.365069389343262, 9.134178161621094, 2.3633618354797363, -0.036376953125, -0.148681640625, -0.92822265625, 
398, 3287111401, 0.4407796263694763, 0.02913881093263626, 0.007149707060307264, -0.8971025943756104, -0.9380077123641968, 0.005311367567628622, 9.096306800842285, -11.332686424255371, 8.345541000366211, 2.8251094818115234, -0.03515625, -0.1455078125, -0.924560546875, 
399, 3287119734, 0.4410172700881958, 0.02898762747645378, 0.007998127490282059, -0.8969836235046387, -0.803993821144104, -0.04799583926796913, 9.00107479095459, -11.945635795593262, 3.589771270751953, 3.2132420539855957, -0.034912109375, -0.147705078125, -0.9287109375, 
400, 3287128067, 0.44119900465011597, 0.028733471408486366, 0.00873645767569542, -0.8968954682350159, -0.6996802091598511, 0.01702602580189705, 8.827132225036621, -11.197415351867676, 1.6977498531341553, 2.3583154678344727, -0.03271484375, -0.143798828125, -0.929443359375, 
401, 3287136400, 0.441297709941864, 0.02847490832209587, 0.009454015642404556, -0.8968478441238403, -0.8809006214141846, 0.10779900848865509, 8.741156578063965, -10.921167373657227, 1.4602805376052856, 1.108622670173645, -0.03515625, -0.142333984375, -0.927001953125, 
402, 3287144733, 0.44133204221725464, 0.027971386909484863, 0.010332268662750721, -0.896837055683136, -1.1506390571594238, 0.11051046848297119, 8.71527099609375, -14.369253158569336, -0.5419460535049438, -0.015599070116877556, -0.0361328125, -0.140869140625, -0.92919921875, 
403, 3287153066, 0.44132041931152344, 0.027289606630802155, 0.011083988472819328, -0.896854817867279, -1.1532527208328247, -0.01405179314315319, 8.826537132263184, -13.858582496643066, -3.5623512268066406, -0.7221421599388123, -0.03515625, -0.139404296875, -0.9296875, 
404, 3287161399, 0.4412858784198761, 0.02656097151339054, 0.01176073495298624, -0.8968851566314697, -1.008337140083313, -0.27283868193626404, 8.699301719665527, -13.217257499694824, -4.5516252517700195, -1.072135329246521, -0.03369140625, -0.13671875, -0.92724609375, 
405, 3287169732, 0.44130438566207886, 0.02589036524295807, 0.012225578539073467, -0.8968894481658936, -0.9935853481292725, -0.39626815915107727, 8.451545715332031, -10.265315055847168, -5.166980743408203, -0.16234304010868073, -0.03466796875, -0.136962890625, -0.93017578125, 
406, 3287178065, 0.44139641523361206, 0.025157345458865166, 0.012467515654861927, -0.8968616127967834, -0.9976603984832764, -0.4334477186203003, 8.214644432067871, -7.934267044067383, -7.24749755859375, 0.9981228709220886, -0.03173828125, -0.135986328125, -0.931640625, 
407, 3287186398, 0.44159260392189026, 0.024113314226269722, 0.012512979097664356, -0.8967931270599365, -0.9434617757797241, -0.4376382529735565, 8.084052085876465, -7.435121059417725, -12.321395874023438, 2.556749105453491, -0.0361328125, -0.134033203125, -0.931396484375, 
408, 3287194731, 0.4418879747390747, 0.022790351882576942, 0.012219109572470188, -0.8966861963272095, -0.6872416138648987, -0.4155154824256897, 7.978079319000244, -4.988297939300537, -17.78835105895996, 4.06594181060791, -0.039794921875, -0.135498046875, -0.931396484375, 
409, 3287203064, 0.44219571352005005, 0.021299045532941818, 0.011495104990899563, -0.896580696105957, -0.5170977711677551, -0.3997179865837097, 8.198516845703125, -0.7041869759559631, -22.519254684448242, 4.329768657684326, -0.041748046875, -0.132080078125, -0.9287109375, 
410, 3287211397, 0.44255200028419495, 0.019607190042734146, 0.010280977934598923, -0.8964582681655884, -0.45383813977241516, -0.12317967414855957, 8.712852478027344, 4.0985493659973145, -27.93782615661621, 5.135465621948242, -0.047607421875, -0.13330078125, -0.93017578125, 
411, 3287219730, 0.44297367334365845, 0.017856739461421967, 0.008535003289580345, -0.8963050246238708, -0.04800537973642349, 0.2082841694355011, 8.686295509338379, 10.278194427490234, -31.9339599609375, 6.26928186416626, -0.045166015625, -0.134521484375, -0.92626953125, 
412, 3287228063, 0.44323310256004333, 0.016457494348287582, 0.006349594332277775, -0.8962214589118958, -0.15683798491954803, 0.12818755209445953, 8.500883102416992, 17.88104820251465, -30.243709564208984, 3.9896645545959473, -0.0537109375, -0.135986328125, -0.926025390625, 
413, 3287236396, 0.4433170258998871, 0.015037710778415203, 0.003975472413003445, -0.8962187170982361, -0.82268226146698, 0.15920820832252502, 8.234457969665527, 20.129804611206055, -31.686206817626953, 1.3790594339370728, -0.05810546875, -0.136474609375, -0.925048828125, 
414, 3287244729, 0.4433481991291046, 0.01334312278777361, 0.0015658305492252111, -0.8962375521659851, -1.137374758720398, 0.439424604177475, 8.082209587097168, 18.90147590637207, -35.25663757324219, 0.5851196050643921, -0.056396484375, -0.141357421875, -0.92431640625, 
415, 3287253062, 0.4434235692024231, 0.011190123856067657, -0.0008714572759345174, -0.8962306976318359, -1.0000642538070679, 0.6849049925804138, 8.047243118286133, 16.441251754760742, -41.106204986572266, 1.2871302366256714, -0.064453125, -0.144287109375, -0.92041015625, 
416, 3287261395, 0.4435473084449768, 0.008551668375730515, -0.002979856450110674, -0.8961938619613647, -0.7383025884628296, 0.6763700842857361, 7.963834762573242, 9.415002822875977, -45.04911804199219, 2.020723342895508, -0.07275390625, -0.14453125, -0.919677734375, 
417, 3287269728, 0.4436906576156616, 0.005312588531523943, -0.004630352836102247, -0.896140992641449, -0.7131986618041992, 0.6355983018875122, 7.937599182128906, 0.11356096714735031, -49.686553955078125, 2.3307340145111084, -0.078369140625, -0.14697265625, -0.917724609375, 
418, 3287278061, 0.4439050853252411, 0.0013840419705957174, -0.005904041696339846, -0.8960420489311218, -0.6088249087333679, 0.6806949377059937, 7.830212593078613, -8.750511169433594, -55.848793029785156, 3.5004379749298096, -0.083251953125, -0.14599609375, -0.9169921875, 
419, 3287286394, 0.44412168860435486, -0.002996024675667286, -0.0069352323189377785, -0.8959234356880188, -0.21241112053394318, 0.6116924285888672, 7.808961391448975, -14.482488632202148, -59.95833206176758, 3.6828653812408447, -0.09130859375, -0.14306640625, -0.91455078125, 
420, 3287294727, 0.44426000118255615, -0.007543472107499838, -0.007889469154179096, -0.8958200812339783, 0.1851452887058258, 0.28456035256385803, 8.014516830444336, -16.47295570373535, -61.532936096191406, 2.635291337966919, -0.0986328125, -0.14208984375, -0.913330078125, 
421, 3287303060, 0.44420313835144043, -0.012247735634446144, -0.00871211662888527, -0.8957887887954712, 0.12648063898086548, -0.039114806801080704, 8.279434204101562, -19.063695907592773, -62.70022201538086, -0.17038652300834656, -0.107177734375, -0.139404296875, -0.91455078125, 
422, 3287311393, 0.4439978301525116, -0.01704593189060688, -0.009784762747585773, -0.8958010077476501, -0.12053622305393219, -0.07101716101169586, 8.466720581054688, -16.60464859008789, -65.36933135986328, -2.3002445697784424, -0.11669921875, -0.137451171875, -0.91015625, 
423, 3287319726, 0.4437566101551056, -0.02184426039457321, -0.011304349638521671, -0.8957984447479248, -0.12203250825405121, -0.1415363848209381, 8.612523078918457, -11.090575218200684, -68.13261413574219, -2.751723051071167, -0.12451171875, -0.13623046875, -0.910888671875, 
424, 3287328059, 0.44354766607284546, -0.02656778320670128, -0.013533197343349457, -0.8957433104515076, 0.027439987286925316, -0.3771895170211792, 8.773805618286133, -1.8924907445907593, -71.52986907958984, -2.259518623352051, -0.132080078125, -0.135498046875, -0.90673828125, 
425, 3287336392, 0.4433613419532776, -0.0312814824283123, -0.01649075746536255, -0.8956338763237, 0.11490796506404877, -0.5431895852088928, 8.962544441223145, 7.175646781921387, -75.8904037475586, -1.9154165983200073, -0.137939453125, -0.137939453125, -0.9033203125, 
426, 3287344725, 0.443269282579422, -0.03599807992577553, -0.020209286361932755, -0.8954260349273682, 0.4093480706214905, -0.4723946154117584, 9.14426326751709, 16.58209991455078, -80.56791687011719, -0.48129430413246155, -0.14990234375, -0.136962890625, -0.900634765625, 
427, 3287353058, 0.4432358741760254, -0.040740519762039185, -0.024605799466371536, -0.895129382610321, 0.8413872122764587, -0.42917823791503906, 8.904642105102539, 24.83905029296875, -85.06549835205078, 0.45162054896354675, -0.160888671875, -0.139404296875, -0.89599609375, 
428, 3287361391, 0.44329360127449036, -0.045625630766153336, -0.029217010363936424, -0.8947263956069946, 1.062748670578003, -0.27999910712242126, 8.766274452209473, 26.690832138061523, -88.1419906616211, 2.150394916534424, -0.172607421875, -0.143310546875, -0.889404296875, 
429, 3287369724, 0.4434027671813965, -0.05078181251883507, -0.034004006534814835, -0.8942253589630127, 1.2863868474960327, 0.1340823769569397, 8.654353141784668, 27.280601501464844, -92.60660552978516, 3.380505084991455, -0.18310546875, -0.14599609375, -0.88720703125, 
430, 3287378057, 0.44342726469039917, -0.05612022429704666, -0.03872472420334816, -0.8937019109725952, 1.6032533645629883, 0.2382306456565857, 8.696415901184082, 25.29935646057129, -94.4803237915039, 2.605130434036255, -0.196044921875, -0.14794921875, -0.882080078125, 
431, 3287386390, 0.44337689876556396, -0.0612969771027565, -0.04321544989943504, -0.8931806683540344, 1.6765108108520508, 0.5404818058013916, 8.70803451538086, 23.406356811523438, -91.1472396850586, 1.7659233808517456, -0.206298828125, -0.152099609375, -0.875732421875, 
432, 3287394723, 0.44320911169052124, -0.0664401650428772, -0.04735960066318512, -0.8926860094070435, 1.5383034944534302, 0.7730066776275635, 8.711410522460938, 19.229141235351562, -88.64788818359375, 0.4303862452507019, -0.211181640625, -0.155517578125, -0.870849609375, 
433, 3287403056, 0.44291773438453674, -0.07175754010677338, -0.05131576955318451, -0.8922003507614136, 1.4291256666183472, 0.6029706001281738, 8.853672981262207, 15.751935958862305, -89.73462677001953, -0.8532165288925171, -0.22265625, -0.156494140625, -0.86669921875, 
434, 3287411389, 0.4425624907016754, -0.07737182080745697, -0.0552450530230999, -0.8916725516319275, 1.478036880493164, 0.3574782609939575, 8.94809341430664, 13.567416191101074, -93.27921295166016, -1.144606590270996, -0.238037109375, -0.159423828125, -0.8603515625, 
435, 3287419722, 0.442214697599411, -0.08322431147098541, -0.05923952907323837, -0.8910614252090454, 1.586743712425232, 0.2863180637359619, 8.821134567260742, 13.000754356384277, -96.70104217529297, -0.435445636510849, -0.24560546875, -0.158935546875, -0.856689453125, 
436, 3287428055, 0.44189733266830444, -0.089487724006176, -0.06332941353321075, -0.8903302550315857, 1.6594834327697754, 0.3957418203353882, 8.800626754760742, 11.791891098022461, -102.40972137451172, 0.8937017321586609, -0.260498046875, -0.1611328125, -0.84716796875, 
437, 3287436388, 0.44158148765563965, -0.09645882993936539, -0.06739136576652527, -0.8894603252410889, 2.232999324798584, 0.6716729402542114, 8.907878875732422, 7.28288459777832, -111.09356689453125, 2.4052155017852783, -0.27490234375, -0.164306640625, -0.842041015625, 
438, 3287444721, 0.4412386417388916, -0.10373091697692871, -0.0713714137673378, -0.8885011672973633, 3.278102397918701, 0.5504921078681946, 8.836531639099121, 4.488241672515869, -114.40178680419922, 3.006466865539551, -0.28564453125, -0.166015625, -0.8359375, 
439, 3287453054, 0.440812349319458, -0.11077412217855453, -0.07500960677862167, -0.8875625133514404, 3.6414873600006104, 0.3343450427055359, 8.898674964904785, 1.5725386142730713, -109.60199737548828, 2.124377489089966, -0.297119140625, -0.163818359375, -0.8271484375, 
440, 3287461387, 0.440230131149292, -0.11742860078811646, -0.07844162732362747, -0.8866987824440002, 3.235422134399414, 0.4363384246826172, 8.926636695861816, 1.084324836730957, -103.62815856933594, -0.3233059048652649, -0.310546875, -0.16455078125, -0.824462890625, 
441, 3287469720, 0.4394548535346985, -0.12394047528505325, -0.08187234401702881, -0.8858864903450012, 2.8151543140411377, 0.573671817779541, 8.873342514038086, 1.578530192375183, -102.03352355957031, -3.136107921600342, -0.320556640625, -0.165283203125, -0.81494140625, 
442, 3287478053, 0.4386826157569885, -0.13054946064949036, -0.08534015715122223, -0.884992241859436, 2.776792526245117, 0.5688767433166504, 9.105721473693848, 1.5258928537368774, -103.54774475097656, -2.560474157333374, -0.3349609375, -0.1650390625, -0.80615234375, 
443, 3287486386, 0.4379236400127411, -0.1373167186975479, -0.0889371931552887, -0.8839893937110901, 3.013410806655884, 0.3713418245315552, 8.98019027709961, 2.310337543487549, -106.46267700195312, -1.787968397140503, -0.344970703125, -0.1669921875, -0.801025390625, 
444, 3287494719, 0.4373093247413635, -0.14428101480007172, -0.09249521046876907, -0.882818341255188, 3.0974552631378174, 0.31756970286369324, 8.657819747924805, 1.1109906435012817, -108.73329162597656, 1.2979766130447388, -0.356689453125, -0.167236328125, -0.79296875, 
445, 3287503052, 0.43681567907333374, -0.1514882892370224, -0.09605178982019424, -0.8814745545387268, 3.060858964920044, 0.2967584729194641, 8.45478343963623, 0.10800362378358841, -111.89339447021484, 4.113755702972412, -0.36376953125, -0.16650390625, -0.785400390625, 
