sep=,
PacketCounter,SampleTimeFine,Quat_W,Quat_X,Quat_Y,Quat_Z,Acc_X,Acc_Y,Acc_Z,Gyr_X,Gyr_Y,Gyr_Z,Mag_X,Mag_Y,Mag_Z,
0, 3922011004, 0.3954531252384186, -0.5066527724266052, -0.4143768548965454, -0.6443596482276917, 0, 0, 0, 0, 0, 0, -0.75830078125, -0.156005859375, 0.141845703125, 
1, 3922019337, 0.39536601305007935, -0.5069593787193298, -0.4139798879623413, -0.6444270014762878, 9.673686027526855, 1.2595385313034058, 1.4505763053894043, -7.093197822570801, -0.3428722321987152, 3.242365598678589, -0.75927734375, -0.156494140625, 0.144775390625, 
2, 3922027670, 0.3953365981578827, -0.5072130560874939, -0.41364577412605286, -0.6444600224494934, 9.693642616271973, 1.171365737915039, 1.4549949169158936, -5.1625237464904785, -0.0791223794221878, 3.2603468894958496, -0.759521484375, -0.154541015625, 0.14404296875, 
3, 3922036003, 0.3952663838863373, -0.5074781179428101, -0.41342952847480774, -0.6444331407546997, 9.745855331420898, 1.158698558807373, 1.496649146080017, -3.983654022216797, -1.4357548952102661, 2.505699634552002, -0.75830078125, -0.156982421875, 0.143310546875, 
4, 3922044336, 0.3951916992664337, -0.5077189803123474, -0.41330477595329285, -0.64436936378479, 9.866634368896484, 1.212411642074585, 1.517579436302185, -3.0029611587524414, -2.0372278690338135, 1.849514126777649, -0.760498046875, -0.15478515625, 0.146484375, 
5, 3922052669, 0.3951721787452698, -0.5078896284103394, -0.41323935985565186, -0.6442887783050537, 9.914934158325195, 1.242905616760254, 1.5098912715911865, -2.535975933074951, -1.6410402059555054, 1.4949748516082764, -0.759521484375, -0.155517578125, 0.142822265625, 
6, 3922061002, 0.39506441354751587, -0.5081024169921875, -0.41315901279449463, -0.6442384719848633, 9.913305282592773, 1.2419662475585938, 1.583382487297058, -2.7664785385131836, -2.1214094161987305, 1.014246940612793, -0.758544921875, -0.154541015625, 0.142578125, 
7, 3922069335, 0.39489057660102844, -0.5083531737327576, -0.4130688011646271, -0.6442049145698547, 9.948737144470215, 1.2420744895935059, 1.6016242504119873, -2.853605031967163, -2.5541746616363525, 0.7549155354499817, -0.760498046875, -0.156005859375, 0.144287109375, 
8, 3922077668, 0.3947516977787018, -0.5085711479187012, -0.4130397140979767, -0.6441367864608765, 9.972221374511719, 1.262424349784851, 1.647369384765625, -2.455585479736328, -2.7469985485076904, 0.5069184899330139, -0.759521484375, -0.155029296875, 0.14501953125, 
9, 3922086001, 0.3946245312690735, -0.508770763874054, -0.41304391622543335, -0.6440544724464417, 9.936479568481445, 1.2800140380859375, 1.6536204814910889, -1.8392173051834106, -2.777876615524292, 0.3767854571342468, -0.75830078125, -0.1552734375, 0.146728515625, 
10, 3922094334, 0.39452797174453735, -0.5089540481567383, -0.4130832552909851, -0.6439436078071594, 9.876734733581543, 1.3024522066116333, 1.6658118963241577, -1.1221981048583984, -2.870856285095215, 0.43767040967941284, -0.760986328125, -0.155029296875, 0.14501953125, 
11, 3922102667, 0.39439257979393005, -0.5091584324836731, -0.41311684250831604, -0.6438434720039368, 9.875381469726562, 1.3425877094268799, 1.7175978422164917, -0.6859492659568787, -3.0403330326080322, 0.3514145314693451, -0.758544921875, -0.154296875, 0.1474609375, 
12, 3922111000, 0.39433130621910095, -0.5092936754226685, -0.4132235646247864, -0.6437055468559265, 9.823888778686523, 1.3414419889450073, 1.7216366529464722, 0.13643422722816467, -2.7992260456085205, 0.15410804748535156, -0.759521484375, -0.154296875, 0.146484375, 
13, 3922119333, 0.3943207263946533, -0.5093738436698914, -0.41336992383003235, -0.6435545682907104, 9.79863452911377, 1.3670036792755127, 1.6930259466171265, 1.125515103340149, -2.3306007385253906, 0.08311818540096283, -0.757568359375, -0.15380859375, 0.1455078125, 
14, 3922127666, 0.39435261487960815, -0.5094089508056641, -0.41354402899742126, -0.6433953046798706, 9.704183578491211, 1.3382657766342163, 1.681423306465149, 2.0487546920776367, -1.8977458477020264, 0.05122847482562065, -0.757568359375, -0.1533203125, 0.1474609375, 
15, 3922135999, 0.39444124698638916, -0.5093844532966614, -0.4137766659259796, -0.6432108879089355, 9.682454109191895, 1.3252896070480347, 1.6829497814178467, 2.9920246601104736, -1.588146686553955, -0.10628627240657806, -0.760986328125, -0.1533203125, 0.14892578125, 
16, 3922144332, 0.3945324420928955, -0.5093328952789307, -0.41402581334114075, -0.6430354118347168, 9.644883155822754, 1.2818406820297241, 1.6868312358856201, 3.6910624504089355, -1.314560890197754, -0.35461628437042236, -0.760498046875, -0.1533203125, 0.14892578125, 
17, 3922152665, 0.3946077227592468, -0.509263813495636, -0.41429176926612854, -0.6428724527359009, 9.64088249206543, 1.2420241832733154, 1.6739648580551147, 4.364076614379883, -1.1666643619537354, -0.673154890537262, -0.758544921875, -0.15478515625, 0.146728515625, 
18, 3922160998, 0.39473432302474976, -0.509143590927124, -0.4145966172218323, -0.6426934599876404, 9.611122131347656, 1.2093497514724731, 1.639117956161499, 4.8242621421813965, -0.8331669569015503, -0.8037106394767761, -0.761474609375, -0.15380859375, 0.1474609375, 
19, 3922169331, 0.3948782682418823, -0.5089964270591736, -0.4149261713027954, -0.6425089240074158, 9.592791557312012, 1.1515570878982544, 1.6024738550186157, 5.506766319274902, -0.6392544507980347, -0.9068207740783691, -0.759521484375, -0.15283203125, 0.14892578125, 
20, 3922177664, 0.39504867792129517, -0.5088207721710205, -0.4152909517288208, -0.6423076391220093, 9.603558540344238, 1.1236581802368164, 1.5619817972183228, 6.087697505950928, -0.5745016932487488, -1.031408429145813, -0.759033203125, -0.154052734375, 0.15185546875, 
21, 3922185997, 0.3952353894710541, -0.5086296200752258, -0.4156753420829773, -0.6420954465866089, 9.57889175415039, 1.091783046722412, 1.56987464427948, 6.51491641998291, -0.518867552280426, -1.0385545492172241, -0.759033203125, -0.153076171875, 0.150390625, 
22, 3922194330, 0.39544689655303955, -0.5083980560302734, -0.41607528924942017, -0.6418894529342651, 9.605114936828613, 1.0880982875823975, 1.5129438638687134, 7.016647815704346, -0.07128441333770752, -1.2088637351989746, -0.759033203125, -0.1533203125, 0.14794921875, 
23, 3922202663, 0.39565229415893555, -0.5081503987312317, -0.41648438572883606, -0.6416935324668884, 9.584013938903809, 1.0967576503753662, 1.5153541564941406, 7.401439189910889, 0.10591486841440201, -1.41184401512146, -0.758544921875, -0.153076171875, 0.15087890625, 
24, 3922210996, 0.3958384096622467, -0.5079092979431152, -0.4169260859489441, -0.641482949256897, 9.623604774475098, 1.0785155296325684, 1.5068962574005127, 7.285918235778809, -0.3898358643054962, -1.752718210220337, -0.760498046875, -0.152587890625, 0.150390625, 
25, 3922219329, 0.39603182673454285, -0.5076356530189514, -0.41738978028297424, -0.6412785649299622, 9.69486141204834, 1.107810616493225, 1.4948341846466064, 7.336533546447754, -0.1735236644744873, -2.0983312129974365, -0.761962890625, -0.153564453125, 0.15283203125, 
26, 3922227662, 0.3962066173553467, -0.5073488354682922, -0.4178279638290405, -0.6411124467849731, 9.696465492248535, 1.1447129249572754, 1.4898335933685303, 7.171486854553223, 0.2767234146595001, -2.332714080810547, -0.75830078125, -0.1572265625, 0.150146484375, 
27, 3922235995, 0.39641445875167847, -0.507027268409729, -0.4182816743850708, -0.6409422755241394, 9.703941345214844, 1.182974100112915, 1.476026177406311, 6.848721504211426, 0.5490283370018005, -2.4464924335479736, -0.758056640625, -0.154541015625, 0.152099609375, 
28, 3922244328, 0.39657333493232727, -0.5067350268363953, -0.41868412494659424, -0.640812337398529, 9.73126220703125, 1.2025066614151, 1.4892579317092896, 6.564774513244629, 0.6816971898078918, -2.451730251312256, -0.758056640625, -0.153564453125, 0.15185546875, 
29, 3922252661, 0.3967141807079315, -0.5064652562141418, -0.419046014547348, -0.6407017707824707, 9.741398811340332, 1.2488690614700317, 1.4618934392929077, 6.19618558883667, 0.786766767501831, -2.2411813735961914, -0.758544921875, -0.155029296875, 0.151611328125, 
30, 3922260994, 0.396896094083786, -0.5062001943588257, -0.41939157247543335, -0.6405724287033081, 9.745797157287598, 1.2685946226119995, 1.4716428518295288, 6.072302341461182, 0.8869569897651672, -1.7005289793014526, -0.759521484375, -0.154541015625, 0.15234375, 
31, 3922269327, 0.39709991216659546, -0.5059438943862915, -0.4196929633617401, -0.6404511332511902, 9.745929718017578, 1.2930899858474731, 1.4303117990493774, 5.72373104095459, 1.2391397953033447, -1.1828268766403198, -0.7578125, -0.156982421875, 0.152587890625, 
32, 3922277660, 0.39733725786209106, -0.5056713819503784, -0.41993898153305054, -0.6403582096099854, 9.713472366333008, 1.340309977531433, 1.3980467319488525, 5.413236141204834, 2.068657159805298, -0.7604227066040039, -0.75732421875, -0.156494140625, 0.153564453125, 
33, 3922285993, 0.3975509703159332, -0.5054259896278381, -0.4200995862483978, -0.6403138041496277, 9.674445152282715, 1.4135903120040894, 1.3564598560333252, 4.670217990875244, 2.586705207824707, -0.383150577545166, -0.758056640625, -0.154541015625, 0.151611328125, 
34, 3922294326, 0.3977780044078827, -0.5051818490028381, -0.4202383756637573, -0.6402744650840759, 9.654385566711426, 1.4392142295837402, 1.3471521139144897, 3.932297468185425, 2.719463348388672, -0.23517706990242004, -0.759033203125, -0.153564453125, 0.15185546875, 
35, 3922302659, 0.3979666531085968, -0.5049877166748047, -0.42030420899391174, -0.6402668952941895, 9.679316520690918, 1.4187159538269043, 1.3615678548812866, 2.7770566940307617, 2.7107927799224854, 0.09163492172956467, -0.75830078125, -0.156982421875, 0.151611328125, 
36, 3922310992, 0.3981279134750366, -0.504816472530365, -0.4203323423862457, -0.6402834057807922, 9.689579963684082, 1.4004863500595093, 1.3757883310317993, 1.7796131372451782, 2.6922483444213867, 0.07098986208438873, -0.758544921875, -0.153076171875, 0.15185546875, 
37, 3922319325, 0.3982912302017212, -0.504616916179657, -0.42036139965057373, -0.6403201222419739, 9.717552185058594, 1.3727574348449707, 1.3911292552947998, 1.43548583984375, 3.038450241088867, -0.2401590794324875, -0.759033203125, -0.152587890625, 0.15380859375, 
38, 3922327658, 0.3984162211418152, -0.5044170022010803, -0.4203779697418213, -0.640389084815979, 9.713595390319824, 1.3953297138214111, 1.3977564573287964, 1.2806862592697144, 3.162717580795288, -0.6205688714981079, -0.758544921875, -0.152099609375, 0.15234375, 
39, 3922335991, 0.39851778745651245, -0.504212498664856, -0.42039182782173157, -0.6404776573181152, 9.73725700378418, 1.4198535680770874, 1.4147499799728394, 1.235605001449585, 3.2537763118743896, -0.8970745205879211, -0.758544921875, -0.153564453125, 0.15185546875, 
40, 3922344324, 0.39861834049224854, -0.5040175914764404, -0.4203878939151764, -0.640571117401123, 9.759230613708496, 1.427835464477539, 1.397847294807434, 0.7596926689147949, 3.258284568786621, -0.8003040552139282, -0.757080078125, -0.154541015625, 0.149658203125, 
41, 3922352657, 0.39870259165763855, -0.5038390755653381, -0.4203680157661438, -0.6406720280647278, 9.779133796691895, 1.4294452667236328, 1.4016642570495605, 0.13745880126953125, 3.1318655014038086, -0.8021866083145142, -0.757568359375, -0.153076171875, 0.15087890625, 
42, 3922360990, 0.39877164363861084, -0.5036817789077759, -0.42031291127204895, -0.6407888531684875, 9.814824104309082, 1.4490623474121094, 1.3677045106887817, -0.2512500584125519, 3.1873459815979004, -0.6349513530731201, -0.757568359375, -0.154052734375, 0.1513671875, 
43, 3922369323, 0.3988878130912781, -0.5035045742988586, -0.4202667474746704, -0.640886127948761, 9.824131965637207, 1.4685481786727905, 1.3603415489196777, -0.6476047039031982, 3.3195152282714844, -0.42711734771728516, -0.757568359375, -0.153076171875, 0.15185546875, 
44, 3922377656, 0.3989514410495758, -0.5033823847770691, -0.4201657474040985, -0.6410086750984192, 9.766036987304688, 1.4913594722747803, 1.3562802076339722, -0.9174506664276123, 3.1368091106414795, -0.1926446557044983, -0.759033203125, -0.1552734375, 0.149169921875, 
45, 3922385989, 0.39902743697166443, -0.5032708048820496, -0.4200741648674011, -0.6411091089248657, 9.755041122436523, 1.494957447052002, 1.350921392440796, -0.8394680619239807, 2.8953051567077637, 0.023334570229053497, -0.759033203125, -0.154296875, 0.14892578125, 
46, 3922394322, 0.39911291003227234, -0.5031611919403076, -0.4199715852737427, -0.641209065914154, 9.747300148010254, 1.4633655548095703, 1.3570408821105957, -0.7203363180160522, 3.00539493560791, 0.20780830085277557, -0.760498046875, -0.154296875, 0.150390625, 
47, 3922402655, 0.3991129994392395, -0.503110945224762, -0.41979119181632996, -0.6413666605949402, 9.69709587097168, 1.4681799411773682, 1.356034517288208, -0.7100009918212891, 3.0801503658294678, 0.32595396041870117, -0.760498046875, -0.15576171875, 0.15087890625, 
48, 3922410988, 0.39920374751091003, -0.5029825568199158, -0.41969507932662964, -0.6414737105369568, 9.67429256439209, 1.4371283054351807, 1.3859212398529053, -0.5639230012893677, 3.215162515640259, 0.06292136758565903, -0.760009765625, -0.15478515625, 0.14794921875, 
49, 3922419321, 0.3992864489555359, -0.5028287172317505, -0.4196111857891083, -0.6415977478027344, 9.678112983703613, 1.399002194404602, 1.3786834478378296, -0.4603902995586395, 3.450429677963257, -0.31756529211997986, -0.758056640625, -0.154296875, 0.14794921875, 
50, 3922427654, 0.3993726670742035, -0.5026768445968628, -0.4195367097854614, -0.6417118310928345, 9.6702880859375, 1.3775897026062012, 1.372494101524353, -0.31502947211265564, 3.3263285160064697, -0.3017100691795349, -0.759521484375, -0.154296875, 0.1474609375, 
51, 3922435987, 0.3994224965572357, -0.5025396943092346, -0.4194769263267517, -0.6418272852897644, 9.67968463897705, 1.3654465675354004, 1.3606305122375488, -0.08352802693843842, 2.981023073196411, -0.5653830766677856, -0.759033203125, -0.1552734375, 0.145751953125, 
52, 3922444320, 0.39949750900268555, -0.50240558385849, -0.4194537401199341, -0.6419006586074829, 9.738252639770508, 1.3345286846160889, 1.3729093074798584, 0.1970502883195877, 2.541034460067749, -0.4291280508041382, -0.758544921875, -0.15380859375, 0.1484375, 
53, 3922452653, 0.39958512783050537, -0.5022656917572021, -0.41945305466651917, -0.641956090927124, 9.76340389251709, 1.3496829271316528, 1.359043836593628, 0.6948885917663574, 2.4346330165863037, -0.3813319206237793, -0.75830078125, -0.154541015625, 0.144287109375, 
54, 3922460986, 0.39969268441200256, -0.5021265745162964, -0.419450968503952, -0.6419993042945862, 9.783050537109375, 1.376664638519287, 1.3476895093917847, 0.8091791868209839, 2.448387861251831, -0.1502659022808075, -0.757080078125, -0.15283203125, 0.14794921875, 
55, 3922469319, 0.3998337686061859, -0.5019744038581848, -0.41946500539779663, -0.6420213580131531, 9.810808181762695, 1.4088939428329468, 1.3121875524520874, 1.0412698984146118, 2.4855284690856934, 0.03831889480352402, -0.758056640625, -0.15234375, 0.14892578125, 
56, 3922477652, 0.3999646008014679, -0.501850962638855, -0.4194638729095459, -0.6420372128486633, 9.76528549194336, 1.463768720626831, 1.288621425628662, 1.0519894361495972, 2.251683473587036, 0.2896585762500763, -0.759033203125, -0.15478515625, 0.14697265625, 
57, 3922485985, 0.40009862184524536, -0.5017385482788086, -0.4194731116294861, -0.6420354843139648, 9.754029273986816, 1.483593463897705, 1.3069180250167847, 0.9508644938468933, 1.9660078287124634, 0.38184425234794617, -0.761474609375, -0.15380859375, 0.14697265625, 
58, 3922494318, 0.40021759271621704, -0.5016515254974365, -0.41945311427116394, -0.6420424580574036, 9.761187553405762, 1.4899228811264038, 1.3216980695724487, 0.6530221104621887, 1.9036883115768433, 0.5736691951751709, -0.759033203125, -0.15576171875, 0.145751953125, 
59, 3922502651, 0.40028080344200134, -0.5015993118286133, -0.41940221190452576, -0.6420769095420837, 9.746502876281738, 1.532834768295288, 1.346542239189148, 0.26921841502189636, 1.7244913578033447, 0.4551777243614197, -0.7568359375, -0.154296875, 0.146728515625, 
60, 3922510984, 0.4003598988056183, -0.5015126466751099, -0.41937142610549927, -0.6421154141426086, 9.747517585754395, 1.5124094486236572, 1.345534324645996, 0.09937041997909546, 1.9459774494171143, 0.12495904415845871, -0.759521484375, -0.15087890625, 0.1455078125, 
61, 3922519317, 0.40042245388031006, -0.5014253854751587, -0.4193446636199951, -0.6421620845794678, 9.723689079284668, 1.4948793649673462, 1.3442962169647217, -0.21165041625499725, 1.8732073307037354, -0.11208789050579071, -0.758056640625, -0.15234375, 0.14599609375, 
62, 3922527650, 0.4004521667957306, -0.5013548135757446, -0.41931211948394775, -0.6422199010848999, 9.705572128295898, 1.489815354347229, 1.3608334064483643, -0.457790344953537, 1.6627223491668701, -0.3126857578754425, -0.759521484375, -0.154296875, 0.1455078125, 
63, 3922535983, 0.40042784810066223, -0.501305878162384, -0.4192681610584259, -0.6423019766807556, 9.678815841674805, 1.504036545753479, 1.3522377014160156, -1.073569416999817, 1.4131501913070679, -0.6866408586502075, -0.760498046875, -0.15283203125, 0.1455078125, 
64, 3922544316, 0.40036100149154663, -0.5012756586074829, -0.4192010462284088, -0.6424110531806946, 9.674601554870605, 1.421994924545288, 1.3299885988235474, -1.946528434753418, 1.2939928770065308, -0.9770806431770325, -0.759033203125, -0.152587890625, 0.14453125, 
65, 3922552649, 0.4002510607242584, -0.5012617707252502, -0.41911739110946655, -0.6425450444221497, 9.68769359588623, 1.3789805173873901, 1.3297959566116333, -2.3367865085601807, 1.2087998390197754, -1.2271010875701904, -0.760498046875, -0.155029296875, 0.14306640625, 
66, 3922560982, 0.40014803409576416, -0.5012387633323669, -0.41905683279037476, -0.6426666975021362, 9.708831787109375, 1.3474255800247192, 1.3122625350952148, -2.2500569820404053, 1.0729162693023682, -1.3687992095947266, -0.759033203125, -0.15380859375, 0.14599609375, 
67, 3922569315, 0.40002018213272095, -0.5012280941009521, -0.4189915060997009, -0.6427968740463257, 9.702836990356445, 1.3277570009231567, 1.326283574104309, -2.4164724349975586, 0.9353165030479431, -1.4910813570022583, -0.760009765625, -0.155029296875, 0.14306640625, 
68, 3922577648, 0.39989492297172546, -0.5012194514274597, -0.4189370274543762, -0.6429171562194824, 9.73515510559082, 1.3319205045700073, 1.348952293395996, -2.4203274250030518, 0.7729607820510864, -1.5169389247894287, -0.759521484375, -0.153076171875, 0.14453125, 
69, 3922585981, 0.39975425601005554, -0.5012181997299194, -0.41888490319252014, -0.6430395841598511, 9.740472793579102, 1.3403234481811523, 1.3617286682128906, -2.3562405109405518, 0.6586956977844238, -1.591066598892212, -0.759521484375, -0.154541015625, 0.1435546875, 
70, 3922594314, 0.3996220827102661, -0.5012140274047852, -0.4188479781150818, -0.6431490778923035, 9.729142189025879, 1.3428696393966675, 1.3900325298309326, -2.2747104167938232, 0.5226072072982788, -1.6156049966812134, -0.75927734375, -0.156982421875, 0.144287109375, 
71, 3922602647, 0.39949578046798706, -0.5012009143829346, -0.41883182525634766, -0.6432483792304993, 9.719156265258789, 1.3358014822006226, 1.4023555517196655, -2.5080819129943848, 0.38444405794143677, -1.7743875980377197, -0.7578125, -0.156005859375, 0.143798828125, 
72, 3922610980, 0.3993249833583832, -0.5012272000312805, -0.4187982976436615, -0.6433557868003845, 9.724658966064453, 1.3257347345352173, 1.4085463285446167, -2.667440891265869, -0.00012807118764612824, -1.7927402257919312, -0.7607421875, -0.156982421875, 0.144287109375, 
73, 3922619313, 0.39914819598197937, -0.5012513995170593, -0.4188060164451599, -0.6434414982795715, 9.697460174560547, 1.3115789890289307, 1.4071003198623657, -2.318549394607544, -0.4000431299209595, -2.0242419242858887, -0.75830078125, -0.1572265625, 0.146728515625, 
74, 3922627646, 0.39898404479026794, -0.5012741088867188, -0.41884198784828186, -0.6435022354125977, 9.657241821289062, 1.3426693677902222, 1.4320772886276245, -1.717203974723816, -0.6342852711677551, -1.9778032302856445, -0.758544921875, -0.155029296875, 0.145263671875, 
75, 3922635979, 0.3987853229045868, -0.5013141632080078, -0.4188894033432007, -0.6435632109642029, 9.610228538513184, 1.3642258644104004, 1.4182342290878296, -1.1720048189163208, -0.9331010580062866, -2.1263911724090576, -0.76025390625, -0.156982421875, 0.143798828125, 
76, 3922644312, 0.39862966537475586, -0.5013247728347778, -0.4189717769622803, -0.6435977816581726, 9.611719131469727, 1.348501443862915, 1.4342015981674194, -1.0309216976165771, -0.9141464233398438, -2.147599697113037, -0.7587890625, -0.157470703125, 0.144775390625, 
77, 3922652645, 0.39850088953971863, -0.501312255859375, -0.4190787971019745, -0.6436176300048828, 9.570107460021973, 1.3414503335952759, 1.4116286039352417, -1.105459213256836, -0.8762117624282837, -2.2271320819854736, -0.75830078125, -0.155517578125, 0.143310546875, 
78, 3922660978, 0.39833536744117737, -0.5013231635093689, -0.4191369116306305, -0.6436737179756165, 9.627300262451172, 1.3143309354782104, 1.4274623394012451, -1.4401987791061401, -0.6910080313682556, -2.1848814487457275, -0.7607421875, -0.156982421875, 0.144775390625, 
79, 3922669311, 0.39813750982284546, -0.501350462436676, -0.41917088627815247, -0.6437528133392334, 9.67459774017334, 1.3010387420654297, 1.4282054901123047, -1.895389437675476, -0.6947733759880066, -2.2883119583129883, -0.75830078125, -0.155517578125, 0.144775390625, 
80, 3922677644, 0.39793214201927185, -0.5013759732246399, -0.4192066192626953, -0.6438368558883667, 9.688176155090332, 1.2796987295150757, 1.473715901374817, -2.1537985801696777, -0.7357175946235657, -2.4517176151275635, -0.7587890625, -0.156982421875, 0.144775390625, 
81, 3922685977, 0.3977326452732086, -0.5013868808746338, -0.4192708432674408, -0.6439095139503479, 9.705133438110352, 1.284151554107666, 1.4969817399978638, -1.8472731113433838, -0.8171197175979614, -2.623896837234497, -0.75830078125, -0.156982421875, 0.143798828125, 
82, 3922694310, 0.3975028693675995, -0.5014063119888306, -0.4193805456161499, -0.6439647674560547, 9.721720695495605, 1.2852894067764282, 1.4870734214782715, -1.4674650430679321, -1.4241770505905151, -3.055931806564331, -0.75732421875, -0.161376953125, 0.14208984375, 
83, 3922702643, 0.397244930267334, -0.5014484524726868, -0.4195100665092468, -0.6440068483352661, 9.706575393676758, 1.312756061553955, 1.524570107460022, -0.9282598495483398, -1.895811915397644, -3.130981683731079, -0.759765625, -0.158447265625, 0.145263671875, 
84, 3922710976, 0.39700329303741455, -0.5014709830284119, -0.4196922779083252, -0.6440195441246033, 9.654366493225098, 1.3439557552337646, 1.5036072731018066, -0.6784442663192749, -2.2092533111572266, -3.409536361694336, -0.7568359375, -0.158935546875, 0.143798828125, 
85, 3922719309, 0.3967720568180084, -0.5014960169792175, -0.4198881685733795, -0.6440147757530212, 9.671079635620117, 1.3440474271774292, 1.5277668237686157, -0.6529068350791931, -2.3951101303100586, -3.328083038330078, -0.75732421875, -0.15869140625, 0.146728515625, 
86, 3922727642, 0.39655348658561707, -0.5015329122543335, -0.4200505316257477, -0.6440149545669556, 9.742443084716797, 1.3027667999267578, 1.5138174295425415, -0.7012152671813965, -2.183459758758545, -2.9166414737701416, -0.75732421875, -0.16064453125, 0.146484375, 
87, 3922735975, 0.3964066803455353, -0.5015366673469543, -0.4202210009098053, -0.6439912915229797, 9.804098129272461, 1.3124549388885498, 1.490373134613037, -0.39991506934165955, -1.7583917379379272, -2.4768710136413574, -0.7568359375, -0.160888671875, 0.14599609375, 
88, 3922744308, 0.3962967097759247, -0.5015140771865845, -0.4203939437866211, -0.6439637541770935, 9.82490348815918, 1.3162609338760376, 1.4476842880249023, 0.6258325576782227, -1.2763957977294922, -2.2206647396087646, -0.75634765625, -0.1591796875, 0.14697265625, 
89, 3922752641, 0.3962385356426239, -0.5014631748199463, -0.4205951690673828, -0.6439076662063599, 9.837810516357422, 1.3766108751296997, 1.411365032196045, 1.8374629020690918, -1.0310882329940796, -1.9112446308135986, -0.7568359375, -0.162353515625, 0.14599609375, 
90, 3922760974, 0.39624878764152527, -0.5013594627380371, -0.4208548069000244, -0.6438125967979431, 9.821197509765625, 1.436458706855774, 1.4120382070541382, 3.0551505088806152, -0.8014182448387146, -1.8536508083343506, -0.75732421875, -0.16064453125, 0.146484375, 
91, 3922769307, 0.3963257372379303, -0.5012200474739075, -0.421151340007782, -0.6436796188354492, 9.765549659729004, 1.5031548738479614, 1.414297103881836, 3.9807469844818115, -0.593840479850769, -1.5497125387191772, -0.75634765625, -0.1611328125, 0.1474609375, 
92, 3922777640, 0.39642754197120667, -0.5010730028152466, -0.4214189350605011, -0.6435562372207642, 9.687885284423828, 1.5612539052963257, 1.410291314125061, 4.1547956466674805, -0.1272515207529068, -1.197235107421875, -0.755859375, -0.159912109375, 0.14501953125, 
93, 3922785973, 0.3965550363063812, -0.500921905040741, -0.42165327072143555, -0.6434419751167297, 9.604313850402832, 1.612087368965149, 1.391516923904419, 3.627039670944214, 0.2580506205558777, -0.8587428331375122, -0.75537109375, -0.160400390625, 0.1455078125, 
94, 3922794306, 0.39664924144744873, -0.5008222460746765, -0.42182469367980957, -0.6433491110801697, 9.560304641723633, 1.6086387634277344, 1.3771002292633057, 2.817732334136963, 0.14322198927402496, -0.49327898025512695, -0.75537109375, -0.162109375, 0.14697265625, 
95, 3922802639, 0.39670419692993164, -0.5007662177085876, -0.4219321608543396, -0.6432883739471436, 9.563897132873535, 1.6615253686904907, 1.3553494215011597, 1.828702688217163, 0.14840887486934662, -0.2665545344352722, -0.7578125, -0.1591796875, 0.148193359375, 
96, 3922810972, 0.3967353403568268, -0.5007448792457581, -0.4219942092895508, -0.6432451605796814, 9.582677841186523, 1.643079400062561, 1.3537253141403198, 0.7005236744880676, 0.024128606542944908, -0.11361192911863327, -0.7578125, -0.1611328125, 0.1474609375, 
97, 3922819305, 0.3967525362968445, -0.5007407665252686, -0.4220159351825714, -0.6432233452796936, 9.57706356048584, 1.6888504028320312, 1.3637824058532715, -0.22368910908699036, 0.12941591441631317, -0.001152640557847917, -0.75537109375, -0.16064453125, 0.14892578125, 
98, 3922827638, 0.3967287540435791, -0.500767171382904, -0.42197781801223755, -0.6432424783706665, 9.6066255569458, 1.734228253364563, 1.351608395576477, -1.1858749389648438, 0.25875499844551086, 0.027945129200816154, -0.755859375, -0.15966796875, 0.150390625, 
99, 3922835971, 0.3966599702835083, -0.5008260607719421, -0.42186665534973145, -0.6433120369911194, 9.621636390686035, 1.7423536777496338, 1.3563836812973022, -2.5474765300750732, 0.4717373847961426, 0.06839000433683395, -0.75732421875, -0.1611328125, 0.14892578125, 
100, 3922844304, 0.39655667543411255, -0.5009220242500305, -0.421695739030838, -0.6434130072593689, 9.675216674804688, 1.711022138595581, 1.3748127222061157, -3.7625131607055664, 0.4710458219051361, 0.19615381956100464, -0.75634765625, -0.162109375, 0.1494140625, 
101, 3922852637, 0.3964986205101013, -0.5009896159172058, -0.42151814699172974, -0.643512487411499, 9.681903839111328, 1.6851024627685547, 1.3771404027938843, -4.556324481964111, 0.8447831273078918, 0.3150807023048401, -0.75634765625, -0.16015625, 0.14697265625, 
102, 3922860970, 0.3963993191719055, -0.5011026263237, -0.4212512671947479, -0.6436605453491211, 9.643438339233398, 1.6532130241394043, 1.3736529350280762, -4.9500532150268555, 1.1906392574310303, 0.7345521450042725, -0.755859375, -0.16162109375, 0.1494140625, 
103, 3922869303, 0.3962657153606415, -0.5012422204017639, -0.4209422767162323, -0.6438360810279846, 9.632953643798828, 1.5891071557998657, 1.3854997158050537, -5.114483833312988, 1.2883960008621216, 0.853952944278717, -0.7568359375, -0.161865234375, 0.14599609375, 
104, 3922877636, 0.39617693424224854, -0.5013507604598999, -0.42064520716667175, -0.6440003514289856, 9.634296417236328, 1.56874418258667, 1.3711909055709839, -5.215250492095947, 1.5676425695419312, 0.9210878610610962, -0.75830078125, -0.162841796875, 0.146484375, 
105, 3922885969, 0.3960855007171631, -0.5014635324478149, -0.420341819524765, -0.6441669464111328, 9.638604164123535, 1.5313621759414673, 1.393168568611145, -5.4445624351501465, 1.5551812648773193, 0.9504546523094177, -0.7568359375, -0.158935546875, 0.145751953125, 
106, 3922894302, 0.3959834575653076, -0.5015877485275269, -0.4200296998023987, -0.6443365216255188, 9.658048629760742, 1.514301061630249, 1.3915414810180664, -5.555676460266113, 1.4685795307159424, 0.9683334231376648, -0.75634765625, -0.16162109375, 0.146484375, 
107, 3922902635, 0.39585450291633606, -0.5017260313034058, -0.4196886718273163, -0.6445302367210388, 9.686196327209473, 1.487359881401062, 1.4149178266525269, -5.679162979125977, 1.596958041191101, 0.9786816239356995, -0.75537109375, -0.16162109375, 0.14794921875, 
108, 3922910968, 0.3957628011703491, -0.5018420219421387, -0.41937491297721863, -0.6447004675865173, 9.69660758972168, 1.4524585008621216, 1.462038278579712, -5.457727432250977, 1.6151951551437378, 1.020688772201538, -0.759765625, -0.161865234375, 0.14453125, 
109, 3922919301, 0.3956596255302429, -0.5019487142562866, -0.41908177733421326, -0.6448712944984436, 9.704986572265625, 1.4465051889419556, 1.4486479759216309, -4.987628936767578, 1.57646644115448, 0.7852171063423157, -0.7568359375, -0.162353515625, 0.14404296875, 
110, 3922927634, 0.39555203914642334, -0.5020478367805481, -0.41883108019828796, -0.645022988319397, 9.72548770904541, 1.4053394794464111, 1.4806501865386963, -4.8106865882873535, 1.20242178440094, 0.4487229883670807, -0.75634765625, -0.160888671875, 0.14404296875, 
111, 3922935967, 0.39543649554252625, -0.5021466612815857, -0.41861677169799805, -0.6451560854911804, 9.72940444946289, 1.3990839719772339, 1.4764946699142456, -4.460604667663574, 0.8374318480491638, 0.2378794103860855, -0.75634765625, -0.162353515625, 0.1435546875, 
112, 3922944300, 0.3953092694282532, -0.5022540092468262, -0.4184151291847229, -0.645281195640564, 9.767643928527832, 1.37943434715271, 1.4872550964355469, -4.402190685272217, 0.5644224882125854, 0.1260092407464981, -0.75732421875, -0.161865234375, 0.14599609375, 
113, 3922952633, 0.39521804451942444, -0.5023242831230164, -0.4182412326335907, -0.6453951001167297, 9.779580116271973, 1.364456295967102, 1.4648101329803467, -4.095882415771484, 0.820833683013916, 0.04923055320978165, -0.7578125, -0.163330078125, 0.142578125, 
114, 3922960966, 0.39512792229652405, -0.5023738145828247, -0.4180527627468109, -0.6455338597297668, 9.748015403747559, 1.3404648303985596, 1.4646806716918945, -3.791790246963501, 1.3148043155670166, -0.0411236472427845, -0.75732421875, -0.159423828125, 0.1416015625, 
115, 3922969299, 0.3950468599796295, -0.5024018883705139, -0.4178786277770996, -0.645674467086792, 9.770222663879395, 1.311415433883667, 1.4396189451217651, -3.4226763248443604, 1.5106635093688965, -0.1643921583890915, -0.7578125, -0.161865234375, 0.142578125, 
116, 3922977632, 0.3949778974056244, -0.5024281740188599, -0.4177202880382538, -0.6457985639572144, 9.816402435302734, 1.2364948987960815, 1.430764079093933, -3.1684298515319824, 1.3790321350097656, -0.11759495735168457, -0.7578125, -0.162109375, 0.14208984375, 
117, 3922985965, 0.39498844742774963, -0.5024032592773438, -0.4176293611526489, -0.6458702683448792, 9.855387687683105, 1.187806248664856, 1.439153790473938, -2.309072256088257, 1.4485491514205933, -0.004610562231391668, -0.7548828125, -0.160888671875, 0.142578125, 
118, 3922994298, 0.39501112699508667, -0.5023655295372009, -0.41754594445228577, -0.6459397077560425, 9.869429588317871, 1.1712442636489868, 1.4531481266021729, -1.2069685459136963, 1.6893742084503174, 0.11058946698904037, -0.75634765625, -0.162841796875, 0.1435546875, 
119, 3923002631, 0.39505982398986816, -0.502294659614563, -0.41750651597976685, -0.6459904313087463, 9.859647750854492, 1.1787357330322266, 1.4467066526412964, 0.3269272744655609, 1.8663427829742432, 0.06945299357175827, -0.7578125, -0.160888671875, 0.14208984375, 
120, 3923010964, 0.3952096700668335, -0.5021697878837585, -0.4175443649291992, -0.6459713578224182, 9.833984375, 1.2501487731933594, 1.4469938278198242, 1.7304338216781616, 1.9230015277862549, 0.38286879658699036, -0.7578125, -0.1630859375, 0.1396484375, 
121, 3923019297, 0.3953457772731781, -0.5020498633384705, -0.4175826609134674, -0.6459565162658691, 9.798195838928223, 1.2997016906738281, 1.4129340648651123, 2.8422324657440186, 2.0109994411468506, 0.4735560119152069, -0.75927734375, -0.1630859375, 0.138671875, 
122, 3923027630, 0.3955651819705963, -0.5018794536590576, -0.4176901876926422, -0.6458852291107178, 9.769437789916992, 1.368181824684143, 1.4345407485961914, 3.378363847732544, 1.9862303733825684, 0.5415874123573303, -0.7587890625, -0.16162109375, 0.140625, 
123, 3923035963, 0.39578530192375183, -0.5017111897468567, -0.41779032349586487, -0.6458162665367126, 9.7338285446167, 1.4247223138809204, 1.4231451749801636, 3.306797742843628, 2.0392260551452637, 0.6154844164848328, -0.75732421875, -0.158447265625, 0.143310546875, 
124, 3923044296, 0.3959709107875824, -0.501557469367981, -0.4178796410560608, -0.6457642316818237, 9.740989685058594, 1.4563223123550415, 1.4139190912246704, 2.7803871631622314, 1.8770498037338257, 0.358253538608551, -0.7568359375, -0.16162109375, 0.1416015625, 
125, 3923052629, 0.39614683389663696, -0.5014009475708008, -0.4179600775241852, -0.6457258462905884, 9.760564804077148, 1.4475860595703125, 1.4082969427108765, 2.2310380935668945, 1.950972318649292, 0.20315930247306824, -0.7568359375, -0.16064453125, 0.1396484375, 
126, 3923060962, 0.39629065990448, -0.5012544989585876, -0.418006956577301, -0.645720899105072, 9.763711929321289, 1.3996127843856812, 1.422430157661438, 1.8051377534866333, 2.1287224292755127, 0.06475278735160828, -0.75537109375, -0.159423828125, 0.14208984375, 
127, 3923069295, 0.39640671014785767, -0.5011270642280579, -0.4180341958999634, -0.6457309126853943, 9.74882698059082, 1.3969718217849731, 1.4266281127929688, 1.3025096654891968, 2.025343179702759, 0.0043288059532642365, -0.755859375, -0.16162109375, 0.13916015625, 
128, 3923077628, 0.3965105414390564, -0.5010119080543518, -0.4180779755115509, -0.6457282900810242, 9.774002075195312, 1.374480962753296, 1.4322826862335205, 1.3167511224746704, 1.6545259952545166, -0.10116341710090637, -0.7607421875, -0.1611328125, 0.140869140625, 
129, 3923085961, 0.3965812623500824, -0.5009046792984009, -0.41811299324035645, -0.6457451581954956, 9.771657943725586, 1.41168212890625, 1.449447512626648, 1.5353429317474365, 1.6775788068771362, -0.27498164772987366, -0.75634765625, -0.16064453125, 0.1396484375, 
130, 3923094294, 0.3967045247554779, -0.500758171081543, -0.4181910753250122, -0.6457327008247375, 9.718645095825195, 1.4198951721191406, 1.476702094078064, 1.9826443195343018, 1.788488507270813, -0.29160526394844055, -0.7578125, -0.16064453125, 0.1416015625, 
131, 3923102627, 0.39683082699775696, -0.5006105303764343, -0.4182707369327545, -0.6457179188728333, 9.717203140258789, 1.4574639797210693, 1.5005556344985962, 2.09834361076355, 1.8074941635131836, -0.24590949714183807, -0.7568359375, -0.15966796875, 0.140625, 
132, 3923110960, 0.3969860076904297, -0.5004526376724243, -0.41833630204200745, -0.6457023620605469, 9.713842391967773, 1.4909788370132446, 1.5219323635101318, 2.170383930206299, 2.1199235916137695, 0.028931276872754097, -0.755859375, -0.15966796875, 0.140625, 
133, 3923119293, 0.3971548080444336, -0.5003007650375366, -0.4183886647224426, -0.6456823945045471, 9.731277465820312, 1.4804939031600952, 1.4870326519012451, 2.070155382156372, 2.186444044113159, 0.3012874722480774, -0.7587890625, -0.16162109375, 0.1376953125, 
134, 3923127626, 0.3973572552204132, -0.5001277923583984, -0.4184072017669678, -0.645679771900177, 9.759675979614258, 1.5089207887649536, 1.4694336652755737, 2.0881876945495605, 2.8718299865722656, 0.6164450645446777, -0.75732421875, -0.1611328125, 0.140625, 
135, 3923135959, 0.397530734539032, -0.4999603033065796, -0.4183834493160248, -0.6457180976867676, 9.718602180480957, 1.5064032077789307, 1.4427365064620972, 2.3873746395111084, 3.337355375289917, 0.6535727977752686, -0.75927734375, -0.1611328125, 0.13720703125, 
136, 3923144292, 0.39775997400283813, -0.49974098801612854, -0.4184035062789917, -0.6457338333129883, 9.66813850402832, 1.5376708507537842, 1.4134104251861572, 2.4341721534729004, 3.5546157360076904, 0.4752977788448334, -0.75830078125, -0.16015625, 0.138671875, 
137, 3923152625, 0.39794933795928955, -0.4995369613170624, -0.41840654611587524, -0.6457729339599609, 9.609696388244629, 1.5838007926940918, 1.4210000038146973, 2.1128666400909424, 3.497213363647461, 0.26523536443710327, -0.7568359375, -0.15966796875, 0.1376953125, 
138, 3923160958, 0.39810553193092346, -0.4993453919887543, -0.4184027314186096, -0.6458273530006409, 9.599170684814453, 1.6320351362228394, 1.4520686864852905, 1.3441710472106934, 3.285038471221924, -0.05924572795629501, -0.76025390625, -0.158203125, 0.138916015625, 
139, 3923169291, 0.39821404218673706, -0.4992000162601471, -0.41837653517723083, -0.6458898782730103, 9.604129791259766, 1.6627955436706543, 1.4920707941055298, -0.023155270144343376, 2.7114076614379883, -0.18319301307201385, -0.7568359375, -0.158203125, 0.139892578125, 
140, 3923177624, 0.3982241451740265, -0.49911752343177795, -0.41827136278152466, -0.6460156440734863, 9.613568305969238, 1.6463910341262817, 1.5037978887557983, -1.566643476486206, 2.520709753036499, -0.42450475692749023, -0.7568359375, -0.15869140625, 0.139892578125, 
141, 3923185957, 0.3981994390487671, -0.4990580379962921, -0.4181063771247864, -0.6461832523345947, 9.611608505249023, 1.5789272785186768, 1.5078271627426147, -2.843461275100708, 2.7202954292297363, -0.4287053942680359, -0.7568359375, -0.1591796875, 0.138671875, 
142, 3923194290, 0.39813607931137085, -0.49903443455696106, -0.41790321469306946, -0.6463720202445984, 9.61235523223877, 1.5310076475143433, 1.481500506401062, -3.6256184577941895, 2.542712450027466, -0.41292712092399597, -0.75732421875, -0.1611328125, 0.13720703125, 
143, 3923202623, 0.3980359733104706, -0.4990502893924713, -0.41767117381095886, -0.6465714573860168, 9.62032413482666, 1.5250649452209473, 1.478482723236084, -4.311593055725098, 2.2371344566345215, -0.3392348885536194, -0.7578125, -0.16015625, 0.138671875, 
144, 3923210956, 0.3979274034500122, -0.4990798830986023, -0.4174146354198456, -0.6467810869216919, 9.645913124084473, 1.5186560153961182, 1.4779057502746582, -4.820547580718994, 2.24625301361084, -0.25632163882255554, -0.7578125, -0.15966796875, 0.13671875, 
145, 3923219289, 0.397818922996521, -0.49909964203834534, -0.4171418249607086, -0.6470084190368652, 9.64111328125, 1.4799017906188965, 1.4723255634307861, -4.987860202789307, 2.5592079162597656, -0.2759421765804291, -0.75732421875, -0.161376953125, 0.13623046875, 
146, 3923227622, 0.39770686626434326, -0.49911606311798096, -0.416840523481369, -0.6472589373588562, 9.662556648254395, 1.4368433952331543, 1.4826573133468628, -5.4054999351501465, 2.867961883544922, -0.2793489098548889, -0.75927734375, -0.160888671875, 0.13427734375, 
147, 3923235955, 0.3975849449634552, -0.49913230538368225, -0.4165077209472656, -0.6475354433059692, 9.691556930541992, 1.3705551624298096, 1.512475848197937, -5.411954879760742, 3.2418274879455566, -0.19661487638950348, -0.759765625, -0.161376953125, 0.13671875, 
148, 3923244288, 0.3974980413913727, -0.4991298317909241, -0.4162023067474365, -0.6477870345115662, 9.730363845825195, 1.3233308792114258, 1.5232175588607788, -5.174562931060791, 3.2116539478302, -0.1401354968547821, -0.75927734375, -0.160888671875, 0.1337890625, 
149, 3923252621, 0.39742517471313477, -0.499124139547348, -0.4159325659275055, -0.6480090618133545, 9.729293823242188, 1.2381491661071777, 1.5329694747924805, -4.101376533508301, 2.9969804286956787, -0.02407738007605076, -0.75927734375, -0.160400390625, 0.132568359375, 
150, 3923260954, 0.3974333703517914, -0.4990670084953308, -0.41575995087623596, -0.6481590867042542, 9.749353408813477, 1.2099616527557373, 1.5352754592895508, -2.4581336975097656, 2.818666696548462, 0.037268705666065216, -0.759765625, -0.160400390625, 0.133544921875, 
151, 3923269287, 0.3975161015987396, -0.49896833300590515, -0.4156757593154907, -0.6482383012771606, 9.718262672424316, 1.2214996814727783, 1.5590993165969849, -0.6037659049034119, 2.6445415019989014, 0.24658824503421783, -0.7578125, -0.162109375, 0.1318359375, 
152, 3923277620, 0.3976513743400574, -0.49884310364723206, -0.4156416356563568, -0.6482737064361572, 9.700310707092285, 1.3185486793518066, 1.5558167695999146, 0.675754725933075, 2.6085023880004883, 0.4565993845462799, -0.76123046875, -0.160400390625, 0.135009765625, 
153, 3923285953, 0.3978213667869568, -0.4987088143825531, -0.4156389534473419, -0.648274302482605, 9.716062545776367, 1.403868317604065, 1.53496515750885, 1.4302091598510742, 2.4851059913635254, 0.7020989656448364, -0.76025390625, -0.159423828125, 0.133544921875, 
154, 3923294286, 0.39800405502319336, -0.49856266379356384, -0.4156513512134552, -0.6482667922973633, 9.679886817932129, 1.4132777452468872, 1.518339991569519, 1.7756171226501465, 2.5180203914642334, 0.6757931709289551, -0.759765625, -0.159912109375, 0.132568359375, 
155, 3923302619, 0.398169606924057, -0.49842867255210876, -0.4156380295753479, -0.6482766270637512, 9.658727645874023, 1.4761443138122559, 1.500841736793518, 1.7170885801315308, 2.643683671951294, 0.7640854120254517, -0.7587890625, -0.160888671875, 0.1318359375, 
156, 3923310952, 0.3983520269393921, -0.4982776939868927, -0.41565045714378357, -0.648272693157196, 9.674254417419434, 1.510886549949646, 1.4872088432312012, 1.7817261219024658, 2.583221197128296, 0.6260119080543518, -0.759765625, -0.159912109375, 0.132568359375, 
157, 3923319285, 0.3985752761363983, -0.4980710744857788, -0.41567161679267883, -0.6482804417610168, 9.676168441772461, 1.5384465456008911, 1.424171805381775, 2.070859432220459, 3.311305522918701, 0.5111575722694397, -0.759765625, -0.158447265625, 0.132568359375, 
158, 3923327618, 0.3987623453140259, -0.497871994972229, -0.41564756631851196, -0.6483338475227356, 9.550626754760742, 1.5599093437194824, 1.4175225496292114, 1.4237799644470215, 3.632418394088745, 0.3284129202365875, -0.76025390625, -0.161865234375, 0.13330078125, 
159, 3923335951, 0.3988988697528839, -0.4977148771286011, -0.4156207740306854, -0.6483876705169678, 9.376907348632812, 1.6288347244262695, 1.4568347930908203, 0.24872705340385437, 2.917346239089966, 0.050549693405628204, -0.76220703125, -0.15966796875, 0.129638671875, 
160, 3923344284, 0.39889633655548096, -0.4976749122142792, -0.4155253767967224, -0.6484811305999756, 9.29715347290039, 1.6940644979476929, 1.5070321559906006, -1.6130051612854004, 1.794981598854065, -0.184396892786026, -0.75927734375, -0.161376953125, 0.1337890625, 
161, 3923352617, 0.39875373244285583, -0.4977768361568451, -0.41530460119247437, -0.6486319899559021, 9.28590202331543, 1.714515209197998, 1.5658687353134155, -3.9602417945861816, 0.9352908730506897, 0.07916078716516495, -0.76123046875, -0.1611328125, 0.131591796875, 
162, 3923360950, 0.3985598385334015, -0.4979487955570221, -0.41501662135124207, -0.6488033533096313, 9.321057319641113, 1.6510006189346313, 1.575382947921753, -6.248464584350586, 0.4017208516597748, 0.2102288156747818, -0.759765625, -0.1611328125, 0.12939453125, 
163, 3923369283, 0.39835989475250244, -0.4981483519077301, -0.4147053360939026, -0.6489719748497009, 9.480862617492676, 1.5305510759353638, 1.5511506795883179, -7.152032852172852, 0.16724814474582672, 0.4167308211326599, -0.76025390625, -0.16015625, 0.130126953125, 
164, 3923377616, 0.3981674611568451, -0.4983096718788147, -0.4143645763397217, -0.6491838693618774, 9.583845138549805, 1.4283658266067505, 1.4418293237686157, -6.8808159828186035, 1.0712127685546875, 0.301761269569397, -0.759765625, -0.159423828125, 0.132080078125, 
165, 3923385949, 0.3980022370815277, -0.4984382688999176, -0.41404473781585693, -0.649390697479248, 9.491433143615723, 1.3548765182495117, 1.3991713523864746, -6.229074478149414, 1.3885860443115234, 0.273034930229187, -0.75830078125, -0.1591796875, 0.128173828125, 
166, 3923394282, 0.39783087372779846, -0.49859216809272766, -0.41378504037857056, -0.6495429277420044, 9.358814239501953, 1.3756614923477173, 1.4560701847076416, -5.633570194244385, 0.40546056628227234, 0.21868154406547546, -0.76025390625, -0.15966796875, 0.131103515625, 
167, 3923402615, 0.3976562023162842, -0.4987855553627014, -0.41356009244918823, -0.649644672870636, 9.342034339904785, 1.4312783479690552, 1.498699426651001, -5.6347479820251465, -0.5424070358276367, 0.40774020552635193, -0.76171875, -0.1611328125, 0.130615234375, 
168, 3923410948, 0.39742207527160645, -0.4990423917770386, -0.41323456168174744, -0.6497978568077087, 9.365580558776855, 1.4611905813217163, 1.603630542755127, -7.221524238586426, -0.5050615072250366, 0.6900860071182251, -0.75927734375, -0.16064453125, 0.1298828125, 
169, 3923419281, 0.3971277177333832, -0.4993751049041748, -0.4128188192844391, -0.6499864459037781, 9.359367370605469, 1.4055464267730713, 1.6337062120437622, -9.175814628601074, -0.7971663475036621, 1.0050386190414429, -0.76123046875, -0.16015625, 0.129150390625, 
170, 3923427614, 0.39677438139915466, -0.49978703260421753, -0.4123619496822357, -0.6501755714416504, 9.431398391723633, 1.2474595308303833, 1.6527787446975708, -10.263318061828613, -1.6038354635238647, 1.2104135751724243, -0.7587890625, -0.16162109375, 0.1298828125, 
171, 3923435947, 0.3964088559150696, -0.5002219676971436, -0.4119691252708435, -0.650313138961792, 9.53188419342041, 1.10995614528656, 1.6636245250701904, -9.680183410644531, -2.582401752471924, 1.0785002708435059, -0.759765625, -0.162109375, 0.12841796875, 
172, 3923444280, 0.3960706293582916, -0.5006433725357056, -0.41168972849845886, -0.6503718495368958, 9.690455436706543, 1.0218030214309692, 1.6793971061706543, -7.885649681091309, -3.4677834510803223, 0.8902612328529358, -0.76220703125, -0.15966796875, 0.129638671875, 
173, 3923452613, 0.3957847058773041, -0.5010095834732056, -0.411530464887619, -0.6503645181655884, 9.797365188598633, 0.9670316576957703, 1.6898374557495117, -5.0852580070495605, -3.6842617988586426, 0.7142529487609863, -0.7607421875, -0.16015625, 0.130615234375, 
174, 3923460946, 0.3956255614757538, -0.5012655854225159, -0.4114963412284851, -0.6502857208251953, 9.88058090209961, 0.9861783981323242, 1.7206494808197021, -2.7797977924346924, -3.2562224864959717, 0.6144087314605713, -0.7607421875, -0.1591796875, 0.129638671875, 
175, 3923469279, 0.39554399251937866, -0.5014336109161377, -0.4115333557128906, -0.65018230676651, 9.938729286193848, 1.0668083429336548, 1.6739696264266968, -1.5227919816970825, -2.6521236896514893, 0.37961578369140625, -0.75927734375, -0.16064453125, 0.12890625, 
176, 3923477612, 0.3954678475856781, -0.5015967488288879, -0.4115963578224182, -0.6500630378723145, 9.969367027282715, 1.1218740940093994, 1.6393823623657227, -0.60408616065979, -2.7641093730926514, 0.38445690274238586, -0.76025390625, -0.16162109375, 0.13232421875, 
177, 3923485945, 0.3954511880874634, -0.5017382502555847, -0.41172561049461365, -0.6498820781707764, 9.996308326721191, 1.1553434133529663, 1.656869649887085, 0.4935990869998932, -3.0619256496429443, 0.6212348341941833, -0.7607421875, -0.16162109375, 0.1318359375, 
178, 3923494278, 0.39549073576927185, -0.5018582344055176, -0.4119083881378174, -0.6496495604515076, 10.036017417907715, 1.1644550561904907, 1.6999835968017578, 2.141669988632202, -3.155238151550293, 0.963005542755127, -0.75927734375, -0.16015625, 0.131591796875, 
179, 3923502611, 0.39562880992889404, -0.5019053816795349, -0.412160724401474, -0.6493690013885498, 10.061712265014648, 1.194541096687317, 1.7049816846847534, 3.9894943237304688, -2.665302276611328, 1.2043302059173584, -0.76025390625, -0.159423828125, 0.134033203125, 
180, 3923510944, 0.3958601951599121, -0.5018628239631653, -0.41248729825019836, -0.6490533947944641, 9.999527931213379, 1.2308629751205444, 1.6717126369476318, 6.1045379638671875, -1.9737688302993774, 1.2141660451889038, -0.75927734375, -0.16015625, 0.131591796875, 
181, 3923519277, 0.3961608111858368, -0.5017607808113098, -0.41284528374671936, -0.6487210392951965, 9.940025329589844, 1.3072762489318848, 1.6396186351776123, 8.200268745422363, -1.2040866613388062, 1.5343950986862183, -0.76025390625, -0.15966796875, 0.130615234375, 
182, 3923527610, 0.39656639099121094, -0.5015655159950256, -0.4133119285106659, -0.648327112197876, 9.896730422973633, 1.4295698404312134, 1.6290113925933838, 9.832663536071777, -0.9248403906822205, 1.3624979257583618, -0.76171875, -0.157470703125, 0.133544921875, 
183, 3923535943, 0.3969869315624237, -0.5013419389724731, -0.41380876302719116, -0.6479255557060242, 9.866117477416992, 1.4749630689620972, 1.604570746421814, 10.341979026794434, -0.80506831407547, 1.1701864004135132, -0.7607421875, -0.159423828125, 0.134521484375, 
184, 3923544276, 0.39740023016929626, -0.5010782480239868, -0.41431206464767456, -0.6475545167922974, 9.852267265319824, 1.4997637271881104, 1.587645411491394, 10.455373764038086, -0.31347984075546265, 0.6636648774147034, -0.75732421875, -0.157470703125, 0.134521484375, 
185, 3923552609, 0.3978283107280731, -0.5007781982421875, -0.4148392379283905, -0.6471862196922302, 9.851426124572754, 1.4832042455673218, 1.5601396560668945, 10.466567993164062, -0.0751393735408783, 0.3420526087284088, -0.76025390625, -0.158935546875, 0.135498046875, 
186, 3923560942, 0.3982360363006592, -0.5004512071609497, -0.4153464436531067, -0.6468630433082581, 9.849051475524902, 1.4857476949691772, 1.524629831314087, 10.524699211120605, 0.5262830257415771, -0.03616730496287346, -0.76123046875, -0.157470703125, 0.136474609375, 
187, 3923569275, 0.3986382782459259, -0.5000975131988525, -0.41582193970680237, -0.6465831398963928, 9.830458641052246, 1.496720790863037, 1.4816184043884277, 10.210616111755371, 1.227523922920227, -0.22473931312561035, -0.7568359375, -0.156982421875, 0.134521484375, 
188, 3923577608, 0.39904847741127014, -0.49972644448280334, -0.41627731919288635, -0.6463240385055542, 9.809496879577637, 1.524570345878601, 1.4119211435317993, 9.956907272338867, 1.6573820114135742, -0.25883185863494873, -0.76025390625, -0.1572265625, 0.137451171875, 
189, 3923585941, 0.3994198143482208, -0.49937260150909424, -0.41669052839279175, -0.6461016535758972, 9.74477767944336, 1.5370880365371704, 1.3876261711120605, 8.966634750366211, 1.7680354118347168, -0.411262184381485, -0.76220703125, -0.156982421875, 0.135498046875, 
190, 3923594274, 0.3997451364994049, -0.49904707074165344, -0.41704124212265015, -0.6459256410598755, 9.730474472045898, 1.5696845054626465, 1.4177395105361938, 7.71789026260376, 1.9115266799926758, -0.4904613792896271, -0.76171875, -0.156005859375, 0.13525390625, 
191, 3923602607, 0.4000580906867981, -0.49873271584510803, -0.41735583543777466, -0.6457715034484863, 9.715654373168945, 1.5444667339324951, 1.4335975646972656, 6.473908424377441, 2.0090653896331787, -0.5022696256637573, -0.760498046875, -0.1533203125, 0.13671875, 
192, 3923610940, 0.4002968668937683, -0.4984878599643707, -0.41756755113601685, -0.6456757187843323, 9.697739601135254, 1.5127712488174438, 1.4416593313217163, 4.984210014343262, 2.013624668121338, -0.28418993949890137, -0.75927734375, -0.156982421875, 0.134033203125, 
193, 3923619273, 0.4004878103733063, -0.49829649925231934, -0.4177159368991852, -0.6456091403961182, 9.690126419067383, 1.499533772468567, 1.4426969289779663, 4.09660005569458, 1.8846827745437622, -0.03688449785113335, -0.7587890625, -0.1572265625, 0.135986328125, 
194, 3923627606, 0.4006963074207306, -0.4981080889701843, -0.417842835187912, -0.6455431580543518, 9.642513275146484, 1.4722384214401245, 1.433740496635437, 3.5427815914154053, 2.0098209381103516, 0.1887769103050232, -0.7587890625, -0.1552734375, 0.139404296875, 
195, 3923635939, 0.4008931517601013, -0.4979496896266937, -0.41793346405029297, -0.6454843878746033, 9.64947509765625, 1.4998544454574585, 1.4480925798416138, 2.977987766265869, 1.9402782917022705, 0.4879511892795563, -0.75927734375, -0.156005859375, 0.134033203125, 
196, 3923644272, 0.4010907709598541, -0.4978100061416626, -0.417985200881958, -0.6454359292984009, 9.615571022033691, 1.4894776344299316, 1.421582579612732, 2.4311492443084717, 2.048703193664551, 0.7895844578742981, -0.76025390625, -0.155029296875, 0.134765625, 
197, 3923652605, 0.40129294991493225, -0.4976893961429596, -0.4179830849170685, -0.645404577255249, 9.547505378723145, 1.4974699020385742, 1.4197791814804077, 2.0742409229278564, 2.3702645301818848, 1.2792773246765137, -0.7587890625, -0.15576171875, 0.135986328125, 
198, 3923660938, 0.4015047252178192, -0.49759235978126526, -0.41793498396873474, -0.645378828048706, 9.481340408325195, 1.5313698053359985, 1.3999485969543457, 1.2770872116088867, 2.4578521251678467, 1.7192143201828003, -0.75927734375, -0.15380859375, 0.13525390625, 
199, 3923669271, 0.40169888734817505, -0.49755263328552246, -0.4178197681903839, -0.6453631520271301, 9.439290046691895, 1.532948613166809, 1.4367115497589111, 0.009080246090888977, 2.272814989089966, 2.282343626022339, -0.75927734375, -0.1552734375, 0.136962890625, 
200, 3923677604, 0.401854932308197, -0.4975745379924774, -0.4176191985607147, -0.6453789472579956, 9.439507484436035, 1.5268676280975342, 1.470409870147705, -1.3539682626724243, 2.2091379165649414, 2.7221908569335938, -0.760498046875, -0.154541015625, 0.1357421875, 
201, 3923685937, 0.4019535779953003, -0.4976649880409241, -0.4173499345779419, -0.6454219818115234, 9.464613914489746, 1.4787702560424805, 1.4947460889816284, -2.8490841388702393, 1.8513712882995605, 2.9475579261779785, -0.75927734375, -0.154296875, 0.13525390625, 
202, 3923694270, 0.4020250141620636, -0.49778851866722107, -0.41702568531036377, -0.6454917788505554, 9.532184600830078, 1.4327192306518555, 1.541244387626648, -3.902623176574707, 1.8740910291671753, 3.1013972759246826, -0.759033203125, -0.153076171875, 0.13427734375, 
203, 3923702603, 0.40206411480903625, -0.4979495704174042, -0.41667747497558594, -0.6455681324005127, 9.547097206115723, 1.3779923915863037, 1.5380498170852661, -4.420300006866455, 1.5648375749588013, 3.2028167247772217, -0.760498046875, -0.15185546875, 0.13720703125, 
204, 3923710936, 0.402111679315567, -0.4981173276901245, -0.4163394272327423, -0.6456271409988403, 9.556744575500488, 1.3516721725463867, 1.5553083419799805, -4.372196674346924, 1.34775710105896, 3.297769069671631, -0.762939453125, -0.154541015625, 0.13525390625, 
205, 3923719269, 0.4021618366241455, -0.4982950687408447, -0.41600531339645386, -0.6456741690635681, 9.574308395385742, 1.3100426197052002, 1.5661780834197998, -4.298606872558594, 1.178908109664917, 3.4337031841278076, -0.759033203125, -0.153076171875, 0.134765625, 
206, 3923727602, 0.40221840143203735, -0.4984847903251648, -0.4156615436077118, -0.6457140445709229, 9.60438346862793, 1.3032729625701904, 1.5294898748397827, -4.3705058097839355, 1.1034996509552002, 3.6496312618255615, -0.761962890625, -0.153076171875, 0.130859375, 
207, 3923735935, 0.40227803587913513, -0.49868538975715637, -0.41530558466911316, -0.6457507014274597, 9.607013702392578, 1.297141194343567, 1.5653176307678223, -4.499921798706055, 1.0788716077804565, 3.8553268909454346, -0.760986328125, -0.153076171875, 0.13525390625, 
208, 3923744268, 0.4023694097995758, -0.49887293577194214, -0.4149624705314636, -0.6457695960998535, 9.630626678466797, 1.2821013927459717, 1.55333411693573, -3.9960129261016846, 1.174720048904419, 4.05726957321167, -0.762451171875, -0.15234375, 0.13623046875, 
209, 3923752601, 0.4024934470653534, -0.4990473687648773, -0.41465842723846436, -0.6457527279853821, 9.64632797241211, 1.2917078733444214, 1.5521875619888306, -3.293170690536499, 1.0057045221328735, 4.192729949951172, -0.760986328125, -0.151611328125, 0.13232421875, 
210, 3923760934, 0.4026404321193695, -0.4992036819458008, -0.4144071638584137, -0.64570152759552, 9.671568870544434, 1.3046948909759521, 1.559619426727295, -2.2272090911865234, 0.7802481055259705, 4.130743980407715, -0.761474609375, -0.153564453125, 0.13427734375, 
211, 3923769267, 0.4028150141239166, -0.4993307888507843, -0.41421210765838623, -0.6456197500228882, 9.680147171020508, 1.3332395553588867, 1.5949084758758545, -1.2670081853866577, 0.6753321290016174, 3.9959871768951416, -0.763427734375, -0.153564453125, 0.13330078125, 
212, 3923777600, 0.4030073881149292, -0.4994269907474518, -0.41406679153442383, -0.64551842212677, 9.658108711242676, 1.3228319883346558, 1.584961175918579, -0.35524383187294006, 0.6408553719520569, 3.7405617237091064, -0.762939453125, -0.150146484375, 0.131103515625, 
213, 3923785933, 0.4032086730003357, -0.4994843602180481, -0.41398680210113525, -0.6453996896743774, 9.679622650146484, 1.30517578125, 1.5982990264892578, 0.05234268680214882, 0.4944956302642822, 3.170722246170044, -0.763427734375, -0.151611328125, 0.134521484375, 
214, 3923794266, 0.40337690711021423, -0.4995296895503998, -0.4139147996902466, -0.6453055143356323, 9.70490837097168, 1.323520302772522, 1.590622901916504, 0.3725462555885315, 0.598745584487915, 2.693067789077759, -0.763916015625, -0.1484375, 0.135009765625, 
215, 3923802599, 0.4035325348377228, -0.4995581805706024, -0.41386961936950684, -0.6452152132987976, 9.740094184875488, 1.3114017248153687, 1.58259117603302, 0.27464863657951355, 0.5230298638343811, 2.2423853874206543, -0.763427734375, -0.149169921875, 0.133056640625, 
216, 3923810932, 0.4036433696746826, -0.4995881915092468, -0.4138321578502655, -0.6451467275619507, 9.764254570007324, 1.3325650691986084, 1.5972875356674194, 0.22265172004699707, 0.3914751708507538, 1.7174216508865356, -0.763427734375, -0.148193359375, 0.132568359375, 
217, 3923819265, 0.4037731885910034, -0.49958285689353943, -0.41384491324424744, -0.6450613141059875, 9.768938064575195, 1.320328950881958, 1.5880742073059082, 0.2805399000644684, 0.325544148683548, 1.3128191232681274, -0.763427734375, -0.149169921875, 0.132080078125, 
218, 3923827598, 0.40386760234832764, -0.499590128660202, -0.4138535261154175, -0.6449910402297974, 9.799945831298828, 1.3356860876083374, 1.5825164318084717, 0.653457522392273, 0.23164232075214386, 1.1348258256912231, -0.762939453125, -0.146728515625, 0.132568359375, 
219, 3923835931, 0.4040123224258423, -0.4995444715023041, -0.41392216086387634, -0.6448917388916016, 9.81612491607666, 1.3189412355422974, 1.56421959400177, 1.2553919553756714, 0.371419221162796, 0.9215872883796692, -0.763427734375, -0.1474609375, 0.135986328125, 
220, 3923844264, 0.4041294753551483, -0.49950048327445984, -0.41399815678596497, -0.6448037624359131, 9.832822799682617, 1.3471554517745972, 1.5410079956054688, 1.794981598854065, 0.3193967044353485, 0.6818381547927856, -0.762939453125, -0.1484375, 0.135498046875, 
221, 3923852597, 0.40429607033729553, -0.4994142949581146, -0.4141332805156708, -0.6446791291236877, 9.806917190551758, 1.3329609632492065, 1.5232198238372803, 2.4230425357818604, 0.31880760192871094, 0.5782797932624817, -0.764404296875, -0.148681640625, 0.132568359375, 
222, 3923860930, 0.4044422507286072, -0.4993240237236023, -0.41429272294044495, -0.644554853439331, 9.762054443359375, 1.4050626754760742, 1.49526047706604, 3.196746349334717, 0.1847170740365982, 0.3032853901386261, -0.764404296875, -0.147705078125, 0.134033203125, 
223, 3923869263, 0.40463781356811523, -0.49919137358665466, -0.414490282535553, -0.6444079875946045, 9.767866134643555, 1.430910587310791, 1.4821605682373047, 3.4996984004974365, 0.38785070180892944, 0.2547847628593445, -0.763427734375, -0.14697265625, 0.136474609375, 
224, 3923877596, 0.4047940969467163, -0.4990586042404175, -0.4146491587162018, -0.6443105340003967, 9.737441062927246, 1.4070327281951904, 1.4857125282287598, 3.3437976837158203, 0.8051450848579407, 0.005596710368990898, -0.762939453125, -0.148193359375, 0.134521484375, 
225, 3923885929, 0.40494561195373535, -0.4989134669303894, -0.41481074690818787, -0.6442235708236694, 9.653867721557617, 1.4148643016815186, 1.4598239660263062, 3.2413408756256104, 0.9401578307151794, -0.18593373894691467, -0.762939453125, -0.146728515625, 0.133544921875, 
226, 3923894262, 0.40507373213768005, -0.49876391887664795, -0.4150121510028839, -0.6441291570663452, 9.619033813476562, 1.4010423421859741, 1.4015644788742065, 3.6049602031707764, 0.5761025547981262, -0.6481682062149048, -0.762939453125, -0.147216796875, 0.131591796875, 
227, 3923902595, 0.4051346182823181, -0.4986112117767334, -0.4151496887207031, -0.644120454788208, 9.618412017822266, 1.4585607051849365, 1.4240964651107788, 3.0709545612335205, 1.2975274324417114, -1.1218265295028687, -0.763916015625, -0.1455078125, 0.13427734375, 
228, 3923910928, 0.40522611141204834, -0.49837175011634827, -0.4153180420398712, -0.64413982629776, 9.529223442077637, 1.5437349081039429, 1.4028120040893555, 2.912402629852295, 2.128453254699707, -1.8930200338363647, -0.763427734375, -0.147705078125, 0.133544921875, 
229, 3923919261, 0.4053843319416046, -0.49796006083488464, -0.41564109921455383, -0.6441502571105957, 9.458149909973145, 1.5700089931488037, 1.278902530670166, 5.6632819175720215, 3.1103625297546387, -3.294259786605835, -0.761962890625, -0.146484375, 0.134033203125, 
230, 3923927594, 0.40557295083999634, -0.4973534643650055, -0.4161154627799988, -0.644193708896637, 9.480892181396484, 1.6814154386520386, 1.2274389266967773, 8.19581413269043, 4.394558429718018, -5.362379550933838, -0.762939453125, -0.146728515625, 0.132568359375, 
231, 3923935927, 0.4057360589504242, -0.4965405762195587, -0.4167003631591797, -0.6443399786949158, 9.47467041015625, 1.8594229221343994, 1.2439237833023071, 8.33229923248291, 6.014363765716553, -8.288076400756836, -0.764404296875, -0.147216796875, 0.133544921875, 
232, 3923944260, 0.4057281017303467, -0.4956614077091217, -0.417412132024765, -0.6445611119270325, 9.687169075012207, 2.1685338020324707, 1.2070446014404297, 9.459979057312012, 5.574068546295166, -11.277783393859863, -0.764404296875, -0.149658203125, 0.134033203125, 
233, 3923952593, 0.40555092692375183, -0.49480748176574707, -0.41837939620018005, -0.6447016596794128, 10.060659408569336, 2.5320093631744385, 1.2673637866973877, 11.089801788330078, 2.441741943359375, -13.869446754455566, -0.762939453125, -0.150634765625, 0.131103515625, 
234, 3923960926, 0.40499040484428406, -0.49404066801071167, -0.41889461874961853, -0.6453072428703308, 10.27070426940918, 2.9024670124053955, 1.7693119049072266, 1.1162813901901245, 5.111513614654541, -16.3394775390625, -0.761474609375, -0.151123046875, 0.13232421875, 
235, 3923969259, 0.4038037955760956, -0.49359792470932007, -0.41872280836105347, -0.6465001702308655, 10.278993606567383, 3.2808916568756104, 2.0906147956848145, -15.29672622680664, 6.336055278778076, -18.75967025756836, -0.761962890625, -0.155517578125, 0.1328125, 
236, 3923977592, 0.40190500020980835, -0.4936932325363159, -0.4180320203304291, -0.6480558514595032, 10.311103820800781, 3.1569948196411133, 2.2800354957580566, -28.947765350341797, 2.9052209854125977, -20.35589599609375, -0.7607421875, -0.15869140625, 0.129150390625, 
237, 3923985925, 0.3994195759296417, -0.49433302879333496, -0.41674914956092834, -0.6499281525611877, 10.560020446777344, 2.785332679748535, 2.4308345317840576, -42.53102111816406, 0.1864207535982132, -20.06757354736328, -0.75927734375, -0.159912109375, 0.125732421875, 
238, 3923994258, 0.3967141807079315, -0.49518826603889465, -0.4151156544685364, -0.6519762277603149, 10.788660049438477, 2.344820499420166, 2.3151466846466064, -49.85429000854492, 0.03661564365029335, -19.49770736694336, -0.7578125, -0.162353515625, 0.1259765625, 
239, 3924002591, 0.39400532841682434, -0.49599558115005493, -0.4132232367992401, -0.6542035937309265, 10.84577465057373, 1.7394013404846191, 2.296687364578247, -54.0500602722168, 2.929598331451416, -19.179534912109375, -0.757568359375, -0.166748046875, 0.126220703125, 
240, 3924010924, 0.3913237750530243, -0.49662718176841736, -0.411415696144104, -0.6564693450927734, 10.60285758972168, 1.1791719198226929, 2.264857292175293, -51.27880859375, 4.618297576904297, -20.55668067932129, -0.757568359375, -0.1728515625, 0.12109375, 
241, 3924019257, 0.3886960744857788, -0.4970719516277313, -0.4099859595298767, -0.6585848927497864, 10.322876930236816, 0.8016685843467712, 2.299560070037842, -43.520442962646484, 3.877094268798828, -22.485939025878906, -0.758056640625, -0.178466796875, 0.119873046875, 
242, 3924027590, 0.3863579034805298, -0.49731194972991943, -0.40899574756622314, -0.6603928208351135, 10.147065162658691, 0.7009589076042175, 2.3900158405303955, -36.856353759765625, 2.5845441818237305, -22.792987823486328, -0.755859375, -0.179931640625, 0.118408203125, 
243, 3924035923, 0.38417303562164307, -0.497395396232605, -0.4078366458415985, -0.6623185276985168, 9.944886207580566, 0.7050039768218994, 2.491658926010132, -35.12316131591797, 6.894888877868652, -21.347169876098633, -0.75390625, -0.18115234375, 0.11474609375, 
244, 3924044256, 0.38244950771331787, -0.49713218212127686, -0.4065767526626587, -0.6642853617668152, 9.592264175415039, 0.5744308233261108, 2.38688325881958, -33.332374572753906, 13.130285263061523, -19.020606994628906, -0.75341796875, -0.18408203125, 0.1123046875, 
245, 3924052589, 0.3811754882335663, -0.4966452717781067, -0.4053415358066559, -0.6661341190338135, 9.303826332092285, 0.3517160713672638, 2.4293761253356934, -29.982891082763672, 16.470102310180664, -16.026527404785156, -0.754638671875, -0.18896484375, 0.107177734375, 
246, 3924060922, 0.3800896108150482, -0.49618157744407654, -0.4038492739200592, -0.6680038571357727, 9.196584701538086, 0.07837022095918655, 2.5403859615325928, -29.507240295410156, 19.07794189453125, -12.214227676391602, -0.752685546875, -0.19189453125, 0.10546875, 
247, 3924069255, 0.379037469625473, -0.4958920478820801, -0.4019305408000946, -0.6699709892272949, 9.21257209777832, -0.2470785677433014, 2.637688398361206, -30.072507858276367, 21.293460845947266, -7.619296550750732, -0.754150390625, -0.190673828125, 0.099609375, 
248, 3924077588, 0.3783722519874573, -0.49563536047935486, -0.3998110294342041, -0.6718026995658875, 9.294404029846191, -0.5326896905899048, 2.836930274963379, -33.2795524597168, 22.517162322998047, -2.7163166999816895, -0.754150390625, -0.19189453125, 0.09619140625, 
249, 3924085921, 0.3778904974460602, -0.4955432116985321, -0.3972257077693939, -0.6736728549003601, 9.434039115905762, -0.6126494407653809, 3.0154356956481934, -37.40010070800781, 24.69023323059082, 2.874370574951172, -0.752685546875, -0.194580078125, 0.090087890625, 
250, 3924094254, 0.37774524092674255, -0.49550220370292664, -0.3942628800868988, -0.6755223274230957, 9.613354682922363, -0.5440502166748047, 3.059955596923828, -38.75741195678711, 27.8784236907959, 8.936196327209473, -0.756103515625, -0.19287109375, 0.08544921875, 
251, 3924102587, 0.3780289590358734, -0.4954257607460022, -0.3909336030483246, -0.6773521900177002, 9.741243362426758, -0.48813727498054504, 3.14070200920105, -38.945770263671875, 32.29645919799805, 15.336804389953613, -0.757080078125, -0.191650390625, 0.080078125, 
252, 3924110920, 0.37876492738723755, -0.4953541159629822, -0.387157142162323, -0.6791602373123169, 9.759512901306152, -0.45260342955589294, 3.180634021759033, -39.940364837646484, 36.86366271972656, 22.72500228881836, -0.757568359375, -0.190673828125, 0.074462890625, 
253, 3924119253, 0.37999752163887024, -0.49539339542388916, -0.3829021155834198, -0.6808530688285828, 9.803922653198242, -0.5690382719039917, 3.1373746395111084, -40.98600387573242, 40.17204284667969, 31.82033920288086, -0.758544921875, -0.186279296875, 0.0693359375, 
254, 3924127586, 0.3818100094795227, -0.4955283999443054, -0.37814775109291077, -0.6823962926864624, 9.869803428649902, -0.8078678846359253, 3.1253602504730225, -41.42866134643555, 43.9281005859375, 41.9319953918457, -0.76171875, -0.181396484375, 0.063232421875, 
255, 3924135919, 0.3843194544315338, -0.4956647455692291, -0.3729011118412018, -0.6837744116783142, 9.909942626953125, -1.08861243724823, 3.043316125869751, -40.4434814453125, 48.990196228027344, 52.698753356933594, -0.763671875, -0.17578125, 0.0556640625, 
256, 3924144252, 0.3875993490219116, -0.49573805928230286, -0.367297887802124, -0.6849018335342407, 9.894170761108398, -1.4040038585662842, 3.0409255027770996, -36.931209564208984, 53.71903610229492, 63.37826156616211, -0.766845703125, -0.166259765625, 0.0458984375, 
257, 3924152585, 0.3915822505950928, -0.49583327770233154, -0.3613068461418152, -0.685753345489502, 9.805391311645508, -1.590677261352539, 3.1778981685638428, -34.50717544555664, 57.23664474487305, 74.21609497070312, -0.769775390625, -0.159912109375, 0.036376953125, 
258, 3924160918, 0.39613479375839233, -0.4960564374923706, -0.35483473539352417, -0.6863563656806946, 9.649100303649902, -1.6274992227554321, 3.2937793731689453, -34.61886215209961, 59.770835876464844, 84.85033416748047, -0.77294921875, -0.15087890625, 0.028564453125, 
259, 3924169251, 0.40123268961906433, -0.49640217423439026, -0.3479609787464142, -0.6866644024848938, 9.499714851379395, -1.7953451871871948, 3.2503175735473633, -33.914024353027344, 61.435211181640625, 94.92708587646484, -0.778076171875, -0.139404296875, 0.02099609375, 
260, 3924177584, 0.40669330954551697, -0.49708008766174316, -0.340734601020813, -0.6865854263305664, 9.528915405273438, -1.8058332204818726, 3.4273858070373535, -34.75423812866211, 59.35323715209961, 104.50125122070312, -0.7822265625, -0.125732421875, 0.011962890625, 
261, 3924185917, 0.4125343859195709, -0.4979862868785858, -0.3331111967563629, -0.6861847043037415, 9.796651840209961, -1.7323471307754517, 3.420210599899292, -35.66279220581055, 58.984004974365234, 113.65282440185547, -0.786376953125, -0.11083984375, 0.00341796875, 
262, 3924194250, 0.41890186071395874, -0.4988194406032562, -0.32517287135124207, -0.6855294108390808, 9.970913887023926, -2.15559720993042, 3.2123658657073975, -33.456809997558594, 62.14557647705078, 121.91111755371094, -0.789794921875, -0.095458984375, -0.004638671875, 
263, 3924202583, 0.4257584810256958, -0.49966713786125183, -0.3171376585960388, -0.6844513416290283, 10.032114028930664, -2.372225046157837, 3.1116528511047363, -29.202497482299805, 61.836483001708984, 129.65655517578125, -0.79443359375, -0.07763671875, -0.014404296875, 
264, 3924210916, 0.43310603499412537, -0.5004566311836243, -0.30916252732276917, -0.68291175365448, 10.189291954040527, -2.187912702560425, 3.1301050186157227, -22.915008544921875, 61.01860046386719, 136.3436737060547, -0.795654296875, -0.059814453125, -0.0234375, 
265, 3924219249, 0.44081929326057434, -0.5012490749359131, -0.30119627714157104, -0.6809524297714233, 10.33578109741211, -1.9584568738937378, 3.2327725887298584, -18.541423797607422, 59.58906936645508, 142.19216918945312, -0.803466796875, -0.041259765625, -0.02880859375, 
266, 3924227582, 0.4487558901309967, -0.5021268129348755, -0.2931274473667145, -0.6786389350891113, 10.45757007598877, -1.8659231662750244, 3.294680595397949, -17.017942428588867, 57.91138458251953, 147.52882385253906, -0.80517578125, -0.02197265625, -0.0361328125, 
267, 3924235915, 0.45687347650527954, -0.5030142664909363, -0.28484150767326355, -0.6760889887809753, 10.569116592407227, -1.9423418045043945, 3.2854490280151367, -16.894113540649414, 58.24318313598633, 152.1761474609375, -0.806396484375, -0.00244140625, -0.043212890625, 
268, 3924244248, 0.46507641673088074, -0.5038642287254333, -0.2763413190841675, -0.6733854413032532, 10.527250289916992, -2.0983822345733643, 3.355677843093872, -17.46849250793457, 59.22320556640625, 155.3086700439453, -0.810302734375, 0.01904296875, -0.05078125, 
269, 3924252581, 0.47329574823379517, -0.5047534108161926, -0.267691969871521, -0.6704801917076111, 10.325799942016602, -2.1592085361480713, 3.406782388687134, -18.209774017333984, 58.465423583984375, 157.89096069335938, -0.812255859375, 0.041748046875, -0.0576171875, 
270, 3924260914, 0.481506884098053, -0.5057722330093384, -0.2590223550796509, -0.667263388633728, 10.21832275390625, -2.14145827293396, 3.3792855739593506, -18.16073989868164, 55.22383499145508, 160.50323486328125, -0.8115234375, 0.06396484375, -0.06396484375, 
271, 3924269247, 0.4897000789642334, -0.506939709186554, -0.2503739893436432, -0.6637066602706909, 10.341421127319336, -2.1883606910705566, 3.343813180923462, -17.854223251342773, 51.276424407958984, 162.92633056640625, -0.81396484375, 0.085205078125, -0.07177734375, 
272, 3924277580, 0.4979057013988495, -0.5080664157867432, -0.24170520901679993, -0.6599429845809937, 10.576736450195312, -2.292593002319336, 3.346430540084839, -16.975845336914062, 50.401878356933594, 164.48046875, -0.815185546875, 0.108642578125, -0.078125, 
273, 3924285913, 0.5061230659484863, -0.5089417099952698, -0.2330167591571808, -0.6561315655708313, 10.518705368041992, -2.5190017223358154, 3.29001784324646, -15.18362045288086, 52.51039123535156, 164.1708984375, -0.81591796875, 0.129150390625, -0.083984375, 
274, 3924294246, 0.5141948461532593, -0.5097227692604065, -0.22450366616249084, -0.6522055864334106, 10.124972343444824, -2.745518684387207, 3.2575244903564453, -13.605464935302734, 50.88319396972656, 162.17262268066406, -0.81494140625, 0.15185546875, -0.08935546875, 
275, 3924302579, 0.5220760703086853, -0.510585606098175, -0.2162800133228302, -0.6480351090431213, 9.873491287231445, -2.935176134109497, 3.321208953857422, -12.160452842712402, 45.79188537597656, 160.3653106689453, -0.812255859375, 0.17578125, -0.09423828125, 
276, 3924310912, 0.5297488570213318, -0.5116388201713562, -0.20822086930274963, -0.6436020731925964, 9.812771797180176, -3.084538459777832, 3.4634628295898438, -12.751867294311523, 40.45926284790039, 159.85287475585938, -0.8115234375, 0.19580078125, -0.103271484375, 
277, 3924319245, 0.5373703241348267, -0.5126246213912964, -0.2001960128545761, -0.6390290260314941, 9.727564811706543, -3.2696070671081543, 3.5309102535247803, -11.906307220458984, 39.66679763793945, 159.93719482421875, -0.81005859375, 0.218505859375, -0.104248046875, 
278, 3924327578, 0.5450656414031982, -0.5133142471313477, -0.1923494189977646, -0.6343509554862976, 9.480255126953125, -3.445889949798584, 3.702385902404785, -7.3548808097839355, 40.42184066772461, 159.3373260498047, -0.806884765625, 0.23876953125, -0.107421875, 
279, 3924335911, 0.5527312755584717, -0.5138070583343506, -0.18465487658977509, -0.6295876502990723, 9.223550796508789, -3.428356409072876, 3.8258564472198486, -4.525603771209717, 40.31376647949219, 158.07388305664062, -0.8037109375, 0.261962890625, -0.111328125, 
280, 3924344244, 0.5602865219116211, -0.5141050219535828, -0.17710351943969727, -0.6248177289962769, 9.102372169494629, -3.375128984451294, 3.737823486328125, -2.576338052749634, 40.592708587646484, 155.71104431152344, -0.797607421875, 0.28271484375, -0.115478515625, 
281, 3924352577, 0.5676936507225037, -0.5141997933387756, -0.16972555220127106, -0.6200833320617676, 8.950143814086914, -3.478020191192627, 3.5039494037628174, -0.6443402171134949, 40.887168884277344, 152.39654541015625, -0.79443359375, 0.30322265625, -0.121337890625, 
282, 3924360910, 0.5749091506004333, -0.5141605734825134, -0.16253885626792908, -0.615375816822052, 8.70724105834961, -3.607215642929077, 3.4476165771484375, 0.6015500426292419, 40.284976959228516, 148.93289184570312, -0.79541015625, 0.32275390625, -0.12548828125, 
283, 3924369243, 0.5818977355957031, -0.5141260623931885, -0.15551936626434326, -0.6106313467025757, 8.434175491333008, -3.736997127532959, 3.5004541873931885, 0.4718364179134369, 38.149234771728516, 146.08871459960938, -0.7861328125, 0.343017578125, -0.131103515625, 
284, 3924377576, 0.5886763334274292, -0.514148473739624, -0.14872074127197266, -0.6057898998260498, 8.288403511047363, -3.836873769760132, 3.508075714111328, 0.5816207528114319, 34.772308349609375, 143.7067413330078, -0.779541015625, 0.35986328125, -0.133544921875, 
285, 3924385909, 0.5953016877174377, -0.514240026473999, -0.14223173260688782, -0.6007751226425171, 8.242105484008789, -3.984114646911621, 3.524869441986084, 1.8831294775009155, 30.150882720947266, 141.7406463623047, -0.77490234375, 0.379638671875, -0.13720703125, 
286, 3924394242, 0.6018373370170593, -0.5142235159873962, -0.1359347105026245, -0.5957142114639282, 8.417149543762207, -4.280202388763428, 3.5158751010894775, 3.7981085777282715, 28.971538543701172, 139.85153198242188, -0.769775390625, 0.397705078125, -0.142822265625, 
287, 3924402575, 0.60833740234375, -0.5140048265457153, -0.12979409098625183, -0.5906486511230469, 8.551192283630371, -4.634268760681152, 3.7068252563476562, 6.5219221115112305, 29.234975814819336, 138.07130432128906, -0.763671875, 0.416259765625, -0.142333984375, 
288, 3924410908, 0.6147642731666565, -0.5136739015579224, -0.12370788305997849, -0.5855663418769836, 8.427072525024414, -4.891613960266113, 3.923056125640869, 7.403731346130371, 29.442346572875977, 137.07765197753906, -0.7568359375, 0.434326171875, -0.14892578125, 
289, 3924419241, 0.6210777163505554, -0.5133688449859619, -0.11762160062789917, -0.5804030299186707, 8.163190841674805, -4.965723991394043, 4.012451171875, 6.5336503982543945, 28.469497680664062, 136.84849548339844, -0.751220703125, 0.4501953125, -0.1494140625, 
290, 3924427574, 0.6272833347320557, -0.5129515528678894, -0.11151495575904846, -0.5752810835838318, 7.876728534698486, -4.954739570617676, 4.036384582519531, 6.489438056945801, 29.65690803527832, 135.6405029296875, -0.74267578125, 0.4677734375, -0.15234375, 
291, 3924435907, 0.6333394050598145, -0.5123395919799805, -0.10539349168539047, -0.5703238248825073, 7.576888084411621, -4.912716865539551, 4.145441055297852, 6.757159233093262, 32.258392333984375, 132.80128479003906, -0.73681640625, 0.4814453125, -0.15625, 
292, 3924444240, 0.6392470598220825, -0.511588990688324, -0.09943767637014389, -0.5654552578926086, 7.2216949462890625, -4.753292560577393, 4.204217910766602, 8.07630729675293, 32.31039810180664, 129.53781127929688, -0.728759765625, 0.499755859375, -0.16162109375, 
293, 3924452573, 0.6451077461242676, -0.5105382204055786, -0.0939483493566513, -0.5606673359870911, 6.926701068878174, -4.503662109375, 4.110915184020996, 13.914843559265137, 31.049074172973633, 124.73141479492188, -0.721435546875, 0.513916015625, -0.16552734375, 
294, 3924460906, 0.6510702967643738, -0.5089658498764038, -0.08917815238237381, -0.5559641122817993, 6.951839923858643, -4.223823547363281, 4.090662956237793, 24.680208206176758, 29.416399002075195, 119.08184814453125, -0.71337890625, 0.529296875, -0.16943359375, 
295, 3924469239, 0.656979501247406, -0.5070425271987915, -0.08488990366458893, -0.5514230132102966, 7.171560764312744, -3.94718599319458, 4.1811628341674805, 30.94799041748047, 28.854900360107422, 113.38309478759766, -0.70654296875, 0.54345703125, -0.174560546875, 
296, 3924477572, 0.6626155376434326, -0.504960298538208, -0.08096321672201157, -0.5471637845039368, 7.337353229522705, -3.9780070781707764, 4.107800483703613, 32.876060485839844, 28.436933517456055, 106.09423828125, -0.700927734375, 0.555908203125, -0.176025390625, 
297, 3924485905, 0.6680901050567627, -0.502658486366272, -0.077410027384758, -0.5431254506111145, 7.345385551452637, -4.261817455291748, 3.989408016204834, 36.336875915527344, 28.044952392578125, 99.99650573730469, -0.692626953125, 0.56640625, -0.1806640625, 
298, 3924494238, 0.6735184192657471, -0.5001944303512573, -0.0744137391448021, -0.5390999913215637, 7.250076770782471, -4.588637828826904, 4.021670341491699, 41.63724136352539, 24.17422866821289, 95.54271697998047, -0.687255859375, 0.577392578125, -0.188232421875, 
299, 3924502571, 0.6787469387054443, -0.4977600872516632, -0.07180170714855194, -0.5351349711418152, 7.239190101623535, -4.9043989181518555, 3.9501821994781494, 42.79031753540039, 20.612028121948242, 90.85963439941406, -0.680908203125, 0.586669921875, -0.19482421875, 
300, 3924510904, 0.683801531791687, -0.49533531069755554, -0.06954681873321533, -0.531233549118042, 7.36143159866333, -5.233118057250977, 3.975818395614624, 44.06056213378906, 17.467071533203125, 86.5797348022461, -0.675537109375, 0.595458984375, -0.197998046875, 
301, 3924519237, 0.6886962056159973, -0.492936372756958, -0.06742050498723984, -0.5274024605751038, 7.503528594970703, -5.311612129211426, 4.245820999145508, 43.61654281616211, 16.402477264404297, 83.87455749511719, -0.666259765625, 0.604736328125, -0.2041015625, 
302, 3924527570, 0.6934177875518799, -0.49047166109085083, -0.06543393433094025, -0.5237512588500977, 7.451198577880859, -5.061867713928223, 4.496087074279785, 43.89697265625, 16.60684585571289, 79.93234252929688, -0.661376953125, 0.611572265625, -0.20751953125, 
303, 3924535903, 0.6979406476020813, -0.48804110288619995, -0.06360519677400589, -0.5202277302742004, 7.1287126541137695, -4.657969951629639, 4.556929588317871, 43.26726531982422, 15.548395156860352, 76.22594451904297, -0.65576171875, 0.620361328125, -0.212646484375, 
304, 3924544236, 0.7022204995155334, -0.48569899797439575, -0.06207830086350441, -0.5168335437774658, 6.679064750671387, -4.350610256195068, 4.56165075302124, 42.81755065917969, 12.666638374328613, 71.32071685791016, -0.65185546875, 0.62939453125, -0.21484375, 
305, 3924552569, 0.7062197923660278, -0.4835626482963562, -0.060873664915561676, -0.5135198831558228, 6.291331768035889, -3.988553524017334, 4.611173629760742, 41.19522476196289, 8.397812843322754, 66.55561065673828, -0.64208984375, 0.63427734375, -0.2197265625, 
306, 3924560902, 0.7099745869636536, -0.48152196407318115, -0.060083042830228806, -0.5103434324264526, 6.000317096710205, -3.6555261611938477, 4.573317527770996, 41.432952880859375, 4.4000983238220215, 60.84000015258789, -0.63818359375, 0.64013671875, -0.222412109375, 
307, 3924569235, 0.7135677337646484, -0.47932758927345276, -0.05974219739437103, -0.5074294209480286, 5.79929780960083, -3.274198532104492, 4.612566947937012, 44.816917419433594, 2.7015578746795654, 54.02501678466797, -0.63671875, 0.64208984375, -0.222900390625, 
308, 3924577568, 0.7169051170349121, -0.47700202465057373, -0.059796035289764404, -0.5049041509628296, 5.719756126403809, -3.021240472793579, 4.701592922210693, 46.8380241394043, 2.0871198177337646, 45.728328704833984, -0.63134765625, 0.650146484375, -0.23095703125, 
309, 3924585901, 0.7198864221572876, -0.4748017489910126, -0.060236819088459015, -0.5026788711547852, 5.793888092041016, -3.06537127494812, 4.636973857879639, 45.71999740600586, -0.9130988717079163, 37.85911560058594, -0.62890625, 0.653564453125, -0.232421875, 
310, 3924594234, 0.7224417924880981, -0.47283580899238586, -0.060886532068252563, -0.5007839798927307, 5.898022174835205, -3.419559955596924, 4.530807018280029, 41.77772521972656, -2.807173252105713, 30.47726058959961, -0.62646484375, 0.654541015625, -0.234375, 
311, 3924602567, 0.724565327167511, -0.47126445174217224, -0.06142977625131607, -0.4991280734539032, 6.016391754150391, -3.794306993484497, 4.557641983032227, 34.12626266479492, -3.262861967086792, 26.153432846069336, -0.62451171875, 0.656982421875, -0.23779296875, 
312, 3924610900, 0.7262192964553833, -0.4702278673648834, -0.06174807995557785, -0.49766048789024353, 6.072734832763672, -4.1249165534973145, 4.781497955322266, 24.04131507873535, -3.8801634311676025, 22.962059020996094, -0.621337890625, 0.65673828125, -0.24072265625, 
313, 3924619233, 0.7273620963096619, -0.4697791039943695, -0.06172896921634674, -0.49641624093055725, 6.022134304046631, -4.309040546417236, 5.057334899902344, 12.374999046325684, -3.5106887817382812, 19.91965103149414, -0.61962890625, 0.660888671875, -0.24072265625, 
314, 3924627566, 0.7280092835426331, -0.4698839783668518, -0.06128529831767082, -0.4954220950603485, 5.841339588165283, -4.423042297363281, 5.183833122253418, 0.5180352926254272, -1.8604135513305664, 17.24428939819336, -0.61865234375, 0.661376953125, -0.24072265625, 
315, 3924635899, 0.7282642722129822, -0.4704659879207611, -0.06048629805445671, -0.49459272623062134, 5.588850021362305, -4.631617069244385, 5.21221399307251, -9.34760856628418, -0.8083341717720032, 15.628053665161133, -0.61767578125, 0.663330078125, -0.239501953125, 
316, 3924644232, 0.7282546758651733, -0.47138816118240356, -0.05954882502555847, -0.49384188652038574, 5.436420917510986, -4.914381980895996, 5.279165744781494, -15.478252410888672, -1.4584237337112427, 14.212281227111816, -0.61962890625, 0.664794921875, -0.240478515625, 
317, 3924652565, 0.728141188621521, -0.47235873341560364, -0.05874769017100334, -0.4931775629520416, 5.516941070556641, -5.190107822418213, 5.287492752075195, -15.778705596923828, -2.6633434295654297, 11.807077407836914, -0.6162109375, 0.66748046875, -0.238525390625, 
318, 3924660898, 0.7279472947120667, -0.4733029007911682, -0.057993508875370026, -0.4926474392414093, 5.770689487457275, -5.481616497039795, 5.5307512283325195, -15.830191612243652, -2.161329984664917, 9.580687522888184, -0.6162109375, 0.6669921875, -0.236083984375, 
319, 3924669231, 0.7276756763458252, -0.4742291569709778, -0.05718895047903061, -0.4922518730163574, 5.858441352844238, -5.630021572113037, 5.783095359802246, -16.60438346862793, -0.7093608379364014, 8.032946586608887, -0.61572265625, 0.669189453125, -0.235595703125, 
320, 3924677564, 0.7273827195167542, -0.47507545351982117, -0.05635998770594597, -0.49196407198905945, 5.803043842315674, -5.837327480316162, 5.757747650146484, -16.193986892700195, 0.7499465346336365, 6.894034385681152, -0.6171875, 0.671630859375, -0.23291015625, 
321, 3924685897, 0.7272354364395142, -0.4756931960582733, -0.05567821487784386, -0.49166256189346313, 5.783766746520996, -6.06688117980957, 5.681375026702881, -11.947568893432617, 0.8599211573600769, 6.893482685089111, -0.6142578125, 0.67138671875, -0.23046875, 
322, 3924694230, 0.7273117303848267, -0.4760585427284241, -0.05517972260713577, -0.4912521243095398, 5.900370121002197, -6.241344451904297, 5.8118062019348145, -6.640593528747559, 0.17798052728176117, 8.086581230163574, -0.61572265625, 0.673095703125, -0.23193359375, 
323, 3924702563, 0.7275615334510803, -0.4761918783187866, -0.05480476841330528, -0.4907950460910797, 5.96494197845459, -6.340776443481445, 5.852731227874756, -2.314528226852417, 0.349826455116272, 8.756317138671875, -0.61279296875, 0.673828125, -0.2294921875, 
324, 3924710896, 0.7279927134513855, -0.47597867250442505, -0.054583970457315445, -0.4903866946697235, 5.870174884796143, -6.381979942321777, 5.712936878204346, 3.3454370498657227, 1.5889921188354492, 8.206762313842773, -0.611328125, 0.67626953125, -0.22998046875, 
325, 3924719229, 0.7285862565040588, -0.47539350390434265, -0.054534848779439926, -0.49007824063301086, 5.733954906463623, -6.388332843780518, 5.628078460693359, 9.213326454162598, 3.16554856300354, 6.915499210357666, -0.61181640625, 0.67578125, -0.232421875, 
326, 3924727562, 0.7292802333831787, -0.47455647587776184, -0.05459585040807724, -0.4898504316806793, 5.62744140625, -6.3206939697265625, 5.55354118347168, 13.077594757080078, 4.351513385772705, 5.858630180358887, -0.611328125, 0.67529296875, -0.23388671875, 
327, 3924735895, 0.7300212979316711, -0.47357094287872314, -0.05474213510751724, -0.48968395590782166, 5.4572649002075195, -6.242175579071045, 5.464147567749023, 15.399882316589355, 4.944867134094238, 4.910287857055664, -0.61083984375, 0.67626953125, -0.232421875, 
328, 3924744228, 0.7307764887809753, -0.4725513160228729, -0.055036455392837524, -0.4895094633102417, 5.293442249298096, -6.083096504211426, 5.420877456665039, 16.83778953552246, 3.633776903152466, 4.078952789306641, -0.6103515625, 0.676025390625, -0.23583984375, 
329, 3924752561, 0.731529712677002, -0.47151798009872437, -0.055437855422496796, -0.48933538794517517, 5.260126113891602, -5.874885082244873, 5.41478967666626, 17.682331085205078, 2.6633946895599365, 3.3720126152038574, -0.60888671875, 0.674560546875, -0.2392578125, 
330, 3924760894, 0.73227459192276, -0.4704337418079376, -0.05580386891961098, -0.489223450422287, 5.4372477531433105, -5.719621181488037, 5.452755928039551, 17.855316162109375, 3.745506763458252, 2.863966941833496, -0.609375, 0.676025390625, -0.23779296875, 
331, 3924769227, 0.7330044507980347, -0.4692527651786804, -0.05606976896524429, -0.489234060049057, 5.630255222320557, -5.831661224365234, 5.465747833251953, 17.96402359008789, 6.197608947753906, 2.120513439178467, -0.611328125, 0.67431640625, -0.24169921875, 
332, 3924777560, 0.7336944341659546, -0.4681203365325928, -0.05617456138134003, -0.4892725944519043, 5.703864574432373, -6.044032573699951, 5.565438270568848, 16.113229751586914, 7.634197235107422, 2.6305830478668213, -0.607421875, 0.6748046875, -0.240966796875, 
333, 3924785893, 0.7343243956565857, -0.4672045111656189, -0.05622230842709541, -0.4891977608203888, 5.59980583190918, -6.191879749298096, 5.57164192199707, 13.244560241699219, 5.986047744750977, 3.923845052719116, -0.609375, 0.676513671875, -0.24560546875, 
334, 3924794226, 0.7349022030830383, -0.4665200412273407, -0.05620020255446434, -0.48898574709892273, 5.5442914962768555, -6.131282806396484, 5.517748832702637, 10.209717750549316, 4.202770709991455, 5.568265914916992, -0.60693359375, 0.675537109375, -0.247802734375, 
335, 3924802559, 0.735495924949646, -0.46589425206184387, -0.056208208203315735, -0.48868849873542786, 5.436807155609131, -6.014583587646484, 5.458481788635254, 9.98477554321289, 2.9815099239349365, 6.406952381134033, -0.60791015625, 0.675048828125, -0.24951171875, 
336, 3924810892, 0.7361209988594055, -0.46511954069137573, -0.05623548477888107, -0.4884822964668274, 5.398212909698486, -5.798059463500977, 5.446203231811523, 11.753183364868164, 4.38263463973999, 5.437685489654541, -0.60791015625, 0.674560546875, -0.250244140625, 
337, 3924819225, 0.7367715239524841, -0.4641566574573517, -0.05629156157374382, -0.48841074109077454, 5.347568511962891, -5.601306915283203, 5.47332763671875, 13.908775329589844, 6.248478412628174, 3.938458204269409, -0.607421875, 0.675048828125, -0.249755859375, 
338, 3924827558, 0.7373524308204651, -0.4631725549697876, -0.056367531418800354, -0.48845961689949036, 5.312260150909424, -5.52106237411499, 5.517292022705078, 13.721738815307617, 6.891139507293701, 2.0856525897979736, -0.605224609375, 0.67578125, -0.254150390625, 
339, 3924835891, 0.7378385066986084, -0.46235477924346924, -0.056608181446790695, -0.488472580909729, 5.335392475128174, -5.5103607177734375, 5.503992557525635, 12.561336517333984, 3.8152015209198, 0.9123405814170837, -0.603759765625, 0.67529296875, -0.255126953125, 
340, 3924844224, 0.7382504940032959, -0.4616875946521759, -0.05703743174672127, -0.48843133449554443, 5.484768867492676, -5.3591437339782715, 5.547231197357178, 11.873621940612793, 0.47615596652030945, -0.1365751326084137, -0.606201171875, 0.67529296875, -0.251708984375, 
341, 3924852557, 0.738541305065155, -0.4611676335334778, -0.05747683346271515, -0.4884313642978668, 5.553945064544678, -5.1818342208862305, 5.507640361785889, 9.644436836242676, -0.43882307410240173, -1.2959522008895874, -0.603759765625, 0.6748046875, -0.255615234375, 
342, 3924860890, 0.7384706139564514, -0.4610464870929718, -0.05771736800670624, -0.4886244535446167, 5.309019565582275, -5.068274974822998, 5.5789899826049805, 1.8145766258239746, -0.17007854580879211, -4.13254976272583, -0.607666015625, 0.675048828125, -0.255615234375, 
343, 3924869223, 0.7381389141082764, -0.4613896608352661, -0.05836784839630127, -0.4887240529060364, 5.220451354980469, -5.055821895599365, 5.141713619232178, -1.7308307886123657, -8.240996360778809, -7.1403279304504395, -0.605712890625, 0.67431640625, -0.255615234375, 
344, 3924877556, 0.737851619720459, -0.46162015199661255, -0.059653520584106445, -0.4887849986553192, 5.569360256195068, -4.931681156158447, 4.872968673706055, 3.999241352081299, -14.151870727539062, -10.59571647644043, -0.605712890625, 0.67333984375, -0.253173828125, 
345, 3924885889, 0.7373870611190796, -0.46185246109962463, -0.0607413649559021, -0.48913270235061646, 5.990638256072998, -4.405174732208252, 5.414149761199951, 1.2853866815567017, -10.471229553222656, -13.412308692932129, -0.609619140625, 0.670654296875, -0.253662109375, 
346, 3924894222, 0.7366209626197815, -0.46224233508110046, -0.06175803020596504, -0.4897908866405487, 6.118110656738281, -3.5974082946777344, 5.460485935211182, -2.958828926086426, -9.100329399108887, -18.03263282775879, -0.611572265625, 0.67041015625, -0.250732421875, 
347, 3924902555, 0.7356088757514954, -0.4626709818840027, -0.06246436387300491, -0.49081647396087646, 6.162755966186523, -2.96920108795166, 5.323428630828857, -7.327109336853027, -4.079939842224121, -21.373449325561523, -0.6123046875, 0.669921875, -0.251220703125, 
348, 3924910888, 0.7341444492340088, -0.4635479748249054, -0.06247667595744133, -0.4921782612800598, 6.011627197265625, -3.2854480743408203, 5.057978630065918, -19.704687118530273, 1.6522345542907715, -23.058719635009766, -0.615478515625, 0.666748046875, -0.250244140625, 
349, 3924919221, 0.7321620583534241, -0.46523305773735046, -0.06218630075454712, -0.4935761094093323, 5.896315574645996, -4.475858688354492, 4.729736804962158, -33.25634002685547, -0.962097704410553, -24.265806198120117, -0.614990234375, 0.66455078125, -0.2490234375, 
350, 3924927554, 0.7299023866653442, -0.4674844741821289, -0.06183365732431412, -0.4948384165763855, 6.087597370147705, -5.534536838531494, 4.810490608215332, -41.028785705566406, -5.297214031219482, -23.940752029418945, -0.617431640625, 0.661376953125, -0.2490234375, 
351, 3924935887, 0.7275809645652771, -0.4699048101902008, -0.06154634803533554, -0.4959988594055176, 6.169323921203613, -5.6207966804504395, 5.236392498016357, -42.599334716796875, -7.794556617736816, -23.56991195678711, -0.618408203125, 0.660400390625, -0.2412109375, 
352, 3924944220, 0.7252333164215088, -0.4721543490886688, -0.061353251338005066, -0.49732324481010437, 5.816895008087158, -4.759316921234131, 5.4733405113220215, -40.547088623046875, -6.550393581390381, -26.18794822692871, -0.62353515625, 0.658447265625, -0.23828125, 
353, 3924952553, 0.722807765007019, -0.4741355776786804, -0.06093771383166313, -0.49901747703552246, 5.135898590087891, -4.289830684661865, 5.449025630950928, -40.22071075439453, -0.14743584394454956, -29.145551681518555, -0.62451171875, 0.659423828125, -0.236572265625, 
354, 3924960886, 0.7203475832939148, -0.47603684663772583, -0.06070084124803543, -0.500790536403656, 4.7108306884765625, -4.789892196655273, 5.37313985824585, -38.48029327392578, -0.9030829071998596, -31.44210433959961, -0.62646484375, 0.658203125, -0.231689453125, 
355, 3924969219, 0.718039333820343, -0.4776659905910492, -0.06074284017086029, -0.5025463104248047, 5.212778568267822, -5.247081756591797, 5.503485679626465, -32.869476318359375, -1.7672061920166016, -32.231422424316406, -0.62548828125, 0.654296875, -0.2294921875, 
356, 3924977552, 0.7159966826438904, -0.4786878824234009, -0.06088225916028023, -0.5044675469398499, 5.824527740478516, -5.163804054260254, 5.389739513397217, -24.57832908630371, 2.765355110168457, -33.22270965576172, -0.63330078125, 0.650390625, -0.22412109375, 
357, 3924985885, 0.71415114402771, -0.4790758490562439, -0.06145327910780907, -0.5066413283348083, 5.953066825866699, -4.956526279449463, 4.877115726470947, -14.27292537689209, 4.752267360687256, -37.66582489013672, -0.6328125, 0.64794921875, -0.224609375, 
358, 3924994218, 0.7123683094978333, -0.4790010452270508, -0.0626676082611084, -0.5090674161911011, 6.146089553833008, -5.124342441558838, 4.450835227966309, -5.030349254608154, 3.361745834350586, -44.3850212097168, -0.63671875, 0.642333984375, -0.226318359375, 
359, 3925002551, 0.7104518413543701, -0.47876712679862976, -0.06446712464094162, -0.5117340087890625, 6.285900592803955, -5.402192115783691, 4.284295082092285, -0.4797685444355011, 0.22412508726119995, -51.6172981262207, -0.637939453125, 0.637939453125, -0.2255859375, 
360, 3925010884, 0.708324670791626, -0.47851628065109253, -0.06685670465230942, -0.5146028995513916, 6.536194324493408, -5.2157206535339355, 4.575436592102051, 2.288702964782715, -4.286862373352051, -59.02774429321289, -0.643310546875, 0.63232421875, -0.22900390625, 
361, 3925019217, 0.7058445811271667, -0.47845157980918884, -0.06963390111923218, -0.517693281173706, 6.627269744873047, -4.3813347816467285, 4.916213035583496, 0.6782675385475159, -8.235916137695312, -66.0062026977539, -0.648193359375, 0.626708984375, -0.226318359375, 
362, 3925027550, 0.7029284238815308, -0.47872990369796753, -0.07261503487825394, -0.5209835767745972, 6.473354339599609, -3.503803253173828, 4.956825256347656, -4.246334552764893, -11.771472930908203, -72.12239074707031, -0.651611328125, 0.619873046875, -0.225830078125, 
363, 3925035883, 0.6995409727096558, -0.4795425832271576, -0.0756479874253273, -0.5243533253669739, 6.271329879760742, -3.219050168991089, 5.058674335479736, -12.240930557250977, -16.034032821655273, -76.01326751708984, -0.656005859375, 0.611328125, -0.22314453125, 
364, 3925044216, 0.6957974433898926, -0.48072168231010437, -0.07855423539876938, -0.5278159976005554, 6.233896255493164, -3.4966177940368652, 4.9880781173706055, -19.10536003112793, -17.229310989379883, -78.3171615600586, -0.663818359375, 0.60107421875, -0.219970703125, 
365, 3925052549, 0.6918206214904785, -0.4820983111858368, -0.08143307268619537, -0.5313395857810974, 6.173805236816406, -3.977982759475708, 4.847506046295166, -22.823402404785156, -18.237581253051758, -80.13343811035156, -0.669921875, 0.592529296875, -0.21923828125, 
366, 3925060882, 0.6875573396682739, -0.48378241062164307, -0.0842408686876297, -0.5348929762840271, 6.090456962585449, -4.4241862297058105, 4.862127780914307, -28.178922653198242, -19.943714141845703, -81.7612533569336, -0.67626953125, 0.584716796875, -0.215087890625, 
367, 3925069215, 0.6829726696014404, -0.48570016026496887, -0.08691396564245224, -0.5385881066322327, 6.06729793548584, -4.820529460906982, 4.80063533782959, -33.70358657836914, -19.807037353515625, -84.22956848144531, -0.67919921875, 0.576171875, -0.208984375, 
368, 3925077548, 0.6781347990036011, -0.48768383264541626, -0.08944962918758392, -0.5424792766571045, 6.081817150115967, -5.276424407958984, 4.6797943115234375, -37.24488830566406, -18.00920867919922, -87.01911163330078, -0.6884765625, 0.568115234375, -0.20751953125, 
369, 3925085881, 0.6733735799789429, -0.48930492997169495, -0.09232224524021149, -0.546454668045044, 6.042185306549072, -5.493653297424316, 4.460091590881348, -30.9600772857666, -17.77578353881836, -89.86830139160156, -0.6923828125, 0.558349609375, -0.203125, 
370, 3925094214, 0.6689029335975647, -0.4901929795742035, -0.09554041922092438, -0.5505809783935547, 6.057079315185547, -5.359270095825195, 4.398611545562744, -19.790149688720703, -14.093218803405762, -92.40626525878906, -0.6982421875, 0.548583984375, -0.197998046875, 
371, 3925102547, 0.6647148132324219, -0.4903155267238617, -0.09919280558824539, -0.5548813343048096, 6.240498065948486, -5.2386088371276855, 4.3593430519104, -7.8069233894348145, -10.739187240600586, -95.7345962524414, -0.703857421875, 0.539794921875, -0.19921875, 
372, 3925110880, 0.6607332825660706, -0.48988741636276245, -0.10341860353946686, -0.559226393699646, 6.548083305358887, -5.2237138748168945, 4.584292888641357, 2.9546406269073486, -11.204712867736816, -99.25064849853516, -0.709716796875, 0.528076171875, -0.196044921875, 
373, 3925119213, 0.6569408774375916, -0.48899245262145996, -0.1081632599234581, -0.5635630488395691, 6.945547580718994, -5.260321617126465, 4.79514741897583, 12.452567100524902, -12.1066312789917, -101.81427764892578, -0.7158203125, 0.513671875, -0.196533203125, 
374, 3925127546, 0.653279185295105, -0.48788222670555115, -0.11349144577980042, -0.5677186846733093, 7.2725911140441895, -5.316310405731201, 4.577172756195068, 20.089433670043945, -16.7425537109375, -103.4747543334961, -0.720703125, 0.501953125, -0.198974609375, 
375, 3925135879, 0.649191677570343, -0.48756518959999084, -0.11906777322292328, -0.5715249180793762, 7.684338092803955, -5.380670547485352, 4.551311016082764, 12.567793846130371, -28.16278648376465, -104.01983642578125, -0.728515625, 0.488037109375, -0.1943359375, 
376, 3925144212, 0.6443840265274048, -0.4882497489452362, -0.12407056987285614, -0.5753048062324524, 8.13906192779541, -5.086545944213867, 4.66257381439209, -5.64608907699585, -32.28025436401367, -104.02787017822266, -0.735107421875, 0.474365234375, -0.19140625, 
377, 3925152545, 0.6392363905906677, -0.4893445670604706, -0.12892526388168335, -0.5790377855300903, 8.222993850708008, -4.678290367126465, 4.389224052429199, -12.674830436706543, -35.097496032714844, -104.53900909423828, -0.737548828125, 0.463134765625, -0.1884765625, 
378, 3925160878, 0.6341391801834106, -0.490149587392807, -0.13391274213790894, -0.5828173756599426, 8.275496482849121, -4.221126079559326, 4.333371639251709, -8.794103622436523, -33.56631088256836, -106.02400207519531, -0.74609375, 0.45068359375, -0.183837890625, 
379, 3925169211, 0.6290075182914734, -0.4906002879142761, -0.13912583887577057, -0.5867644548416138, 8.258103370666504, -3.9012749195098877, 4.212390422821045, -4.455492973327637, -31.61383056640625, -109.86107635498047, -0.75, 0.43701171875, -0.180419921875, 
380, 3925177544, 0.623619794845581, -0.49095413088798523, -0.1445712447166443, -0.5908884406089783, 7.914811134338379, -3.6662728786468506, 4.107983589172363, -3.790057897567749, -32.152923583984375, -115.28329467773438, -0.755615234375, 0.421630859375, -0.176025390625, 
381, 3925185877, 0.6178311109542847, -0.49137642979621887, -0.14996029436588287, -0.5952589511871338, 7.6460771560668945, -3.4584877490997314, 4.210923671722412, -8.052916526794434, -31.34307861328125, -120.06573486328125, -0.760498046875, 0.408203125, -0.175048828125, 
382, 3925194210, 0.6117171049118042, -0.49178776144981384, -0.1552795171737671, -0.5998523831367493, 7.70996618270874, -3.46146559715271, 4.254506587982178, -11.168839454650879, -29.839351654052734, -124.24437713623047, -0.7646484375, 0.3916015625, -0.169677734375, 
383, 3925202543, 0.6053955554962158, -0.4922025501728058, -0.1610184758901596, -0.6043951511383057, 7.986076831817627, -3.4043400287628174, 4.281540393829346, -9.04954719543457, -34.17074203491211, -128.28851318359375, -0.769775390625, 0.376220703125, -0.165283203125, 
384, 3925210876, 0.5987745523452759, -0.4928848147392273, -0.16697756946086884, -0.6088019609451294, 8.625268936157227, -3.1267452239990234, 4.37496280670166, -11.154236793518066, -39.8232421875, -130.6175537109375, -0.775390625, 0.358642578125, -0.162109375, 
385, 3925219209, 0.5917680859565735, -0.49377894401550293, -0.1726076900959015, -0.6133407950401306, 9.220191955566406, -2.974660634994507, 4.136250972747803, -18.587491989135742, -38.86568069458008, -132.13978576660156, -0.7822265625, 0.34375, -0.15869140625, 
386, 3925227542, 0.5846156477928162, -0.4947798550128937, -0.17800748348236084, -0.61783367395401, 9.681050300598145, -3.2258095741271973, 4.234921455383301, -22.26222038269043, -38.56333923339844, -131.25482177734375, -0.786376953125, 0.32421875, -0.152587890625, 
387, 3925235875, 0.5773554444313049, -0.49589940905570984, -0.18310950696468353, -0.6222562789916992, 9.855921745300293, -3.5772271156311035, 4.5281267166137695, -26.32843780517578, -37.903831481933594, -129.20970153808594, -0.7900390625, 0.31005859375, -0.145751953125, 
388, 3925244208, 0.5700657963752747, -0.4971315264701843, -0.18808533251285553, -0.6264956593513489, 9.627456665039062, -3.8170289993286133, 4.463326930999756, -28.020917892456055, -39.20616912841797, -126.94473266601562, -0.792724609375, 0.29296875, -0.138671875, 
389, 3925252541, 0.5629596710205078, -0.4982196092605591, -0.19295170903205872, -0.6305637955665588, 9.462813377380371, -3.767354726791382, 4.745871067047119, -26.15580940246582, -37.785133361816406, -123.56077575683594, -0.798095703125, 0.277099609375, -0.1376953125, 
390, 3925260874, 0.5561414957046509, -0.49890315532684326, -0.19783850014209747, -0.6345468759536743, 9.402310371398926, -3.4549076557159424, 4.495286464691162, -20.62833595275879, -34.27080154418945, -121.7003402709961, -0.80029296875, 0.259521484375, -0.129150390625, 
391, 3925269207, 0.5496941804885864, -0.49896615743637085, -0.20292678475379944, -0.6384961009025574, 9.239317893981934, -3.1695470809936523, 4.262122631072998, -11.508224487304688, -29.604700088500977, -121.19811248779297, -0.801513671875, 0.243896484375, -0.127685546875, 
392, 3925277540, 0.5433802008628845, -0.49852102994918823, -0.20810343325138092, -0.642569363117218, 8.989812850952148, -2.8998477458953857, 4.357666492462158, -6.3032002449035645, -24.60379981994629, -123.06671905517578, -0.80419921875, 0.22802734375, -0.1240234375, 
393, 3925285873, 0.5369856953620911, -0.4978110194206238, -0.21338890492916107, -0.6467482447624207, 8.675773620605469, -2.7597217559814453, 4.179546356201172, -4.232980251312256, -22.567607879638672, -125.99088287353516, -0.807373046875, 0.211181640625, -0.122314453125, 
394, 3925294206, 0.53045654296875, -0.4970988631248474, -0.21888189017772675, -0.6508355140686035, 8.51461410522461, -2.74703311920166, 4.359568119049072, -3.00905179977417, -25.11838722229004, -128.0211181640625, -0.80908203125, 0.195556640625, -0.117431640625, 
395, 3925302539, 0.5237526893615723, -0.4963999390602112, -0.22449949383735657, -0.6548721194267273, 8.678359985351562, -2.694964647293091, 4.32236909866333, -3.0490379333496094, -27.00282096862793, -129.94674682617188, -0.810791015625, 0.17724609375, -0.119140625, 
396, 3925310872, 0.5171329379081726, -0.49557241797447205, -0.2305602729320526, -0.6586433053016663, 8.967667579650879, -2.6743454933166504, 4.012752056121826, 3.2797627449035645, -30.603219985961914, -130.77980041503906, -0.81005859375, 0.15869140625, -0.11328125, 
397, 3925319205, 0.5107557773590088, -0.4944842457771301, -0.23682476580142975, -0.6622049808502197, 9.580962181091309, -2.55790638923645, 4.380186080932617, 9.277762413024902, -30.337203979492188, -129.22921752929688, -0.812255859375, 0.142333984375, -0.1103515625, 
398, 3925327538, 0.504572331905365, -0.49323058128356934, -0.24299821257591248, -0.6656349301338196, 10.142613410949707, -2.3234517574310303, 4.348652362823486, 11.376911163330078, -28.468482971191406, -126.53671264648438, -0.8115234375, 0.124267578125, -0.1064453125, 
399, 3925335871, 0.49855560064315796, -0.49184101819992065, -0.24934490025043488, -0.6688418984413147, 10.387449264526367, -2.233314037322998, 3.8948516845703125, 15.762041091918945, -29.369123458862305, -125.01702117919922, -0.813232421875, 0.108154296875, -0.10205078125, 
400, 3925344204, 0.4927358627319336, -0.49031391739845276, -0.2561405897140503, -0.6717015504837036, 10.328378677368164, -2.08644437789917, 3.7336013317108154, 23.377605438232422, -32.86954879760742, -124.4093017578125, -0.813232421875, 0.08984375, -0.1015625, 
401, 3925352537, 0.4870293438434601, -0.48856139183044434, -0.26295581459999084, -0.6745011806488037, 10.063569068908691, -1.873013973236084, 3.7582433223724365, 26.042217254638672, -30.910032272338867, -123.80499267578125, -0.80859375, 0.07080078125, -0.096923828125, 
402, 3925360870, 0.4811781644821167, -0.48713788390159607, -0.2699149549007416, -0.67697674036026, 9.70895004272461, -1.908172369003296, 3.366840362548828, 25.39040756225586, -37.641456604003906, -122.83103942871094, -0.810791015625, 0.055908203125, -0.0927734375, 
403, 3925369203, 0.4751514792442322, -0.48618534207344055, -0.2773014008998871, -0.6789302825927734, 9.422005653381348, -1.7872543334960938, 3.429863691329956, 26.998821258544922, -48.984779357910156, -122.0491943359375, -0.80859375, 0.0400390625, -0.085205078125, 
404, 3925377536, 0.4690457880496979, -0.4851634204387665, -0.28447940945625305, -0.6809343099594116, 9.491793632507324, -1.256111979484558, 3.760962963104248, 24.80089569091797, -46.956336975097656, -122.0646743774414, -0.808837890625, 0.02099609375, -0.08154296875, 
405, 3925385869, 0.4628814160823822, -0.48384541273117065, -0.29119229316711426, -0.6832486987113953, 9.574897766113281, -0.6084036231040955, 3.9753732681274414, 20.733383178710938, -39.32387161254883, -122.59554290771484, -0.80859375, 0.005859375, -0.074951171875, 
406, 3925394202, 0.4566138684749603, -0.48235344886779785, -0.2977961003780365, -0.6856703758239746, 9.492673873901367, -0.13992787897586823, 3.9171226024627686, 19.716638565063477, -36.71208190917969, -124.29287719726562, -0.8046875, -0.010986328125, -0.0693359375, 
407, 3925402535, 0.45031100511550903, -0.48079487681388855, -0.3043578267097473, -0.6880481839179993, 9.628695487976074, 0.07512103766202927, 3.8844807147979736, 19.665842056274414, -36.24010467529297, -124.27152252197266, -0.801513671875, -0.02978515625, -0.06591796875, 
408, 3925410868, 0.44399330019950867, -0.47930940985679626, -0.31055206060409546, -0.6904184222221375, 9.995144844055176, 0.0026272814720869064, 3.937990188598633, 15.686675071716309, -34.78316879272461, -121.70193481445312, -0.7998046875, -0.044921875, -0.062255859375, 
409, 3925419201, 0.43771761655807495, -0.47790226340293884, -0.31660541892051697, -0.6926479935646057, 10.17059326171875, -0.1231023296713829, 3.871941328048706, 14.734012603759766, -35.40046310424805, -119.10694122314453, -0.795654296875, -0.060302734375, -0.0537109375, 
410, 3925427534, 0.4314539134502411, -0.47651153802871704, -0.3224441707134247, -0.6948392987251282, 10.028498649597168, -0.36205559968948364, 3.919299364089966, 12.850272178649902, -34.47864532470703, -117.35516357421875, -0.793212890625, -0.078369140625, -0.05224609375, 
411, 3925435867, 0.42534685134887695, -0.4751238226890564, -0.32828572392463684, -0.6968167424201965, 9.847466468811035, -0.6049303412437439, 3.8871891498565674, 14.81964111328125, -35.21773147583008, -114.52020263671875, -0.78955078125, -0.091552734375, -0.04833984375, 
412, 3925444200, 0.4197888970375061, -0.4734398126602173, -0.3341934084892273, -0.6985229253768921, 9.71386432647705, -0.6760308146476746, 3.680802583694458, 22.01215171813965, -32.070919036865234, -109.51492309570312, -0.785400390625, -0.107177734375, -0.0439453125, 
413, 3925452533, 0.41470658779144287, -0.4715938866138458, -0.3402727544307709, -0.6998711228370667, 9.597631454467773, -0.5686265826225281, 3.4821932315826416, 29.326107025146484, -31.63921546936035, -104.67256164550781, -0.7822265625, -0.121826171875, -0.040771484375, 
414, 3925460866, 0.4099118709564209, -0.4698346257209778, -0.34628111124038696, -0.7009312510490417, 9.775696754455566, -0.3240164518356323, 3.529446601867676, 31.375141143798828, -32.604496002197266, -99.46385955810547, -0.779052734375, -0.13671875, -0.0341796875, 
415, 3925469199, 0.40541988611221313, -0.4682716727256775, -0.35224491357803345, -0.7016178369522095, 10.148747444152832, -0.35450315475463867, 3.333315849304199, 33.56013488769531, -35.20390319824219, -93.15210723876953, -0.775390625, -0.1494140625, -0.02880859375, 
416, 3925477532, 0.40098515152931213, -0.4671419560909271, -0.3580523431301117, -0.7019796371459961, 10.666899681091309, -0.553450345993042, 3.382124185562134, 31.590927124023438, -40.33932876586914, -87.74911499023438, -0.77099609375, -0.161376953125, -0.023681640625, 
417, 3925485865, 0.3965320587158203, -0.4661051630973816, -0.36366453766822815, -0.702313244342804, 10.896720886230469, -0.5902737379074097, 3.329838752746582, 29.201904296875, -40.416690826416016, -85.99979400634766, -0.764892578125, -0.17236328125, -0.01904296875, 
418, 3925494198, 0.39224177598953247, -0.46484437584877014, -0.36928078532218933, -0.7026275992393494, 10.666823387145996, -0.3247436285018921, 3.449960708618164, 31.615562438964844, -37.59908676147461, -85.52716827392578, -0.762939453125, -0.180419921875, -0.009521484375, 
419, 3925502531, 0.3881807029247284, -0.46334773302078247, -0.375061571598053, -0.7028092741966248, 9.997725486755371, 0.5378941297531128, 3.581372022628784, 36.60665512084961, -35.878326416015625, -84.79310607910156, -0.75830078125, -0.19384765625, -0.00390625, 
420, 3925510864, 0.38438332080841064, -0.4617617726325989, -0.38106101751327515, -0.7027130722999573, 9.315666198730469, 1.7521499395370483, 3.495755672454834, 42.320709228515625, -36.608131408691406, -82.66910552978516, -0.753662109375, -0.205078125, 0.000244140625, 
421, 3925519197, 0.38067054748535156, -0.46035781502723694, -0.38701286911964417, -0.7024023532867432, 9.106012344360352, 2.539405345916748, 3.4032506942749023, 42.55120086669922, -39.019493103027344, -79.40869903564453, -0.75048828125, -0.215087890625, 0.008056640625, 
422, 3925527530, 0.37699416279792786, -0.45920509099960327, -0.3926209509372711, -0.7020273208618164, 9.390750885009766, 2.5928266048431396, 3.2469778060913086, 38.495330810546875, -39.873291015625, -75.2593765258789, -0.744873046875, -0.224609375, 0.013916015625, 
423, 3925535863, 0.37331122159957886, -0.45821303129196167, -0.39789095520973206, -0.7016764283180237, 9.929648399353027, 2.0117921829223633, 3.0578114986419678, 34.219818115234375, -39.54307174682617, -72.3920669555664, -0.74267578125, -0.234130859375, 0.018798828125, 
424, 3925544196, 0.36977124214172363, -0.4571114182472229, -0.40296193957328796, -0.7013756632804871, 10.177260398864746, 1.3609235286712646, 2.804609775543213, 33.496429443359375, -36.37836837768555, -70.66862487792969, -0.739501953125, -0.244140625, 0.025634765625, 
425, 3925552529, 0.36645644903182983, -0.45579612255096436, -0.4079945683479309, -0.7010617256164551, 10.015162467956543, 1.1033399105072021, 2.6301589012145996, 35.69285583496094, -32.94434356689453, -69.32042694091797, -0.735595703125, -0.253173828125, 0.034912109375, 
426, 3925560862, 0.3633655607700348, -0.4544433653354645, -0.4129135012626648, -0.7006688117980957, 9.603416442871094, 1.2592788934707642, 2.605442762374878, 36.63969802856445, -31.26061248779297, -66.31413269042969, -0.73193359375, -0.2587890625, 0.038330078125, 
427, 3925569195, 0.3605106472969055, -0.4532116651535034, -0.4175882637500763, -0.700170636177063, 9.309927940368652, 1.6311644315719604, 2.6362690925598145, 35.748451232910156, -30.513757705688477, -61.25174331665039, -0.725341796875, -0.268798828125, 0.042724609375, 
428, 3925577528, 0.357921838760376, -0.45215895771980286, -0.4219292104244232, -0.699576735496521, 9.223337173461914, 2.037257671356201, 2.6281914710998535, 33.861488342285156, -29.661643981933594, -55.155296325683594, -0.72265625, -0.275634765625, 0.046630859375, 
429, 3925585861, 0.3555871546268463, -0.4513169527053833, -0.4257963001728058, -0.6989676356315613, 9.167750358581543, 2.232126235961914, 2.6317341327667236, 29.92784309387207, -27.9655704498291, -48.42189025878906, -0.71728515625, -0.282470703125, 0.05419921875, 
430, 3925594194, 0.35351914167404175, -0.45067378878593445, -0.42898157238960266, -0.6984837651252747, 9.059277534484863, 2.1559765338897705, 2.6032207012176514, 23.330951690673828, -24.21493911743164, -41.12009048461914, -0.715087890625, -0.28662109375, 0.059326171875, 
431, 3925602527, 0.35167133808135986, -0.4502173662185669, -0.43131303787231445, -0.6982751488685608, 8.945277214050293, 1.860237717628479, 2.652879238128662, 13.954849243164062, -18.843318939208984, -33.90533447265625, -0.712646484375, -0.291015625, 0.062255859375, 
432, 3925610860, 0.3499620258808136, -0.44991275668144226, -0.4328686594963074, -0.6983675360679626, 8.79175090789795, 1.4463725090026855, 2.582937717437744, 4.850597858428955, -13.872824668884277, -28.371366500854492, -0.70947265625, -0.296142578125, 0.064453125, 
433, 3925619193, 0.3484629988670349, -0.44965648651123047, -0.4340111315250397, -0.698573112487793, 8.649630546569824, 1.1510411500930786, 2.373725414276123, 1.2706204652786255, -10.389049530029297, -24.01127052307129, -0.71044921875, -0.299560546875, 0.0673828125, 
434, 3925627526, 0.3472069799900055, -0.4494684040546417, -0.4350937008857727, -0.6986462473869324, 8.618616104125977, 0.9525354504585266, 2.2330892086029053, 2.669708728790283, -10.13430118560791, -20.306766510009766, -0.70947265625, -0.299560546875, 0.06787109375, 
435, 3925635859, 0.3461846709251404, -0.44936907291412354, -0.4361903667449951, -0.6985335946083069, 8.61357593536377, 0.9013539552688599, 2.2292537689208984, 4.930895805358887, -10.796134948730469, -16.694379806518555, -0.70751953125, -0.302978515625, 0.068603515625, 
436, 3925644192, 0.3454294204711914, -0.44936448335647583, -0.43726497888565063, -0.6982384920120239, 8.628807067871094, 0.9656436443328857, 2.2662885189056396, 7.0176239013671875, -11.13446044921875, -12.590910911560059, -0.70361328125, -0.304443359375, 0.07470703125, 
437, 3925652525, 0.34502333402633667, -0.4493834674358368, -0.4383155107498169, -0.6977681517601013, 8.641679763793945, 1.0127977132797241, 2.1809844970703125, 9.880936622619629, -10.223719596862793, -8.085570335388184, -0.705078125, -0.3056640625, 0.07373046875, 
438, 3925660858, 0.34511345624923706, -0.4493958652019501, -0.4393349885940552, -0.6970739960670471, 8.66557788848877, 1.0475261211395264, 2.123570203781128, 14.035247802734375, -8.412421226501465, -2.1408767700195312, -0.704833984375, -0.307861328125, 0.076171875, 
439, 3925669191, 0.34573134779930115, -0.4494566321372986, -0.44024863839149475, -0.696151614189148, 8.643543243408203, 1.0193407535552979, 2.07065749168396, 17.427854537963867, -6.587637901306152, 4.974030017852783, -0.70458984375, -0.306884765625, 0.0771484375, 
440, 3925677524, 0.346830815076828, -0.44973644614219666, -0.4410012364387512, -0.6949465870857239, 8.526874542236328, 0.9774965047836304, 1.952835202217102, 19.53605079650879, -6.758934497833252, 13.223675727844238, -0.70556640625, -0.302978515625, 0.075927734375, 
441, 3925685857, 0.3483273386955261, -0.4500263035297394, -0.44123727083206177, -0.6938598155975342, 8.227191925048828, 0.8356368541717529, 2.115056276321411, 16.285245895385742, -1.2433156967163086, 19.730464935302734, -0.70654296875, -0.30322265625, 0.080322265625, 
442, 3925694190, 0.3498310148715973, -0.4504878520965576, -0.44139450788497925, -0.6927029490470886, 7.797894477844238, 0.5287474989891052, 1.3369174003601074, 15.185295104980469, -2.9013516902923584, 21.643747329711914, -0.70654296875, -0.298828125, 0.080810546875, 
443, 3925702523, 0.35149940848350525, -0.45133092999458313, -0.4423600137233734, -0.690690815448761, 7.652493476867676, 0.26615196466445923, 1.016173005104065, 27.258220672607422, -14.717512130737305, 24.650022506713867, -0.708251953125, -0.295654296875, 0.08447265625, 
444, 3925710856, 0.3533436357975006, -0.4522895812988281, -0.44335833191871643, -0.6884790658950806, 8.11666202545166, 0.5104508399963379, 1.7545737028121948, 29.319271087646484, -16.14972496032715, 27.768836975097656, -0.708251953125, -0.294921875, 0.0888671875, 
445, 3925719189, 0.3552665710449219, -0.4532543420791626, -0.44404903054237366, -0.6864066123962402, 8.679372787475586, 1.4672505855560303, 2.1504127979278564, 26.012895584106445, -13.358894348144531, 29.798124313354492, -0.713623046875, -0.2919921875, 0.09326171875, 
446, 3925727522, 0.357300728559494, -0.4542846083641052, -0.4444807469844818, -0.6843873858451843, 9.085152626037598, 2.500152587890625, 2.256450891494751, 23.6212158203125, -11.707106590270996, 32.592613220214844, -0.71240234375, -0.28564453125, 0.097900390625, 
447, 3925735855, 0.3593286871910095, -0.4555678069591522, -0.4444142282009125, -0.6825131177902222, 9.581161499023438, 3.274099349975586, 2.3582186698913574, 16.759662628173828, -10.767829895019531, 36.4881591796875, -0.71533203125, -0.282470703125, 0.096923828125, 
448, 3925744188, 0.3613376021385193, -0.4571482837200165, -0.4437299370765686, -0.6808390617370605, 10.136195182800293, 3.6541502475738525, 2.2943389415740967, 8.155085563659668, -9.372340202331543, 40.99842834472656, -0.716064453125, -0.275390625, 0.100341796875, 
