sep=,
PacketCounter,SampleTimeFine,Quat_W,Quat_X,Quat_Y,Quat_Z,Acc_X,Acc_Y,Acc_Z,Gyr_X,Gyr_Y,Gyr_Z,Mag_X,Mag_Y,Mag_Z,
0, 2927217464, 0.6687837243080139, -0.5536336898803711, -0.14615799486637115, -0.4741680920124054, 0, 0, 0, 0, 0, 0, -0.679443359375, 0.534423828125, -0.197509765625, 
1, 2927225797, 0.6686540842056274, -0.55378657579422, -0.14600977301597595, -0.4742180109024048, 7.102944374084473, -6.093246936798096, 3.4087631702423096, -3.8225913047790527, 0.7297110557556152, 0.08461661636829376, -0.679443359375, 0.534912109375, -0.198486328125, 
2, 2927234130, 0.668570339679718, -0.5539102554321289, -0.14589592814445496, -0.47422677278518677, 7.162426948547363, -6.135100841522217, 3.4046471118927, -2.9902567863464355, 0.4258750081062317, 0.39936432242393494, -0.678955078125, 0.535400390625, -0.199951171875, 
3, 2927242463, 0.668585479259491, -0.5539441704750061, -0.14582505822181702, -0.4741874933242798, 7.16076135635376, -6.103842735290527, 3.424802780151367, -1.1000032424926758, 0.5240800380706787, 0.9517096877098083, -0.677978515625, 0.534423828125, -0.201171875, 
4, 2927250796, 0.6686820387840271, -0.5538800954818726, -0.14578184485435486, -0.4741395115852356, 7.152629375457764, -6.036277770996094, 3.4598300457000732, 0.6830419898033142, 0.9299375414848328, 1.182775616645813, -0.678955078125, 0.533447265625, -0.20068359375, 
5, 2927259129, 0.6688236594200134, -0.5537604093551636, -0.1457677185535431, -0.47408387064933777, 7.153656482696533, -5.945976257324219, 3.4211902618408203, 1.6685750484466553, 1.1388217210769653, 1.1818535327911377, -0.677978515625, 0.534912109375, -0.198486328125, 
6, 2927267462, 0.6689821481704712, -0.5536084175109863, -0.14575403928756714, -0.47404226660728455, 7.184660911560059, -5.839818954467773, 3.3738980293273926, 2.1441292762756348, 1.4054145812988281, 1.1260401010513306, -0.677978515625, 0.535888671875, -0.199951171875, 
7, 2927275795, 0.6691101789474487, -0.5534713864326477, -0.1456998884677887, -0.4740378260612488, 7.2017621994018555, -5.815095901489258, 3.3527262210845947, 1.874513864517212, 1.5982388257980347, 1.119124412536621, -0.677001953125, 0.532470703125, -0.19921875, 
8, 2927284128, 0.6691781282424927, -0.5534010529518127, -0.1456359624862671, -0.4740438163280487, 7.192004680633545, -5.816098213195801, 3.351435899734497, 0.27867013216018677, 1.5166317224502563, 0.6442364454269409, -0.676025390625, 0.532958984375, -0.19921875, 
9, 2927292461, 0.6691619157791138, -0.5534007549285889, -0.1455448716878891, -0.474094957113266, 7.174322605133057, -5.905680179595947, 3.3124890327453613, -1.400278925895691, 1.6057435274124146, -0.02797074429690838, -0.678955078125, 0.534423828125, -0.199951171875, 
10, 2927300794, 0.6690669059753418, -0.5534536838531494, -0.14544636011123657, -0.47419774532318115, 7.172281742095947, -5.96683406829834, 3.3303780555725098, -2.5129616260528564, 1.4414539337158203, -0.7994458675384521, -0.678466796875, 0.535888671875, -0.200439453125, 
11, 2927309127, 0.6688981056213379, -0.553579568862915, -0.1453460156917572, -0.4743195176124573, 7.189243316650391, -6.0587944984436035, 3.3715436458587646, -3.9121901988983154, 1.0917940139770508, -1.344721794128418, -0.677978515625, 0.535400390625, -0.199951171875, 
12, 2927317460, 0.6686782240867615, -0.5537777543067932, -0.14523135125637054, -0.4744335114955902, 7.162596225738525, -6.072569370269775, 3.4286820888519287, -4.930177211761475, 0.4767449200153351, -1.3026374578475952, -0.677490234375, 0.536376953125, -0.198974609375, 
13, 2927325793, 0.6684757471084595, -0.5539683699607849, -0.145145446062088, -0.4745224118232727, 7.156554222106934, -6.0964250564575195, 3.461240768432617, -4.354650974273682, 0.03292710334062576, -1.1325334310531616, -0.677490234375, 0.534912109375, -0.2001953125, 
14, 2927334126, 0.668387234210968, -0.5540506839752197, -0.14512783288955688, -0.4745562672615051, 7.14511251449585, -6.101889133453369, 3.451239585876465, -2.0707061290740967, -0.007043915335088968, -0.6788797378540039, -0.676513671875, 0.534423828125, -0.19873046875, 
15, 2927342459, 0.6684404611587524, -0.5539849996566772, -0.14520007371902466, -0.4745360016822815, 7.1590657234191895, -6.06312894821167, 3.431912660598755, 0.7764315605163574, 0.2471645623445511, -0.3640807867050171, -0.677001953125, 0.536376953125, -0.197998046875, 
16, 2927350792, 0.6686063408851624, -0.553787112236023, -0.1453055739402771, -0.4745011031627655, 7.147974967956543, -6.005603313446045, 3.392620086669922, 3.3847544193267822, 0.674871027469635, 0.1150207370519638, -0.676025390625, 0.535400390625, -0.201171875, 
17, 2927359125, 0.668856680393219, -0.5534908771514893, -0.14545194804668427, -0.4744488000869751, 7.131411075592041, -5.916945934295654, 3.3593761920928955, 5.142813682556152, 1.0692534446716309, 0.27956655621528625, -0.678955078125, 0.534912109375, -0.197998046875, 
18, 2927367458, 0.6691150069236755, -0.5531842708587646, -0.1455947458744049, -0.47439849376678467, 7.112684726715088, -5.8582000732421875, 3.3609540462493896, 5.364991664886475, 1.1078284978866577, 0.35909879207611084, -0.677978515625, 0.532958984375, -0.201171875, 
19, 2927375791, 0.6693077683448792, -0.5529450178146362, -0.14568349719047546, -0.4743780791759491, 7.054433345794678, -5.843679428100586, 3.3263511657714844, 3.89652681350708, 1.240202784538269, 0.23151426017284393, -0.677001953125, 0.533447265625, -0.20068359375, 
20, 2927384124, 0.6693961024284363, -0.5528392791748047, -0.1457165777683258, -0.47436654567718506, 7.04110860824585, -5.868013381958008, 3.33253812789917, 1.4267001152038574, 0.7599871754646301, 0.13023556768894196, -0.678466796875, 0.535888671875, -0.197509765625, 
21, 2927392457, 0.6693747639656067, -0.5528693199157715, -0.14567726850509644, -0.4743737578392029, 7.0347208976745605, -5.88551664352417, 3.350641965866089, -1.1787927150726318, 0.50328129529953, 0.05900238826870918, -0.676513671875, 0.536376953125, -0.200927734375, 
22, 2927400790, 0.6692628264427185, -0.5530297756195068, -0.14555810391902924, -0.47438132762908936, 7.090893268585205, -5.9108405113220215, 3.414020299911499, -3.577233076095581, 0.1717306524515152, 0.3377877175807953, -0.6787109375, 0.536865234375, -0.199462890625, 
23, 2927409123, 0.6690825819969177, -0.5532702803611755, -0.14538449048995972, -0.47440820932388306, 7.148829460144043, -5.935792922973633, 3.4419949054718018, -5.171334266662598, 0.14268410205841064, 0.31460684537887573, -0.70849609375, 0.532958984375, -0.17626953125, 
24, 2927417456, 0.6689152717590332, -0.5535013675689697, -0.1451837718486786, -0.47443610429763794, 7.160082817077637, -5.942992210388184, 3.4890832901000977, -5.221333980560303, 0.50387042760849, 0.5514360070228577, -0.707275390625, 0.532470703125, -0.176513671875, 
25, 2927425789, 0.6688004732131958, -0.5536795854568481, -0.1450146734714508, -0.4744417071342468, 7.210874557495117, -5.947775363922119, 3.5086801052093506, -4.050020217895508, 0.49439316987991333, 0.7701303362846375, -0.7080078125, 0.533203125, -0.17333984375, 
26, 2927434122, 0.6687484383583069, -0.5537818670272827, -0.14488691091537476, -0.47443485260009766, 7.225142955780029, -5.935019016265869, 3.4854087829589844, -2.6127543449401855, 0.6400100588798523, 0.8103190660476685, -0.708984375, 0.5322265625, -0.173828125, 
27, 2927442455, 0.6687620282173157, -0.5537874698638916, -0.1448213756084442, -0.4744288921356201, 7.1655964851379395, -5.895666599273682, 3.4403235912323, -0.7890465259552002, 0.8380849957466125, 0.5805081725120544, -0.70751953125, 0.531982421875, -0.175048828125, 
28, 2927450788, 0.6688362956047058, -0.5537248253822327, -0.14482849836349487, -0.4743952751159668, 7.127722263336182, -5.933147430419922, 3.3806838989257812, 0.7985877394676208, 0.5226200222969055, 0.5258218050003052, -0.70654296875, 0.534912109375, -0.1767578125, 
29, 2927459121, 0.6689141988754272, -0.553642988204956, -0.14487530291080475, -0.4743667244911194, 7.138794898986816, -5.917203426361084, 3.3540611267089844, 1.2838749885559082, 0.3317171037197113, 0.17669978737831116, -0.7080078125, 0.5341796875, -0.17529296875, 
30, 2927467454, 0.6689697504043579, -0.5535852313041687, -0.14490200579166412, -0.4743477404117584, 7.1239166259765625, -5.936244487762451, 3.3490469455718994, 0.7087074518203735, 0.3834066390991211, 0.13023555278778076, -0.70849609375, 0.53369140625, -0.1748046875, 
31, 2927475787, 0.6689757704734802, -0.5535850524902344, -0.14490213990211487, -0.47433918714523315, 7.114689826965332, -5.97484827041626, 3.31445574760437, -0.358548104763031, 0.23663713037967682, 0.0433264784514904, -0.70751953125, 0.53271484375, -0.17431640625, 
32, 2927484120, 0.6689463257789612, -0.5536381006240845, -0.14487417042255402, -0.4743274450302124, 7.153787136077881, -6.004181385040283, 3.324061632156372, -1.3273040056228638, 0.05119004845619202, 0.1452455073595047, -0.7080078125, 0.5341796875, -0.17431640625, 
33, 2927492453, 0.6688929796218872, -0.5537301898002625, -0.144821897149086, -0.47431105375289917, 7.163026332855225, -5.999989986419678, 3.3902034759521484, -1.9866143465042114, -0.06326715648174286, 0.3107134997844696, -0.70849609375, 0.534423828125, -0.17529296875, 
34, 2927500786, 0.6688278913497925, -0.5538545846939087, -0.14473827183246613, -0.4742830991744995, 7.197649955749512, -6.000621318817139, 3.423544406890869, -2.585731267929077, -0.0962839126586914, 0.628253161907196, -0.708984375, 0.532958984375, -0.17578125, 
35, 2927509119, 0.6687765717506409, -0.5539627075195312, -0.1446533203125, -0.474255234003067, 7.1676459312438965, -5.970694065093994, 3.458824396133423, -2.3088929653167725, 0.053546562790870667, 0.7095783948898315, -0.708984375, 0.5341796875, -0.173828125, 
36, 2927517452, 0.6687758564949036, -0.5540148615837097, -0.1445825695991516, -0.4742169976234436, 7.105655670166016, -5.918591499328613, 3.448349714279175, -1.3255366086959839, 0.3043099045753479, 0.9000969529151917, -0.708984375, 0.533935546875, -0.17529296875, 
37, 2927525785, 0.6688340902328491, -0.5539926886558533, -0.14454106986522675, -0.47417324781417847, 7.070442199707031, -5.922790050506592, 3.3954617977142334, 0.038075558841228485, 0.5995139479637146, 0.9814221858978271, -0.708984375, 0.53271484375, -0.17236328125, 
38, 2927534118, 0.6689243316650391, -0.553931713104248, -0.14451122283935547, -0.4741263687610626, 7.095498561859131, -5.992637634277344, 3.3790173530578613, 0.6914947628974915, 0.7812725901603699, 1.037030816078186, -0.71044921875, 0.533935546875, -0.17578125, 
39, 2927542451, 0.6689856052398682, -0.5538983941078186, -0.14447250962257385, -0.4740905165672302, 7.100383281707764, -6.0183796882629395, 3.4027788639068604, 0.16758111119270325, 0.710167407989502, 0.8846772313117981, -0.71044921875, 0.533447265625, -0.17431640625, 
40, 2927550784, 0.6690248250961304, -0.5538944602012634, -0.1444239765405655, -0.47405463457107544, 7.095691680908203, -6.025526523590088, 3.389317512512207, -0.36677026748657227, 0.5645506381988525, 0.8581922054290771, -0.70751953125, 0.53515625, -0.17333984375, 
41, 2927559117, 0.6690277457237244, -0.553922176361084, -0.14437100291252136, -0.47403427958488464, 7.102451324462891, -6.056962966918945, 3.347480535507202, -0.9632745981216431, 0.44680196046829224, 0.591394305229187, -0.70849609375, 0.5341796875, -0.1748046875, 
42, 2927567450, 0.6689955592155457, -0.5539793372154236, -0.14431080222129822, -0.4740312695503235, 7.163581371307373, -6.0942511558532715, 3.3340964317321777, -1.612262487411499, 0.38235652446746826, 0.3009032607078552, -0.70751953125, 0.53564453125, -0.1748046875, 
43, 2927575783, 0.6689438819885254, -0.5540595650672913, -0.1442689746618271, -0.4740230441093445, 7.1996636390686035, -6.112502574920654, 3.3493447303771973, -1.8153319358825684, -0.01247413083910942, 0.1418900489807129, -0.70703125, 0.53662109375, -0.17578125, 
44, 2927584116, 0.66889888048172, -0.5541313886642456, -0.14424347877502441, -0.4740104079246521, 7.201174736022949, -6.130036354064941, 3.3584742546081543, -1.599839448928833, -0.13263051211833954, 0.07088739424943924, -0.7080078125, 0.532958984375, -0.17578125, 
45, 2927592449, 0.6688733100891113, -0.5541843175888062, -0.14424249529838562, -0.47398489713668823, 7.15547513961792, -6.0863542556762695, 3.4008336067199707, -1.0640408992767334, -0.29033735394477844, 0.10623503476381302, -0.70703125, 0.53564453125, -0.1748046875, 
46, 2927600782, 0.6688952445983887, -0.5541962385177612, -0.14427891373634338, -0.4739290773868561, 7.153064727783203, -6.033179759979248, 3.397822141647339, -0.04766809567809105, -0.5068544745445251, 0.3123784065246582, -0.70849609375, 0.534423828125, -0.17626953125, 
47, 2927609115, 0.6689772009849548, -0.5541356205940247, -0.14434155821800232, -0.4738651514053345, 7.148444175720215, -5.978546619415283, 3.398780584335327, 1.294505000114441, -0.21618413925170898, 0.45107945799827576, -0.70849609375, 0.5361328125, -0.17529296875, 
48, 2927617448, 0.6690888404846191, -0.5540257096290588, -0.14441049098968506, -0.4738151729106903, 7.1151652336120605, -5.929375648498535, 3.406985282897949, 1.9538666009902954, 0.21122777462005615, 0.3547699451446533, -0.70703125, 0.533203125, -0.17431640625, 
49, 2927625781, 0.6692039370536804, -0.5539018511772156, -0.1444966197013855, -0.4737710654735565, 7.068729877471924, -5.905616283416748, 3.3824615478515625, 2.2397217750549316, 0.19501397013664246, 0.18026016652584076, -0.70751953125, 0.532958984375, -0.17626953125, 
50, 2927634114, 0.6692959666252136, -0.5538070797920227, -0.14457310736179352, -0.4737282991409302, 7.063058376312256, -5.904181957244873, 3.3474860191345215, 1.6993638277053833, 0.058797482401132584, 0.1331300139427185, -0.70654296875, 0.53466796875, -0.173828125, 
51, 2927642447, 0.6693359017372131, -0.5537672638893127, -0.14461907744407654, -0.4737045168876648, 7.09627103805542, -5.9467949867248535, 3.3428525924682617, 0.5919577479362488, 0.023526674136519432, -0.024973878636956215, -0.70654296875, 0.533935546875, -0.17626953125, 
52, 2927650780, 0.669319212436676, -0.5537851452827454, -0.14461368322372437, -0.4737088084220886, 7.095992088317871, -5.980127334594727, 3.3554916381835938, -0.7889440059661865, 0.22075627744197845, -0.16019141674041748, -0.708984375, 0.5361328125, -0.1728515625, 
53, 2927659113, 0.6692657470703125, -0.5538599491119385, -0.14456968009471893, -0.47371041774749756, 7.081561088562012, -6.035305976867676, 3.3805253505706787, -1.8103371858596802, 0.11320210248231888, 0.04655386880040169, -0.70849609375, 0.534423828125, -0.17529296875, 
54, 2927667446, 0.6691851019859314, -0.5539896488189697, -0.14449214935302734, -0.47369641065597534, 7.125064373016357, -6.052178859710693, 3.408586025238037, -2.7409791946411133, -0.1122928187251091, 0.3631201982498169, -0.70654296875, 0.534912109375, -0.1767578125, 
55, 2927675779, 0.6691001057624817, -0.554131805896759, -0.1444058120250702, -0.47367623448371887, 7.131145477294922, -6.061882019042969, 3.421332359313965, -2.9020419120788574, -0.1637774407863617, 0.49913182854652405, -0.708984375, 0.53515625, -0.17431640625, 
56, 2927684112, 0.6690495610237122, -0.5542333126068115, -0.1443321257829666, -0.4736515283584595, 7.121702194213867, -6.029483795166016, 3.4255788326263428, -2.20676851272583, 0.015432575717568398, 0.571261465549469, -0.70849609375, 0.5361328125, -0.17578125, 
57, 2927692445, 0.6690427660942078, -0.554287850856781, -0.14428497850894928, -0.4736117720603943, 7.139324188232422, -5.988474369049072, 3.431347608566284, -1.20573890209198, 0.05293181538581848, 0.7151878476142883, -0.70751953125, 0.534912109375, -0.17626953125, 
58, 2927700778, 0.6690769195556641, -0.5542978048324585, -0.14426752924919128, -0.4735572338104248, 7.152864456176758, -5.96602201461792, 3.42175555229187, -0.2928219437599182, 0.03497624024748802, 0.7883934378623962, -0.70751953125, 0.53564453125, -0.1748046875, 
59, 2927709111, 0.6691359281539917, -0.5542637705802917, -0.14426755905151367, -0.47351348400115967, 7.164309024810791, -5.958439826965332, 3.402836322784424, 0.4259263277053833, 0.2943972051143646, 0.6446974873542786, -0.70703125, 0.533935546875, -0.17822265625, 
60, 2927717444, 0.6692241430282593, -0.5541789531707764, -0.14429016411304474, -0.47348129749298096, 7.166440486907959, -5.97019100189209, 3.364511013031006, 1.2083643674850464, 0.5614256262779236, 0.44073131680488586, -0.7080078125, 0.53662109375, -0.173828125, 
61, 2927725777, 0.6693226099014282, -0.5540597438812256, -0.14434009790420532, -0.47346627712249756, 7.175372123718262, -5.9470343589782715, 3.340627908706665, 1.7778711318969727, 0.6860644817352295, 0.0877927914261818, -0.70654296875, 0.533203125, -0.1748046875, 
62, 2927734110, 0.6693814396858215, -0.5539883375167847, -0.14437907934188843, -0.47345492243766785, 7.15230655670166, -5.9662652015686035, 3.335292100906372, 0.9265565872192383, 0.425004243850708, -0.040035054087638855, -0.70458984375, 0.53564453125, -0.1767578125, 
63, 2927742443, 0.6693849563598633, -0.5539748072624207, -0.14439034461975098, -0.47346246242523193, 7.176583290100098, -5.9904704093933105, 3.3522796630859375, -0.21280305087566376, 0.3386073708534241, -0.23398606479167938, -0.70703125, 0.536865234375, -0.1767578125, 
64, 2927750776, 0.6693482995033264, -0.5540056228637695, -0.14437255263328552, -0.47348350286483765, 7.179587364196777, -6.003059387207031, 3.3498051166534424, -1.1773837804794312, 0.3366350829601288, -0.3237382769584656, -0.70556640625, 0.53662109375, -0.17431640625, 
65, 2927759109, 0.6693075895309448, -0.5540545582771301, -0.14432349801063538, -0.4734988510608673, 7.1826629638671875, -6.014604091644287, 3.361314058303833, -1.535445213317871, 0.4600188434123993, -0.01024569384753704, -0.7060546875, 0.5341796875, -0.17431640625, 
66, 2927767442, 0.6692849397659302, -0.5540843605995178, -0.1442779004573822, -0.4735097289085388, 7.1757893562316895, -6.017772674560547, 3.377436637878418, -1.2221064567565918, 0.5497711300849915, 0.07073371112346649, -0.70654296875, 0.5361328125, -0.17529296875, 
67, 2927775775, 0.6692746877670288, -0.5540990829467773, -0.14423471689224243, -0.4735201597213745, 7.134309768676758, -5.994661808013916, 3.418107509613037, -0.9397863149642944, 0.6518439054489136, 0.11970813572406769, -0.705810546875, 0.533203125, -0.175048828125, 
68, 2927784108, 0.6692971587181091, -0.5540874600410461, -0.14422154426574707, -0.47350597381591797, 7.128873825073242, -5.979497909545898, 3.4150962829589844, -0.23511303961277008, 0.42039361596107483, 0.26576048135757446, -0.70556640625, 0.53515625, -0.1728515625, 
69, 2927792441, 0.669355571269989, -0.5540258884429932, -0.14424318075180054, -0.473488986492157, 7.141369819641113, -5.983789443969727, 3.4016776084899902, 0.7614215016365051, 0.47879406809806824, 0.17669980227947235, -0.705078125, 0.53564453125, -0.1767578125, 
70, 2927800774, 0.6694316267967224, -0.5539281964302063, -0.14428699016571045, -0.4734824299812317, 7.122178554534912, -5.964576721191406, 3.3928580284118652, 1.322629451751709, 0.6211836338043213, -0.061422932893037796, -0.70654296875, 0.533935546875, -0.17626953125, 
71, 2927809107, 0.6694902777671814, -0.5538449287414551, -0.14434769749641418, -0.47347840666770935, 7.1077656745910645, -5.972201824188232, 3.37821626663208, 1.1922787427902222, 0.35807421803474426, -0.28313973546028137, -0.705078125, 0.537109375, -0.1748046875, 
72, 2927817440, 0.6695361137390137, -0.5537725687026978, -0.14441817998886108, -0.47347667813301086, 7.1179728507995605, -5.984124660491943, 3.366377592086792, 1.0207911729812622, 0.18676620721817017, -0.45455020666122437, -0.7080078125, 0.536376953125, -0.1767578125, 
73, 2927825773, 0.6695412397384644, -0.553761899471283, -0.14446106553077698, -0.47346895933151245, 7.144552707672119, -5.977051258087158, 3.3598835468292236, 0.00892656110227108, -0.08398907631635666, -0.31730917096138, -0.706787109375, 0.53271484375, -0.175537109375, 
74, 2927834106, 0.6695011854171753, -0.5538011789321899, -0.14447304606437683, -0.4734758734703064, 7.138530254364014, -5.969877243041992, 3.3756697177886963, -1.059097409248352, -0.10481343418359756, -0.42575979232788086, -0.708984375, 0.53564453125, -0.17236328125, 
75, 2927842439, 0.6694365739822388, -0.553865373134613, -0.14444184303283691, -0.47350162267684937, 7.096322059631348, -5.984949588775635, 3.3447580337524414, -1.763104796409607, 0.2258279025554657, -0.3678460717201233, -0.70751953125, 0.5361328125, -0.1748046875, 
76, 2927850772, 0.6693427562713623, -0.5539661645889282, -0.14437848329544067, -0.4735356569290161, 7.072112083435059, -5.9809184074401855, 3.3405840396881104, -2.5769968032836914, 0.28794240951538086, -0.3301418423652649, -0.7080078125, 0.534423828125, -0.17724609375, 
77, 2927859105, 0.6692238450050354, -0.554101288318634, -0.14429044723510742, -0.47357258200645447, 7.0839715003967285, -5.994131565093994, 3.3899543285369873, -3.2223222255706787, 0.2652738392353058, -0.2491496354341507, -0.70751953125, 0.534912109375, -0.1767578125, 
78, 2927867438, 0.6691353917121887, -0.554210364818573, -0.144213005900383, -0.4735932946205139, 7.1196746826171875, -6.030817985534668, 3.434399127960205, -2.678967237472534, 0.2723177373409271, -0.04902564734220505, -0.70751953125, 0.5361328125, -0.17431640625, 
79, 2927875771, 0.6690972447395325, -0.5542553067207336, -0.144162118434906, -0.4736102819442749, 7.164301872253418, -6.05096960067749, 3.4662680625915527, -1.4945392608642578, 0.5193414092063904, -0.0031249364838004112, -0.70654296875, 0.5341796875, -0.17431640625, 
80, 2927884104, 0.6691057085990906, -0.5542284250259399, -0.14414829015731812, -0.4736338257789612, 7.149338245391846, -6.040168285369873, 3.451718807220459, -0.2808856964111328, 0.7865490913391113, -0.19825415313243866, -0.7080078125, 0.53515625, -0.1748046875, 
81, 2927892437, 0.6691584587097168, -0.5541386604309082, -0.14419153332710266, -0.4736512303352356, 7.136491775512695, -6.0563554763793945, 3.3845033645629883, 1.0510673522949219, 0.7130105495452881, -0.3973536193370819, -0.70703125, 0.53662109375, -0.17431640625, 
82, 2927900770, 0.6692365407943726, -0.5540215373039246, -0.14427882432937622, -0.47365134954452515, 7.149052143096924, -6.012639045715332, 3.431833505630493, 1.7857604026794434, 0.40248924493789673, -0.4789349436759949, -0.70654296875, 0.53515625, -0.173828125, 
83, 2927909103, 0.6693003177642822, -0.553925633430481, -0.14437097311019897, -0.47364541888237, 7.13854455947876, -5.989060878753662, 3.41487455368042, 1.5533623695373535, 0.14888273179531097, -0.49691611528396606, -0.708984375, 0.533935546875, -0.17626953125, 
84, 2927917436, 0.6693394780158997, -0.5538545250892639, -0.1444452702999115, -0.47365057468414307, 7.1332011222839355, -5.963760852813721, 3.364060163497925, 0.9707410931587219, 0.18294966220855713, -0.5887944102287292, -0.70654296875, 0.53271484375, -0.174560546875, 
85, 2927925769, 0.6693511605262756, -0.5538150072097778, -0.1444970965385437, -0.4736643433570862, 7.123830795288086, -5.990742206573486, 3.3330888748168945, 0.3377877175807953, 0.19952207803726196, -0.5969653129577637, -0.708984375, 0.53564453125, -0.17529296875, 
86, 2927934102, 0.6693294644355774, -0.5538065433502197, -0.14453259110450745, -0.4736941456794739, 7.064391613006592, -5.985650062561035, 3.3215150833129883, -0.3712526857852936, 0.19921469688415527, -0.7919921278953552, -0.70751953125, 0.534912109375, -0.17578125, 
87, 2927942435, 0.6692731380462646, -0.5538554191589355, -0.14453552663326263, -0.47371578216552734, 7.080770969390869, -5.981479167938232, 3.3437395095825195, -1.327508807182312, -0.001460011349990964, -0.5651524066925049, -0.70947265625, 0.5361328125, -0.17333984375, 
88, 2927950768, 0.6692026257514954, -0.553948163986206, -0.14449311792850494, -0.47371983528137207, 7.095094680786133, -5.990124702453613, 3.3788676261901855, -2.1307456493377686, -0.03524518385529518, -0.07907114177942276, -0.70556640625, 0.53369140625, -0.1748046875, 
89, 2927959101, 0.6691535115242004, -0.5540252923965454, -0.14444056153297424, -0.4737149477005005, 7.101772308349609, -6.009169578552246, 3.3725242614746094, -1.840433955192566, 0.13576824963092804, 0.2039533257484436, -0.70703125, 0.5341796875, -0.1748046875, 
90, 2927967434, 0.6691368818283081, -0.5540599226951599, -0.14440405368804932, -0.4737091362476349, 7.120497703552246, -5.975978374481201, 3.4368481636047363, -1.126334547996521, 0.3204980790615082, 0.2035434991121292, -0.70751953125, 0.533447265625, -0.1767578125, 
91, 2927975767, 0.6691340804100037, -0.5540761947631836, -0.14437857270240784, -0.4737018942832947, 7.1458330154418945, -5.934778690338135, 3.425525665283203, -0.7468599081039429, 0.3576643764972687, 0.19975261390209198, -0.70703125, 0.5341796875, -0.17333984375, 
92, 2927984100, 0.6691598296165466, -0.5540509819984436, -0.1443783938884735, -0.4736950993537903, 7.1551103591918945, -5.956365585327148, 3.400311231613159, -0.016290653496980667, 0.4519503712654114, 0.09306932240724564, -0.70703125, 0.5341796875, -0.17431640625, 
93, 2927992433, 0.6691851615905762, -0.5540228486061096, -0.14438773691654205, -0.4736894369125366, 7.170588970184326, -6.000255107879639, 3.408501386642456, 0.09947286546230316, 0.39488184452056885, 0.015688717365264893, -0.7080078125, 0.53662109375, -0.17236328125, 
94, 2928000766, 0.6692113876342773, -0.5539773106575012, -0.1443873941898346, -0.473705530166626, 7.170302867889404, -6.009589672088623, 3.4184937477111816, 0.12926222383975983, 0.7628303170204163, -0.15327556431293488, -0.7099609375, 0.532958984375, -0.17529296875, 
95, 2928009099, 0.6692120432853699, -0.5539563894271851, -0.144412100315094, -0.4737216830253601, 7.149439334869385, -5.994348049163818, 3.3810412883758545, -0.09876849502325058, 0.32142025232315063, -0.4483259320259094, -0.70703125, 0.53466796875, -0.173828125, 
96, 2928017432, 0.6691926121711731, -0.5539532899856567, -0.1444448083639145, -0.47374266386032104, 7.155332088470459, -5.964440822601318, 3.3814921379089355, -0.40493541955947876, 0.12874995172023773, -0.6643564105033875, -0.70751953125, 0.53515625, -0.17431640625, 
97, 2928025765, 0.6691402792930603, -0.5539832711219788, -0.14446604251861572, -0.4737749695777893, 7.135761737823486, -5.971236228942871, 3.3809986114501953, -1.0240315198898315, 0.04056014120578766, -0.8138154745101929, -0.70654296875, 0.533935546875, -0.17578125, 
98, 2928034098, 0.6690965294837952, -0.5540062785148621, -0.1444993019104004, -0.47379976511001587, 7.1229729652404785, -5.9606781005859375, 3.3615076541900635, -0.8330773115158081, -0.06482962518930435, -0.8103318810462952, -0.70751953125, 0.53369140625, -0.17431640625, 
99, 2928042431, 0.6690809726715088, -0.5539957284927368, -0.14454108476638794, -0.47382134199142456, 7.157721042633057, -5.967867374420166, 3.3243911266326904, -0.21500588953495026, 0.10638872534036636, -0.7129977941513062, -0.708984375, 0.5341796875, -0.17431640625, 
100, 2928050764, 0.6691019535064697, -0.5539596676826477, -0.1445939987897873, -0.47381770610809326, 7.154109001159668, -6.009067535400391, 3.373481035232544, 0.3854045867919922, 0.049064066261053085, -0.3939981460571289, -0.70751953125, 0.534423828125, -0.17626953125, 
101, 2928059097, 0.6691416501998901, -0.5539053678512573, -0.14464877545833588, -0.4738084673881531, 7.1266279220581055, -6.005670070648193, 3.377157688140869, 0.7543008327484131, 0.14837045967578888, -0.2562960386276245, -0.7080078125, 0.53564453125, -0.17578125, 
102, 2928067430, 0.6691995859146118, -0.5538508296012878, -0.14471030235290527, -0.47377169132232666, 7.107694149017334, -5.9822163581848145, 3.384840250015259, 0.9622371792793274, -0.08760067820549011, 0.049934953451156616, -0.70751953125, 0.5341796875, -0.17333984375, 
103, 2928075763, 0.6692507863044739, -0.5538054704666138, -0.14474821090698242, -0.4737407863140106, 7.122135639190674, -5.952058792114258, 3.4211113452911377, 0.6937744617462158, 0.09988272190093994, 0.1661979705095291, -0.70947265625, 0.5341796875, -0.17333984375, 
104, 2928084096, 0.6692835092544556, -0.5537687540054321, -0.1447400450706482, -0.4737399220466614, 7.143064975738525, -5.896653652191162, 3.4146528244018555, 0.078802190721035, 0.6612699031829834, 0.12121935933828354, -0.70703125, 0.533203125, -0.17529296875, 
105, 2928092429, 0.6692994832992554, -0.5537386536598206, -0.14471814036369324, -0.4737592339515686, 7.149180889129639, -5.904464244842529, 3.361128091812134, -0.20504194498062134, 0.8663374185562134, -0.04167436063289642, -0.7060546875, 0.53466796875, -0.1728515625, 
106, 2928100762, 0.6693013906478882, -0.5537365674972534, -0.14470085501670837, -0.47376418113708496, 7.096886157989502, -5.958683013916016, 3.3443689346313477, -0.5442768931388855, 0.5014883279800415, 0.005904081743210554, -0.708984375, 0.5341796875, -0.17138671875, 
107, 2928109095, 0.6693074107170105, -0.5537434220314026, -0.1447075605392456, -0.4737456142902374, 7.096127986907959, -6.031391620635986, 3.328325033187866, -0.3625951111316681, 0.053981997072696686, 0.09919112175703049, -0.7080078125, 0.534423828125, -0.17626953125, 
108, 2928117428, 0.6693191528320312, -0.5537528991699219, -0.14471600949764252, -0.4737153649330139, 7.104017734527588, -6.037235260009766, 3.3537392616271973, -0.3368784487247467, -0.05909204110503197, 0.22065381705760956, -0.7109375, 0.534423828125, -0.17578125, 
109, 2928125761, 0.6693114638328552, -0.5537862181663513, -0.14470918476581573, -0.47368955612182617, 7.117579460144043, -6.006778717041016, 3.4105398654937744, -0.7840260863304138, -0.07643287628889084, 0.2310531884431839, -0.70751953125, 0.53271484375, -0.1748046875, 
110, 2928134094, 0.6692970991134644, -0.5538202524185181, -0.14469212293624878, -0.4736752510070801, 7.075692176818848, -5.984926700592041, 3.419323682785034, -0.9582028985023499, 0.08615347743034363, 0.14701290428638458, -0.70849609375, 0.534423828125, -0.1767578125, 
111, 2928142427, 0.6692773699760437, -0.5538683533668518, -0.14467988908290863, -0.47365057468414307, 7.06036376953125, -5.9874372482299805, 3.404223918914795, -1.0492357015609741, -0.1388547420501709, 0.21296954154968262, -0.7080078125, 0.535400390625, -0.177734375, 
112, 2928150760, 0.6692609786987305, -0.5539201498031616, -0.14468228816986084, -0.47361254692077637, 7.087615966796875, -6.002115726470947, 3.4097535610198975, -0.966758131980896, -0.3945360779762268, 0.2380715310573578, -0.70947265625, 0.53662109375, -0.173095703125, 
113, 2928159093, 0.6692101955413818, -0.5539994835853577, -0.14467531442642212, -0.47359344363212585, 7.121720790863037, -6.0111918449401855, 3.4553167819976807, -1.5479192733764648, -0.40849578380584717, -0.01823733188211918, -0.70751953125, 0.53271484375, -0.1728515625, 
114, 2928167426, 0.6691492795944214, -0.5540704131126404, -0.14465931057929993, -0.4736015200614929, 7.11931848526001, -5.990370750427246, 3.445244550704956, -1.6923326253890991, -0.08603822439908981, -0.2967153489589691, -0.70751953125, 0.532470703125, -0.17724609375, 
115, 2928175759, 0.6690912842750549, -0.5541253089904785, -0.14463293552398682, -0.47362709045410156, 7.139331340789795, -6.00709342956543, 3.4755091667175293, -1.5933077335357666, 0.2543109059333801, -0.3779892325401306, -0.70751953125, 0.53515625, -0.17529296875, 
116, 2928184092, 0.6690784096717834, -0.5541255474090576, -0.14461007714271545, -0.4736520051956177, 7.133394718170166, -6.031979084014893, 3.427055835723877, -0.7550563812255859, 0.6601172089576721, -0.22681404650211334, -0.70703125, 0.533203125, -0.1728515625, 
117, 2928192425, 0.669122576713562, -0.5540505647659302, -0.14462436735630035, -0.47367316484451294, 7.145345211029053, -6.07265567779541, 3.4025497436523438, 0.65358567237854, 0.895460844039917, -0.23977483808994293, -0.70654296875, 0.53466796875, -0.17529296875, 
118, 2928200758, 0.6692473888397217, -0.5538840889930725, -0.14468780159950256, -0.473672091960907, 7.150773525238037, -6.095002174377441, 3.3828673362731934, 2.4423816204071045, 1.0283218622207642, -0.07996764779090881, -0.7080078125, 0.535400390625, -0.17578125, 
119, 2928209091, 0.669416606426239, -0.5536794066429138, -0.1447683572769165, -0.4736477732658386, 7.161418437957764, -6.066869735717773, 3.371084213256836, 3.3197968006134033, 1.0329580307006836, 0.23125812411308289, -0.7080078125, 0.53466796875, -0.1708984375, 
120, 2928217424, 0.6696145534515381, -0.5534376502037048, -0.14487698674201965, -0.47361722588539124, 7.13295841217041, -6.030975341796875, 3.3479695320129395, 4.045806884765625, 1.0241211652755737, 0.1723453849554062, -0.71044921875, 0.534423828125, -0.17626953125, 
121, 2928225757, 0.6698150038719177, -0.5531941056251526, -0.1449824422597885, -0.47358566522598267, 7.121145248413086, -5.986072540283203, 3.337826728820801, 4.093270301818848, 1.0639513731002808, 0.2343062311410904, -0.70751953125, 0.537841796875, -0.19921875, 
122, 2928234090, 0.669966459274292, -0.5530076026916504, -0.14508268237113953, -0.4735589027404785, 7.095390796661377, -5.9753851890563965, 3.358227491378784, 3.1212611198425293, 0.6769970059394836, 0.0091570895165205, -0.707275390625, 0.535888671875, -0.19921875, 
123, 2928242423, 0.6700559258460999, -0.5529010891914368, -0.1451730728149414, -0.47352898120880127, 7.0718913078308105, -5.948678016662598, 3.3744900226593018, 1.886577844619751, 0.10170131921768188, -0.11598125845193863, -0.70751953125, 0.538818359375, -0.200927734375, 
124, 2928250756, 0.6700807809829712, -0.5528634190559387, -0.1452409327030182, -0.47351717948913574, 7.119389057159424, -5.945714950561523, 3.372286558151245, 0.5442640781402588, -0.13337333500385284, -0.40964847803115845, -0.706787109375, 0.536376953125, -0.20166015625, 
125, 2928259089, 0.6700567007064819, -0.5528790354728699, -0.14528760313987732, -0.4735182225704193, 7.15531063079834, -5.945757865905762, 3.385962724685669, -0.4477880597114563, -0.2819102704524994, -0.5643327832221985, -0.708251953125, 0.53662109375, -0.2021484375, 
126, 2928267422, 0.6700027585029602, -0.552929699420929, -0.14530882239341736, -0.47352898120880127, 7.179823398590088, -5.933297634124756, 3.3934946060180664, -1.2164455652236938, -0.2630325257778168, -0.6003720164299011, -0.706298828125, 0.537841796875, -0.20068359375, 
127, 2928275755, 0.6699120998382568, -0.553013265132904, -0.1453053206205368, -0.47356098890304565, 7.179751396179199, -5.9288458824157715, 3.453059434890747, -1.970170021057129, -0.1595766693353653, -0.765199601650238, -0.70849609375, 0.536376953125, -0.20068359375, 
128, 2928284088, 0.6698058843612671, -0.5531118512153625, -0.14530223608016968, -0.47359699010849, 7.163300037384033, -5.896442413330078, 3.400634765625, -2.263145923614502, -0.26462069153785706, -0.892425537109375, -0.708984375, 0.536865234375, -0.201171875, 
129, 2928292421, 0.6697278618812561, -0.5531860589981079, -0.14531873166561127, -0.4736155569553375, 7.159914016723633, -5.927786350250244, 3.365326166152954, -1.6310889720916748, -0.3612631857395172, -0.7310303449630737, -0.707275390625, 0.536376953125, -0.2001953125, 
130, 2928300754, 0.6696819067001343, -0.5532285571098328, -0.1453528106212616, -0.4736204147338867, 7.172477722167969, -5.9169816970825195, 3.3652124404907227, -0.9852002859115601, -0.3564220368862152, -0.6071085929870605, -0.708984375, 0.537353515625, -0.19873046875, 
131, 2928309087, 0.669654130935669, -0.5532594323158264, -0.14539694786071777, -0.4736100435256958, 7.163808345794678, -5.928678035736084, 3.3621299266815186, -0.6139732599258423, -0.4512459635734558, -0.4338282644748688, -0.7109375, 0.534423828125, -0.19873046875, 
132, 2928317420, 0.6696197390556335, -0.5532890558242798, -0.14542537927627563, -0.47361519932746887, 7.1452250480651855, -5.98020601272583, 3.377450942993164, -0.8153268098831177, -0.19817735254764557, -0.5174844264984131, -0.70947265625, 0.536376953125, -0.19970703125, 
133, 2928325753, 0.6695953011512756, -0.5533115863800049, -0.1454491913318634, -0.4736160635948181, 7.158593654632568, -6.021878242492676, 3.3816351890563965, -0.6645357012748718, -0.1178254708647728, -0.37742576003074646, -0.707275390625, 0.53515625, -0.20263671875, 
134, 2928334086, 0.6695727705955505, -0.5533310174942017, -0.14547006785869598, -0.47361889481544495, 7.139188289642334, -6.0184736251831055, 3.394345760345459, -0.6747814416885376, -0.05491692200303078, -0.38234370946884155, -0.705810546875, 0.535400390625, -0.20166015625, 
135, 2928342419, 0.6695560216903687, -0.5533460974693298, -0.14550566673278809, -0.47361403703689575, 7.16233491897583, -6.00925350189209, 3.413529872894287, -0.45045194029808044, -0.2060408890247345, -0.37950050830841064, -0.71044921875, 0.535888671875, -0.19970703125, 
136, 2928350752, 0.669552743434906, -0.5533404350280762, -0.1455564945936203, -0.4736097455024719, 7.177806377410889, -5.916259288787842, 3.4312474727630615, -0.08867647498846054, -0.18245019018650055, -0.46940645575523376, -0.7080078125, 0.536376953125, -0.197265625, 
137, 2928359085, 0.6695687174797058, -0.55330890417099, -0.1456134021282196, -0.47360652685165405, 7.186397075653076, -5.934906959533691, 3.4216911792755127, 0.36496442556381226, -0.02184894122183323, -0.4360567331314087, -0.706298828125, 0.53955078125, -0.205810546875, 
138, 2928367418, 0.6695901155471802, -0.5532469153404236, -0.145685613155365, -0.4736264944076538, 7.179924011230469, -5.931094169616699, 3.447019338607788, 0.708297610282898, 0.22157593071460724, -0.8079241514205933, -0.707763671875, 0.534912109375, -0.2001953125, 
139, 2928375751, 0.6696367859840393, -0.5531660914421082, -0.14576444029808044, -0.47363072633743286, 7.132135391235352, -5.942682266235352, 3.4391584396362305, 1.1771917343139648, 0.2162993997335434, -0.570480227470398, -0.70849609375, 0.535888671875, -0.19873046875, 
140, 2928384084, 0.6697096228599548, -0.5530593991279602, -0.14585888385772705, -0.4736233353614807, 7.101332664489746, -5.9272966384887695, 3.393016815185547, 1.7120426893234253, 0.2018529623746872, -0.4793703258037567, -0.707275390625, 0.536376953125, -0.20166015625, 
141, 2928392417, 0.6697909235954285, -0.5529592633247375, -0.14595100283622742, -0.4735967516899109, 7.108940601348877, -5.937079906463623, 3.387084722518921, 1.768137812614441, 0.05521148070693016, -0.20212192833423615, -0.70849609375, 0.536865234375, -0.19873046875, 
142, 2928400750, 0.6698846220970154, -0.5528615713119507, -0.14604637026786804, -0.47354891896247864, 7.113160610198975, -5.940476417541504, 3.3906593322753906, 1.8733609914779663, -0.13109365105628967, 0.04137979447841644, -0.708251953125, 0.53515625, -0.201171875, 
143, 2928409083, 0.6699852347373962, -0.5527675151824951, -0.14611689746379852, -0.47349464893341064, 7.1487908363342285, -5.944863319396973, 3.369596481323242, 1.7739522457122803, 0.04340331628918648, 0.355692058801651, -0.707763671875, 0.535400390625, -0.19921875, 
144, 2928417416, 0.6700473427772522, -0.5527136325836182, -0.14614930748939514, -0.4734596312046051, 7.155024528503418, -5.9426751136779785, 3.368044853210449, 0.7943613529205322, 0.1993427872657776, 0.28320375084877014, -0.70947265625, 0.53564453125, -0.2021484375, 
145, 2928425749, 0.6700609922409058, -0.552706778049469, -0.14614702761173248, -0.47344905138015747, 7.158436298370361, -5.9049577713012695, 3.360856294631958, -0.25181353092193604, 0.30182531476020813, 0.11596845090389252, -0.70849609375, 0.536376953125, -0.20068359375, 
146, 2928434082, 0.6700169444084167, -0.5527744293212891, -0.14613033831119537, -0.47343748807907104, 7.145232200622559, -5.892891883850098, 3.36948299407959, -1.498227834701538, -0.1746634691953659, -0.007095142733305693, -0.707763671875, 0.536376953125, -0.19970703125, 
147, 2928442415, 0.6699512600898743, -0.5528641939163208, -0.14611934125423431, -0.4734288454055786, 7.148862361907959, -5.885495185852051, 3.3828186988830566, -1.8068794012069702, -0.3917697072029114, -0.15765561163425446, -0.70947265625, 0.5361328125, -0.201171875, 
148, 2928450748, 0.669867753982544, -0.5529553890228271, -0.14609530568122864, -0.4734482169151306, 7.148324966430664, -5.925103187561035, 3.411249876022339, -2.125136137008667, -0.1054794117808342, -0.4458412826061249, -0.706787109375, 0.53564453125, -0.20166015625, 
149, 2928459081, 0.669777512550354, -0.5530408024787903, -0.14605972170829773, -0.47348690032958984, 7.152793884277344, -5.992995262145996, 3.394590377807617, -2.2098166942596436, 0.17657172679901123, -0.5755006670951843, -0.708251953125, 0.535888671875, -0.201171875, 
150, 2928467414, 0.6697351932525635, -0.5530869960784912, -0.14605432748794556, -0.4734947383403778, 7.143272399902344, -6.040590286254883, 3.4126856327056885, -1.2522029876708984, 0.010104815475642681, -0.3033750057220459, -0.709716796875, 0.534423828125, -0.2001953125, 
151, 2928475747, 0.6697381138801575, -0.5530906915664673, -0.14607226848602295, -0.4734804034233093, 7.140769004821777, -6.047506809234619, 3.4223849773406982, -0.2920791208744049, -0.0035859928466379642, -0.05202250927686691, -0.7080078125, 0.53759765625, -0.20263671875, 
152, 2928484080, 0.6697543263435364, -0.553083062171936, -0.1460968255996704, -0.4734589159488678, 7.170867919921875, -6.0137104988098145, 3.448042631149292, -0.057529568672180176, -0.018800847232341766, 0.012410095892846584, -0.70947265625, 0.537353515625, -0.198486328125, 
153, 2928492413, 0.6697877049446106, -0.5530474185943604, -0.14611101150512695, -0.4734489917755127, 7.129632472991943, -5.993739604949951, 3.4126784801483154, 0.2693721354007721, 0.3837396502494812, 0.05510902404785156, -0.708251953125, 0.533447265625, -0.19970703125, 
154, 2928500746, 0.6698482632637024, -0.552962064743042, -0.14614488184452057, -0.4734525680541992, 7.127471446990967, -5.965734481811523, 3.373337507247925, 1.0049617290496826, 0.6796864867210388, -0.1566566526889801, -0.70849609375, 0.53662109375, -0.20166015625, 
155, 2928509079, 0.6699118614196777, -0.552871823310852, -0.14617709815502167, -0.47345811128616333, 7.135704517364502, -5.944949626922607, 3.370119094848633, 1.0881823301315308, 0.7506635785102844, -0.1370873749256134, -0.708740234375, 0.5361328125, -0.2041015625, 
156, 2928517412, 0.6699413061141968, -0.5528199076652527, -0.14619964361190796, -0.4734700918197632, 7.106221675872803, -5.966780185699463, 3.3720364570617676, 0.3700360655784607, 0.5676754713058472, -0.2837800979614258, -0.70947265625, 0.537353515625, -0.200439453125, 
157, 2928525745, 0.6699427962303162, -0.5528057813644409, -0.14621825516223907, -0.47347861528396606, 7.115169048309326, -5.988495826721191, 3.3592183589935303, -0.17976072430610657, 0.2795921862125397, -0.3124680817127228, -0.706787109375, 0.535400390625, -0.19921875, 
158, 2928534078, 0.669933557510376, -0.5528052449226379, -0.1462101936340332, -0.4734949469566345, 7.159652233123779, -5.985355854034424, 3.362866163253784, -0.6068268418312073, 0.4703926146030426, -0.23941627144813538, -0.707763671875, 0.5361328125, -0.205078125, 
159, 2928542411, 0.6699146628379822, -0.552807629108429, -0.14619757235050201, -0.4735229015350342, 7.151892185211182, -5.989883899688721, 3.3869855403900146, -0.7292885184288025, 0.5661643147468567, -0.3546803295612335, -0.708740234375, 0.53564453125, -0.20263671875, 
160, 2928550744, 0.6699073314666748, -0.5527995228767395, -0.1461866796016693, -0.4735458493232727, 7.137400150299072, -5.9962639808654785, 3.3960840702056885, -0.5529600381851196, 0.5990272164344788, -0.28124430775642395, -0.708251953125, 0.535888671875, -0.19970703125, 
161, 2928559077, 0.6699124574661255, -0.5527799129486084, -0.14618679881095886, -0.47356146574020386, 7.141841888427734, -5.9781317710876465, 3.4131078720092773, -0.23621445894241333, 0.5477219223976135, -0.22545649111270905, -0.708740234375, 0.5341796875, -0.20166015625, 
162, 2928567410, 0.6699351668357849, -0.5527446866035461, -0.1462087631225586, -0.4735638201236725, 7.157885551452637, -5.977330207824707, 3.414602756500244, 0.18005527555942535, 0.37815579771995544, -0.20107175409793854, -0.709228515625, 0.53564453125, -0.2021484375, 
163, 2928575743, 0.6699396967887878, -0.5527268052101135, -0.14623413980007172, -0.4735703468322754, 7.159716606140137, -5.946752071380615, 3.423872709274292, -0.07528023421764374, 0.2299005687236786, -0.33347171545028687, -0.707763671875, 0.535888671875, -0.201171875, 
164, 2928584076, 0.6699354648590088, -0.5527116656303406, -0.1462658941745758, -0.47358399629592896, 7.163215637207031, -5.933004856109619, 3.4101319313049316, -0.1677476018667221, 0.18771392107009888, -0.5131043791770935, -0.708740234375, 0.535400390625, -0.2001953125, 
165, 2928592409, 0.6699213981628418, -0.5527049899101257, -0.1463053673505783, -0.47359973192214966, 7.141727447509766, -5.960785865783691, 3.3916707038879395, -0.24482084810733795, 0.060513630509376526, -0.6239627599716187, -0.71044921875, 0.53564453125, -0.201171875, 
166, 2928600742, 0.6699114441871643, -0.5526880621910095, -0.14633728563785553, -0.47362369298934937, 7.142242431640625, -5.973317623138428, 3.375769853591919, -0.21646589040756226, 0.2657604515552521, -0.6510113477706909, -0.7099609375, 0.535400390625, -0.2001953125, 
167, 2928609075, 0.6699008345603943, -0.5526516437530518, -0.14638710021972656, -0.473665714263916, 7.118508338928223, -5.991835594177246, 3.379110336303711, 0.06935054063796997, 0.36683428287506104, -0.9823570847511292, -0.70947265625, 0.537109375, -0.2021484375, 
168, 2928617408, 0.6698845028877258, -0.5526067614555359, -0.14644041657447815, -0.4737246036529541, 7.096814155578613, -6.042757987976074, 3.3743538856506348, 0.061871182173490524, 0.5024872422218323, -1.2325825691223145, -0.708251953125, 0.534912109375, -0.20068359375, 
169, 2928625741, 0.6698835492134094, -0.5525445342063904, -0.14649301767349243, -0.47378242015838623, 7.120991230010986, -6.076898097991943, 3.3753979206085205, 0.3687041401863098, 0.6490519046783447, -1.1382453441619873, -0.706787109375, 0.53662109375, -0.203125, 
170, 2928634074, 0.6699115037918091, -0.5524646639823914, -0.14655578136444092, -0.47381675243377686, 7.156505107879639, -6.030182838439941, 3.4239370822906494, 0.8329364657402039, 0.5458776950836182, -0.8613297939300537, -0.708251953125, 0.5361328125, -0.20263671875, 
171, 2928642407, 0.6699486970901489, -0.5523920655250549, -0.14662297070026398, -0.47382795810699463, 7.162463665008545, -5.997157573699951, 3.4870388507843018, 0.9412078857421875, 0.30497586727142334, -0.591842532157898, -0.707763671875, 0.534423828125, -0.2001953125, 
172, 2928650740, 0.6700089573860168, -0.5523056387901306, -0.14669004082679749, -0.47382280230522156, 7.119703769683838, -5.9333906173706055, 3.4710099697113037, 1.2460172176361084, 0.31504225730895996, -0.33295944333076477, -0.709716796875, 0.53466796875, -0.203125, 
173, 2928659073, 0.6701135039329529, -0.5521660447120667, -0.14677751064300537, -0.47381046414375305, 7.115415573120117, -5.901140213012695, 3.443402051925659, 2.2500951290130615, 0.5107606053352356, -0.22543087601661682, -0.706787109375, 0.53662109375, -0.20556640625, 
174, 2928667406, 0.6702607870101929, -0.5519883632659912, -0.14690890908241272, -0.4737684726715088, 7.123040199279785, -5.903905391693115, 3.3995399475097656, 3.2406492233276367, 0.21263659000396729, -0.09853797405958176, -0.7099609375, 0.53662109375, -0.2021484375, 
175, 2928675739, 0.6703943610191345, -0.5518203377723694, -0.14703160524368286, -0.47373729944229126, 7.164907455444336, -5.871103286743164, 3.400655508041382, 3.0005669593811035, 0.2863287329673767, -0.18736815452575684, -0.709228515625, 0.532958984375, -0.19970703125, 
176, 2928684072, 0.6704792380332947, -0.5517053604125977, -0.1471218764781952, -0.473722904920578, 7.1895599365234375, -5.859413146972656, 3.3942062854766846, 1.8655743598937988, 0.2666569650173187, -0.32025477290153503, -0.708740234375, 0.53564453125, -0.2021484375, 
177, 2928692405, 0.6704888939857483, -0.5516741871833801, -0.14716218411922455, -0.47373300790786743, 7.15822172164917, -5.869729995727539, 3.4034085273742676, 0.17777562141418457, 0.21901452541351318, -0.47368407249450684, -0.710205078125, 0.53369140625, -0.203125, 
178, 2928700738, 0.6704211831092834, -0.5517275929450989, -0.14716672897338867, -0.4737652540206909, 7.132049560546875, -5.902919292449951, 3.4077789783477783, -1.4982788562774658, 0.00441845552995801, -0.7535963654518127, -0.7109375, 0.5341796875, -0.20068359375, 
179, 2928709071, 0.670318067073822, -0.5518373847007751, -0.14715290069580078, -0.4737875759601593, 7.122527122497559, -5.887935638427734, 3.4206604957580566, -2.354306936264038, -0.3368784189224243, -0.6242957711219788, -0.707763671875, 0.53564453125, -0.20263671875, 
180, 2928717404, 0.6702096462249756, -0.5519641637802124, -0.14712932705879211, -0.47380077838897705, 7.111499786376953, -5.915075302124023, 3.4171924591064453, -2.6283280849456787, -0.44064170122146606, -0.4815220534801483, -0.708740234375, 0.53271484375, -0.20166015625, 
181, 2928725737, 0.6701239943504333, -0.552064836025238, -0.14710186421871185, -0.4738130569458008, 7.1033034324646, -5.918699741363525, 3.4197540283203125, -2.2052061557769775, -0.1924397349357605, -0.3337278366088867, -0.708251953125, 0.533935546875, -0.19970703125, 
182, 2928734070, 0.6700815558433533, -0.5521197319030762, -0.14706286787986755, -0.473821222782135, 7.134617328643799, -5.966823101043701, 3.4053826332092285, -1.554809808731079, 0.2663240432739258, -0.03365710750222206, -0.707763671875, 0.53369140625, -0.205078125, 
183, 2928742403, 0.6700943112373352, -0.5521213412284851, -0.14702685177326202, -0.4738123118877411, 7.151505470275879, -5.976064205169678, 3.416513204574585, -0.560285747051239, 0.5679828524589539, 0.368063747882843, -0.71044921875, 0.53515625, -0.2001953125, 
184, 2928750736, 0.670147180557251, -0.552090048789978, -0.14700272679328918, -0.47378140687942505, 7.157513618469238, -5.959770202636719, 3.4302315711975098, 0.13850897550582886, 0.5858873128890991, 0.6610906720161438, -0.707763671875, 0.533203125, -0.20166015625, 
185, 2928759069, 0.6702289581298828, -0.5520387887954712, -0.14699482917785645, -0.47372788190841675, 7.1847662925720215, -5.914506912231445, 3.4227139949798584, 0.7248700261116028, 0.455766886472702, 0.9076019525527954, -0.709228515625, 0.53466796875, -0.2021484375, 
186, 2928767402, 0.6703211069107056, -0.5519665479660034, -0.14699843525886536, -0.4736807346343994, 7.196254253387451, -5.905644416809082, 3.4091811180114746, 1.02939772605896, 0.5534339547157288, 0.7719746232032776, -0.708740234375, 0.53466796875, -0.201171875, 
187, 2928775735, 0.6703704595565796, -0.5519295334815979, -0.1470058262348175, -0.47365158796310425, 7.159673690795898, -5.904836177825928, 3.4164624214172363, 0.3989032804965973, 0.3423726558685303, 0.3855070471763611, -0.708740234375, 0.53466796875, -0.20166015625, 
188, 2928784068, 0.6703699827194214, -0.5519408583641052, -0.14700378477573395, -0.47363972663879395, 7.183292388916016, -5.906074047088623, 3.418064594268799, -0.55336993932724, 0.1406349539756775, 0.05498095229268074, -0.709716796875, 0.53466796875, -0.20263671875, 
189, 2928792401, 0.6703168749809265, -0.5520035028457642, -0.14700137078762054, -0.4736427664756775, 7.180724620819092, -5.922933101654053, 3.427206039428711, -1.4285829067230225, -0.178531214594841, -0.30240166187286377, -0.709228515625, 0.533203125, -0.2041015625, 
190, 2928800734, 0.6702272891998291, -0.5521072149276733, -0.14697405695915222, -0.47365713119506836, 7.186001777648926, -5.949644088745117, 3.433001756668091, -2.2990822792053223, -0.20975495874881744, -0.3886447846889496, -0.708740234375, 0.5361328125, -0.20166015625, 
191, 2928809067, 0.6701367497444153, -0.5522137880325317, -0.14695066213607788, -0.47366824746131897, 7.170797824859619, -5.959171295166016, 3.4194867610931396, -2.268883466720581, -0.28639277815818787, -0.37284085154533386, -0.7109375, 0.537109375, -0.204345703125, 
192, 2928817400, 0.6700775027275085, -0.5522826910018921, -0.14693307876586914, -0.4736770987510681, 7.14132022857666, -5.958470344543457, 3.4130046367645264, -1.6743770837783813, -0.051996901631355286, -0.28313979506492615, -0.708740234375, 0.53466796875, -0.20361328125, 
193, 2928825733, 0.6700578331947327, -0.5523124933242798, -0.1469261795282364, -0.47367238998413086, 7.124997138977051, -5.963689804077148, 3.3825864791870117, -0.884331464767456, 0.08290047198534012, -0.0464642196893692, -0.707763671875, 0.533935546875, -0.2001953125, 
194, 2928834066, 0.6700801849365234, -0.5523064136505127, -0.14692728221416473, -0.4736475944519043, 7.160711288452148, -5.947939395904541, 3.3934948444366455, -0.1714104562997818, 0.17418961226940155, 0.2639418840408325, -0.708740234375, 0.53466796875, -0.2021484375, 
195, 2928842399, 0.6701206564903259, -0.5522859692573547, -0.1469230204820633, -0.47361522912979126, 7.1542887687683105, -5.943026065826416, 3.402972459793091, 0.1061069667339325, 0.2989565432071686, 0.47976744174957275, -0.711669921875, 0.53369140625, -0.20263671875, 
196, 2928850732, 0.6701859831809998, -0.5522415041923523, -0.14691458642482758, -0.47357743978500366, 7.158171653747559, -5.902325630187988, 3.3945960998535156, 0.472902774810791, 0.5001819729804993, 0.6586060523986816, -0.708984375, 0.535888671875, -0.2001953125, 
197, 2928859065, 0.6702468395233154, -0.5521977543830872, -0.1469108760356903, -0.4735434055328369, 7.165095806121826, -5.882877349853516, 3.397557497024536, 0.4837888181209564, 0.4735175371170044, 0.577101469039917, -0.710205078125, 0.533203125, -0.203125, 
198, 2928867398, 0.6702708005905151, -0.5521879196166992, -0.14688816666603088, -0.4735282063484192, 7.156233310699463, -5.900272846221924, 3.417664051055908, -0.3014027178287506, 0.49380406737327576, 0.35932931303977966, -0.7109375, 0.537353515625, -0.200439453125, 
199, 2928875731, 0.6702455878257751, -0.5522273182868958, -0.14685945212841034, -0.4735267758369446, 7.179587364196777, -5.914778709411621, 3.394681930541992, -1.1638596057891846, 0.23576620221138, 0.07183512300252914, -0.708984375, 0.535888671875, -0.20068359375, 
200, 2928884064, 0.6701862215995789, -0.5523053407669067, -0.14681947231292725, -0.4735323190689087, 7.2021355628967285, -5.946260929107666, 3.416440010070801, -1.897118091583252, 0.07034949213266373, -0.06506015360355377, -0.707763671875, 0.53466796875, -0.2021484375, 
201, 2928892397, 0.6700944900512695, -0.5524146556854248, -0.14675861597061157, -0.4735531806945801, 7.187469482421875, -5.966893672943115, 3.432140827178955, -2.5698251724243164, 0.11330458521842957, -0.17981195449829102, -0.709228515625, 0.53466796875, -0.20166015625, 
202, 2928900730, 0.6699808835983276, -0.5525410175323486, -0.14669424295425415, -0.4735866189002991, 7.174105167388916, -5.973840713500977, 3.4080729484558105, -2.9697914123535156, 0.0816197618842125, -0.39333221316337585, -0.710205078125, 0.5341796875, -0.201171875, 
203, 2928909063, 0.6698786020278931, -0.5526518821716309, -0.1466532200574875, -0.47361451387405396, 7.165525436401367, -6.0221428871154785, 3.398952007293701, -2.548616409301758, -0.04928179457783699, -0.4602622389793396, -0.710693359375, 0.53369140625, -0.20068359375, 
204, 2928917396, 0.6698251962661743, -0.5527118444442749, -0.1466410905122757, -0.47362393140792847, 7.155439376831055, -6.041706562042236, 3.4140381813049316, -1.5101896524429321, -0.026228975504636765, -0.3112129271030426, -0.709228515625, 0.535400390625, -0.2001953125, 
205, 2928925729, 0.6698253154754639, -0.5527217388153076, -0.14667212963104248, -0.4736025929450989, 7.157649517059326, -6.034717559814453, 3.3959410190582275, -0.27128034830093384, -0.22197294235229492, -0.09244177490472794, -0.708251953125, 0.534912109375, -0.2001953125, 
206, 2928934062, 0.6698816418647766, -0.552672266960144, -0.14673811197280884, -0.47356030344963074, 7.112293720245361, -5.957710266113281, 3.3891172409057617, 0.9435387849807739, -0.20581038296222687, 0.06566210091114044, -0.708740234375, 0.53564453125, -0.20263671875, 
207, 2928942395, 0.6699620485305786, -0.5525989532470703, -0.14679810404777527, -0.473513662815094, 7.135797500610352, -5.879936695098877, 3.389803409576416, 1.347449541091919, 0.02237403206527233, 0.27495598793029785, -0.7099609375, 0.536865234375, -0.197998046875, 
208, 2928950728, 0.6700180172920227, -0.5525475740432739, -0.14684231579303741, -0.473480761051178, 7.131856441497803, -5.844058036804199, 3.3748109340667725, 0.7976400852203369, 0.07798253744840622, 0.13843213021755219, -0.708251953125, 0.535888671875, -0.19970703125, 
209, 2928959061, 0.6700340509414673, -0.5525413155555725, -0.14685967564582825, -0.4734594523906708, 7.113481044769287, -5.911052703857422, 3.339533805847168, -0.08929122984409332, 0.04056014120578766, 0.08307977765798569, -0.7119140625, 0.53564453125, -0.203857421875, 
210, 2928967394, 0.670013427734375, -0.5525794625282288, -0.1468336135149002, -0.47345253825187683, 7.092816352844238, -5.936138153076172, 3.336909055709839, -1.119572639465332, 0.18645881116390228, 0.11420106142759323, -0.708251953125, 0.53515625, -0.203125, 
211, 2928975727, 0.6699302196502686, -0.5526883006095886, -0.14676228165626526, -0.47346532344818115, 7.131094455718994, -5.993010997772217, 3.3713388442993164, -2.550281524658203, 0.16829831898212433, 0.028649521991610527, -0.709228515625, 0.5341796875, -0.20166015625, 
212, 2928984060, 0.6697919964790344, -0.5528651475906372, -0.14665919542312622, -0.47348612546920776, 7.163108825683594, -6.038516044616699, 3.409040689468384, -3.849973201751709, -0.03729432448744774, -0.03936907276511192, -0.7099609375, 0.536376953125, -0.2001953125, 
213, 2928992393, 0.6696370840072632, -0.5530725717544556, -0.14653444290161133, -0.47350192070007324, 7.146294593811035, -6.0559773445129395, 3.4320261478424072, -4.356162071228027, -0.10179097950458527, 0.13858582079410553, -0.708984375, 0.535888671875, -0.2001953125, 
214, 2929000726, 0.6695166230201721, -0.5532402992248535, -0.14642351865768433, -0.4735107421875, 7.165346622467041, -6.037665843963623, 3.4706811904907227, -3.6576099395751953, 0.04027837514877319, 0.2274927943944931, -0.707763671875, 0.535400390625, -0.20068359375, 
215, 2929009059, 0.6694503426551819, -0.5533286929130554, -0.1463567614555359, -0.47352170944213867, 7.157808303833008, -6.015115261077881, 3.4677140712738037, -2.199929714202881, 0.27820900082588196, 0.07977553457021713, -0.708740234375, 0.53515625, -0.201171875, 
216, 2929017392, 0.6694614291191101, -0.5533228516578674, -0.14633287489414215, -0.4735202491283417, 7.148759365081787, -6.002587795257568, 3.439107894897461, -0.4692527949810028, 0.5578140616416931, 0.1666077822446823, -0.709716796875, 0.5341796875, -0.20361328125, 
217, 2929025725, 0.6695512533187866, -0.5532193779945374, -0.14636829495429993, -0.4735032320022583, 7.177484512329102, -6.002129554748535, 3.400905132293701, 1.4752901792526245, 0.687857449054718, 0.1900448054075241, -0.7099609375, 0.536865234375, -0.199951171875, 
218, 2929034058, 0.6697020530700684, -0.5530457496643066, -0.14643767476081848, -0.4734712243080139, 7.1763834953308105, -6.026782512664795, 3.3650598526000977, 2.8074355125427246, 0.8383923768997192, 0.3110464811325073, -0.707763671875, 0.535400390625, -0.20068359375, 
219, 2929042391, 0.6698799729347229, -0.5528414249420166, -0.14655336737632751, -0.47342216968536377, 7.183619022369385, -6.000657558441162, 3.3587775230407715, 3.6613621711730957, 0.5411646962165833, 0.2451922446489334, -0.706787109375, 0.534423828125, -0.19970703125, 
220, 2929050724, 0.6700357794761658, -0.5526717305183411, -0.14666783809661865, -0.47336453199386597, 7.154834747314453, -5.929975986480713, 3.3449385166168213, 3.1534836292266846, 0.2131744921207428, 0.24334803223609924, -0.708740234375, 0.53564453125, -0.2021484375, 
221, 2929059057, 0.6701493263244629, -0.5525473356246948, -0.14675521850585938, -0.47332197427749634, 7.158536911010742, -5.890685558319092, 3.315922975540161, 2.2388505935668945, 0.19972699880599976, 0.14219743013381958, -0.709228515625, 0.53466796875, -0.201171875, 
222, 2929067390, 0.6702114343643188, -0.5524725914001465, -0.14680255949497223, -0.47330644726753235, 7.1327362060546875, -5.8564982414245605, 3.3328819274902344, 1.0445868968963623, 0.3458818197250366, -0.05189443752169609, -0.708984375, 0.536376953125, -0.2001953125, 
223, 2929075723, 0.6702122688293457, -0.5524790287017822, -0.1467944085597992, -0.4733002483844757, 7.101142406463623, -5.873671054840088, 3.362722635269165, -0.5193542242050171, 0.2770819664001465, 0.06381786614656448, -0.710693359375, 0.53466796875, -0.205078125, 
224, 2929084056, 0.6701610684394836, -0.5525600910186768, -0.14674510061740875, -0.4732934236526489, 7.084526538848877, -5.936659336090088, 3.4044249057769775, -1.8972206115722656, 0.058618173003196716, 0.17931245267391205, -0.707763671875, 0.53466796875, -0.20263671875, 
225, 2929092389, 0.6700838804244995, -0.5526731014251709, -0.1466389298439026, -0.47330352663993835, 7.1096906661987305, -5.97896671295166, 3.4308297634124756, -2.7646210193634033, 0.4548960030078888, 0.36557912826538086, -0.708740234375, 0.535888671875, -0.20068359375, 
226, 2929100722, 0.6700154542922974, -0.5527853965759277, -0.1465236097574234, -0.47330528497695923, 7.075684547424316, -5.989041328430176, 3.4640982151031494, -2.7651078701019287, 0.4949054718017578, 0.5510518550872803, -0.708740234375, 0.533203125, -0.20361328125, 
227, 2929109055, 0.669966995716095, -0.5528769493103027, -0.14641746878623962, -0.473300039768219, 7.0882368087768555, -5.982234477996826, 3.4811244010925293, -2.3158087730407715, 0.5347611904144287, 0.6491543054580688, -0.707763671875, 0.53515625, -0.2041015625, 
228, 2929117388, 0.6699636578559875, -0.5529219508171082, -0.14634183049201965, -0.473275363445282, 7.157756805419922, -5.959656715393066, 3.4628350734710693, -1.339189052581787, 0.49598127603530884, 0.7836291193962097, -0.706787109375, 0.534423828125, -0.1982421875, 
229, 2929125721, 0.6700199246406555, -0.5528849959373474, -0.1463198959827423, -0.47324538230895996, 7.203327178955078, -5.964155197143555, 3.414109468460083, 0.26053518056869507, 0.618007481098175, 0.6608600616455078, -0.708251953125, 0.53271484375, -0.20263671875, 
230, 2929134054, 0.6701133251190186, -0.5528002381324768, -0.14634659886360168, -0.47320401668548584, 7.200716972351074, -5.969325542449951, 3.418550968170166, 1.2919948101043701, 0.46688351035118103, 0.5267183780670166, -0.707763671875, 0.536865234375, -0.201171875, 
231, 2929142387, 0.6702113151550293, -0.5527018308639526, -0.14640748500823975, -0.473161518573761, 7.202905178070068, -5.983391284942627, 3.357463836669922, 1.7083797454833984, 0.24140135943889618, 0.2941666841506958, -0.709716796875, 0.5341796875, -0.20166015625, 
232, 2929150720, 0.6702903509140015, -0.5526239275932312, -0.1464935541152954, -0.473114013671875, 7.201639652252197, -5.97059965133667, 3.335864305496216, 1.5196795463562012, -0.20043137669563293, 0.05193285644054413, -0.708740234375, 0.53662109375, -0.20263671875, 
233, 2929159053, 0.6703195571899414, -0.5525965690612793, -0.14657464623451233, -0.47307929396629333, 7.20199728012085, -5.941444396972656, 3.336221933364868, 0.6456964612007141, -0.4841858744621277, -0.2353435903787613, -0.706787109375, 0.5380859375, -0.20263671875, 
234, 2929167386, 0.6703121662139893, -0.5526183247566223, -0.14661329984664917, -0.4730524718761444, 7.183757305145264, -5.92067289352417, 3.3494904041290283, -0.4068565368652344, -0.4288078844547272, -0.13957196474075317, -0.708251953125, 0.534912109375, -0.2001953125, 
235, 2929175719, 0.6702864766120911, -0.5526536107063293, -0.14661800861358643, -0.47304606437683105, 7.178342819213867, -5.866847038269043, 3.3533170223236084, -0.9032859206199646, -0.08347678929567337, -0.14689762890338898, -0.708740234375, 0.535400390625, -0.20068359375, 
236, 2929184052, 0.6702436804771423, -0.5527071356773376, -0.14658954739570618, -0.473052978515625, 7.223191261291504, -5.833207607269287, 3.3933730125427246, -1.472997784614563, 0.16919481754302979, -0.10635030269622803, -0.70947265625, 0.53662109375, -0.203125, 
237, 2929192385, 0.6701908707618713, -0.5527622699737549, -0.1465340256690979, -0.47308051586151123, 7.209165573120117, -5.872152805328369, 3.42447566986084, -1.7525259256362915, 0.5444433689117432, -0.13736914098262787, -0.7080078125, 0.537353515625, -0.20068359375, 
238, 2929200718, 0.6701363921165466, -0.5528066158294678, -0.14646461606025696, -0.4731273651123047, 7.20161771774292, -5.883077144622803, 3.4483020305633545, -1.8235288858413696, 0.8853688836097717, -0.2574231028556824, -0.707275390625, 0.53564453125, -0.203125, 
239, 2929209051, 0.6701158285140991, -0.5528056621551514, -0.1464013308286667, -0.47317710518836975, 7.1906023025512695, -5.922532081604004, 3.424130439758301, -1.0863765478134155, 1.2160742282867432, -0.18706075847148895, -0.70947265625, 0.5361328125, -0.20263671875, 
240, 2929217384, 0.6701160073280334, -0.5527670383453369, -0.14637213945388794, -0.4732310175895691, 7.162133693695068, -5.974626541137695, 3.3967490196228027, -0.39507395029067993, 1.2183282375335693, -0.43964266777038574, -0.707275390625, 0.53515625, -0.20458984375, 
241, 2929225717, 0.6701401472091675, -0.5527002215385437, -0.14638544619083405, -0.47327086329460144, 7.128058433532715, -6.036992073059082, 3.3935017585754395, 0.3786424398422241, 0.9531953930854797, -0.5192005634307861, -0.70947265625, 0.537109375, -0.20166015625, 
242, 2929234050, 0.6701862812042236, -0.5526180863380432, -0.14642548561096191, -0.4732891321182251, 7.100834846496582, -6.04516077041626, 3.3626086711883545, 0.8768905997276306, 0.6861157417297363, -0.4272966980934143, -0.705322265625, 0.53662109375, -0.2041015625, 
243, 2929242383, 0.670267641544342, -0.5525091886520386, -0.14647674560546875, -0.4732851982116699, 7.149209499359131, -6.075381755828857, 3.3558993339538574, 1.5378915071487427, 0.6600660681724548, -0.11710827797651291, -0.708984375, 0.53662109375, -0.2021484375, 
244, 2929250716, 0.6703630685806274, -0.5523973703384399, -0.14654070138931274, -0.47326087951660156, 7.175841331481934, -6.063359260559082, 3.3195371627807617, 1.765525221824646, 0.4334825575351715, 0.0458366759121418, -0.709228515625, 0.534912109375, -0.2001953125, 
245, 2929259049, 0.6704694032669067, -0.5522833466529846, -0.1466091275215149, -0.47322219610214233, 7.130181789398193, -6.034305095672607, 3.364119291305542, 1.9555058479309082, 0.32382795214653015, 0.22377875447273254, -0.7080078125, 0.53857421875, -0.204833984375, 
246, 2929267382, 0.6705582141876221, -0.5521942377090454, -0.14667735993862152, -0.4731791913509369, 7.120497703552246, -5.944047451019287, 3.400010585784912, 1.5710874795913696, 0.09007245302200317, 0.1880469024181366, -0.708740234375, 0.53662109375, -0.20458984375, 
247, 2929275715, 0.6706072092056274, -0.5521464347839355, -0.1467110514640808, -0.4731549024581909, 7.109396457672119, -5.86106014251709, 3.391469955444336, 0.6557627320289612, 0.20431193709373474, 0.11730039119720459, -0.708251953125, 0.53515625, -0.20263671875, 
248, 2929284048, 0.6706095933914185, -0.5521412491798401, -0.14670318365097046, -0.4731599688529968, 7.067638397216797, -5.8102898597717285, 3.373337984085083, -0.4496834874153137, 0.4370172619819641, -0.07061844319105148, -0.7099609375, 0.5361328125, -0.203125, 
249, 2929292381, 0.6705518364906311, -0.5522111654281616, -0.14665859937667847, -0.4731740355491638, 7.032569885253906, -5.847856521606445, 3.3982300758361816, -1.8253474235534668, 0.23635536432266235, -0.09917832165956497, -0.7099609375, 0.53564453125, -0.20166015625, 
250, 2929300714, 0.6704304814338684, -0.5523535013198853, -0.14658811688423157, -0.4732017517089844, 7.024930000305176, -5.896920680999756, 3.431093215942383, -3.2057242393493652, -0.022873511537909508, -0.3118533194065094, -0.707763671875, 0.53564453125, -0.203125, 
251, 2929309047, 0.670265257358551, -0.5525556802749634, -0.14650031924247742, -0.47322705388069153, 7.014429569244385, -5.9732842445373535, 3.4689207077026367, -4.16392707824707, -0.359803169965744, -0.3079855740070343, -0.708740234375, 0.5361328125, -0.20166015625, 
252, 2929317380, 0.6700960397720337, -0.5527756214141846, -0.14639395475387573, -0.4732428789138794, 7.083502769470215, -6.009606838226318, 3.5148441791534424, -4.493582248687744, -0.38516125082969666, -0.08370733261108398, -0.708984375, 0.537109375, -0.20361328125, 
253, 2929325713, 0.6699418425559998, -0.5529806017875671, -0.14627325534820557, -0.4732587933540344, 7.097580432891846, -6.042741775512695, 3.53140926361084, -4.3044209480285645, -0.12110411375761032, 0.10605575144290924, -0.7099609375, 0.53515625, -0.2021484375, 
254, 2929334046, 0.6698420643806458, -0.5531167984008789, -0.1461881846189499, -0.4732672870159149, 7.098961353302002, -6.048905372619629, 3.493195056915283, -3.0403330326080322, 0.049012839794158936, 0.10403221100568771, -0.708251953125, 0.534912109375, -0.20068359375, 
255, 2929342379, 0.66981041431427, -0.5531759262084961, -0.14613184332847595, -0.4732603430747986, 7.104032039642334, -6.083735942840576, 3.4625911712646484, -1.5637744665145874, 0.3086899518966675, 0.3305644989013672, -0.708740234375, 0.5361328125, -0.201171875, 
256, 2929350712, 0.6698446273803711, -0.5531618595123291, -0.14611591398715973, -0.4732332229614258, 7.149259567260742, -6.065317630767822, 3.445932149887085, -0.11495669931173325, 0.3876074552536011, 0.47671934962272644, -0.706298828125, 0.53515625, -0.203125, 
257, 2929359045, 0.6699192523956299, -0.553093671798706, -0.14612185955047607, -0.4732053279876709, 7.160775661468506, -6.05584716796875, 3.4425058364868164, 0.8667728900909424, 0.6169316172599792, 0.4866320490837097, -0.70751953125, 0.538818359375, -0.201416015625, 
258, 2929367378, 0.6700277924537659, -0.5529807806015015, -0.14614266157150269, -0.47317737340927124, 7.144211292266846, -5.9754252433776855, 3.4216721057891846, 1.6004669666290283, 0.8344476222991943, 0.49011555314064026, -0.709716796875, 0.5341796875, -0.201171875, 
259, 2929375711, 0.6701467037200928, -0.5528421998023987, -0.1461801826953888, -0.4731593132019043, 7.151957988739014, -5.950686931610107, 3.3846795558929443, 2.0382142066955566, 0.9444864392280579, 0.30218392610549927, -0.708251953125, 0.53564453125, -0.201171875, 
260, 2929384044, 0.6702585220336914, -0.5527105331420898, -0.14622725546360016, -0.47314023971557617, 7.14060640335083, -5.928433418273926, 3.3789780139923096, 1.9529956579208374, 0.7907241582870483, 0.19127428531646729, -0.70947265625, 0.536376953125, -0.20068359375, 
261, 2929392377, 0.670342206954956, -0.5525976419448853, -0.14627791941165924, -0.4731377959251404, 7.1541008949279785, -5.9062700271606445, 3.386688470840454, 1.5831263065338135, 0.7083232998847961, -0.11864514648914337, -0.707763671875, 0.53662109375, -0.203125, 
262, 2929400710, 0.6703829169273376, -0.5525279641151428, -0.1463121473789215, -0.4731510877609253, 7.164766788482666, -5.867040634155273, 3.374868869781494, 0.6923655867576599, 0.608863115310669, -0.34755951166152954, -0.707763671875, 0.53662109375, -0.20458984375, 
263, 2929409043, 0.6703910827636719, -0.5524953603744507, -0.14632569253444672, -0.47317302227020264, 7.18520975112915, -5.920322418212891, 3.3586173057556152, -0.01921067386865616, 0.5612975358963013, -0.3913598954677582, -0.70849609375, 0.54052734375, -0.202880859375, 
264, 2929417376, 0.670374870300293, -0.5524963736534119, -0.1463269740343094, -0.47319456934928894, 7.170324325561523, -5.945085525512695, 3.3787097930908203, -0.6238090395927429, 0.3995436429977417, -0.4013494551181793, -0.707275390625, 0.53662109375, -0.20458984375, 
265, 2929425709, 0.6703456044197083, -0.552516520023346, -0.14630886912345886, -0.4732181429862976, 7.193885803222656, -5.97945499420166, 3.374568223953247, -0.9983916282653809, 0.4463920593261719, -0.30437394976615906, -0.70947265625, 0.537109375, -0.20361328125, 
266, 2929434042, 0.6703119277954102, -0.5525537729263306, -0.14628306031227112, -0.47323036193847656, 7.183235168457031, -5.9803924560546875, 3.3868143558502197, -1.2479000091552734, 0.3088180422782898, -0.14958713948726654, -0.709228515625, 0.535400390625, -0.2080078125, 
267, 2929442375, 0.6702847480773926, -0.5525847673416138, -0.14625956118106842, -0.47323983907699585, 7.185023784637451, -5.975291728973389, 3.3781161308288574, -1.0885025262832642, 0.3198833763599396, -0.09582284837961197, -0.708251953125, 0.5361328125, -0.20263671875, 
268, 2929450708, 0.6702669262886047, -0.5526115298271179, -0.14626580476760864, -0.4732319712638855, 7.154809951782227, -5.946079730987549, 3.3880012035369873, -0.7803889513015747, -0.03977891057729721, -0.12663677334785461, -0.708251953125, 0.53564453125, -0.2041015625, 
269, 2929459041, 0.6702684164047241, -0.5526270866394043, -0.14629308879375458, -0.4732031226158142, 7.141748905181885, -5.922260761260986, 3.3884661197662354, -0.32099756598472595, -0.27965620160102844, 0.026190554723143578, -0.707763671875, 0.5361328125, -0.20263671875, 
270, 2929467374, 0.6702837944030762, -0.5526177883148193, -0.14631828665733337, -0.4731845557689667, 7.1447672843933105, -5.947767734527588, 3.388544797897339, -0.05120285227894783, 0.004469683859497309, -0.027484072372317314, -0.709228515625, 0.53564453125, -0.20263671875, 
271, 2929475707, 0.6702854633331299, -0.5526149272918701, -0.14632675051689148, -0.47318267822265625, 7.140168190002441, -5.932503700256348, 3.3749260902404785, -0.32706815004348755, 0.2202696055173874, -0.11539212614297867, -0.709228515625, 0.53564453125, -0.20361328125, 
272, 2929484040, 0.670272707939148, -0.5526331067085266, -0.14631935954093933, -0.473181813955307, 7.164373397827148, -5.9571099281311035, 3.3821935653686523, -0.768042802810669, 0.20464491844177246, -0.07066967338323593, -0.708251953125, 0.535888671875, -0.201171875, 
273, 2929492373, 0.6702284216880798, -0.5526952147483826, -0.14630591869354248, -0.4731762409210205, 7.165639400482178, -5.9607930183410645, 3.394038200378418, -1.4084242582321167, -0.12200059741735458, -0.08273397386074066, -0.707763671875, 0.5341796875, -0.2041015625, 
274, 2929500706, 0.6701658964157104, -0.5527786612510681, -0.14627765119075775, -0.4731760025024414, 7.12433385848999, -5.955889701843262, 3.4148621559143066, -1.8834917545318604, -0.12230800092220306, -0.11078157275915146, -0.70947265625, 0.537109375, -0.203125, 
275, 2929509039, 0.6700933575630188, -0.5528573393821716, -0.14622867107391357, -0.47320204973220825, 7.140719890594482, -5.95075798034668, 3.4120328426361084, -2.070603370666504, 0.2814107835292816, -0.25422126054763794, -0.706298828125, 0.535888671875, -0.20166015625, 
276, 2929517372, 0.6700352430343628, -0.5529171824455261, -0.1461838185787201, -0.47322845458984375, 7.13803243637085, -5.971174240112305, 3.405428409576416, -1.7940208911895752, 0.3945232629776001, -0.24917525053024292, -0.707763671875, 0.5361328125, -0.20458984375, 
277, 2929525705, 0.6700021028518677, -0.5529448986053467, -0.1461452841758728, -0.47325485944747925, 7.126062870025635, -6.007236480712891, 3.3772220611572266, -1.2363221645355225, 0.5994626879692078, -0.18421757221221924, -0.70849609375, 0.53759765625, -0.20263671875, 
278, 2929534038, 0.670006275177002, -0.5529420375823975, -0.14612264931201935, -0.47325918078422546, 7.127822399139404, -6.070260047912598, 3.3898539543151855, -0.5545482039451599, 0.5552013516426086, 0.06517542153596878, -0.70947265625, 0.53564453125, -0.2021484375, 
279, 2929542371, 0.6700400114059448, -0.5529147982597351, -0.14613014459609985, -0.4732409715652466, 7.1253252029418945, -6.069294452667236, 3.4207966327667236, 0.16601869463920593, 0.3296680450439453, 0.20090526342391968, -0.708740234375, 0.5341796875, -0.2021484375, 
280, 2929550704, 0.6701138019561768, -0.5528404116630554, -0.14616741240024567, -0.4732118844985962, 7.155303478240967, -6.041763782501221, 3.3927083015441895, 1.0925110578536987, 0.3545394241809845, 0.22628894448280334, -0.7080078125, 0.53759765625, -0.2041015625, 
281, 2929559037, 0.670206606388092, -0.5527498126029968, -0.14621613919734955, -0.47317126393318176, 7.152342319488525, -5.9705424308776855, 3.41031813621521, 1.511688232421875, 0.31107208132743835, 0.3501594066619873, -0.70849609375, 0.5390625, -0.205810546875, 
282, 2929567370, 0.6702855825424194, -0.5526621341705322, -0.1462644338607788, -0.4731467366218567, 7.125748157501221, -5.899943828582764, 3.4015846252441406, 1.317583441734314, 0.38599368929862976, 0.10846345871686935, -0.707763671875, 0.537109375, -0.203125, 
283, 2929575703, 0.6703263521194458, -0.5526202917098999, -0.14630763232707977, -0.473124623298645, 7.115355014801025, -5.9041924476623535, 3.3796896934509277, 0.5930847525596619, 0.07885342091321945, -0.018109261989593506, -0.706787109375, 0.537109375, -0.20361328125, 
284, 2929584036, 0.6703371405601501, -0.5526207089424133, -0.14633077383041382, -0.47310176491737366, 7.142056465148926, -5.884164810180664, 3.3736026287078857, -0.18075965344905853, -0.07950659096240997, 0.01681574620306492, -0.709228515625, 0.5341796875, -0.201171875, 
285, 2929592369, 0.6703095436096191, -0.5526633262634277, -0.14632155001163483, -0.4730939269065857, 7.14753532409668, -5.830933094024658, 3.422656774520874, -1.0726728439331055, -0.017955578863620758, -0.02471773698925972, -0.707275390625, 0.5361328125, -0.20166015625, 
286, 2929600702, 0.6702277064323425, -0.5527645945549011, -0.14626604318618774, -0.47310870885849, 7.148191928863525, -5.86347770690918, 3.4169414043426514, -2.4012322425842285, 0.08751104027032852, -0.13242560625076294, -0.708740234375, 0.5361328125, -0.2021484375, 
287, 2929609035, 0.6701099872589111, -0.5528976321220398, -0.14617784321308136, -0.47314727306365967, 7.151752948760986, -5.907687187194824, 3.422855854034424, -3.199781656265259, 0.2951912581920624, -0.2560911476612091, -0.70947265625, 0.5361328125, -0.2021484375, 
288, 2929617368, 0.66999351978302, -0.5530315041542053, -0.14607614278793335, -0.4731869399547577, 7.149343967437744, -5.988792419433594, 3.3845441341400146, -3.316352128982544, 0.4210852384567261, -0.16961747407913208, -0.707275390625, 0.53466796875, -0.20263671875, 
289, 2929625701, 0.6698946356773376, -0.5531398057937622, -0.14598429203033447, -0.4732287526130676, 7.171539306640625, -6.0246381759643555, 3.395571231842041, -2.8564741611480713, 0.5514360666275024, -0.18590813875198364, -0.707275390625, 0.5361328125, -0.2021484375, 
290, 2929634034, 0.6698111295700073, -0.553229033946991, -0.14591199159622192, -0.4732648730278015, 7.156298637390137, -6.059020519256592, 3.410233736038208, -2.455893039703369, 0.4800236225128174, -0.23603519797325134, -0.70947265625, 0.5361328125, -0.20263671875, 
291, 2929642367, 0.6697785258293152, -0.5532598495483398, -0.14589616656303406, -0.47328007221221924, 7.128745079040527, -6.061376571655273, 3.427527904510498, -1.0890148878097534, 0.28440767526626587, -0.24346332252025604, -0.70947265625, 0.537353515625, -0.200439453125, 
292, 2929650700, 0.6698106527328491, -0.5532135367393494, -0.1459231674671173, -0.4732804298400879, 7.137786388397217, -6.051584243774414, 3.4292802810668945, 0.3908604085445404, 0.4079963266849518, -0.1813487857580185, -0.708984375, 0.53662109375, -0.2041015625, 
293, 2929659033, 0.6698949337005615, -0.5531202554702759, -0.14598649740219116, -0.4732505679130554, 7.1366777420043945, -6.053379535675049, 3.4096314907073975, 1.546446681022644, 0.2552074193954468, 0.08108186721801758, -0.708251953125, 0.53466796875, -0.203125, 
294, 2929667366, 0.6700157523155212, -0.5529868602752686, -0.14608269929885864, -0.4732057452201843, 7.114731311798096, -6.018490314483643, 3.396414279937744, 2.4082889556884766, 0.1726783812046051, 0.10994911193847656, -0.708251953125, 0.53662109375, -0.20166015625, 
295, 2929675699, 0.6701565384864807, -0.5528395175933838, -0.14619223773479462, -0.4731448292732239, 7.12406063079834, -5.958995342254639, 3.404679536819458, 2.8409645557403564, 0.05492973327636719, 0.2761598825454712, -0.708740234375, 0.53564453125, -0.2041015625, 
296, 2929684032, 0.6702777147293091, -0.5527232885360718, -0.14627480506896973, -0.4730833172798157, 7.106472492218018, -5.919047832489014, 3.4202611446380615, 2.1970226764678955, 0.05974520742893219, 0.40474337339401245, -0.7099609375, 0.5361328125, -0.203125, 
297, 2929692365, 0.6703357100486755, -0.5526705980300903, -0.14629407227039337, -0.47305676341056824, 7.129388809204102, -5.877212047576904, 3.414609909057617, 0.6806086897850037, 0.3691651523113251, 0.2952168583869934, -0.707763671875, 0.53466796875, -0.2041015625, 
298, 2929700698, 0.670339047908783, -0.5526765584945679, -0.14625224471092224, -0.4730580449104309, 7.170131206512451, -5.86043119430542, 3.4093244075775146, -0.7604354023933411, 0.6512803435325623, 0.2509298324584961, -0.70849609375, 0.53857421875, -0.204833984375, 
299, 2929709031, 0.670300304889679, -0.552710771560669, -0.14617246389389038, -0.47309768199920654, 7.1541547775268555, -5.894484043121338, 3.365612268447876, -1.6347260475158691, 1.0272972583770752, -0.01687978021800518, -0.706787109375, 0.5390625, -0.20556640625, 
300, 2929717364, 0.6702293753623962, -0.5527770519256592, -0.1461009681224823, -0.47314268350601196, 7.1376543045043945, -5.945675373077393, 3.3534727096557617, -2.161201000213623, 0.7152390480041504, -0.2886212170124054, -0.706787109375, 0.53564453125, -0.20556640625, 
301, 2929725697, 0.670147716999054, -0.5528539419174194, -0.1460329294204712, -0.47318947315216064, 7.134153366088867, -5.990725517272949, 3.3922033309936523, -2.289118528366089, 0.6079922914505005, -0.3636453151702881, -0.70947265625, 0.5380859375, -0.201416015625, 
302, 2929734030, 0.6700959205627441, -0.5529116988182068, -0.14599385857582092, -0.4732074737548828, 7.139337062835693, -6.022531509399414, 3.394426107406616, -1.6718668937683105, 0.30533453822135925, -0.17830070853233337, -0.7080078125, 0.53759765625, -0.203125, 
303, 2929742363, 0.6700946092605591, -0.5529220700263977, -0.14600303769111633, -0.47319430112838745, 7.155131816864014, -6.044946193695068, 3.4127070903778076, -0.4434336721897125, 0.032824642956256866, -0.00932358205318451, -0.706787109375, 0.537353515625, -0.2021484375, 
304, 2929750696, 0.6701520085334778, -0.5528690218925476, -0.14605841040611267, -0.47315794229507446, 7.165396213531494, -6.038593769073486, 3.3994596004486084, 0.9027608633041382, -0.03867749497294426, 0.09160930663347244, -0.7099609375, 0.537109375, -0.202392578125, 
305, 2929759029, 0.6702582240104675, -0.5527569055557251, -0.14611321687698364, -0.4731215536594391, 7.194289684295654, -5.991995334625244, 3.376518964767456, 1.842854380607605, 0.4532566964626312, 0.30991944670677185, -0.709228515625, 0.53564453125, -0.20166015625, 
306, 2929767362, 0.6703735589981079, -0.552636444568634, -0.1461726427078247, -0.47308027744293213, 7.187924861907959, -5.933147430419922, 3.4041988849639893, 2.0006895065307617, 0.4403727054595947, 0.34946781396865845, -0.707275390625, 0.53564453125, -0.205078125, 
307, 2929775695, 0.6704524159431458, -0.5525524616241455, -0.14621153473854065, -0.4730549156665802, 7.133086681365967, -5.879522323608398, 3.4041738510131836, 1.253342866897583, 0.4433951675891876, 0.20899935066699982, -0.709228515625, 0.5361328125, -0.2041015625, 
308, 2929784028, 0.6704998016357422, -0.5525084733963013, -0.1462346315383911, -0.4730319380760193, 7.134181022644043, -5.839116096496582, 3.3885161876678467, 0.5054584741592407, 0.2825634479522705, 0.16709445416927338, -0.708251953125, 0.5361328125, -0.20361328125, 
309, 2929792361, 0.6705076098442078, -0.5525109171867371, -0.14624875783920288, -0.473013699054718, 7.132593154907227, -5.828243732452393, 3.348710775375366, -0.2618030905723572, 0.020529812201857567, 0.0433264784514904, -0.7080078125, 0.537353515625, -0.20166015625, 
310, 2929800694, 0.670478105545044, -0.552550196647644, -0.14623132348060608, -0.4730149805545807, 7.147292137145996, -5.877476692199707, 3.3571367263793945, -1.157097339630127, 0.14306829869747162, -0.08137641847133636, -0.7080078125, 0.5390625, -0.202880859375, 
311, 2929809027, 0.6704106330871582, -0.552625834941864, -0.14616377651691437, -0.4730433225631714, 7.161415100097656, -5.955756664276123, 3.383948802947998, -2.1311042308807373, 0.5009759664535522, -0.10696504265069962, -0.707275390625, 0.53662109375, -0.20263671875, 
312, 2929817360, 0.6703375577926636, -0.55270916223526, -0.14605535566806793, -0.4730830192565918, 7.109928607940674, -5.9961652755737305, 3.416043758392334, -2.5657780170440674, 0.9006861448287964, 0.06082100793719292, -0.708251953125, 0.537109375, -0.20263671875, 
313, 2929825693, 0.6702868938446045, -0.5527760982513428, -0.14596165716648102, -0.473105251789093, 7.108137607574463, -6.030666351318359, 3.42037034034729, -2.085664749145508, 0.7865747213363647, 0.23740553855895996, -0.708740234375, 0.5361328125, -0.205078125, 
314, 2929834026, 0.6702839732170105, -0.5527881979942322, -0.14590631425380707, -0.47311240434646606, 7.12106990814209, -6.025490760803223, 3.3969638347625732, -0.9627366065979004, 0.7678762674331665, 0.2708064913749695, -0.7080078125, 0.53759765625, -0.205078125, 
315, 2929842359, 0.6703097224235535, -0.5527826547622681, -0.14587318897247314, -0.473092645406723, 7.117178916931152, -6.0324788093566895, 3.418429374694824, -0.3536813259124756, 0.5323278307914734, 0.5161139369010925, -0.707275390625, 0.53759765625, -0.20361328125, 
316, 2929850692, 0.6703645586967468, -0.5527529120445251, -0.14585581421852112, -0.4730551540851593, 7.136491775512695, -6.004532814025879, 3.4024643898010254, 0.1978059560060501, 0.46626874804496765, 0.6862182021141052, -0.70947265625, 0.537109375, -0.2060546875, 
317, 2929859025, 0.6704166531562805, -0.5527051687240601, -0.14584019780158997, -0.4730417728424072, 7.145246505737305, -5.9839324951171875, 3.431748151779175, 0.33368945121765137, 0.7513551712036133, 0.4094820022583008, -0.7080078125, 0.5380859375, -0.20361328125, 
318, 2929867358, 0.6704563498497009, -0.552664041519165, -0.14582090079784393, -0.47303950786590576, 7.136277198791504, -5.954498767852783, 3.4476630687713623, 0.10536415129899979, 0.7948225140571594, 0.25466951727867126, -0.7080078125, 0.53759765625, -0.205078125, 
319, 2929875691, 0.6704789400100708, -0.5526347756385803, -0.1458144187927246, -0.4730437099933624, 7.1313700675964355, -5.916223526000977, 3.4455244541168213, -0.035962384194135666, 0.6179305911064148, 0.025524582713842392, -0.707275390625, 0.53759765625, -0.2041015625, 
320, 2929884024, 0.6704769134521484, -0.5526345372200012, -0.1458139568567276, -0.47304704785346985, 7.099453926086426, -5.918269634246826, 3.441204071044922, -0.4793959856033325, 0.3149910569190979, -0.13001786172389984, -0.7080078125, 0.5380859375, -0.20263671875, 
321, 2929892357, 0.6704448461532593, -0.5526580810546875, -0.14581000804901123, -0.4730662405490875, 7.148365497589111, -5.939370155334473, 3.4359538555145264, -0.9522861242294312, 0.25589901208877563, -0.38318896293640137, -0.706787109375, 0.53515625, -0.20166015625, 
322, 2929900690, 0.6704123020172119, -0.5526646375656128, -0.14579778909683228, -0.4731084704399109, 7.1639084815979, -5.962531089782715, 3.4137516021728516, -0.9273121953010559, 0.614626407623291, -0.5839533805847168, -0.707763671875, 0.5361328125, -0.2041015625, 
323, 2929909023, 0.6704100966453552, -0.5526406168937683, -0.1457897275686264, -0.47314202785491943, 7.151792526245117, -5.987179279327393, 3.374131917953491, -0.3425391912460327, 0.7721796035766602, -0.3849051296710968, -0.707275390625, 0.537109375, -0.2021484375, 
324, 2929917356, 0.670435905456543, -0.5525994896888733, -0.14577829837799072, -0.47315698862075806, 7.1263203620910645, -6.0005412101745605, 3.411677122116089, 0.016149774193763733, 0.8260718584060669, -0.05501937493681908, -0.708740234375, 0.53564453125, -0.2060546875, 
325, 2929925689, 0.6704785227775574, -0.5525477528572083, -0.14575421810150146, -0.47316449880599976, 7.111842632293701, -5.960528373718262, 3.406555652618408, 0.2043888121843338, 0.9913861751556396, 0.21540293097496033, -0.703857421875, 0.5361328125, -0.20361328125, 
326, 2929934022, 0.6705396771430969, -0.5524831414222717, -0.14572148025035858, -0.4731634259223938, 7.089297294616699, -5.945886611938477, 3.4105756282806396, 0.39454886317253113, 1.1238374710083008, 0.43778568506240845, -0.709228515625, 0.536376953125, -0.20654296875, 
327, 2929942355, 0.6705949902534485, -0.552415132522583, -0.14567048847675323, -0.4731801152229309, 7.11707878112793, -5.955078125, 3.39845871925354, 0.2556684613227844, 1.4391485452651978, 0.3843800127506256, -0.707763671875, 0.5361328125, -0.20458984375, 
328, 2929950688, 0.6706459522247314, -0.5523563027381897, -0.1456330120563507, -0.47318822145462036, 7.099389553070068, -5.973618030548096, 3.3965132236480713, 0.2155565768480301, 1.1802397966384888, 0.3338174819946289, -0.707763671875, 0.53662109375, -0.20556640625, 
329, 2929959021, 0.6706987619400024, -0.5523149967193604, -0.14562025666236877, -0.4731653332710266, 7.097057819366455, -5.975549221038818, 3.3883159160614014, 0.32413533329963684, 0.6065578460693359, 0.4986194968223572, -0.709228515625, 0.5361328125, -0.20361328125, 
330, 2929967354, 0.6707351803779602, -0.552304208278656, -0.1456359326839447, -0.4731215238571167, 7.096900463104248, -5.986128330230713, 3.4321630001068115, 0.10982102900743484, -0.0464642196893692, 0.4111212491989136, -0.708251953125, 0.53759765625, -0.20654296875, 
331, 2929975687, 0.6707333326339722, -0.5523252487182617, -0.14564207196235657, -0.4730975925922394, 7.1008992195129395, -5.9930524826049805, 3.459958791732788, -0.5440463423728943, -0.09029017388820648, 0.13202856481075287, -0.708740234375, 0.5361328125, -0.20458984375, 
332, 2929984020, 0.6707316040992737, -0.552345871925354, -0.14569929242134094, -0.4730584919452667, 7.147764205932617, -6.019839763641357, 3.39024019241333, -0.20675811171531677, -0.675011932849884, -0.13296349346637726, -0.708251953125, 0.53564453125, -0.205078125, 
333, 2929992353, 0.6707704663276672, -0.5523210167884827, -0.1458156704902649, -0.4729962944984436, 7.135525703430176, -6.03245735168457, 3.361764669418335, 0.980884313583374, -1.0183963775634766, -0.18014490604400635, -0.706298828125, 0.53759765625, -0.20458984375, 
334, 2930000686, 0.670871913433075, -0.5522429347038269, -0.14605405926704407, -0.47287020087242126, 7.194931507110596, -5.998570919036865, 3.3931124210357666, 2.839043617248535, -2.1571285724639893, -0.23280777037143707, -0.707763671875, 0.537109375, -0.205078125, 
335, 2930009019, 0.6709566116333008, -0.5521445274353027, -0.1462891399860382, -0.47279220819473267, 7.208680629730225, -5.900203704833984, 3.5093328952789307, 2.8106117248535156, -1.6631580591201782, -0.7850251197814941, -0.70751953125, 0.54052734375, -0.204345703125, 
336, 2930017352, 0.670986533164978, -0.5520747303962708, -0.14650319516658783, -0.4727650284767151, 7.2041120529174805, -5.863246917724609, 3.469834804534912, 1.8624496459960938, -1.3781739473342896, -1.4097563028335571, -0.707275390625, 0.537109375, -0.20703125, 
337, 2930025685, 0.670981228351593, -0.5520268082618713, -0.14672666788101196, -0.4727594256401062, 7.145267486572266, -5.92050313949585, 3.433908224105835, 1.4365614652633667, -1.5142110586166382, -1.850602626800537, -0.707763671875, 0.5380859375, -0.20556640625, 
338, 2930034018, 0.670971155166626, -0.5519829988479614, -0.1469334363937378, -0.47276055812835693, 7.158329010009766, -6.000976085662842, 3.439171552658081, 1.215869426727295, -1.345976710319519, -1.8220940828323364, -0.706787109375, 0.537109375, -0.203125, 
339, 2930042351, 0.6709539294242859, -0.5519633889198303, -0.14708206057548523, -0.4727615714073181, 7.160521030426025, -6.027157783508301, 3.4627208709716797, 0.58570796251297, -0.9773880243301392, -1.3645983934402466, -0.710205078125, 0.534423828125, -0.2060546875, 
340, 2930050684, 0.6709159016609192, -0.5520206093788147, -0.14719614386558533, -0.47271329164505005, 7.150606155395508, -6.04910945892334, 3.4694104194641113, -0.4334697425365448, -1.5805777311325073, -0.6406888961791992, -0.706298828125, 0.53515625, -0.2041015625, 
341, 2930059017, 0.670911967754364, -0.5520704388618469, -0.14733800292015076, -0.4726164937019348, 7.165796279907227, -6.039981365203857, 3.461019992828369, 0.20285192131996155, -2.085357427597046, -0.18360282480716705, -0.7099609375, 0.5361328125, -0.2021484375, 
342, 2930067350, 0.6710041165351868, -0.5519930124282837, -0.1474357545375824, -0.47254571318626404, 7.134603023529053, -5.9839277267456055, 3.4298765659332275, 1.737528920173645, -0.46115875244140625, 0.2645310163497925, -0.709228515625, 0.53564453125, -0.20263671875, 
343, 2930075683, 0.6712300181388855, -0.5517786145210266, -0.14755427837371826, -0.4724380373954773, 7.113142013549805, -5.905745029449463, 3.3986408710479736, 4.257508754730225, 0.22726233303546906, 1.054781436920166, -0.707763671875, 0.537109375, -0.20458984375, 
344, 2930084016, 0.6714906692504883, -0.5515000224113464, -0.14760175347328186, -0.472378134727478, 7.046759605407715, -5.869274139404297, 3.5055408477783203, 4.524409294128418, 1.7335331439971924, 1.2319295406341553, -0.708740234375, 0.5361328125, -0.2041015625, 
345, 2930092349, 0.6717591285705566, -0.5512392520904541, -0.14769375324249268, -0.47227203845977783, 7.007543087005615, -5.898581027984619, 3.4932405948638916, 4.829012870788574, 0.8759171366691589, 1.4224480390548706, -0.708251953125, 0.53564453125, -0.205078125, 
346, 2930100682, 0.6720718145370483, -0.5509659647941589, -0.14783525466918945, -0.4721018075942993, 7.082187175750732, -5.937422275543213, 3.565779685974121, 5.705942153930664, 0.10095851123332977, 1.8862451314926147, -0.708251953125, 0.5361328125, -0.20361328125, 
347, 2930109015, 0.6724663972854614, -0.5505704879760742, -0.14789283275604248, -0.4719833433628082, 7.1658711433410645, -5.917347431182861, 3.5676512718200684, 6.832226276397705, 2.2321653366088867, 2.3404622077941895, -0.706298828125, 0.53662109375, -0.205078125, 
348, 2930117348, 0.6728833317756653, -0.5501313805580139, -0.14784638583660126, -0.47191569209098816, 7.1649017333984375, -6.015756607055664, 3.518756866455078, 6.596627235412598, 3.902470111846924, 2.7023916244506836, -0.705810546875, 0.536376953125, -0.20751953125, 
349, 2930125681, 0.6733187437057495, -0.5497031211853027, -0.14790908992290497, -0.47177401185035706, 7.178651809692383, -6.064040184020996, 3.3549413681030273, 7.529778003692627, 2.29965877532959, 2.7199370861053467, -0.708251953125, 0.53515625, -0.205078125, 
350, 2930134014, 0.6738172173500061, -0.5492427945137024, -0.14808781445026398, -0.47154244780540466, 7.223911762237549, -6.025882720947266, 3.510711431503296, 9.205230712890625, 0.883063554763794, 3.001591205596924, -0.707275390625, 0.534423828125, -0.2080078125, 
351, 2930142347, 0.6742643713951111, -0.5487701892852783, -0.14814651012420654, -0.4714350402355194, 7.203754901885986, -5.858668804168701, 3.647425651550293, 7.929898262023926, 2.908406972885132, 2.415896415710449, -0.705810546875, 0.535400390625, -0.20751953125, 
352, 2930150680, 0.6746190786361694, -0.5483737587928772, -0.14813323318958282, -0.47139301896095276, 7.119236469268799, -5.809168815612793, 3.613675117492676, 5.895718574523926, 3.3871114253997803, 1.8924694061279297, -0.707763671875, 0.537353515625, -0.20751953125, 
353, 2930159013, 0.6749060153961182, -0.5480347871780396, -0.1481078565120697, -0.47138458490371704, 7.003121852874756, -5.794614315032959, 3.572721242904663, 4.730731010437012, 3.247769832611084, 1.3632280826568604, -0.706787109375, 0.537353515625, -0.208984375, 
354, 2930167346, 0.67503422498703, -0.5478390455245972, -0.14801491796970367, -0.47145769000053406, 6.9349822998046875, -5.915958881378174, 3.5605177879333496, 1.5754162073135376, 3.2303261756896973, 0.36496442556381226, -0.707275390625, 0.537353515625, -0.20751953125, 
355, 2930175679, 0.6750221252441406, -0.5477921962738037, -0.14793941378593445, -0.47155308723449707, 7.034664154052734, -5.962347984313965, 3.4427402019500732, -0.7689392566680908, 1.9906998872756958, -0.5650243163108826, -0.704345703125, 0.538330078125, -0.2099609375, 
356, 2930184012, 0.6748833656311035, -0.5478475093841553, -0.14776530861854553, -0.47174185514450073, 7.098748207092285, -5.945528507232666, 3.4956557750701904, -3.5265939235687256, 2.6850764751434326, -1.3170839548110962, -0.705810546875, 0.535888671875, -0.20849609375, 
357, 2930192345, 0.6745675206184387, -0.5480536222457886, -0.14746099710464478, -0.4720495343208313, 7.133330345153809, -5.855125427246094, 3.429352283477783, -7.320830821990967, 3.455014228820801, -2.268371105194092, -0.706298828125, 0.536376953125, -0.20947265625, 
358, 2930200678, 0.6741254925727844, -0.548419713973999, -0.1471666693687439, -0.4723474979400635, 7.126001834869385, -5.760839939117432, 3.435091972351074, -9.69770336151123, 1.9907256364822388, -2.7618296146392822, -0.707275390625, 0.536865234375, -0.20947265625, 
359, 2930209011, 0.6736117601394653, -0.548827588558197, -0.14679192006587982, -0.4727230668067932, 7.069180965423584, -5.730717658996582, 3.361637830734253, -11.269495964050293, 2.9030792713165283, -3.2369225025177, -0.706787109375, 0.534423828125, -0.20849609375, 
360, 2930217344, 0.67290198802948, -0.549461841583252, -0.14628282189369202, -0.47315478324890137, 7.107142925262451, -5.783596992492676, 3.451329469680786, -15.869046211242676, 2.705465793609619, -3.5799996852874756, -0.707275390625, 0.535888671875, -0.20947265625, 
361, 2930225677, 0.6720269918441772, -0.5503591299057007, -0.1457882821559906, -0.47350794076919556, 7.091922283172607, -5.916959762573242, 3.4110076427459717, -19.27594757080078, -0.05816994607448578, -3.4960885047912598, -0.705810546875, 0.535888671875, -0.20947265625, 
362, 2930234010, 0.6712620854377747, -0.5511541366577148, -0.1454446017742157, -0.4737740159034729, 7.0754075050354, -5.953251838684082, 3.3730437755584717, -16.36288833618164, -1.2318912744522095, -3.3335649967193604, -0.706298828125, 0.53759765625, -0.20654296875, 
363, 2930242343, 0.6706768274307251, -0.5517206788063049, -0.1452588587999344, -0.47400036454200745, 7.07656192779541, -5.966294765472412, 3.4210386276245117, -11.750248908996582, -1.144111156463623, -3.4333834648132324, -0.706787109375, 0.53662109375, -0.205078125, 
364, 2930250676, 0.6702829599380493, -0.5519927740097046, -0.145194411277771, -0.47426044940948486, 7.015956878662109, -5.982186794281006, 3.431382417678833, -6.89394474029541, 0.29380813241004944, -4.022921085357666, -0.706298828125, 0.5380859375, -0.20654296875, 
365, 2930259009, 0.6700948476791382, -0.5520085096359253, -0.1453646570444107, -0.4744553864002228, 6.979788303375244, -5.966589450836182, 3.3859703540802, -1.2795848846435547, -0.2779400944709778, -4.358492851257324, -0.706298828125, 0.536376953125, -0.2080078125, 
366, 2930267342, 0.669992983341217, -0.5518782138824463, -0.14564503729343414, -0.4746648073196411, 7.024926662445068, -6.001619338989258, 3.429349899291992, 1.3817726373672485, -0.058656591922044754, -5.072104454040527, -0.707763671875, 0.53564453125, -0.20556640625, 
367, 2930275675, 0.6699139475822449, -0.5516303181648254, -0.14586615562438965, -0.4749966263771057, 7.094799995422363, -6.047447204589844, 3.4203684329986572, 2.039546489715576, 2.2288100719451904, -5.820399284362793, -0.706298828125, 0.533935546875, -0.20751953125, 
368, 2930284008, 0.6698392033576965, -0.5513896346092224, -0.14609554409980774, -0.4753111004829407, 7.117450714111328, -6.080540657043457, 3.3704915046691895, 2.0625476837158203, 1.9825031757354736, -5.696836948394775, -0.706787109375, 0.53564453125, -0.20556640625, 
369, 2930292341, 0.669657289981842, -0.5512897968292236, -0.14614060521125793, -0.47566911578178406, 7.082087516784668, -6.083011627197266, 3.470154047012329, -1.3098351955413818, 2.8766963481903076, -5.103508472442627, -0.707275390625, 0.53271484375, -0.205322265625, 
370, 2930300674, 0.6693812608718872, -0.5513569116592407, -0.14607982337474823, -0.4759981036186218, 7.070944309234619, -6.0289306640625, 3.4148409366607666, -4.226092338562012, 2.3471734523773193, -4.327832221984863, -0.708740234375, 0.531982421875, -0.208251953125, 
371, 2930309007, 0.6690924167633057, -0.5515224933624268, -0.14607426524162292, -0.47621428966522217, 7.136707782745361, -5.9971818923950195, 3.323272943496704, -4.614071369171143, 0.31680968403816223, -3.5816128253936768, -0.708251953125, 0.531982421875, -0.206298828125, 
372, 2930317340, 0.6689015030860901, -0.5516387224197388, -0.1461126059293747, -0.47633612155914307, 7.206629753112793, -5.938436508178711, 3.350576162338257, -2.9666662216186523, -0.28511202335357666, -2.5178024768829346, -0.709716796875, 0.532470703125, -0.20751953125, 
373, 2930325673, 0.6687349677085876, -0.5516876578330994, -0.1460995078086853, -0.47651731967926025, 7.181998252868652, -5.836343288421631, 3.4605772495269775, -2.5882158279418945, 1.1304714679718018, -2.6329894065856934, -0.709228515625, 0.531982421875, -0.20849609375, 
374, 2930334006, 0.6686348915100098, -0.5515549778938293, -0.14605948328971863, -0.476823627948761, 7.085870742797852, -5.780500411987305, 3.430016279220581, -0.8732147812843323, 3.647505521774292, -3.524928092956543, -0.707275390625, 0.531494140625, -0.207763671875, 
375, 2930342339, 0.6686089038848877, -0.5513337254524231, -0.14620722830295563, -0.47707051038742065, 7.099578857421875, -5.7949538230896, 3.3181538581848145, 1.8817113637924194, 2.205475330352783, -4.079861164093018, -0.706298828125, 0.531982421875, -0.209716796875, 
376, 2930350672, 0.6686392426490784, -0.5510054230690002, -0.14641045033931732, -0.47734472155570984, 7.11051607131958, -5.88630485534668, 3.3311338424682617, 3.5764007568359375, 2.71348237991333, -4.611817359924316, -0.709716796875, 0.530029296875, -0.207763671875, 
377, 2930359005, 0.6685837507247925, -0.5507340431213379, -0.14660850167274475, -0.47767457365989685, 7.130351543426514, -6.045379161834717, 3.2957441806793213, 2.290745258331299, 2.6310558319091797, -5.514462947845459, -0.708251953125, 0.530517578125, -0.208740234375, 
378, 2930367338, 0.6684684157371521, -0.5505541563034058, -0.14684146642684937, -0.47797173261642456, 7.1647820472717285, -6.135252475738525, 3.315807342529297, 1.2572617530822754, 1.346450686454773, -5.705826759338379, -0.708251953125, 0.529541015625, -0.209228515625, 
379, 2930375671, 0.66844642162323, -0.5503065586090088, -0.14715740084648132, -0.4781903624534607, 7.18916130065918, -6.088293075561523, 3.272592306137085, 3.3303756713867188, 0.6171365976333618, -5.115418910980225, -0.709228515625, 0.529541015625, -0.208740234375, 
380, 2930384004, 0.6685228943824768, -0.549997866153717, -0.14756891131401062, -0.47831180691719055, 7.187754154205322, -5.990036964416504, 3.4463868141174316, 5.421009540557861, -0.39100131392478943, -4.441866874694824, -0.709716796875, 0.52783203125, -0.211669921875, 
381, 2930392337, 0.6685747504234314, -0.5496890544891357, -0.14788049459457397, -0.47849828004837036, 7.187436103820801, -5.925075054168701, 3.626997470855713, 4.482222080230713, 0.9682052731513977, -4.428829669952393, -0.708251953125, 0.529541015625, -0.207763671875, 
382, 2930400670, 0.6686092615127563, -0.5493800044059753, -0.14821496605873108, -0.4787014126777649, 7.1259989738464355, -5.8135175704956055, 3.538546323776245, 4.435860633850098, 0.8512250185012817, -4.886453628540039, -0.710693359375, 0.52734375, -0.210205078125, 
383, 2930409003, 0.6686170101165771, -0.5490612387657166, -0.14845018088817596, -0.47898322343826294, 7.111720085144043, -5.779877662658691, 3.6080663204193115, 3.5542690753936768, 2.359621524810791, -5.033145427703857, -0.709228515625, 0.52587890625, -0.20947265625, 
384, 2930417336, 0.6686060428619385, -0.5487247705459595, -0.14862482249736786, -0.47932982444763184, 7.115665912628174, -5.872030735015869, 3.40331768989563, 2.9984920024871826, 3.49338436126709, -5.353349208831787, -0.709716796875, 0.52392578125, -0.2119140625, 
385, 2930425669, 0.6685757637023926, -0.5484901666641235, -0.14893241226673126, -0.47954511642456055, 7.153656482696533, -5.992191791534424, 3.3163256645202637, 3.092419385910034, 0.5681109428405762, -5.051716327667236, -0.710693359375, 0.523193359375, -0.21435546875, 
386, 2930434002, 0.6685625314712524, -0.5482829213142395, -0.1493137925863266, -0.47968196868896484, 7.261317253112793, -5.9980854988098145, 3.4477109909057617, 3.586134195327759, -0.8473445773124695, -4.735124588012695, -0.711669921875, 0.524658203125, -0.21484375, 
387, 2930442335, 0.6684896349906921, -0.5480633974075317, -0.1495652198791504, -0.47995609045028687, 7.337242603302002, -5.979867935180664, 3.590386152267456, 2.1199238300323486, 1.3585150241851807, -5.430141448974609, -0.711669921875, 0.52392578125, -0.2099609375, 
388, 2930450668, 0.6684288382530212, -0.5478290319442749, -0.14991188049316406, -0.48020023107528687, 7.3376145362854, -5.891730785369873, 3.6281795501708984, 3.027256488800049, 0.36191630363464355, -5.829850196838379, -0.711669921875, 0.5234375, -0.2109375, 
389, 2930459001, 0.6684108376502991, -0.5474985241889954, -0.15017446875572205, -0.4805198907852173, 7.3025946617126465, -5.735774040222168, 3.7765417098999023, 3.6053192615509033, 2.3918702602386475, -5.765815734863281, -0.711669921875, 0.522216796875, -0.21435546875, 
390, 2930467334, 0.6683521866798401, -0.5470938086509705, -0.15033209323883057, -0.4810129702091217, 7.216955184936523, -5.5849809646606445, 3.679724931716919, 2.8458056449890137, 5.103445053100586, -7.030826091766357, -0.712646484375, 0.522216796875, -0.21240234375, 
391, 2930475667, 0.6681563854217529, -0.5468023419380188, -0.15044598281383514, -0.48158037662506104, 7.209461688995361, -5.635167598724365, 3.622539520263672, 0.35743391513824463, 5.040331840515137, -8.045612335205078, -0.712646484375, 0.521728515625, -0.2138671875, 
392, 2930484000, 0.6678048372268677, -0.5467488765716553, -0.15057218074798584, -0.4820890724658966, 7.213732719421387, -5.807161331176758, 3.439793348312378, -2.8258392810821533, 2.5800325870513916, -8.151269912719727, -0.71337890625, 0.519287109375, -0.2138671875, 
393, 2930492333, 0.6676250100135803, -0.5465725064277649, -0.150881826877594, -0.4824410676956177, 7.21673583984375, -5.93233060836792, 3.35725998878479, 1.1772431135177612, 0.8828843235969543, -7.1869964599609375, -0.71240234375, 0.518798828125, -0.214111328125, 
394, 2930500666, 0.6677043437957764, -0.5460281372070312, -0.15116004645824432, -0.4828605055809021, 7.242240905761719, -5.959263801574707, 3.447807788848877, 6.114284992218018, 4.662905693054199, -6.634317398071289, -0.712890625, 0.517578125, -0.215087890625, 
395, 2930508999, 0.6679760813713074, -0.5452110171318054, -0.15162086486816406, -0.4832633137702942, 7.140780448913574, -5.915649890899658, 3.4461636543273926, 11.337308883666992, 5.07747220993042, -7.128570556640625, -0.712890625, 0.51708984375, -0.218505859375, 
396, 2930517332, 0.6682942509651184, -0.5443759560585022, -0.15231159329414368, -0.48354727029800415, 7.115227222442627, -5.67587423324585, 3.5562195777893066, 13.598562240600586, 2.284623861312866, -7.5025129318237305, -0.71240234375, 0.51513671875, -0.217529296875, 
397, 2930525665, 0.6685183644294739, -0.5436025857925415, -0.1528148651123047, -0.48394885659217834, 7.224453926086426, -5.572336673736572, 3.7310588359832764, 10.915548324584961, 4.2475972175598145, -7.638962268829346, -0.71435546875, 0.511474609375, -0.21923828125, 
398, 2930533998, 0.6686343550682068, -0.5428934097290039, -0.1531771421432495, -0.48446983098983765, 7.354030609130859, -5.642911434173584, 3.595154285430908, 8.248080253601074, 5.816315650939941, -8.304777145385742, -0.71484375, 0.511474609375, -0.21728515625, 
399, 2930542331, 0.6686968207359314, -0.5422948002815247, -0.1534733772277832, -0.48496025800704956, 7.435892105102539, -5.619587421417236, 3.644742488861084, 6.6461896896362305, 5.232156276702881, -7.565011024475098, -0.7158203125, 0.511962890625, -0.219970703125, 
400, 2930550664, 0.66856849193573, -0.5419323444366455, -0.15349239110946655, -0.4855358898639679, 7.453774929046631, -5.633856296539307, 3.783294677734375, 0.832885205745697, 6.550929546356201, -7.144373416900635, -0.71337890625, 0.510986328125, -0.22216796875, 
401, 2930558997, 0.6683089137077332, -0.5417113304138184, -0.15344378352165222, -0.4861548840999603, 7.434352397918701, -5.617084980010986, 3.65565824508667, -2.0572328567504883, 6.345734596252441, -7.647642612457275, -0.71484375, 0.51025390625, -0.2255859375, 
402, 2930567330, 0.668056309223175, -0.5414917469024658, -0.15346956253051758, -0.4867382049560547, 7.402575969696045, -5.549627780914307, 3.5215964317321777, -1.3781996965408325, 5.331873416900635, -7.7937469482421875, -0.7158203125, 0.509765625, -0.2236328125, 
403, 2930575663, 0.6678365468978882, -0.5412006378173828, -0.1534930318593979, -0.48735570907592773, 7.389169692993164, -5.463470458984375, 3.487196683883667, -0.549681544303894, 6.1677680015563965, -8.013619422912598, -0.71484375, 0.51025390625, -0.2236328125, 
404, 2930583996, 0.6676218509674072, -0.5408241152763367, -0.15349644422531128, -0.4880661070346832, 7.331974983215332, -5.4930219650268555, 3.609607458114624, -0.07182232290506363, 7.614612579345703, -8.872873306274414, -0.716796875, 0.507080078125, -0.22509765625, 
405, 2930592329, 0.6673635840415955, -0.5404466390609741, -0.15349358320236206, -0.48883765935897827, 7.30570650100708, -5.530875205993652, 3.566164016723633, -0.44942742586135864, 7.988863468170166, -9.627700805664062, -0.71533203125, 0.508544921875, -0.22705078125, 
406, 2930600662, 0.6671736240386963, -0.5400587916374207, -0.15362834930419922, -0.48948317766189575, 7.259824275970459, -5.532468795776367, 3.495595932006836, 1.2348753213882446, 6.055320739746094, -9.110651969909668, -0.71484375, 0.508544921875, -0.22900390625, 
407, 2930608995, 0.6669348478317261, -0.5397019386291504, -0.15360760688781738, -0.49020785093307495, 7.319442272186279, -5.621842384338379, 3.6017496585845947, -0.4723009765148163, 7.674166679382324, -8.870747566223145, -0.716064453125, 0.504150390625, -0.225830078125, 
408, 2930617328, 0.6666529774665833, -0.5394331812858582, -0.1537122130393982, -0.4908539652824402, 7.386045455932617, -5.667101860046387, 3.5201046466827393, -0.7423262596130371, 5.339787483215332, -9.25924015045166, -0.716552734375, 0.503662109375, -0.226806640625, 
409, 2930625661, 0.666373610496521, -0.5392096042633057, -0.15382738411426544, -0.4914425015449524, 7.4553608894348145, -5.532013416290283, 3.7029290199279785, -0.8837166428565979, 4.498922348022461, -8.666243553161621, -0.715087890625, 0.500732421875, -0.2275390625, 
410, 2930633994, 0.6659881472587585, -0.5389963388442993, -0.15366464853286743, -0.49224942922592163, 7.512509346008301, -5.522453308105469, 3.7208170890808105, -4.165771484375, 8.38703727722168, -9.33326530456543, -0.717529296875, 0.501953125, -0.230712890625, 
411, 2930642327, 0.6655595898628235, -0.5388539433479309, -0.15361005067825317, -0.4930013418197632, 7.391085624694824, -5.54202127456665, 3.6016862392425537, -4.375065326690674, 6.503390312194824, -9.81056022644043, -0.716552734375, 0.5, -0.230224609375, 
412, 2930650660, 0.6651268601417542, -0.5387601852416992, -0.15361647307872772, -0.4936854839324951, 7.357961654663086, -5.585300445556641, 3.6623499393463135, -4.205883026123047, 5.021171569824219, -9.5313138961792, -0.716552734375, 0.50048828125, -0.228271484375, 
413, 2930658993, 0.6647340059280396, -0.5386896729469299, -0.15361347794532776, -0.4942917823791504, 7.314449310302734, -5.622395992279053, 3.693213939666748, -3.9750733375549316, 4.446541786193848, -8.402956008911133, -0.717041015625, 0.4990234375, -0.2314453125, 
414, 2930667326, 0.6644538044929504, -0.5385193228721619, -0.1535959541797638, -0.49485939741134644, 7.34039831161499, -5.662429332733154, 3.6981019973754883, -2.291398525238037, 5.217402935028076, -7.411607265472412, -0.716064453125, 0.498046875, -0.232421875, 
415, 2930675659, 0.6642583012580872, -0.5382635593414307, -0.15358905494213104, -0.49540209770202637, 7.3827433586120605, -5.663336277008057, 3.688777446746826, -0.6528812646865845, 5.647900581359863, -6.814615726470947, -0.718017578125, 0.497802734375, -0.2333984375, 
416, 2930683992, 0.6640360355377197, -0.5379862189292908, -0.15343081951141357, -0.49605005979537964, 7.338860034942627, -5.663244247436523, 3.6908764839172363, -2.0127155780792236, 7.950621128082275, -6.9358744621276855, -0.718505859375, 0.496337890625, -0.23193359375, 
417, 2930692325, 0.6638408303260803, -0.5377343893051147, -0.153386190533638, -0.4965977668762207, 7.238045692443848, -5.533257961273193, 3.5719799995422363, -1.070931315422058, 6.081832408905029, -6.625174045562744, -0.719970703125, 0.498779296875, -0.234130859375, 
418, 2930700658, 0.6636918783187866, -0.5374650359153748, -0.15337273478507996, -0.4970923066139221, 7.24465274810791, -5.4468560218811035, 3.6111090183258057, -0.23237232863903046, 5.594058990478516, -6.089476585388184, -0.718994140625, 0.496337890625, -0.23486328125, 
419, 2930708991, 0.6635298132896423, -0.5371748208999634, -0.15330737829208374, -0.4976423978805542, 7.297370910644531, -5.400323867797852, 3.550072193145752, -0.5343130230903625, 6.562047958374023, -6.3073015213012695, -0.718505859375, 0.494873046875, -0.234375, 
420, 2930717324, 0.6632883548736572, -0.5369480848312378, -0.15323388576507568, -0.49823111295700073, 7.297588348388672, -5.424103260040283, 3.573058605194092, -1.9144591093063354, 6.349730491638184, -7.048166275024414, -0.716552734375, 0.494384765625, -0.2353515625, 
421, 2930725657, 0.6629826426506042, -0.5368271470069885, -0.1531323790550232, -0.49879899621009827, 7.3526387214660645, -5.427359580993652, 3.6380362510681152, -3.4917588233947754, 5.6072773933410645, -6.860159397125244, -0.720458984375, 0.49365234375, -0.236328125, 
422, 2930733990, 0.6626681089401245, -0.5367468595504761, -0.1529918909072876, -0.49934637546539307, 7.388251304626465, -5.485440731048584, 3.6999309062957764, -4.159701347351074, 5.498313903808594, -6.368211269378662, -0.718017578125, 0.4931640625, -0.236572265625, 
423, 2930742323, 0.6623828411102295, -0.536638617515564, -0.15280553698539734, -0.4998977780342102, 7.475956916809082, -5.700870990753174, 3.649604082107544, -4.023766040802002, 6.226346969604492, -5.925239086151123, -0.720458984375, 0.4951171875, -0.23583984375, 
424, 2930750656, 0.662049412727356, -0.536664605140686, -0.1526140570640564, -0.5003699064254761, 7.464574813842773, -5.843247413635254, 3.732357978820801, -5.459904670715332, 4.637187957763672, -5.214341163635254, -0.718017578125, 0.491943359375, -0.240478515625, 
425, 2930758989, 0.6616213321685791, -0.5368729829788208, -0.15230610966682434, -0.5008059740066528, 7.428185939788818, -5.907463073730469, 3.7692575454711914, -8.450213432312012, 3.936203956604004, -4.2458415031433105, -0.719482421875, 0.49072265625, -0.236083984375, 
426, 2930767322, 0.6612790822982788, -0.5370596647262573, -0.15213166177272797, -0.5011111497879028, 7.3274827003479, -5.822264671325684, 3.8069660663604736, -6.522435665130615, 2.125559091567993, -3.543525218963623, -0.718505859375, 0.490966796875, -0.239990234375, 
427, 2930775655, 0.6610197424888611, -0.5371237993240356, -0.151974156498909, -0.5014321804046631, 7.306767463684082, -5.7240309715271, 3.7467782497406006, -4.722163677215576, 3.1390886306762695, -3.5005180835723877, -0.719482421875, 0.4921875, -0.238525390625, 
428, 2930783988, 0.6608508825302124, -0.5371156930923462, -0.15193724632263184, -0.5016747713088989, 7.250975608825684, -5.5626044273376465, 3.678335428237915, -2.390730381011963, 2.1178746223449707, -3.2030088901519775, -0.720458984375, 0.489501953125, -0.239013671875, 
429, 2930792321, 0.6607440710067749, -0.5370506644248962, -0.1520238220691681, -0.5018584728240967, 7.16127347946167, -5.475558280944824, 3.6144392490386963, -0.38452091813087463, 1.0711488723754883, -3.24096941947937, -0.71923828125, 0.490478515625, -0.240478515625, 
430, 2930800654, 0.6607034802436829, -0.5368895530700684, -0.15222960710525513, -0.5020220279693604, 7.110940456390381, -5.461417198181152, 3.6440253257751465, 1.788040041923523, 0.652228057384491, -3.7118611335754395, -0.719970703125, 0.4921875, -0.238525390625, 
431, 2930808987, 0.6606764793395996, -0.5366549491882324, -0.15246322751045227, -0.5022373199462891, 7.1749773025512695, -5.424520015716553, 3.7004549503326416, 2.6343343257904053, 1.3427878618240356, -4.4461188316345215, -0.7197265625, 0.48876953125, -0.236083984375, 
432, 2930817320, 0.6606200337409973, -0.5363754034042358, -0.15259629487991333, -0.5025697946548462, 7.266279220581055, -5.523146152496338, 3.7315425872802734, 1.891752004623413, 3.3443353176116943, -5.067366600036621, -0.71923828125, 0.487548828125, -0.239013671875, 
433, 2930825653, 0.6605679392814636, -0.5361336469650269, -0.15284419059753418, -0.5028209090232849, 7.320097923278809, -5.65017032623291, 3.665710926055908, 2.5249874591827393, 1.4853054285049438, -5.072003364562988, -0.7197265625, 0.489501953125, -0.241455078125, 
434, 2930833986, 0.6605780124664307, -0.53583824634552, -0.15304036438465118, -0.5030626654624939, 7.4450578689575195, -5.684092998504639, 3.7965307235717773, 3.151434898376465, 2.3510663509368896, -4.282546520233154, -0.71923828125, 0.488525390625, -0.239990234375, 
435, 2930842319, 0.6605671644210815, -0.5355311036109924, -0.15299740433692932, -0.5034168362617493, 7.503205299377441, -5.743352890014648, 3.7686636447906494, 1.0961227416992188, 5.490116596221924, -3.763422727584839, -0.72021484375, 0.487060546875, -0.239990234375, 
436, 2930850652, 0.6605311632156372, -0.5353370904922485, -0.15289649367332458, -0.5037010312080383, 7.336680889129639, -5.629136562347412, 3.774061918258667, -0.25381141901016235, 4.564444065093994, -2.58493709564209, -0.720703125, 0.487548828125, -0.241455078125, 
437, 2930858985, 0.6604931354522705, -0.535222053527832, -0.1527857482433319, -0.5039068460464478, 7.209439754486084, -5.38542366027832, 3.821455717086792, -0.8738294839859009, 3.539745807647705, -1.6390035152435303, -0.7197265625, 0.4873046875, -0.242919921875, 
438, 2930867318, 0.6604412794113159, -0.535160481929779, -0.1526986062526703, -0.5040664672851562, 7.229740619659424, -5.206753730773926, 3.7746071815490723, -1.2173165082931519, 2.571272373199463, -1.3857814073562622, -0.71875, 0.486083984375, -0.24169921875, 
439, 2930875651, 0.6603377461433411, -0.5351289510726929, -0.15261654555797577, -0.5042604804039001, 7.338394641876221, -5.159086227416992, 3.735003709793091, -1.876345157623291, 2.464153528213501, -2.0149693489074707, -0.7216796875, 0.486328125, -0.242919921875, 
440, 2930883984, 0.660169243812561, -0.5351187586784363, -0.15254148840904236, -0.504514753818512, 7.399683475494385, -5.193179607391357, 3.6990103721618652, -2.6564269065856934, 2.5575687885284424, -3.0348002910614014, -0.72119140625, 0.48388671875, -0.2421875, 
441, 2930892317, 0.6599884033203125, -0.5350978970527649, -0.15250185132026672, -0.5047854781150818, 7.449235439300537, -5.294946670532227, 3.6897873878479004, -2.493981122970581, 2.4647939205169678, -3.5767459869384766, -0.72021484375, 0.48583984375, -0.2431640625, 
442, 2930900650, 0.6597161293029785, -0.535143256187439, -0.1524176448583603, -0.5051186084747314, 7.5080695152282715, -5.525040149688721, 3.6646831035614014, -4.152272701263428, 2.6164300441741943, -4.287592887878418, -0.72119140625, 0.48388671875, -0.2431640625, 
443, 2930908983, 0.6594564318656921, -0.5351688265800476, -0.15239126980304718, -0.5054384469985962, 7.465583324432373, -5.576948642730713, 3.7248642444610596, -3.430386781692505, 2.1670796871185303, -4.5324907302856445, -0.720703125, 0.484619140625, -0.2412109375, 
444, 2930917316, 0.6592849493026733, -0.5350921750068665, -0.15239116549491882, -0.5057430267333984, 7.440089702606201, -5.514746189117432, 3.7633554935455322, -1.6604682207107544, 2.704773187637329, -4.203269958496094, -0.720703125, 0.484375, -0.24267578125, 
445, 2930925649, 0.6591935157775879, -0.5348888635635376, -0.15237368643283844, -0.5060824155807495, 7.4196248054504395, -5.504427909851074, 3.7911906242370605, -0.09443968534469604, 4.173314571380615, -4.086034297943115, -0.7216796875, 0.487060546875, -0.241943359375, 
446, 2930933982, 0.6591715812683105, -0.5346363186836243, -0.15241456031799316, -0.5063654780387878, 7.365133762359619, -5.479318141937256, 3.734739065170288, 1.3635610342025757, 3.7120025157928467, -3.6367602348327637, -0.72119140625, 0.48291015625, -0.24560546875, 
