sep=,
PacketCounter,SampleTimeFine,Quat_W,Quat_X,Quat_Y,Quat_Z,Acc_X,Acc_Y,Acc_Z,Gyr_X,Gyr_Y,Gyr_Z,Mag_X,Mag_Y,Mag_Z,
0, 3185423802, 0.5338049530982971, -0.431743860244751, -0.41902512311935425, -0.594177782535553, 0, 0, 0, 0, 0, 0, -0.6484375, -0.010498046875, -0.0849609375, 
1, 3185432135, 0.5338860154151917, -0.43174710869789124, -0.41900187730789185, -0.5941188931465149, 9.447081565856934, 0.3649952709674835, 2.7267425060272217, 0.3459970951080322, 0.5519099235534668, 1.236885666847229, -0.64599609375, -0.010498046875, -0.0849609375, 
2, 3185440468, 0.5339781641960144, -0.4317421317100525, -0.4189853072166443, -0.5940513014793396, 9.440044403076172, 0.31868767738342285, 2.7083022594451904, 0.38338106870651245, 0.5818657279014587, 1.2314684391021729, -0.65087890625, -0.01025390625, -0.0888671875, 
3, 3185448801, 0.5340849161148071, -0.43173980712890625, -0.4189838171005249, -0.5939580798149109, 9.450542449951172, 0.35678207874298096, 2.681705951690674, 0.9063724875450134, 0.38158804178237915, 1.5332553386688232, -0.64794921875, -0.009521484375, -0.0859375, 
4, 3185457134, 0.5342180132865906, -0.43171393871307373, -0.41899386048316956, -0.5938501954078674, 9.503251075744629, 0.37702175974845886, 2.6349692344665527, 1.2275493144989014, 0.5529472827911377, 1.5819991827011108, -0.64599609375, -0.010009765625, -0.08642578125, 
5, 3185465467, 0.5343241095542908, -0.4317074418067932, -0.41900861263275146, -0.593748927116394, 9.533954620361328, 0.3892660140991211, 2.6615095138549805, 0.9455749988555908, 0.23926256597042084, 1.4163390398025513, -0.6474609375, -0.008544921875, -0.0849609375, 
6, 3185473800, 0.5343970060348511, -0.43173083662986755, -0.4190128445625305, -0.5936633348464966, 9.58896541595459, 0.3831634819507599, 2.671851396560669, 0.3337150514125824, -0.021311044692993164, 1.246119737625122, -0.646484375, -0.010009765625, -0.083984375, 
7, 3185482133, 0.5344708561897278, -0.4317462742328644, -0.4190291464328766, -0.5935741066932678, 9.610702514648438, 0.3789290189743042, 2.6909067630767822, 0.1509959101676941, -0.07726532965898514, 1.063272476196289, -0.64697265625, -0.010986328125, -0.0859375, 
8, 3185490466, 0.5345157384872437, -0.4317684769630432, -0.4190387725830078, -0.5935108065605164, 9.585546493530273, 0.37287771701812744, 2.7280800342559814, 0.08953456580638885, -0.0805823877453804, 0.8143917322158813, -0.6474609375, -0.007080078125, -0.0849609375, 
9, 3185498799, 0.5345167517662048, -0.43181395530700684, -0.4190264940261841, -0.593485414981842, 9.541605949401855, 0.38999444246292114, 2.748444080352783, -0.44292134046554565, -0.1314266324043274, 0.5444945693016052, -0.6494140625, -0.007568359375, -0.085693359375, 
10, 3185507132, 0.5344832539558411, -0.4318883419036865, -0.41898801922798157, -0.5934886932373047, 9.521256446838379, 0.3951587975025177, 2.7626283168792725, -1.5348306894302368, -0.2079363465309143, 0.27201035618782043, -0.6474609375, -0.009521484375, -0.08544921875, 
11, 3185515465, 0.5344224572181702, -0.43196943402290344, -0.41892361640930176, -0.5935298800468445, 9.483168601989746, 0.38292622566223145, 2.7664198875427246, -2.1731626987457275, -0.009374809451401234, -0.023898079991340637, -0.64892578125, -0.008056640625, -0.083984375, 
12, 3185523798, 0.5343671441078186, -0.43203306198120117, -0.4188450872898102, -0.5935888290405273, 9.41646671295166, 0.3424053192138672, 2.763150930404663, -2.232741594314575, 0.37782275676727295, -0.13852177560329437, -0.64892578125, -0.006591796875, -0.085205078125, 
13, 3185532131, 0.5343257784843445, -0.43207651376724243, -0.41877317428588867, -0.5936452150344849, 9.417492866516113, 0.3177492022514343, 2.748417377471924, -1.9085038900375366, 0.5550860166549683, -0.14301708340644836, -0.6474609375, -0.009033203125, -0.0849609375, 
14, 3185540464, 0.5343049168586731, -0.4321104884147644, -0.4187285006046295, -0.5936707854270935, 9.46407699584961, 0.3114776909351349, 2.719324827194214, -1.3407002687454224, 0.3715985119342804, 0.0153045067563653, -0.64599609375, -0.008056640625, -0.0869140625, 
15, 3185548797, 0.5343118906021118, -0.43213412165641785, -0.4187176525592804, -0.5936548113822937, 9.529475212097168, 0.32619836926460266, 2.685964345932007, -0.61325603723526, 0.11560985445976257, 0.2906319200992584, -0.6484375, -0.008056640625, -0.083984375, 
16, 3185557130, 0.5343617796897888, -0.43212175369262695, -0.41872504353523254, -0.5936136841773987, 9.585861206054688, 0.354552298784256, 2.652360200881958, 0.2292986363172531, 0.3785783350467682, 0.5054200291633606, -0.6484375, -0.008056640625, -0.08447265625, 
17, 3185565463, 0.5344257950782776, -0.4320850074291229, -0.4187341332435608, -0.5935763120651245, 9.628527641296387, 0.3707321584224701, 2.6426825523376465, 0.5338006615638733, 0.6658932566642761, 0.4721727967262268, -0.6474609375, -0.007080078125, -0.08740234375, 
18, 3185573796, 0.5344836711883545, -0.4320623278617859, -0.41873493790626526, -0.5935402512550354, 9.587397575378418, 0.3943580090999603, 2.6480324268341064, 0.2689238488674164, 0.5863610506057739, 0.5143081545829773, -0.6484375, -0.007080078125, -0.086669921875, 
19, 3185582129, 0.534538209438324, -0.43205633759498596, -0.4187336564064026, -0.593496561050415, 9.586282730102539, 0.420901894569397, 2.6561152935028076, -0.12814801931381226, 0.3887600302696228, 0.578126072883606, -0.64892578125, -0.00732421875, -0.087890625, 
20, 3185590462, 0.534546434879303, -0.432076632976532, -0.4186822772026062, -0.5935104489326477, 9.590066909790039, 0.42357704043388367, 2.6357295513153076, -1.0548453330993652, 0.6315061450004578, 0.29839301109313965, -0.6494140625, -0.0087890625, -0.08740234375, 
21, 3185598795, 0.534515917301178, -0.4321139454841614, -0.41858547925949097, -0.5935789346694946, 9.52843952178955, 0.41233742237091064, 2.6503312587738037, -2.0057737827301025, 0.9267613887786865, -0.009246737696230412, -0.6484375, -0.00634765625, -0.088623046875, 
22, 3185607128, 0.5344221591949463, -0.4322047531604767, -0.41846945881843567, -0.5936791896820068, 9.441043853759766, 0.45158466696739197, 2.6921305656433105, -3.205775260925293, 0.4566890299320221, -0.3793468177318573, -0.6484375, -0.009033203125, -0.08642578125, 
23, 3185615461, 0.5342540144920349, -0.4323838949203491, -0.4183327853679657, -0.5937963128089905, 9.4042329788208, 0.48667171597480774, 2.7273311614990234, -4.588508605957031, -0.4441252648830414, -0.4730437099933624, -0.6474609375, -0.007080078125, -0.08642578125, 
24, 3185623794, 0.5340046882629395, -0.4326564371585846, -0.41814059019088745, -0.5939575433731079, 9.395861625671387, 0.5040485858917236, 2.7545902729034424, -6.438599109649658, -0.9997236728668213, -0.5983484983444214, -0.64599609375, -0.007568359375, -0.08740234375, 
25, 3185632127, 0.5336835980415344, -0.43296945095062256, -0.41788041591644287, -0.5942009687423706, 9.443938255310059, 0.4700726270675659, 2.7722058296203613, -7.991821765899658, -0.7520083785057068, -1.0761566162109375, -0.64697265625, -0.007568359375, -0.08544921875, 
26, 3185640460, 0.5333338975906372, -0.433290958404541, -0.41758471727371216, -0.5944885015487671, 9.508341789245605, 0.4086119830608368, 2.8162317276000977, -8.967288970947266, -0.46648651361465454, -1.4494072198867798, -0.64892578125, -0.008056640625, -0.0869140625, 
27, 3185648793, 0.5329975485801697, -0.4335854649543762, -0.41725432872772217, -0.5948075652122498, 9.595039367675781, 0.3418203890323639, 2.7945327758789062, -9.125174522399902, 0.27037107944488525, -1.4955384731292725, -0.64794921875, -0.008544921875, -0.0869140625, 
28, 3185657126, 0.5327290296554565, -0.4338188171386719, -0.4169006645679474, -0.5951256155967712, 9.647401809692383, 0.2569093406200409, 2.766132116317749, -8.485201835632324, 1.3295453786849976, -1.1679325103759766, -0.64697265625, -0.009033203125, -0.08740234375, 
29, 3185665459, 0.5325326323509216, -0.43400803208351135, -0.41654694080352783, -0.5954111814498901, 9.597914695739746, 0.18586194515228271, 2.764277458190918, -7.609092712402344, 1.9038422107696533, -0.5984766483306885, -0.6484375, -0.0087890625, -0.08740234375, 
30, 3185673792, 0.5323954820632935, -0.4341573119163513, -0.4162695109844208, -0.5956189632415771, 9.541486740112305, 0.13890446722507477, 2.7538411617279053, -5.828070640563965, 1.5527862310409546, -0.22085873782634735, -0.6494140625, -0.0087890625, -0.087890625, 
31, 3185682125, 0.5323311686515808, -0.43424591422080994, -0.4160720109939575, -0.5957497358322144, 9.505805015563965, 0.15807804465293884, 2.7718708515167236, -3.8914811611175537, 1.418311357498169, 0.11569949984550476, -0.64794921875, -0.00927734375, -0.087890625, 
32, 3185690458, 0.5323169827461243, -0.4342847764492035, -0.4159703254699707, -0.5958052277565002, 9.43897819519043, 0.18133346736431122, 2.7759757041931152, -1.9748574495315552, 0.9638251662254333, 0.21919380128383636, -0.6494140625, -0.00927734375, -0.087890625, 
33, 3185698791, 0.5323328375816345, -0.43430691957473755, -0.4159368574619293, -0.5957980155944824, 9.406546592712402, 0.25384724140167236, 2.783414363861084, -0.7494468688964844, 0.3977506160736084, 0.436658650636673, -0.6474609375, -0.0087890625, -0.08984375, 
34, 3185707124, 0.5323540568351746, -0.4343130588531494, -0.4159511923789978, -0.595764696598053, 9.379731178283691, 0.31978216767311096, 2.7700817584991455, -0.06516261398792267, 0.05411006882786751, 0.27923357486724854, -0.6474609375, -0.009033203125, -0.08740234375, 
35, 3185715457, 0.5323594212532043, -0.43431514501571655, -0.41595861315727234, -0.5957531332969666, 9.469862937927246, 0.3581571578979492, 2.8031704425811768, -0.22274138033390045, 0.17723768949508667, 0.04770651087164879, -0.64990234375, -0.00732421875, -0.087646484375, 
36, 3185723790, 0.5323383212089539, -0.43431368470191956, -0.4159356951713562, -0.5957890152931213, 9.5364351272583, 0.35498130321502686, 2.824364423751831, -0.964631974697113, 0.5622707605361938, -0.3955349922180176, -0.64990234375, -0.0078125, -0.087158203125, 
37, 3185732123, 0.5323135256767273, -0.4342920780181885, -0.4158592224121094, -0.5958802700042725, 9.615558624267578, 0.3306615948677063, 2.8206946849823, -1.6189732551574707, 1.425214409828186, -0.6211708188056946, -0.6474609375, -0.008056640625, -0.0869140625, 
38, 3185740456, 0.5323021411895752, -0.4342515468597412, -0.41575202345848083, -0.5959948301315308, 9.621835708618164, 0.29290902614593506, 2.8190956115722656, -1.7592495679855347, 2.024190664291382, -0.6117319464683533, -0.64697265625, -0.007080078125, -0.08642578125, 
39, 3185748789, 0.5322890281677246, -0.4342211186885834, -0.41564956307411194, -0.5961002707481384, 9.586584091186523, 0.2943108379840851, 2.8227362632751465, -1.6989411115646362, 1.840293049812317, -0.5002204179763794, -0.64990234375, -0.009765625, -0.08837890625, 
40, 3185757122, 0.5322699546813965, -0.43419772386550903, -0.41556763648986816, -0.5961914658546448, 9.552650451660156, 0.27352073788642883, 2.801942825317383, -1.590720772743225, 1.516426682472229, -0.5558032393455505, -0.650390625, -0.00732421875, -0.090087890625, 
41, 3185765455, 0.532234787940979, -0.4341713488101959, -0.41550639271736145, -0.5962848663330078, 9.505770683288574, 0.2555886209011078, 2.8052141666412354, -1.468079924583435, 1.3073890209197998, -0.820219099521637, -0.64697265625, -0.00732421875, -0.08935546875, 
42, 3185773788, 0.532188892364502, -0.4341467320919037, -0.4154766798019409, -0.5963643789291382, 9.44129753112793, 0.2374008148908615, 2.7715728282928467, -1.2471569776535034, 0.920998215675354, -1.009790062904358, -0.64990234375, -0.00927734375, -0.087890625, 
43, 3185782121, 0.5321676731109619, -0.43409115076065063, -0.4155080318450928, -0.5964016914367676, 9.417818069458008, 0.21430611610412598, 2.750969171524048, -0.15757876634597778, 0.6108866930007935, -1.0374277830123901, -0.64990234375, -0.0087890625, -0.08740234375, 
44, 3185790454, 0.5321393013000488, -0.4340411424636841, -0.41562148928642273, -0.5963844656944275, 9.428842544555664, 0.23989933729171753, 2.722537040710449, 0.7693876028060913, -0.3952789008617401, -1.1573536396026611, -0.6474609375, -0.00830078125, -0.087890625, 
45, 3185798787, 0.5321292281150818, -0.4339621663093567, -0.4157826006412506, -0.5963386297225952, 9.47712230682373, 0.26389041543006897, 2.740661382675171, 1.648186445236206, -0.5788817405700684, -1.2361172437667847, -0.64697265625, -0.00732421875, -0.08935546875, 
46, 3185807120, 0.5321300029754639, -0.4338410496711731, -0.4159865379333496, -0.5962837338447571, 9.514263153076172, 0.2882745563983917, 2.7548022270202637, 2.420416831970215, -0.5318668484687805, -1.5902469158172607, -0.64697265625, -0.009765625, -0.08837890625, 
47, 3185815453, 0.5321622490882874, -0.43367302417755127, -0.41620808839797974, -0.5962226986885071, 9.546841621398926, 0.36361703276634216, 2.785583972930908, 2.892167329788208, -0.14725622534751892, -1.7229416370391846, -0.646484375, -0.0087890625, -0.08935546875, 
48, 3185823786, 0.5321979522705078, -0.43351441621780396, -0.41642865538597107, -0.5961523652076721, 9.58958625793457, 0.3982143998146057, 2.7978675365448, 3.1304311752319336, -0.2393394410610199, -1.503273844718933, -0.6484375, -0.00927734375, -0.087890625, 
49, 3185832119, 0.5322266817092896, -0.4333721995353699, -0.41662096977233887, -0.5960957407951355, 9.637126922607422, 0.4256052076816559, 2.7959952354431152, 2.66633939743042, -0.129031702876091, -1.3844367265701294, -0.646484375, -0.0087890625, -0.08837890625, 
50, 3185840452, 0.5322638750076294, -0.4332188665866852, -0.41676974296569824, -0.5960698127746582, 9.57973861694336, 0.4371829330921173, 2.761937379837036, 2.255922794342041, 0.5148974061012268, -1.3594883680343628, -0.6494140625, -0.00927734375, -0.087890625, 
51, 3185848785, 0.5323163270950317, -0.4330488443374634, -0.4168827533721924, -0.596067488193512, 9.54367733001709, 0.443807452917099, 2.7306740283966064, 2.058936357498169, 1.1375666856765747, -1.2717467546463013, -0.64697265625, -0.01171875, -0.09033203125, 
52, 3185857118, 0.5323650240898132, -0.4328679144382477, -0.416988343000412, -0.596081554889679, 9.447576522827148, 0.4352247714996338, 2.6987016201019287, 1.9445687532424927, 1.3621009588241577, -1.457680583000183, -0.646484375, -0.009765625, -0.0888671875, 
53, 3185865451, 0.5323904156684875, -0.43272799253463745, -0.41710174083709717, -0.5960810780525208, 9.39345645904541, 0.4387059211730957, 2.7392396926879883, 1.5596121549606323, 0.7421084046363831, -1.3692344427108765, -0.64794921875, -0.009765625, -0.08837890625, 
54, 3185873784, 0.5323766469955444, -0.43265366554260254, -0.4172082543373108, -0.5960728526115417, 9.374066352844238, 0.45145881175994873, 2.764394760131836, 0.9260697960853577, -0.010117622092366219, -1.2020503282546997, -0.6474609375, -0.01025390625, -0.0888671875, 
55, 3185882117, 0.532305121421814, -0.4326217770576477, -0.41728001832962036, -0.5961095690727234, 9.431838989257812, 0.44970637559890747, 2.7564339637756348, -0.13786861300468445, -0.16740183532238007, -1.4994957447052002, -0.646484375, -0.0087890625, -0.08984375, 
56, 3185890450, 0.5322132706642151, -0.43259283900260925, -0.4173215925693512, -0.5961835384368896, 9.494484901428223, 0.4551958441734314, 2.7356975078582764, -0.8746107816696167, 0.13516631722450256, -1.7975941896438599, -0.6455078125, -0.010009765625, -0.08740234375, 
57, 3185898783, 0.5321208238601685, -0.43256640434265137, -0.4173397719860077, -0.5962724685668945, 9.541841506958008, 0.42692819237709045, 2.712474822998047, -1.0939199924468994, 0.3695365786552429, -1.7197011709213257, -0.64697265625, -0.010009765625, -0.08642578125, 
58, 3185907116, 0.5320466756820679, -0.43253013491630554, -0.4173566997051239, -0.5963531732559204, 9.558795928955078, 0.39374998211860657, 2.6999526023864746, -0.9544633626937866, 0.5157298445701599, -1.596279263496399, -0.645751953125, -0.01123046875, -0.090087890625, 
59, 3185915449, 0.5319563746452332, -0.43251341581344604, -0.41736528277397156, -0.596439778804779, 9.602897644042969, 0.39016592502593994, 2.6915435791015625, -0.6900218725204468, 0.3758504390716553, -1.410499095916748, -0.647216796875, -0.01220703125, -0.089111328125, 
60, 3185923782, 0.5319036841392517, -0.4325047433376312, -0.4173852801322937, -0.5964792370796204, 9.6066312789917, 0.3908526301383972, 2.691879987716675, -0.7688881158828735, 0.14539919793605804, -0.9783101081848145, -0.64697265625, -0.01025390625, -0.0888671875, 
61, 3185932115, 0.5318566560745239, -0.4324910044670105, -0.41738951206207275, -0.5965279340744019, 9.574573516845703, 0.42746105790138245, 2.7138028144836426, -0.8263792395591736, 0.3887728750705719, -0.903887927532196, -0.648193359375, -0.01318359375, -0.090087890625, 
62, 3185940448, 0.5318227410316467, -0.43245652318000793, -0.41736355423927307, -0.5966013669967651, 9.527111053466797, 0.4729199707508087, 2.708648443222046, -1.0410264730453491, 1.002413034439087, -0.9500447511672974, -0.645751953125, -0.01171875, -0.089599609375, 
63, 3185948781, 0.5317755341529846, -0.4324339032173157, -0.4173307418823242, -0.5966827869415283, 9.460287094116211, 0.4826778769493103, 2.7483677864074707, -1.427686333656311, 0.9189234972000122, -1.029999852180481, -0.64794921875, -0.01171875, -0.08935546875, 
64, 3185957114, 0.5317052006721497, -0.43245524168014526, -0.4172873795032501, -0.5967603921890259, 9.412031173706055, 0.47505152225494385, 2.7609009742736816, -1.8312383890151978, 0.4882713258266449, -0.8526466488838196, -0.6484375, -0.01171875, -0.08837890625, 
65, 3185965447, 0.5316078662872314, -0.4325215220451355, -0.417227566242218, -0.5968407988548279, 9.386429786682129, 0.49643054604530334, 2.7969040870666504, -2.5200822353363037, 0.09686023741960526, -0.7412760257720947, -0.646240234375, -0.01171875, -0.087646484375, 
66, 3185973780, 0.5315051674842834, -0.43259167671203613, -0.4171309173107147, -0.59694904088974, 9.43227767944336, 0.44012564420700073, 2.8165476322174072, -2.99302339553833, 0.47438845038414, -0.7454766631126404, -0.647216796875, -0.011962890625, -0.092529296875, 
67, 3185982113, 0.5314148664474487, -0.4326266050338745, -0.4170054495334625, -0.5970917344093323, 9.4724702835083, 0.4112318754196167, 2.825659990310669, -3.235513687133789, 1.2418678998947144, -0.9542584419250488, -0.646240234375, -0.01171875, -0.090087890625, 
68, 3185990446, 0.5313167572021484, -0.43266651034355164, -0.4168335795402527, -0.5972700715065002, 9.530879020690918, 0.3629618287086487, 2.8466176986694336, -3.76455020904541, 1.7153726816177368, -0.9453189969062805, -0.647216796875, -0.013671875, -0.090576171875, 
69, 3185998779, 0.5312173962593079, -0.432718962430954, -0.4166615903377533, -0.5974403023719788, 9.565711975097656, 0.3169962763786316, 2.830583333969116, -4.045077323913574, 1.5460113286972046, -0.8814883232116699, -0.646484375, -0.01123046875, -0.0908203125, 
70, 3186007112, 0.5311039686203003, -0.43280619382858276, -0.4164928197860718, -0.5975956916809082, 9.549479484558105, 0.28017324209213257, 2.867443561553955, -4.044167995452881, 1.0801780223846436, -0.6509217619895935, -0.646728515625, -0.012451171875, -0.093017578125, 
71, 3186015445, 0.5310523509979248, -0.43284791707992554, -0.4163771867752075, -0.5976921319961548, 9.53714370727539, 0.254965215921402, 2.8459339141845703, -3.706674098968506, 1.026464819908142, -0.6268956065177917, -0.645751953125, -0.0126953125, -0.091064453125, 
72, 3186023778, 0.5309672355651855, -0.43288445472717285, -0.41625285148620605, -0.5978277921676636, 9.511190414428711, 0.2742656469345093, 2.8470776081085205, -3.028012752532959, 1.216842770576477, -0.829286515712738, -0.646240234375, -0.01171875, -0.091064453125, 
73, 3186032111, 0.5308952927589417, -0.43288445472717285, -0.41617345809936523, -0.5979470014572144, 9.466206550598145, 0.25125744938850403, 2.8397905826568604, -2.1350104808807373, 1.1639108657836914, -1.0394128561019897, -0.647705078125, -0.013671875, -0.090087890625, 
74, 3186040444, 0.5308340191841125, -0.43287569284439087, -0.41616159677505493, -0.5980160236358643, 9.415467262268066, 0.2636415958404541, 2.8034589290618896, -1.251076102256775, 0.5081480145454407, -1.0759003162384033, -0.646484375, -0.01123046875, -0.0908203125, 
75, 3186048777, 0.530788242816925, -0.43284568190574646, -0.4161984920501709, -0.5980525016784668, 9.426604270935059, 0.23926270008087158, 2.7819907665252686, -0.2074240744113922, 0.22219069302082062, -1.0475454330444336, -0.6474609375, -0.01220703125, -0.090087890625, 
76, 3186057110, 0.5307871103286743, -0.43277329206466675, -0.416301429271698, -0.598034143447876, 9.487395286560059, 0.25969111919403076, 2.7434515953063965, 1.017397403717041, 0.017750663682818413, -0.9903359413146973, -0.6484375, -0.011962890625, -0.09130859375, 
77, 3186065443, 0.5308519601821899, -0.43263760209083557, -0.41646233201026917, -0.5979627370834351, 9.534594535827637, 0.25757893919944763, 2.7331416606903076, 2.5281505584716797, 0.16651813685894012, -0.7944126725196838, -0.646728515625, -0.014404296875, -0.091552734375, 
78, 3186073776, 0.5309653282165527, -0.4324703812599182, -0.4166722297668457, -0.5978368520736694, 9.48041820526123, 0.2755749523639679, 2.782273530960083, 3.8869850635528564, 0.03247884660959244, -0.4431646168231964, -0.646240234375, -0.013671875, -0.091552734375, 
79, 3186082109, 0.5311293601989746, -0.43224918842315674, -0.41695311665534973, -0.597655177116394, 9.481410026550293, 0.3508701026439667, 2.772019863128662, 5.400505542755127, -0.09214721620082855, -0.3657585084438324, -0.646728515625, -0.01318359375, -0.089111328125, 
80, 3186090442, 0.5313124656677246, -0.43200984597206116, -0.4172626733779907, -0.597449541091919, 9.528801918029785, 0.44441649317741394, 2.7834134101867676, 6.103988170623779, -0.17673824727535248, -0.294691801071167, -0.646728515625, -0.013671875, -0.090087890625, 
81, 3186098775, 0.5315003395080566, -0.43176037073135376, -0.4175470471382141, -0.5972639918327332, 9.574892044067383, 0.5013669729232788, 2.7729403972625732, 5.6830949783325195, 0.22495703399181366, -0.3610326647758484, -0.6484375, -0.013671875, -0.088134765625, 
82, 3186107108, 0.5316638946533203, -0.4315215051174164, -0.4177798330783844, -0.5971283316612244, 9.554697036743164, 0.5734928846359253, 2.7808077335357666, 4.952781677246094, 0.6836567521095276, -0.506752073764801, -0.647705078125, -0.015869140625, -0.091064453125, 
83, 3186115441, 0.5317723155021667, -0.43132591247558594, -0.4179571568965912, -0.5970488786697388, 9.474656105041504, 0.5563905239105225, 2.77811598777771, 4.007781982421875, 0.7607682943344116, -0.6349128484725952, -0.647216796875, -0.013427734375, -0.091552734375, 
84, 3186123774, 0.5318466424942017, -0.431165874004364, -0.4180953800678253, -0.5970016121864319, 9.434120178222656, 0.6006075143814087, 2.820420503616333, 2.5597972869873047, 0.7394188642501831, -0.8733686208724976, -0.645751953125, -0.0146484375, -0.089111328125, 
85, 3186132107, 0.5318690538406372, -0.43104004859924316, -0.41816169023513794, -0.5970261096954346, 9.445480346679688, 0.5999876856803894, 2.8105876445770264, 1.215818166732788, 1.1125928163528442, -1.1226719617843628, -0.647216796875, -0.013427734375, -0.092041015625, 
86, 3186140440, 0.5318468809127808, -0.430961936712265, -0.41818347573280334, -0.5970868468284607, 9.478482246398926, 0.5385518670082092, 2.792562961578369, -0.1851397007703781, 1.0044749975204468, -1.2915465831756592, -0.647705078125, -0.014892578125, -0.091064453125, 
87, 3186148773, 0.531777024269104, -0.43092435598373413, -0.4181844890117645, -0.5971757173538208, 9.49449348449707, 0.45018869638442993, 2.7406461238861084, -0.6915587186813354, 0.7251773476600647, -1.3948999643325806, -0.647705078125, -0.01513671875, -0.089111328125, 
88, 3186157106, 0.5317318439483643, -0.4308822751045227, -0.4182090163230896, -0.5972290635108948, 9.518009185791016, 0.38055986166000366, 2.7501752376556396, -0.5212240815162659, 0.5117852091789246, -1.237884759902954, -0.646240234375, -0.01416015625, -0.089599609375, 
89, 3186165439, 0.5316984057426453, -0.4308319687843323, -0.41826218366622925, -0.5972579121589661, 9.524139404296875, 0.352341890335083, 2.7127513885498047, 0.003650028258562088, 0.28571397066116333, -1.160248041152954, -0.646728515625, -0.013671875, -0.091064453125, 
90, 3186173772, 0.5317088961601257, -0.4307442307472229, -0.4183761477470398, -0.5972319841384888, 9.54086971282959, 0.3344740867614746, 2.7101478576660156, 1.3315430879592896, 0.0841299444437027, -0.994088351726532, -0.644775390625, -0.015625, -0.091064453125, 
91, 3186182105, 0.5317743420600891, -0.4306114912033081, -0.4185526967048645, -0.5971458554267883, 9.565018653869629, 0.3451097309589386, 2.6845476627349854, 2.6412887573242188, -0.05746553838253021, -0.7808114886283875, -0.646728515625, -0.013671875, -0.089111328125, 
92, 3186190438, 0.5318765640258789, -0.4304637014865875, -0.4187386631965637, -0.5970309376716614, 9.567296028137207, 0.3388949930667877, 2.7624459266662598, 3.4186553955078125, 0.05069057643413544, -0.3612503707408905, -0.647216796875, -0.01611328125, -0.088623046875, 
93, 3186198771, 0.5319969654083252, -0.4302886724472046, -0.4189182221889496, -0.596923828125, 9.529032707214355, 0.37006524205207825, 2.8249170780181885, 3.570035457611084, 0.4647446870803833, -0.3927558958530426, -0.645751953125, -0.01513671875, -0.091064453125, 
94, 3186207104, 0.5321186780929565, -0.430106520652771, -0.41908836364746094, -0.5968270897865295, 9.494869232177734, 0.4126972258090973, 2.867476463317871, 3.5521695613861084, 0.6678271293640137, -0.4375167787075043, -0.646240234375, -0.01513671875, -0.089111328125, 
95, 3186215437, 0.5322294235229492, -0.429924875497818, -0.41927385330200195, -0.596729040145874, 9.438061714172363, 0.4539741277694702, 2.8762528896331787, 3.446331739425659, 0.4690094590187073, -0.646682620048523, -0.644775390625, -0.01318359375, -0.088134765625, 
96, 3186223770, 0.5323178768157959, -0.4297451376914978, -0.4194492697715759, -0.596656322479248, 9.40301513671875, 0.4651579260826111, 2.8360090255737305, 3.2415969371795654, 0.5592740178108215, -0.903619110584259, -0.647705078125, -0.015869140625, -0.090576171875, 
97, 3186232103, 0.5323744416236877, -0.4295562207698822, -0.4196324944496155, -0.5966131091117859, 9.399490356445312, 0.4255479872226715, 2.802773952484131, 3.270233631134033, 0.5756414532661438, -1.3886756896972656, -0.645751953125, -0.015625, -0.090576171875, 
98, 3186240436, 0.5324341058731079, -0.42937278747558594, -0.4198395311832428, -0.5965462327003479, 9.419918060302734, 0.40546098351478577, 2.778764486312866, 3.3254706859588623, 0.2265835553407669, -1.3914036750793457, -0.648193359375, -0.0166015625, -0.088623046875, 
99, 3186248769, 0.5325042009353638, -0.4291995167732239, -0.4200555682182312, -0.5964561700820923, 9.515496253967285, 0.38829565048217773, 2.7355659008026123, 3.580139636993408, -0.0014343969523906708, -1.0997982025146484, -0.645263671875, -0.01806640625, -0.08984375, 
100, 3186257102, 0.5325842499732971, -0.4290427565574646, -0.42024725675582886, -0.5963625311851501, 9.575323104858398, 0.3938294053077698, 2.706061601638794, 3.2767136096954346, 0.08049273490905762, -0.7832576632499695, -0.647216796875, -0.015625, -0.087646484375, 
101, 3186265435, 0.532682478427887, -0.42889904975891113, -0.42041337490081787, -0.5962611436843872, 9.559972763061523, 0.4276122450828552, 2.6985976696014404, 3.350918769836426, 0.22477777302265167, -0.2678224742412567, -0.646240234375, -0.0166015625, -0.089599609375, 
102, 3186273768, 0.5327935218811035, -0.4287729859352112, -0.4205639362335205, -0.5961463451385498, 9.540762901306152, 0.4542905390262604, 2.7286086082458496, 3.019380569458008, 0.18488353490829468, 0.044056486338377, -0.648193359375, -0.015625, -0.086181640625, 
103, 3186282101, 0.5329342484474182, -0.42862841486930847, -0.4207015931606293, -0.5960272550582886, 9.514455795288086, 0.460279256105423, 2.7378323078155518, 3.0662286281585693, 0.5645633339881897, 0.24410365521907806, -0.645751953125, -0.0166015625, -0.087890625, 
104, 3186290434, 0.5330658555030823, -0.42849957942962646, -0.42082926630973816, -0.5959120392799377, 9.489664077758789, 0.4826868772506714, 2.7457408905029297, 2.977450132369995, 0.4914347231388092, 0.3373906910419464, -0.646728515625, -0.015625, -0.088134765625, 
105, 3186298767, 0.5331887602806091, -0.42838144302368164, -0.4209359288215637, -0.5958118438720703, 9.478033065795898, 0.5292813181877136, 2.7420053482055664, 2.5500762462615967, 0.5890761017799377, 0.3412328362464905, -0.646240234375, -0.01708984375, -0.09033203125, 
106, 3186307100, 0.5332674384117126, -0.4283216595649719, -0.42102211713790894, -0.5957233309745789, 9.435184478759766, 0.5745429396629333, 2.745098114013672, 1.6646562814712524, 0.08110746741294861, 0.35167062282562256, -0.644775390625, -0.01611328125, -0.08935546875, 
107, 3186315433, 0.53329998254776, -0.4283373951911926, -0.42109575867652893, -0.595630943775177, 9.463075637817383, 0.6215963363647461, 2.7293460369110107, 0.8917979598045349, -0.7357944846153259, 0.5656775832176208, -0.647216796875, -0.0166015625, -0.087646484375, 
108, 3186323766, 0.5332971811294556, -0.4283764958381653, -0.42112693190574646, -0.5955833196640015, 9.504998207092285, 0.6612518429756165, 2.7168071269989014, -0.2286582738161087, -0.5562130808830261, 0.2799251675605774, -0.648681640625, -0.017333984375, -0.090576171875, 
109, 3186332099, 0.5332223773002625, -0.42846715450286865, -0.4210740625858307, -0.5956223607063293, 9.524983406066895, 0.6489917635917664, 2.7291886806488037, -1.2938774824142456, -0.23736713826656342, 0.14706413447856903, -0.646240234375, -0.01904296875, -0.08935546875, 
110, 3186340432, 0.5331510305404663, -0.4285687804222107, -0.420987993478775, -0.5956740379333496, 9.556647300720215, 0.5919008255004883, 2.7126173973083496, -2.6259331703186035, -0.02163122221827507, 0.04305753484368324, -0.645263671875, -0.0166015625, -0.08642578125, 
111, 3186348765, 0.5330405235290527, -0.4287252724170685, -0.4208257496356964, -0.5957749485969543, 9.582483291625977, 0.5548974871635437, 2.699469566345215, -4.146035194396973, 0.14794780313968658, 0.14840887486934662, -0.648193359375, -0.01708984375, -0.089599609375, 
112, 3186357098, 0.5329298377037048, -0.428907573223114, -0.4205887019634247, -0.5959100723266602, 9.556842803955078, 0.5160261988639832, 2.711533784866333, -5.167697429656982, 0.6887282729148865, 0.4674213230609894, -0.646240234375, -0.0146484375, -0.087158203125, 
113, 3186365431, 0.5328041315078735, -0.42910996079444885, -0.4203278422355652, -0.5960606932640076, 9.519807815551758, 0.4942776560783386, 2.7149786949157715, -5.42555570602417, 0.7096807956695557, 0.5817376971244812, -0.647216796875, -0.0166015625, -0.088623046875, 
114, 3186373764, 0.5326868891716003, -0.4293019771575928, -0.4201183319091797, -0.5961750745773315, 9.485676765441895, 0.4689943492412567, 2.7394344806671143, -4.932610511779785, 0.24706211686134338, 0.45925039052963257, -0.646728515625, -0.015625, -0.089111328125, 
115, 3186382097, 0.5325593948364258, -0.42950040102005005, -0.41994795203208923, -0.5962662100791931, 9.470234870910645, 0.41275495290756226, 2.7645955085754395, -4.456185340881348, -0.2871612012386322, 0.40315526723861694, -0.646240234375, -0.01513671875, -0.090576171875, 
116, 3186390430, 0.5324341058731079, -0.4297124743461609, -0.41978707909584045, -0.5963383913040161, 9.429998397827148, 0.38718730211257935, 2.7806739807128906, -4.484745502471924, -0.5694557428359985, 0.5322254300117493, -0.646240234375, -0.01611328125, -0.089111328125, 
117, 3186398763, 0.5322921276092529, -0.42994225025177, -0.4196394681930542, -0.5964034795761108, 9.427846908569336, 0.4208795130252838, 2.814206600189209, -4.426140308380127, -0.9488793611526489, 0.5252071619033813, -0.646240234375, -0.0146484375, -0.089111328125, 
118, 3186407096, 0.532145619392395, -0.43016713857650757, -0.4195237159729004, -0.5964534878730774, 9.44715690612793, 0.42133116722106934, 2.8068997859954834, -4.206856727600098, -1.2580944299697876, 0.3254673182964325, -0.647216796875, -0.0126953125, -0.089111328125, 
119, 3186415429, 0.5320178270339966, -0.43037283420562744, -0.4194190800189972, -0.5964927673339844, 9.50854778289795, 0.39715147018432617, 2.825885772705078, -4.282789707183838, -1.1607475280761719, 0.2444622665643692, -0.646728515625, -0.0146484375, -0.086181640625, 
120, 3186423762, 0.5318950414657593, -0.4305550754070282, -0.41928917169570923, -0.5965620875358582, 9.530623435974121, 0.3942643702030182, 2.8400776386260986, -3.981079578399658, -0.5532034635543823, 0.2184125781059265, -0.646240234375, -0.01513671875, -0.089111328125, 
121, 3186432095, 0.5317956209182739, -0.43070685863494873, -0.4191589057445526, -0.5966324210166931, 9.540024757385254, 0.33382856845855713, 2.8458075523376465, -3.5784237384796143, -0.162714421749115, 0.2568083107471466, -0.647216796875, -0.01513671875, -0.089111328125, 
122, 3186440428, 0.5317351818084717, -0.4308244585990906, -0.4190596044063568, -0.5966711640357971, 9.542338371276855, 0.3055414855480194, 2.8545868396759033, -2.7119455337524414, -0.06945299357175827, 0.3974304497241974, -0.64990234375, -0.013671875, -0.08935546875, 
123, 3186448761, 0.531706690788269, -0.4309053122997284, -0.4190228581428528, -0.5966640710830688, 9.52419662475586, 0.27572768926620483, 2.8705079555511475, -1.4832050800323486, -0.3173731863498688, 0.42491453886032104, -0.646240234375, -0.013671875, -0.089599609375, 
124, 3186457094, 0.5317264795303345, -0.43092238903045654, -0.4190498888492584, -0.5966151356697083, 9.494611740112305, 0.2716149091720581, 2.8064393997192383, 0.038472577929496765, -0.22408613562583923, 0.36945971846580505, -0.644775390625, -0.013671875, -0.088623046875, 
125, 3186465427, 0.5318020582199097, -0.4308736324310303, -0.4191511571407318, -0.5965117812156677, 9.485939025878906, 0.27601420879364014, 2.7774951457977295, 1.7474286556243896, -0.23574058711528778, 0.40893128514289856, -0.647216796875, -0.015625, -0.087646484375, 
126, 3186473760, 0.5319229364395142, -0.43076643347740173, -0.4193134605884552, -0.5963674187660217, 9.435669898986816, 0.2867426574230194, 2.768683910369873, 3.2093610763549805, -0.17744261026382446, 0.38044822216033936, -0.644775390625, -0.015625, -0.088134765625, 
127, 3186482093, 0.5320520997047424, -0.4306490421295166, -0.4194968342781067, -0.5962079167366028, 9.450506210327148, 0.33723434805870056, 2.7773444652557373, 3.841878890991211, -0.2857908010482788, 0.4628492295742035, -0.647705078125, -0.013916015625, -0.085693359375, 
128, 3186490426, 0.532199501991272, -0.43052613735198975, -0.4197046458721161, -0.5960191488265991, 9.466060638427734, 0.3518405258655548, 2.748199701309204, 4.110034465789795, -0.49270257353782654, 0.5616433024406433, -0.646240234375, -0.01416015625, -0.090087890625, 
129, 3186498759, 0.5323362350463867, -0.4304012060165405, -0.41990870237350464, -0.5958431959152222, 9.518985748291016, 0.393200159072876, 2.7214388847351074, 4.243420600891113, -0.4271686375141144, 0.4904998540878296, -0.647216796875, -0.01318359375, -0.087158203125, 
130, 3186507092, 0.5324815511703491, -0.43028250336647034, -0.4201001822948456, -0.5956640243530273, 9.559986114501953, 0.3999066948890686, 2.698091745376587, 3.8770344257354736, -0.36190348863601685, 0.5958511233329773, -0.646240234375, -0.0146484375, -0.088623046875, 
131, 3186515425, 0.5326064229011536, -0.43018436431884766, -0.4202615022659302, -0.5955097675323486, 9.58182144165039, 0.4451189637184143, 2.7168288230895996, 3.0305614471435547, -0.2923865020275116, 0.49828654527664185, -0.646240234375, -0.01416015625, -0.088134765625, 
132, 3186523758, 0.5326849818229675, -0.43014684319496155, -0.42039254307746887, -0.5953741073608398, 9.552401542663574, 0.48596394062042236, 2.6985878944396973, 2.1410040855407715, -0.7113073468208313, 0.5558416843414307, -0.647705078125, -0.01416015625, -0.088623046875, 
133, 3186532091, 0.5327245593070984, -0.43015486001968384, -0.4204843044281006, -0.5952679514884949, 9.545032501220703, 0.5242533087730408, 2.7080090045928955, 1.077168345451355, -0.8529283404350281, 0.52582186460495, -0.644775390625, -0.01318359375, -0.087158203125, 
134, 3186540424, 0.5327228903770447, -0.4302045404911041, -0.42052406072616577, -0.5952054858207703, 9.522344589233398, 0.5404545068740845, 2.7339742183685303, -0.14103196561336517, -0.7893026471138, 0.40774014592170715, -0.644775390625, -0.014404296875, -0.086181640625, 
135, 3186548757, 0.5327149629592896, -0.43024349212646484, -0.4205119013786316, -0.595193088054657, 9.486551284790039, 0.5581649541854858, 2.7297394275665283, -0.9815374612808228, -0.07164301723241806, 0.19606415927410126, -0.645263671875, -0.0146484375, -0.087158203125, 
136, 3186557090, 0.5326704978942871, -0.430309534072876, -0.4204675257205963, -0.5952163934707642, 9.496484756469727, 0.5111263394355774, 2.7346668243408203, -1.7008106708526611, -0.044312622398138046, 0.02214350551366806, -0.645751953125, -0.013916015625, -0.085693359375, 
137, 3186565423, 0.532623827457428, -0.43040305376052856, -0.42039746046066284, -0.5952399969100952, 9.520037651062012, 0.4845994710922241, 2.7126169204711914, -2.278181552886963, -0.10448046773672104, 0.27777358889579773, -0.644775390625, -0.015625, -0.087646484375, 
138, 3186573756, 0.5325748920440674, -0.4305282533168793, -0.4203062057495117, -0.5952578186988831, 9.506328582763672, 0.4440149962902069, 2.689188003540039, -2.513486623764038, -0.24567891657352448, 0.6445053815841675, -0.645751953125, -0.0126953125, -0.088134765625, 
139, 3186582089, 0.532550036907196, -0.43064966797828674, -0.42020946741104126, -0.5952603816986084, 9.471841812133789, 0.4391096234321594, 2.6872856616973877, -2.2131597995758057, -0.12711064517498016, 1.0024900436401367, -0.646728515625, -0.01416015625, -0.088134765625, 
140, 3186590422, 0.5325438380241394, -0.430757999420166, -0.4201224148273468, -0.5952491164207458, 9.50349235534668, 0.427974671125412, 2.6707189083099365, -1.9334520101547241, -0.0632031261920929, 1.0837894678115845, -0.648193359375, -0.01513671875, -0.087646484375, 
141, 3186598755, 0.5325393676757812, -0.430841863155365, -0.4200321435928345, -0.5952560305595398, 9.555112838745117, 0.4268423318862915, 2.694833993911743, -1.6039505004882812, 0.28393375873565674, 0.9391714930534363, -0.647216796875, -0.0126953125, -0.087158203125, 
142, 3186607088, 0.5325573682785034, -0.4308975636959076, -0.41995155811309814, -0.5952564477920532, 9.562182426452637, 0.41351792216300964, 2.69474720954895, -1.4190926551818848, 0.5289338827133179, 0.8550031185150146, -0.644775390625, -0.0146484375, -0.087158203125, 
143, 3186615421, 0.532588005065918, -0.4309369921684265, -0.41988605260849, -0.5952466726303101, 9.514132499694824, 0.3945651352405548, 2.722257614135742, -1.1111966371536255, 0.5577628016471863, 0.8410561680793762, -0.64892578125, -0.014404296875, -0.084716796875, 
144, 3186623754, 0.5326046943664551, -0.4309757649898529, -0.4198489189147949, -0.5952298641204834, 9.492280006408691, 0.3803023397922516, 2.740461587905884, -0.8470883369445801, 0.23991572856903076, 0.6146519780158997, -0.645751953125, -0.011962890625, -0.087158203125, 
145, 3186632087, 0.5326085090637207, -0.4310072064399719, -0.41982677578926086, -0.5952192544937134, 9.467352867126465, 0.38733360171318054, 2.7430293560028076, -0.7352566123008728, 0.1513160914182663, 0.3613528311252594, -0.646240234375, -0.014404296875, -0.085693359375, 
146, 3186640420, 0.5325896739959717, -0.43104109168052673, -0.41981256008148193, -0.5952216386795044, 9.512680053710938, 0.3974834382534027, 2.777806282043457, -0.9461386203765869, 0.0202480535954237, 0.019197871908545494, -0.644287109375, -0.015869140625, -0.08544921875, 
147, 3186648753, 0.5325323939323425, -0.4310860335826874, -0.41978976130485535, -0.595256507396698, 9.520441055297852, 0.37859997153282166, 2.788585901260376, -1.6103155612945557, -0.045337192714214325, -0.43672269582748413, -0.647705078125, -0.01416015625, -0.087646484375, 
148, 3186657086, 0.5324464440345764, -0.4311395287513733, -0.41974762082099915, -0.5953243970870972, 9.496755599975586, 0.36936506628990173, 2.786405563354492, -2.094296455383301, 0.06484243273735046, -0.7313888669013977, -0.646728515625, -0.013427734375, -0.084716796875, 
149, 3186665419, 0.5323665142059326, -0.431196391582489, -0.4196881055831909, -0.5953965187072754, 9.49792766571045, 0.3492042124271393, 2.765024423599243, -2.264580011367798, 0.22067943215370178, -0.5815711617469788, -0.645751953125, -0.0126953125, -0.087646484375, 
150, 3186673752, 0.5322840213775635, -0.43124768137931824, -0.41963818669319153, -0.595468282699585, 9.52058219909668, 0.3363893926143646, 2.7322986125946045, -2.143604040145874, 0.18461458384990692, -0.6973731517791748, -0.644775390625, -0.01318359375, -0.087158203125, 
151, 3186682085, 0.532210111618042, -0.43127819895744324, -0.41959434747695923, -0.5955432653427124, 9.548247337341309, 0.3328438997268677, 2.71884822845459, -1.9099255800247192, 0.3725206255912781, -0.7951683402061462, -0.647216796875, -0.013916015625, -0.085693359375, 
152, 3186690418, 0.5321507453918457, -0.43128347396850586, -0.41955432295799255, -0.5956206321716309, 9.571301460266113, 0.2900901436805725, 2.727675199508667, -1.6192551851272583, 0.6550456285476685, -0.8707302808761597, -0.646728515625, -0.0126953125, -0.086669921875, 
153, 3186698751, 0.5321134328842163, -0.4312916696071625, -0.41954270005226135, -0.5956562757492065, 9.542071342468262, 0.2897902727127075, 2.7232446670532227, -1.187117338180542, 0.2920663058757782, -0.5745528936386108, -0.646240234375, -0.013427734375, -0.086181640625, 
154, 3186707084, 0.5320966243743896, -0.4313073456287384, -0.4195445477962494, -0.5956587791442871, 9.522050857543945, 0.3051760494709015, 2.69421124458313, -0.6702476739883423, 0.0645606741309166, -0.16518619656562805, -0.647705078125, -0.01513671875, -0.087646484375, 
155, 3186715417, 0.5321243405342102, -0.4312882423400879, -0.419585257768631, -0.5956191420555115, 9.510370254516602, 0.3474638760089874, 2.6882028579711914, 0.2116888463497162, 0.05951467528939247, 0.02775302343070507, -0.647216796875, -0.01416015625, -0.087646484375, 
156, 3186723750, 0.5321531295776367, -0.4312440752983093, -0.4196377992630005, -0.5955883264541626, 9.507973670959473, 0.39686834812164307, 2.724052906036377, 0.647463858127594, 0.24903440475463867, -0.19313135743141174, -0.646728515625, -0.013427734375, -0.086181640625, 
157, 3186732083, 0.5321528911590576, -0.4312041997909546, -0.4196774661540985, -0.595589280128479, 9.453218460083008, 0.456823468208313, 2.7779924869537354, 0.2995968759059906, 0.3298216760158539, -0.5073667168617249, -0.645751953125, -0.01513671875, -0.087646484375, 
158, 3186740416, 0.532139003276825, -0.4311794936656952, -0.41968995332717896, -0.5956108570098877, 9.455700874328613, 0.5075085163116455, 2.811403512954712, -0.3794492781162262, 0.44616153836250305, -0.5773448944091797, -0.645263671875, -0.013671875, -0.087646484375, 
159, 3186748749, 0.5321013331413269, -0.4311654567718506, -0.4196860194206238, -0.595657467842102, 9.491950988769531, 0.5201332569122314, 2.7757179737091064, -0.9105091691017151, 0.48699063062667847, -0.7942973971366882, -0.646728515625, -0.014404296875, -0.085693359375, 
160, 3186757082, 0.5320600867271423, -0.43113940954208374, -0.41965270042419434, -0.5957366228103638, 9.537744522094727, 0.5021778345108032, 2.72841739654541, -1.2392805814743042, 0.9768500328063965, -0.9576777219772339, -0.648193359375, -0.01416015625, -0.085693359375, 
161, 3186765415, 0.53201824426651, -0.4310958981513977, -0.41960087418556213, -0.5958419442176819, 9.528987884521484, 0.45170480012893677, 2.676663398742676, -1.3950536251068115, 1.403570294380188, -1.1269750595092773, -0.646728515625, -0.01318359375, -0.087646484375, 
162, 3186773748, 0.5319775342941284, -0.43104973435401917, -0.4195497930049896, -0.5959476232528687, 9.529603958129883, 0.4230308532714844, 2.6982626914978027, -1.3869338035583496, 1.4323351383209229, -1.1585317850112915, -0.646728515625, -0.01416015625, -0.088623046875, 
163, 3186782081, 0.5319399237632751, -0.4310145080089569, -0.419500470161438, -0.5960413217544556, 9.567018508911133, 0.40015271306037903, 2.6723358631134033, -1.3835527896881104, 1.2713496685028076, -0.9875055551528931, -0.646240234375, -0.0146484375, -0.087646484375, 
164, 3186790414, 0.5319285988807678, -0.43097779154777527, -0.41944923996925354, -0.5961142182350159, 9.605633735656738, 0.39973172545433044, 2.6565985679626465, -1.0953158140182495, 1.3304929733276367, -0.6225283741950989, -0.644775390625, -0.0146484375, -0.088134765625, 
165, 3186798747, 0.5319492220878601, -0.43092748522758484, -0.41940560936927795, -0.5961629152297974, 9.5215425491333, 0.3981558382511139, 2.704103708267212, -0.6594128608703613, 1.42060387134552, -0.31356948614120483, -0.645263671875, -0.0146484375, -0.088134765625, 
166, 3186807080, 0.5319740772247314, -0.4308764934539795, -0.4194086492061615, -0.5961753726005554, 9.480592727661133, 0.4185986816883087, 2.7245535850524902, 0.01819891296327114, 0.9025559425354004, -0.28782713413238525, -0.643798828125, -0.01318359375, -0.088623046875, 
167, 3186815413, 0.5319852828979492, -0.4308263659477234, -0.4194532334804535, -0.5961701273918152, 9.46041488647461, 0.4409656226634979, 2.726463556289673, 0.5817888975143433, 0.4108395278453827, -0.4355701208114624, -0.644287109375, -0.0146484375, -0.087646484375, 
168, 3186823746, 0.5320130586624146, -0.43074697256088257, -0.4195003807544708, -0.5961695909500122, 9.47472095489502, 0.4250217080116272, 2.774130344390869, 0.6793022155761719, 0.751483142375946, -0.5948905944824219, -0.643798828125, -0.015625, -0.08935546875, 
169, 3186832079, 0.5320242643356323, -0.43068236112594604, -0.4195462763309479, -0.5961740612983704, 9.458719253540039, 0.42646685242652893, 2.8261523246765137, 0.4049994647502899, 0.5690585970878601, -0.6711697578430176, -0.645263671875, -0.014892578125, -0.086181640625, 
170, 3186840412, 0.5320175886154175, -0.4306265711784363, -0.41959384083747864, -0.5961868762969971, 9.480993270874023, 0.4549923539161682, 2.804272174835205, 0.22818443179130554, 0.43507063388824463, -0.8413252234458923, -0.645751953125, -0.01513671875, -0.089599609375, 
171, 3186848745, 0.53199702501297, -0.4305805265903473, -0.4196227788925171, -0.5962179899215698, 9.532157897949219, 0.4267958402633667, 2.813084363937378, -0.20119979977607727, 0.515985906124115, -0.9163235425949097, -0.645751953125, -0.015625, -0.087158203125, 
172, 3186857078, 0.5319826602935791, -0.4305170774459839, -0.4196277856826782, -0.5962731838226318, 9.49168586730957, 0.411195307970047, 2.8052594661712646, -0.3541167974472046, 1.0157196521759033, -1.0063832998275757, -0.645263671875, -0.01416015625, -0.088623046875, 
173, 3186865411, 0.5319911241531372, -0.4304298460483551, -0.41963425278663635, -0.5963239073753357, 9.48664379119873, 0.3612114191055298, 2.8189568519592285, 0.12781502306461334, 1.3066589832305908, -0.8788371682167053, -0.646240234375, -0.0146484375, -0.090087890625, 
174, 3186873744, 0.5320280194282532, -0.4303150177001953, -0.41967758536338806, -0.596343457698822, 9.517086029052734, 0.34261173009872437, 2.7708747386932373, 0.8457435965538025, 1.2405869960784912, -0.8476518392562866, -0.645751953125, -0.01416015625, -0.088623046875, 
175, 3186882077, 0.5321108102798462, -0.4301624596118927, -0.41973090171813965, -0.5963420867919922, 9.544260025024414, 0.3352970778942108, 2.7410147190093994, 1.6418339014053345, 1.6170649528503418, -0.5699167251586914, -0.646240234375, -0.01416015625, -0.088623046875, 
176, 3186890410, 0.5322518348693848, -0.4299631416797638, -0.4197933077812195, -0.5963160395622253, 9.548093795776367, 0.32113584876060486, 2.7141482830047607, 2.498553514480591, 2.126429796218872, -0.2625715136528015, -0.643798828125, -0.015625, -0.09130859375, 
177, 3186898743, 0.5324776768684387, -0.4297039210796356, -0.4199204742908478, -0.5962117910385132, 9.554641723632812, 0.33289211988449097, 2.6947450637817383, 3.6747078895568848, 2.1377768516540527, 0.05813150852918625, -0.645263671875, -0.01513671875, -0.087646484375, 
178, 3186907076, 0.5327107310295105, -0.429457426071167, -0.4200802743434906, -0.5960686802864075, 9.508176803588867, 0.35649991035461426, 2.6871747970581055, 4.863617897033691, 1.6391443014144897, 0.5022054314613342, -0.644775390625, -0.015625, -0.090087890625, 
179, 3186915409, 0.5329481959342957, -0.4292302429676056, -0.4202881157398224, -0.5958733558654785, 9.480603218078613, 0.4502449035644531, 2.7105414867401123, 5.360713481903076, 0.8397754430770874, 0.7344497442245483, -0.646240234375, -0.01416015625, -0.089111328125, 
180, 3186923742, 0.533125638961792, -0.42907828092575073, -0.4204949140548706, -0.5956782102584839, 9.474830627441406, 0.5425021052360535, 2.7773704528808594, 4.52699613571167, -0.10798962414264679, 0.6962333917617798, -0.646240234375, -0.01611328125, -0.087158203125, 
181, 3186932075, 0.5331934690475464, -0.42900708317756653, -0.42062705755233765, -0.5955754518508911, 9.508508682250977, 0.6120876669883728, 2.8130271434783936, 2.451423406600952, -0.302657812833786, 0.13407772779464722, -0.644287109375, -0.015625, -0.0888671875, 
182, 3186940408, 0.5332202911376953, -0.42896199226379395, -0.4206662178039551, -0.595556378364563, 9.486579895019531, 0.6144864559173584, 2.818871021270752, 0.46386098861694336, 0.41276055574417114, -0.22161434590816498, -0.645263671875, -0.015625, -0.087158203125, 
183, 3186948741, 0.5331948399543762, -0.4289513826370239, -0.4206508696079254, -0.595597505569458, 9.459019660949707, 0.6008888483047485, 2.8165464401245117, -1.08840012550354, 0.5713895559310913, -0.6183532476425171, -0.645751953125, -0.0146484375, -0.091064453125, 
184, 3186957074, 0.5331105589866638, -0.42899012565612793, -0.4205845594406128, -0.595691978931427, 9.48288631439209, 0.5658149123191833, 2.7903335094451904, -2.328052282333374, 0.5280246734619141, -0.8566681742668152, -0.647705078125, -0.01513671875, -0.088134765625, 
185, 3186965407, 0.5329948663711548, -0.42906031012535095, -0.4204774796962738, -0.5958205461502075, 9.532187461853027, 0.5239676237106323, 2.7617034912109375, -3.207875967025757, 0.5865532159805298, -0.9090492129325867, -0.645263671875, -0.01513671875, -0.087158203125, 
186, 3186973740, 0.5328783392906189, -0.42914679646492004, -0.420330286026001, -0.5959662795066833, 9.544018745422363, 0.47248268127441406, 2.740753173828125, -3.825741767883301, 0.8451288342475891, -0.741967499256134, -0.648681640625, -0.01806640625, -0.088623046875, 
187, 3186982073, 0.5328027009963989, -0.42920663952827454, -0.4202004075050354, -0.5960823893547058, 9.524822235107422, 0.4220221936702728, 2.7038612365722656, -3.61234974861145, 0.9719704985618591, -0.601268470287323, -0.646728515625, -0.01220703125, -0.089599609375, 
188, 3186990406, 0.5327364206314087, -0.4292718768119812, -0.4200771450996399, -0.5961815118789673, 9.53021240234375, 0.39190441370010376, 2.71399188041687, -2.9091110229492188, 0.8600875735282898, -0.25194165110588074, -0.646240234375, -0.0146484375, -0.089111328125, 
189, 3186998739, 0.5327256917953491, -0.42928919196128845, -0.41999077796936035, -0.5962393283843994, 9.521647453308105, 0.4025895893573761, 2.7148914337158203, -1.8118739128112793, 1.0504781007766724, -0.01693100668489933, -0.645263671875, -0.0146484375, -0.088134765625, 
190, 3187007072, 0.5327205061912537, -0.42928051948547363, -0.41992419958114624, -0.5962971448898315, 9.49234676361084, 0.40660157799720764, 2.7440104484558105, -1.3028424978256226, 1.1585959196090698, -0.21075394749641418, -0.645263671875, -0.0166015625, -0.08984375, 
191, 3187015405, 0.5326982140541077, -0.42928630113601685, -0.4198693335056305, -0.5963515043258667, 9.459620475769043, 0.43858373165130615, 2.773972749710083, -1.1927779912948608, 0.8398522734642029, -0.2397492229938507, -0.645751953125, -0.01513671875, -0.089111328125, 
192, 3187023738, 0.5326688289642334, -0.4292973279953003, -0.41982805728912354, -0.5963988900184631, 9.476808547973633, 0.45005688071250916, 2.7960033416748047, -1.32248854637146, 0.6095547676086426, -0.3697158396244049, -0.646240234375, -0.01611328125, -0.090087890625, 
193, 3187032071, 0.5326207280158997, -0.4293152987957001, -0.41978734731674194, -0.5964575409889221, 9.478582382202148, 0.43871280550956726, 2.809422254562378, -1.3648031949996948, 0.5108631253242493, -0.5018340945243835, -0.645751953125, -0.0166015625, -0.0888671875, 
194, 3187040404, 0.532575249671936, -0.4293213188648224, -0.41975781321525574, -0.5965148210525513, 9.488288879394531, 0.42339107394218445, 2.8157811164855957, -1.3410077095031738, 0.5298689007759094, -0.671630859375, -0.647705078125, -0.01708984375, -0.087646484375, 
195, 3187048737, 0.5325381755828857, -0.42932677268981934, -0.4197380244731903, -0.5965578556060791, 9.486958503723145, 0.4015677571296692, 2.82133150100708, -1.1464675664901733, 0.42428699135780334, -0.5546506643295288, -0.647705078125, -0.01513671875, -0.090087890625, 
196, 3187057070, 0.5325198173522949, -0.429337739944458, -0.41971975564956665, -0.5965792536735535, 9.50688648223877, 0.3805595636367798, 2.791804552078247, -0.9170152544975281, 0.353386789560318, -0.22345857322216034, -0.646240234375, -0.01513671875, -0.090576171875, 
197, 3187065403, 0.5325087904930115, -0.4293629825115204, -0.41968145966529846, -0.5965977311134338, 9.492673873901367, 0.39746952056884766, 2.846080780029297, -1.1234146356582642, 0.4017464220523834, 0.06945299357175827, -0.645751953125, -0.01611328125, -0.088623046875, 
198, 3187073736, 0.53251051902771, -0.4294048249721527, -0.41960859298706055, -0.5966172814369202, 9.513981819152832, 0.4037565290927887, 2.8206448554992676, -1.4621886014938354, 0.6054308414459229, 0.45463985204696655, -0.645263671875, -0.01513671875, -0.090576171875, 
199, 3187082069, 0.5325374007225037, -0.42941901087760925, -0.41953134536743164, -0.5966375470161438, 9.51008415222168, 0.39834898710250854, 2.8358376026153564, -1.0476478338241577, 1.0123897790908813, 0.565139651298523, -0.646240234375, -0.01611328125, -0.090087890625, 
200, 3187090402, 0.5325983166694641, -0.4294022023677826, -0.4194008409976959, -0.5966870784759521, 9.5316162109375, 0.4211881160736084, 2.887510061264038, -1.331005334854126, 2.025522232055664, 0.7205028533935547, -0.647216796875, -0.01513671875, -0.086669921875, 
201, 3187098735, 0.5326860547065735, -0.42934349179267883, -0.4191795587539673, -0.5968062877655029, 9.496269226074219, 0.504914402961731, 2.9273548126220703, -2.439089775085449, 3.5806267261505127, 0.6046880483627319, -0.647216796875, -0.016845703125, -0.090087890625, 
202, 3187107068, 0.5327702164649963, -0.42925500869750977, -0.41891807317733765, -0.5969785451889038, 9.466917037963867, 0.504226803779602, 2.885993719100952, -2.4493610858917236, 4.431454181671143, 0.3734939694404602, -0.645751953125, -0.0166015625, -0.09033203125, 
203, 3187115401, 0.5328845381736755, -0.4290883541107178, -0.41872358322143555, -0.5971326231956482, 9.415227890014648, 0.4713292419910431, 2.8660707473754883, -1.2639344930648804, 4.636343002319336, -0.1484088897705078, -0.645751953125, -0.013916015625, -0.093505859375, 
204, 3187123734, 0.5330163240432739, -0.42885592579841614, -0.41862162947654724, -0.5972536206245422, 9.439794540405273, 0.41125619411468506, 2.8456223011016846, 0.49160122871398926, 4.418033123016357, -0.6297516226768494, -0.644287109375, -0.01708984375, -0.09033203125, 
205, 3187132067, 0.53319251537323, -0.42853817343711853, -0.4186481535434723, -0.5973056554794312, 9.455219268798828, 0.3426867425441742, 2.9016289710998535, 2.5269083976745605, 4.00879430770874, -1.0932668447494507, -0.645751953125, -0.015380859375, -0.093017578125, 
206, 3187140400, 0.5334099531173706, -0.4281288683414459, -0.41880717873573303, -0.5972936749458313, 9.447098731994629, 0.3320084512233734, 2.9363882541656494, 5.203620910644531, 3.663975238800049, -1.5073976516723633, -0.645263671875, -0.014892578125, -0.093994140625, 
207, 3187148733, 0.533687949180603, -0.4276643991470337, -0.4191497564315796, -0.5971378087997437, 9.454855918884277, 0.3084941804409027, 2.9049370288848877, 8.281415939331055, 2.2678589820861816, -1.349332332611084, -0.643798828125, -0.015380859375, -0.0927734375, 
208, 3187157066, 0.5340369939804077, -0.42713940143585205, -0.41963863372802734, -0.5968581438064575, 9.53205680847168, 0.31378209590911865, 2.9520223140716553, 11.076440811157227, 1.3789424896240234, -1.0717637538909912, -0.646728515625, -0.015380859375, -0.092041015625, 
209, 3187165399, 0.5344879031181335, -0.42647603154182434, -0.42019203305244446, -0.5965391993522644, 9.52481746673584, 0.33299165964126587, 2.9860618114471436, 13.393865585327148, 2.3896291255950928, -1.1295496225357056, -0.644287109375, -0.01611328125, -0.09033203125, 
210, 3187173732, 0.5350249409675598, -0.4256775379180908, -0.4207967221736908, -0.5962017178535461, 9.430656433105469, 0.33590081334114075, 3.038069725036621, 15.47245979309082, 3.5184996128082275, -1.3647394180297852, -0.643798828125, -0.015869140625, -0.09326171875, 
211, 3187182065, 0.535618782043457, -0.4247916340827942, -0.4214455187320709, -0.5958420038223267, 9.37572956085205, 0.3707786500453949, 3.069905996322632, 17.393352508544922, 4.121690273284912, -1.3442994356155396, -0.644287109375, -0.016357421875, -0.09228515625, 
212, 3187190398, 0.5363524556159973, -0.4237251579761505, -0.4221777617931366, -0.5954230427742004, 9.332749366760254, 0.381307989358902, 3.068488597869873, 20.11249542236328, 5.439454078674316, -1.4494588375091553, -0.642822265625, -0.01708984375, -0.0908203125, 
213, 3187198731, 0.5372452139854431, -0.42245492339134216, -0.4230929911136627, -0.5948708057403564, 9.369203567504883, 0.312549352645874, 3.015382766723633, 24.5068302154541, 5.883477687835693, -1.5008925199508667, -0.643310546875, -0.015869140625, -0.095703125, 
214, 3187207064, 0.5382474660873413, -0.42104947566986084, -0.4241848289966583, -0.5941835045814514, 9.457296371459961, 0.316061407327652, 3.071941375732422, 28.680944442749023, 5.558370113372803, -1.3319538831710815, -0.643310546875, -0.017822265625, -0.091796875, 
215, 3187215397, 0.5393904447555542, -0.41945236921310425, -0.42536839842796326, -0.593429684638977, 9.56689739227295, 0.2938380241394043, 3.0399672985076904, 32.216522216796875, 6.880975246429443, -1.2773828506469727, -0.644775390625, -0.019287109375, -0.091796875, 
216, 3187223730, 0.5406849980354309, -0.4176614582538605, -0.42673254013061523, -0.5925348997116089, 9.502564430236816, 0.2568844258785248, 2.9169843196868896, 36.66101837158203, 7.195084571838379, -1.2332755327224731, -0.644287109375, -0.018798828125, -0.0927734375, 
217, 3187232063, 0.5421454310417175, -0.4156944751739502, -0.42837244272232056, -0.5913993120193481, 9.435318946838379, 0.26329439878463745, 2.854537010192871, 42.12643051147461, 6.139652729034424, -0.8442209362983704, -0.642822265625, -0.019775390625, -0.0927734375, 
218, 3187240396, 0.5437275171279907, -0.41356250643730164, -0.4301987886428833, -0.590114414691925, 9.477526664733887, 0.29845112562179565, 2.7897653579711914, 46.90522766113281, 5.986379146575928, -0.6416378617286682, -0.644775390625, -0.019287109375, -0.0908203125, 
219, 3187248729, 0.545401394367218, -0.41125255823135376, -0.4322269856929779, -0.5887003540992737, 9.495401382446289, 0.2874733507633209, 2.720594882965088, 51.44255828857422, 5.7366414070129395, -1.0350991487503052, -0.641845703125, -0.018798828125, -0.09326171875, 
220, 3187257062, 0.5471713542938232, -0.408805251121521, -0.4344176650047302, -0.5871479511260986, 9.481969833374023, 0.29024359583854675, 2.6458308696746826, 54.873165130615234, 5.411149501800537, -1.0513006448745728, -0.642333984375, -0.020263671875, -0.092041015625, 
221, 3187265395, 0.548987865447998, -0.40630626678466797, -0.436725378036499, -0.585472583770752, 9.474380493164062, 0.34194061160087585, 2.6791813373565674, 57.20273208618164, 4.528238296508789, -0.7096187472343445, -0.642333984375, -0.020751953125, -0.092529296875, 
222, 3187273728, 0.5508254766464233, -0.403774231672287, -0.4391064941883087, -0.5837147235870361, 9.479348182678223, 0.40509429574012756, 2.7314014434814453, 58.65686798095703, 3.9137260913848877, -0.5324702858924866, -0.643310546875, -0.02099609375, -0.089599609375, 
223, 3187282061, 0.5527488589286804, -0.4011775553226471, -0.44152411818504333, -0.5818601846694946, 9.521651268005371, 0.49849823117256165, 2.7067711353302, 60.49870300292969, 4.128938674926758, 0.29985401034355164, -0.64208984375, -0.022216796875, -0.091552734375, 
224, 3187290394, 0.554746150970459, -0.39849263429641724, -0.44394540786743164, -0.5799590349197388, 9.587152481079102, 0.533669650554657, 2.662238836288452, 61.890357971191406, 5.006946563720703, 0.6848117113113403, -0.640625, -0.02294921875, -0.088134765625, 
225, 3187298727, 0.5568333268165588, -0.3956526815891266, -0.446341335773468, -0.5780611634254456, 9.621316909790039, 0.5690101385116577, 2.637840986251831, 63.342472076416016, 6.996053218841553, 0.5749006867408752, -0.638671875, -0.02392578125, -0.0888671875, 
226, 3187307060, 0.5590102076530457, -0.3927101492881775, -0.44875144958496094, -0.5760974287986755, 9.567048072814941, 0.6201013326644897, 2.626382350921631, 65.1334457397461, 7.902111530303955, 1.0785554647445679, -0.64111328125, -0.02490234375, -0.0859375, 
227, 3187315393, 0.5611339211463928, -0.38982924818992615, -0.4512692093849182, -0.5740188360214233, 9.550369262695312, 0.6769891381263733, 2.6760592460632324, 65.93580627441406, 5.631387710571289, 1.345059871673584, -0.640625, -0.025146484375, -0.0849609375, 
228, 3187323726, 0.563244640827179, -0.3870182931423187, -0.4537275433540344, -0.5719119310379028, 9.539999008178711, 0.7941217422485352, 2.7492616176605225, 65.03175354003906, 5.312117576599121, 2.208838939666748, -0.64013671875, -0.025634765625, -0.08349609375, 
229, 3187332059, 0.5652730464935303, -0.384269118309021, -0.45615699887275696, -0.5698282122612, 9.465394973754883, 0.849864661693573, 2.777686357498169, 63.74354553222656, 4.653853893280029, 1.9263383150100708, -0.638671875, -0.027587890625, -0.0830078125, 
230, 3187340392, 0.5672307014465332, -0.38158559799194336, -0.458518922328949, -0.5677868127822876, 9.385642051696777, 0.9063329696655273, 2.8738961219787598, 62.06298065185547, 4.451526165008545, 1.8062068223953247, -0.63916015625, -0.02685546875, -0.0859375, 
231, 3187348725, 0.5690938234329224, -0.37900394201278687, -0.4608035385608673, -0.5657985210418701, 9.340386390686035, 0.95029217004776, 2.8726892471313477, 59.83544921875, 3.934743642807007, 1.7065536975860596, -0.640625, -0.029541015625, -0.0830078125, 
232, 3187357058, 0.5708413124084473, -0.37648576498031616, -0.4630900025367737, -0.5638492703437805, 9.359452247619629, 0.9584073424339294, 2.830242156982422, 58.50244140625, 2.9029462337493896, 0.889508068561554, -0.64013671875, -0.026611328125, -0.08203125, 
233, 3187365391, 0.572543203830719, -0.37399429082870483, -0.4653056859970093, -0.5619544386863708, 9.402634620666504, 0.9506686925888062, 2.9192276000976562, 57.16176986694336, 3.2360353469848633, 0.6501937508583069, -0.63818359375, -0.028564453125, -0.0810546875, 
234, 3187373724, 0.5742242932319641, -0.3714943826198578, -0.4674453139305115, -0.5601186156272888, 9.387528419494629, 0.9302147030830383, 2.9208450317382812, 56.155853271484375, 4.077413082122803, 0.3569353520870209, -0.638671875, -0.030029296875, -0.079833984375, 
235, 3187382057, 0.5759152770042419, -0.36894944310188293, -0.4696170389652252, -0.5582449436187744, 9.449577331542969, 0.8879504799842834, 2.870180606842041, 57.05320358276367, 4.035111904144287, 0.28402429819107056, -0.640625, -0.030029296875, -0.0791015625, 
236, 3187390390, 0.5776700973510742, -0.36630022525787354, -0.4718015491962433, -0.556331217288971, 9.532344818115234, 0.8528085947036743, 2.800899028778076, 58.5580940246582, 4.947417259216309, 0.34595972299575806, -0.63671875, -0.03076171875, -0.077392578125, 
237, 3187398723, 0.5795161128044128, -0.3635351061820984, -0.4739704430103302, -0.5543777942657471, 9.591703414916992, 0.8261687159538269, 2.772120952606201, 60.07872009277344, 6.3466386795043945, 0.6919708251953125, -0.63720703125, -0.033203125, -0.078369140625, 
238, 3187407056, 0.5814512372016907, -0.3606860637664795, -0.47606685757637024, -0.5524128675460815, 9.566304206848145, 0.8239214420318604, 2.7210140228271484, 60.7125358581543, 8.091679573059082, 1.273198127746582, -0.63720703125, -0.033203125, -0.078369140625, 
239, 3187415389, 0.5833979845046997, -0.3577722907066345, -0.47819092869758606, -0.550416886806488, 9.484271049499512, 0.8904097080230713, 2.627765655517578, 61.70158767700195, 8.279869079589844, 1.0533250570297241, -0.63720703125, -0.03173828125, -0.075439453125, 
240, 3187423722, 0.5852608680725098, -0.3549700975418091, -0.4804309010505676, -0.5482989549636841, 9.38026237487793, 0.9361571669578552, 2.612488269805908, 62.07414627075195, 5.357837677001953, 1.555903673171997, -0.63720703125, -0.03466796875, -0.07470703125, 
241, 3187432055, 0.5870486497879028, -0.35227125883102417, -0.4826553761959076, -0.5461705327033997, 9.366924285888672, 1.1118460893630981, 2.675868272781372, 60.82782745361328, 4.155219078063965, 1.8383780717849731, -0.63623046875, -0.03369140625, -0.0751953125, 
242, 3187440388, 0.5887311100959778, -0.34969282150268555, -0.4847836494445801, -0.5441279411315918, 9.351654052734375, 1.271357536315918, 2.730889320373535, 58.05326843261719, 3.744723081588745, 1.613612174987793, -0.6376953125, -0.03271484375, -0.076904296875, 
243, 3187448721, 0.5902599096298218, -0.3472896218299866, -0.48683997988700867, -0.5421712398529053, 9.35130500793457, 1.2974598407745361, 2.744198799133301, 54.78357696533203, 2.402890682220459, 1.286824107170105, -0.637451171875, -0.035888671875, -0.07275390625, 
244, 3187457054, 0.5916299223899841, -0.3450477123260498, -0.488829642534256, -0.540316104888916, 9.420914649963379, 1.3685590028762817, 2.8353769779205322, 51.53876876831055, 1.165488839149475, 0.6730027794837952, -0.636962890625, -0.035400390625, -0.07080078125, 
245, 3187465387, 0.5929847955703735, -0.3428288698196411, -0.49062371253967285, -0.5386142730712891, 9.515276908874512, 1.4684566259384155, 2.84810209274292, 48.795005798339844, 3.2095723152160645, 0.40204185247421265, -0.635498046875, -0.034912109375, -0.0703125, 
246, 3187473720, 0.5943597555160522, -0.34053295850753784, -0.4922794699668884, -0.5370422005653381, 9.484964370727539, 1.5045936107635498, 2.765791654586792, 47.618900299072266, 5.656530380249023, -0.3818961977958679, -0.6376953125, -0.034423828125, -0.06884765625, 
247, 3187482053, 0.5957185626029968, -0.338274747133255, -0.4938766360282898, -0.5354951024055481, 9.433731079101562, 1.477784276008606, 2.783019542694092, 46.63365173339844, 5.863929271697998, -0.16855481266975403, -0.636962890625, -0.036376953125, -0.0693359375, 
248, 3187490386, 0.5970583558082581, -0.3361067771911621, -0.4953252077102661, -0.534028172492981, 9.396650314331055, 1.4717447757720947, 2.871790885925293, 44.16795349121094, 6.662683486938477, 0.33308807015419006, -0.634033203125, -0.038818359375, -0.070068359375, 
249, 3187498719, 0.5983631610870361, -0.33399826288223267, -0.4966879189014435, -0.5326234102249146, 9.348000526428223, 1.4225033521652222, 2.8505327701568604, 42.46408462524414, 6.975305080413818, 0.37340492010116577, -0.636962890625, -0.035400390625, -0.072265625, 
250, 3187507052, 0.5996360182762146, -0.3319858908653259, -0.49801480770111084, -0.5312089323997498, 9.317329406738281, 1.3826267719268799, 2.8457131385803223, 41.32964324951172, 6.307143688201904, 1.0341122150421143, -0.635009765625, -0.035888671875, -0.0703125, 
251, 3187515385, 0.6008849740028381, -0.330058753490448, -0.4992715120315552, -0.5298168659210205, 9.31386661529541, 1.3718633651733398, 2.828979015350342, 39.85190200805664, 6.198384761810303, 1.5858180522918701, -0.636962890625, -0.039306640625, -0.0703125, 
252, 3187523718, 0.6020912528038025, -0.3282134234905243, -0.5005052089691162, -0.5284278988838196, 9.335862159729004, 1.3718901872634888, 2.8089892864227295, 38.7921028137207, 5.518068790435791, 1.9082247018814087, -0.637451171875, -0.037841796875, -0.0673828125, 
253, 3187532051, 0.6032640933990479, -0.3263968527317047, -0.5017309188842773, -0.5270514488220215, 9.392532348632812, 1.3711766004562378, 2.753812789916992, 38.26091003417969, 5.196199893951416, 1.8024117946624756, -0.636474609375, -0.03759765625, -0.0654296875, 
254, 3187540384, 0.604453980922699, -0.3245427906513214, -0.5029462575912476, -0.5256730914115906, 9.485182762145996, 1.3952229022979736, 2.722822904586792, 38.58462905883789, 5.6686553955078125, 1.7240837812423706, -0.635498046875, -0.0380859375, -0.0673828125, 
255, 3187548717, 0.6056369543075562, -0.32265380024909973, -0.5041760206222534, -0.5242942571640015, 9.477874755859375, 1.3844741582870483, 2.714383602142334, 38.9521484375, 5.746011734008789, 1.3771642446517944, -0.636474609375, -0.038330078125, -0.0703125, 
256, 3187557050, 0.6067977547645569, -0.32078102231025696, -0.5053973197937012, -0.5229236483573914, 9.424903869628906, 1.341964840888977, 2.748168706893921, 38.601078033447266, 5.587151050567627, 1.2927138805389404, -0.635498046875, -0.03955078125, -0.067138671875, 
257, 3187565383, 0.6079415678977966, -0.3189387619495392, -0.5066765546798706, -0.5214823484420776, 9.402457237243652, 1.312644124031067, 2.7582924365997314, 39.17924118041992, 4.452976226806641, 1.7245957851409912, -0.635009765625, -0.0400390625, -0.064697265625, 
258, 3187573716, 0.6090818047523499, -0.3170866370201111, -0.5079736709594727, -0.5200172066688538, 9.430609703063965, 1.2965162992477417, 2.8715713024139404, 39.5417366027832, 4.24460506439209, 1.74301278591156, -0.634521484375, -0.03759765625, -0.0673828125, 
259, 3187582049, 0.610254168510437, -0.3152047395706177, -0.50923752784729, -0.5185484886169434, 9.39176082611084, 1.3387608528137207, 2.8739373683929443, 39.717708587646484, 4.944411754608154, 1.9483110904693604, -0.636962890625, -0.03857421875, -0.06591796875, 
260, 3187590382, 0.6113983392715454, -0.3131837248802185, -0.510570764541626, -0.5171123743057251, 9.278742790222168, 1.3774460554122925, 2.8737025260925293, 41.02691650390625, 5.2993621826171875, 0.1892382651567459, -0.637939453125, -0.04052734375, -0.065673828125, 
261, 3187598715, 0.6126013994216919, -0.3112283945083618, -0.5118382573127747, -0.5156141519546509, 9.415377616882324, 1.526291847229004, 2.872593879699707, 40.69982147216797, 5.529301166534424, 1.8838526010513306, -0.636474609375, -0.0390625, -0.0654296875, 
262, 3187607048, 0.6138561964035034, -0.3092118203639984, -0.513075590133667, -0.5141029953956604, 9.367262840270996, 1.4893995523452759, 2.846181869506836, 41.312503814697266, 6.5282464027404785, 2.048616886138916, -0.636474609375, -0.040771484375, -0.066650390625, 
263, 3187615381, 0.6151492595672607, -0.30715006589889526, -0.5143252015113831, -0.512542188167572, 9.392891883850098, 1.4916236400604248, 2.82232666015625, 42.2973518371582, 6.800039291381836, 2.376325845718384, -0.634521484375, -0.04052734375, -0.064697265625, 
264, 3187623714, 0.6164801120758057, -0.3050939738750458, -0.5156101584434509, -0.5108775496482849, 9.392375946044922, 1.473387360572815, 2.8304238319396973, 43.38823699951172, 6.294029712677002, 3.4038684368133545, -0.635498046875, -0.0400390625, -0.064208984375, 
265, 3187632047, 0.6178369522094727, -0.30297258496284485, -0.5169495344161987, -0.5091443657875061, 9.359107971191406, 1.4507789611816406, 2.835209608078003, 44.91899490356445, 6.185413360595703, 3.483875274658203, -0.635498046875, -0.0419921875, -0.062255859375, 
266, 3187640380, 0.6192206144332886, -0.30086761713027954, -0.5182822346687317, -0.5073535442352295, 9.398503303527832, 1.450654149055481, 2.812450885772705, 45.256004333496094, 6.078140735626221, 4.296692848205566, -0.635009765625, -0.038330078125, -0.060791015625, 
267, 3187648713, 0.6205844879150391, -0.29878708720207214, -0.5196353793144226, -0.5055291652679443, 9.40457534790039, 1.4888399839401245, 2.7988202571868896, 45.34906005859375, 5.453024387359619, 4.544126987457275, -0.635009765625, -0.0390625, -0.064208984375, 
268, 3187657046, 0.6219217777252197, -0.29672929644584656, -0.5210214257240295, -0.5036678314208984, 9.408184051513672, 1.612123727798462, 2.794518232345581, 45.53659439086914, 4.6729536056518555, 4.692164897918701, -0.634033203125, -0.040771484375, -0.061279296875, 
269, 3187665379, 0.6232360601425171, -0.2946881353855133, -0.5223799347877502, -0.5018311142921448, 9.42050552368164, 1.7409124374389648, 2.8271212577819824, 44.934814453125, 4.727999687194824, 4.5624799728393555, -0.635498046875, -0.040771484375, -0.060791015625, 
270, 3187673712, 0.6245075464248657, -0.292693555355072, -0.5236615538597107, -0.5000790357589722, 9.332927703857422, 1.8532806634902954, 2.793635129928589, 43.22322082519531, 5.103721618652344, 4.1808390617370605, -0.634521484375, -0.041259765625, -0.059814453125, 
271, 3187682045, 0.6257407069206238, -0.2907494008541107, -0.5248843431472778, -0.4983869791030884, 9.279237747192383, 1.9299811124801636, 2.781683921813965, 41.79914093017578, 5.22454309463501, 4.010119438171387, -0.633544921875, -0.04052734375, -0.063720703125, 
272, 3187690378, 0.6269489526748657, -0.2888224720954895, -0.5260363817214966, -0.49677184224128723, 9.257493019104004, 1.9377243518829346, 2.778810739517212, 40.50932693481445, 5.845637321472168, 3.5753419399261475, -0.636474609375, -0.040283203125, -0.058349609375, 
273, 3187698711, 0.6281265020370483, -0.286920428276062, -0.5271300673484802, -0.4952244460582733, 9.32298469543457, 1.9510605335235596, 2.7271203994750977, 39.28599548339844, 6.223935127258301, 3.203500270843506, -0.635498046875, -0.039306640625, -0.057861328125, 
274, 3187707044, 0.6292814016342163, -0.2850552201271057, -0.528160035610199, -0.49373599886894226, 9.379868507385254, 1.9460017681121826, 2.6826887130737305, 38.016056060791016, 6.5945725440979, 3.0487382411956787, -0.635498046875, -0.040283203125, -0.057373046875, 
275, 3187715377, 0.6303767561912537, -0.28319281339645386, -0.5291730165481567, -0.49232375621795654, 9.351570129394531, 1.8837354183197021, 2.5782716274261475, 37.090328216552734, 6.5855302810668945, 2.0816969871520996, -0.635498046875, -0.039794921875, -0.060302734375, 
276, 3187723710, 0.6314297318458557, -0.2814279794692993, -0.5301328897476196, -0.49095192551612854, 9.504437446594238, 1.9386659860610962, 2.560399055480957, 35.425052642822266, 6.236342906951904, 2.3522732257843018, -0.634521484375, -0.039306640625, -0.057861328125, 
277, 3187732043, 0.6325072646141052, -0.27979758381843567, -0.5309746861457825, -0.48958486318588257, 9.407809257507324, 1.8964531421661377, 2.477944850921631, 33.523475646972656, 6.550220489501953, 3.9238622188568115, -0.634521484375, -0.042236328125, -0.057861328125, 
278, 3187740376, 0.6334667205810547, -0.27833306789398193, -0.5318136215209961, -0.4882669150829315, 9.37218189239502, 1.9231364727020264, 2.5023717880249023, 31.24592399597168, 4.787137985229492, 3.9133079051971436, -0.636474609375, -0.038330078125, -0.0576171875, 
279, 3187748709, 0.6342568397521973, -0.2771393656730652, -0.5326470732688904, -0.48701000213623047, 9.300500869750977, 1.9681336879730225, 2.5383243560791016, 27.75459098815918, 2.0116024017333984, 4.256921768188477, -0.636962890625, -0.042236328125, -0.059326171875, 
280, 3187757042, 0.6348367929458618, -0.2761709690093994, -0.5334311723709106, -0.4859451651573181, 9.266796112060547, 2.003629684448242, 2.5689964294433594, 23.25218963623047, 0.12562505900859833, 3.001950979232788, -0.635009765625, -0.039306640625, -0.058349609375, 
281, 3187765375, 0.6352359056472778, -0.27545595169067383, -0.5340752601623535, -0.48512107133865356, 9.23826789855957, 2.105731964111328, 2.636046886444092, 17.651260375976562, -0.7589114904403687, 2.093964099884033, -0.633544921875, -0.0390625, -0.055419921875, 
282, 3187773708, 0.6355116367340088, -0.27493953704833984, -0.534526526927948, -0.484555721282959, 9.267829895019531, 2.1535794734954834, 2.68357253074646, 12.263148307800293, -0.323443740606308, 1.187860131263733, -0.635986328125, -0.0400390625, -0.056396484375, 
283, 3187782041, 0.635678231716156, -0.27457666397094727, -0.5347990989685059, -0.4842422604560852, 9.340344429016113, 2.179311752319336, 2.7036890983581543, 7.4658203125, 0.36360689997673035, 0.07672744244337082, -0.635986328125, -0.039306640625, -0.058349609375, 
284, 3187790374, 0.6358092427253723, -0.27429816126823425, -0.534870445728302, -0.48414933681488037, 9.375123977661133, 2.1245317459106445, 2.768998146057129, 3.633084774017334, 2.1320393085479736, -0.7206308841705322, -0.634033203125, -0.0400390625, -0.057373046875, 
285, 3187798707, 0.63590407371521, -0.2741052508354187, -0.5347850322723389, -0.48422831296920776, 9.388837814331055, 2.023124933242798, 2.793992757797241, 0.43674832582473755, 3.318375825881958, -1.2298803329467773, -0.633544921875, -0.0400390625, -0.055908203125, 
286, 3187807040, 0.6359642744064331, -0.2740550637245178, -0.5345908999443054, -0.48439186811447144, 9.383515357971191, 1.9136931896209717, 2.7942049503326416, -2.2832655906677246, 3.3784406185150146, -0.7541470527648926, -0.636474609375, -0.039794921875, -0.056884765625, 
287, 3187815373, 0.6359856128692627, -0.274177223443985, -0.534298300743103, -0.48461756110191345, 9.391233444213867, 1.8362939357757568, 2.7811696529388428, -5.050806522369385, 3.0419721603393555, 0.09682180732488632, -0.634033203125, -0.037841796875, -0.058349609375, 
288, 3187823706, 0.6359447836875916, -0.27447938919067383, -0.5339502096176147, -0.484883576631546, 9.39942455291748, 1.7949563264846802, 2.715688467025757, -7.527973175048828, 2.0233840942382812, 0.8456669449806213, -0.635498046875, -0.0400390625, -0.056884765625, 
289, 3187832039, 0.6358532905578613, -0.27492278814315796, -0.5335204601287842, -0.4852255880832672, 9.406126022338867, 1.7859009504318237, 2.670361042022705, -10.055048942565918, 1.711402416229248, 1.2048039436340332, -0.634521484375, -0.037841796875, -0.0595703125, 
290, 3187840372, 0.6356967091560364, -0.2755005955696106, -0.5330150723457336, -0.4856579601764679, 9.369416236877441, 1.82200026512146, 2.6364059448242188, -12.643892288208008, 1.3378572463989258, 1.2359639406204224, -0.635986328125, -0.037841796875, -0.05810546875, 
291, 3187848705, 0.6354429125785828, -0.276226282119751, -0.5324380397796631, -0.48621073365211487, 9.296298027038574, 1.8511217832565308, 2.637225866317749, -15.667678833007812, 0.7215787768363953, 0.9057193994522095, -0.635986328125, -0.037353515625, -0.05859375, 
292, 3187857038, 0.6350674033164978, -0.27713117003440857, -0.5318057537078857, -0.48687782883644104, 9.27353572845459, 1.887962818145752, 2.6346795558929443, -18.900609970092773, -0.45156633853912354, 0.5995014309883118, -0.635986328125, -0.039306640625, -0.059814453125, 
293, 3187865371, 0.6345736384391785, -0.27818048000335693, -0.5311208367347717, -0.48767009377479553, 9.330739974975586, 1.9318557977676392, 2.648531436920166, -21.881778717041016, -1.3457341194152832, -0.012410102412104607, -0.636474609375, -0.039794921875, -0.059814453125, 
294, 3187873704, 0.6339969038963318, -0.27935323119163513, -0.530341625213623, -0.4885970652103424, 9.348464012145996, 1.9545882940292358, 2.645458459854126, -24.89190101623535, -1.4427993297576904, -0.4985301196575165, -0.636962890625, -0.041259765625, -0.057861328125, 
295, 3187882037, 0.6333183646202087, -0.28064435720443726, -0.5294742584228516, -0.48967671394348145, 9.36625862121582, 1.933273196220398, 2.67031192779541, -28.021209716796875, -1.6229829788208008, -1.2940447330474854, -0.636962890625, -0.038330078125, -0.05908203125, 
296, 3187890370, 0.6325493454933167, -0.2820700705051422, -0.5285100340843201, -0.490891695022583, 9.359399795532227, 1.8693121671676636, 2.7477424144744873, -31.18075942993164, -1.824721097946167, -1.7462904453277588, -0.635009765625, -0.037353515625, -0.0625, 
297, 3187898703, 0.6316930651664734, -0.2836308777332306, -0.5274688005447388, -0.4922131299972534, 9.382926940917969, 1.8336232900619507, 2.7768959999084473, -33.988956451416016, -2.2856757640838623, -1.9628591537475586, -0.635986328125, -0.036865234375, -0.0615234375, 
298, 3187907036, 0.6307573318481445, -0.28532674908638, -0.5263767242431641, -0.49359989166259766, 9.359840393066406, 1.7904757261276245, 2.8147354125976562, -36.28704071044922, -3.0824203491210938, -1.9071868658065796, -0.635986328125, -0.03857421875, -0.0634765625, 
299, 3187915369, 0.6297580003738403, -0.2871277928352356, -0.52521812915802, -0.4950636625289917, 9.324642181396484, 1.8115665912628174, 2.822453022003174, -38.460693359375, -3.375678777694702, -1.9677393436431885, -0.635009765625, -0.03759765625, -0.06494140625, 
300, 3187923702, 0.6287069320678711, -0.2889901399612427, -0.5240016579627991, -0.4966026246547699, 9.280049324035645, 1.7771939039230347, 2.8007125854492188, -40.131595611572266, -3.3693015575408936, -2.315991163253784, -0.634033203125, -0.037841796875, -0.062744140625, 
301, 3187932035, 0.6275989413261414, -0.2908463180065155, -0.5227896571159363, -0.49819546937942505, 9.268514633178711, 1.7110140323638916, 2.729745388031006, -40.66386413574219, -3.560793399810791, -3.215257167816162, -0.63818359375, -0.037353515625, -0.0615234375, 
302, 3187940368, 0.6264599561691284, -0.2926928400993347, -0.5215826630592346, -0.4998100996017456, 9.303044319152832, 1.7132350206375122, 2.6979119777679443, -40.82297134399414, -3.6767494678497314, -3.7233927249908447, -0.636474609375, -0.037353515625, -0.0625, 
303, 3187948701, 0.6252917647361755, -0.29454857110977173, -0.5203696489334106, -0.5014441609382629, 9.35361099243164, 1.7002187967300415, 2.6908366680145264, -41.2034797668457, -3.8159892559051514, -3.9824819564819336, -0.63671875, -0.03662109375, -0.06298828125, 
304, 3187957034, 0.6241199970245361, -0.29643911123275757, -0.519115686416626, -0.5030871033668518, 9.368611335754395, 1.651585340499878, 2.6791582107543945, -41.86271667480469, -3.6969594955444336, -3.687636137008667, -0.635986328125, -0.0390625, -0.065673828125, 
305, 3187965367, 0.6228939890861511, -0.2983742356300354, -0.5178577899932861, -0.5047564506530762, 9.413768768310547, 1.6253303289413452, 2.684941530227661, -42.68124771118164, -4.249459743499756, -3.9346601963043213, -0.636962890625, -0.0390625, -0.064453125, 
306, 3187973700, 0.6216406226158142, -0.3003622889518738, -0.516555905342102, -0.5064537525177002, 9.472748756408691, 1.6218678951263428, 2.7038426399230957, -43.75175094604492, -4.319975852966309, -3.827772617340088, -0.635986328125, -0.03564453125, -0.06591796875, 
307, 3187982033, 0.6203686594963074, -0.30244356393814087, -0.5151744484901428, -0.5081785321235657, 9.491827011108398, 1.617228388786316, 2.724306106567383, -45.37608337402344, -4.305120468139648, -3.179551839828491, -0.63720703125, -0.0361328125, -0.06494140625, 
308, 3187990366, 0.6190808415412903, -0.3046235144138336, -0.5136560797691345, -0.5099809169769287, 9.465181350708008, 1.5391035079956055, 2.768916368484497, -47.78962326049805, -3.619734287261963, -2.7058165073394775, -0.63720703125, -0.0361328125, -0.064453125, 
309, 3187998699, 0.6177708506584167, -0.30689746141433716, -0.5120347738265991, -0.5118330121040344, 9.449728012084961, 1.4711946249008179, 2.7832233905792236, -49.756629943847656, -3.3481976985931396, -2.1679680347442627, -0.6376953125, -0.034423828125, -0.06884765625, 
310, 3188007032, 0.6164568662643433, -0.3092556893825531, -0.5103349685668945, -0.5136921405792236, 9.429757118225098, 1.4256563186645508, 2.8119924068450928, -51.09019088745117, -3.276554584503174, -1.3525371551513672, -0.637451171875, -0.036865234375, -0.0693359375, 
311, 3188015365, 0.6151102185249329, -0.3117017447948456, -0.5085668563842773, -0.5155780911445618, 9.350910186767578, 1.421410083770752, 2.863184928894043, -52.64596176147461, -3.431086540222168, -0.8824636936187744, -0.635986328125, -0.035400390625, -0.06982421875, 
312, 3188023698, 0.6136958599090576, -0.3142388164997101, -0.5067673921585083, -0.51749187707901, 9.287364959716797, 1.4801114797592163, 2.8727476596832275, -54.123199462890625, -4.164398193359375, -0.8470649123191833, -0.637939453125, -0.037353515625, -0.0693359375, 
313, 3188032031, 0.6122362017631531, -0.31684499979019165, -0.5049126744270325, -0.5194408893585205, 9.220953941345215, 1.5509235858917236, 2.887759208679199, -55.537818908691406, -4.354879856109619, -0.7262808084487915, -0.636962890625, -0.035888671875, -0.0693359375, 
314, 3188040364, 0.6107089519500732, -0.3194960951805115, -0.5030092000961304, -0.5214576125144958, 9.204943656921387, 1.5816692113876343, 2.871516227722168, -57.03014373779297, -4.439715385437012, -1.2750418186187744, -0.63671875, -0.034912109375, -0.07080078125, 
315, 3188048697, 0.6091232895851135, -0.3222379684448242, -0.5010203123092651, -0.523535966873169, 9.281766891479492, 1.597179889678955, 2.875547170639038, -59.087890625, -4.506377220153809, -1.1860452890396118, -0.6376953125, -0.035888671875, -0.07177734375, 
316, 3188057030, 0.6074509620666504, -0.32502269744873047, -0.4989716410636902, -0.5257095694541931, 9.422334671020508, 1.5620617866516113, 2.8970608711242676, -60.91814422607422, -4.489754676818848, -2.071199417114258, -0.63720703125, -0.03173828125, -0.076416015625, 
317, 3188065363, 0.6057143211364746, -0.32785794138908386, -0.49688130617141724, -0.5279281139373779, 9.496953964233398, 1.4728920459747314, 2.8567402362823486, -62.23819351196289, -4.747000217437744, -2.3557751178741455, -0.63916015625, -0.0341796875, -0.073486328125, 
318, 3188073696, 0.6039227247238159, -0.33069998025894165, -0.49472683668136597, -0.5302262902259827, 9.512213706970215, 1.4210546016693115, 2.8712832927703857, -63.55234146118164, -4.278616905212402, -3.105557441711426, -0.63671875, -0.031982421875, -0.073486328125, 
319, 3188082029, 0.6020655035972595, -0.33358103036880493, -0.49252623319625854, -0.5325769782066345, 9.454339027404785, 1.3446186780929565, 2.894231081008911, -64.86800384521484, -4.389245986938477, -3.521944761276245, -0.638671875, -0.033203125, -0.077880859375, 
320, 3188090362, 0.6001526713371277, -0.33650103211402893, -0.49028438329696655, -0.5349622964859009, 9.41662311553955, 1.2494533061981201, 2.92598557472229, -65.98182678222656, -4.547607421875, -3.7850940227508545, -0.640625, -0.03125, -0.074951171875, 
321, 3188098695, 0.5982071161270142, -0.339423805475235, -0.4880114197731018, -0.5373678803443909, 9.396749496459961, 1.1312365531921387, 2.9201576709747314, -66.52115631103516, -4.438951015472412, -4.006811618804932, -0.640625, -0.03125, -0.076904296875, 
322, 3188107028, 0.5962888598442078, -0.3422997295856476, -0.48573118448257446, -0.5397363901138306, 9.381515502929688, 1.0127466917037964, 2.8895821571350098, -65.8160629272461, -4.025331020355225, -3.8062002658843994, -0.640625, -0.030517578125, -0.079345703125, 
323, 3188115361, 0.5945117473602295, -0.34524595737457275, -0.483334481716156, -0.5419672131538391, 9.33391284942627, 0.9545953273773193, 2.8434276580810547, -65.66920471191406, -3.2981014251708984, -0.5863121151924133, -0.6396484375, -0.030029296875, -0.079345703125, 
324, 3188123694, 0.5926386713981628, -0.3479800224304199, -0.48122286796569824, -0.5441448092460632, 9.271321296691895, 0.7873280644416809, 2.9568352699279785, -61.91386413574219, -4.9354448318481445, -3.6541388034820557, -0.6396484375, -0.031005859375, -0.080322265625, 
325, 3188132027, 0.5907823443412781, -0.3506598472595215, -0.4793110191822052, -0.5461267232894897, 9.327537536621094, 0.9712110161781311, 2.975372076034546, -58.60184860229492, -6.98470401763916, -3.226545572280884, -0.638671875, -0.029541015625, -0.080810546875, 
326, 3188140360, 0.5889461040496826, -0.35321226716041565, -0.4774790406227112, -0.5480666160583496, 9.364563941955566, 1.0029915571212769, 2.9536843299865723, -56.591739654541016, -6.746090412139893, -3.98089861869812, -0.63916015625, -0.027587890625, -0.080078125, 
327, 3188148693, 0.5871060490608215, -0.3557208180427551, -0.4756694734096527, -0.5499885082244873, 9.477538108825684, 1.081589698791504, 2.943920850753784, -55.96698760986328, -6.708694934844971, -4.238348484039307, -0.64208984375, -0.028564453125, -0.080078125, 
328, 3188157026, 0.5852705836296082, -0.35820385813713074, -0.4738364815711975, -0.5519119501113892, 9.444602012634277, 1.0711424350738525, 2.898655652999878, -55.92709732055664, -6.291540145874023, -4.291754245758057, -0.64013671875, -0.025634765625, -0.083984375, 
329, 3188165359, 0.5833976864814758, -0.3606715798377991, -0.47198161482810974, -0.5538735389709473, 9.442920684814453, 1.0146232843399048, 2.88642954826355, -56.40188217163086, -6.05332612991333, -4.851656913757324, -0.64208984375, -0.029052734375, -0.08056640625, 
330, 3188173692, 0.5814609527587891, -0.36318206787109375, -0.4700656831264496, -0.5558955073356628, 9.44454288482666, 0.9870325922966003, 2.8174896240234375, -57.919471740722656, -6.004815101623535, -5.265073299407959, -0.6396484375, -0.028076171875, -0.083984375, 
331, 3188182025, 0.5794349908828735, -0.3657557964324951, -0.4681044816970825, -0.5579745769500732, 9.455279350280762, 0.9993786811828613, 2.741875410079956, -59.586856842041016, -6.418602466583252, -5.746943950653076, -0.642578125, -0.02734375, -0.083984375, 
332, 3188190358, 0.5773239731788635, -0.3684161603450775, -0.4661111831665039, -0.5600773096084595, 9.393506050109863, 1.0352355241775513, 2.8229191303253174, -61.10411071777344, -7.254384994506836, -5.88980770111084, -0.642578125, -0.02734375, -0.08447265625, 
333, 3188198691, 0.5750863552093506, -0.37120893597602844, -0.4641128182411194, -0.5621907114982605, 9.329933166503906, 1.1025760173797607, 2.8029394149780273, -62.90342712402344, -8.994701385498047, -6.054048538208008, -0.6396484375, -0.02783203125, -0.0859375, 
334, 3188207024, 0.5727962255477905, -0.3740679621696472, -0.4620664119720459, -0.5643154978752136, 9.333541870117188, 1.1825705766677856, 2.770646810531616, -64.1384048461914, -9.400331497192383, -5.903359889984131, -0.6416015625, -0.0302734375, -0.08642578125, 
335, 3188215357, 0.5704703330993652, -0.37699082493782043, -0.45994582772254944, -0.5664547085762024, 9.417622566223145, 1.184638261795044, 2.762897491455078, -65.49382019042969, -9.46748161315918, -5.486014366149902, -0.6416015625, -0.02685546875, -0.08544921875, 
336, 3188223690, 0.5681082606315613, -0.3799496293067932, -0.4577023684978485, -0.56866455078125, 9.47294807434082, 1.141263484954834, 2.733814001083374, -67.36807250976562, -8.643839836120605, -5.478394985198975, -0.6396484375, -0.029296875, -0.08642578125, 
337, 3188232023, 0.5657207369804382, -0.38288065791130066, -0.45538800954818726, -0.5709324479103088, 9.457658767700195, 1.0601284503936768, 2.7701754570007324, -68.19706726074219, -7.732149124145508, -5.911456108093262, -0.640625, -0.0283203125, -0.0859375, 
338, 3188240356, 0.5633438229560852, -0.3857951760292053, -0.4530469477176666, -0.573178768157959, 9.456149101257324, 0.9239040017127991, 2.763458728790283, -68.09296417236328, -7.438775539398193, -5.648128032684326, -0.6396484375, -0.0263671875, -0.087890625, 
339, 3188248689, 0.5609965324401855, -0.38871461153030396, -0.45068901777267456, -0.5753633975982666, 9.523336410522461, 0.7947543859481812, 2.7660071849823, -67.71136474609375, -7.492156028747559, -4.789945125579834, -0.642578125, -0.02783203125, -0.0869140625, 
340, 3188257022, 0.5586844682693481, -0.3916333317756653, -0.4483061730861664, -0.5774914026260376, 9.582850456237793, 0.6971336603164673, 2.726425886154175, -67.37498474121094, -7.376059055328369, -3.971682548522949, -0.64306640625, -0.028076171875, -0.08837890625, 
341, 3188265355, 0.5564076900482178, -0.3945345878601074, -0.44591760635375977, -0.5795602798461914, 9.588728904724121, 0.6276017427444458, 2.7254598140716553, -66.72388458251953, -7.295987606048584, -3.28964900970459, -0.64208984375, -0.02734375, -0.0869140625, 
342, 3188273688, 0.5541302561759949, -0.39743584394454956, -0.4435840845108032, -0.5815471410751343, 9.5542573928833, 0.61124587059021, 2.7526214122772217, -65.79257202148438, -8.16523551940918, -2.9900124073028564, -0.64404296875, -0.025390625, -0.088134765625, 
343, 3188282021, 0.5518307685852051, -0.40034446120262146, -0.44132447242736816, -0.5834546685218811, 9.47714900970459, 0.6880632638931274, 2.8250818252563477, -64.74952697753906, -9.347182273864746, -2.852130174636841, -0.642578125, -0.025634765625, -0.08984375, 
344, 3188290354, 0.5494797825813293, -0.40326714515686035, -0.4391595721244812, -0.5852915048599243, 9.391925811767578, 0.7555569410324097, 2.8335607051849365, -64.09627532958984, -10.887807846069336, -3.2336814403533936, -0.6416015625, -0.026611328125, -0.09033203125, 
345, 3188298687, 0.5471126437187195, -0.40614190697669983, -0.43700510263442993, -0.5871309041976929, 9.341252326965332, 0.8079930543899536, 2.807464122772217, -64.11381530761719, -10.69057559967041, -3.8236300945281982, -0.6435546875, -0.026123046875, -0.088623046875, 
346, 3188307020, 0.5447336435317993, -0.4089506268501282, -0.4348210394382477, -0.5890118479728699, 9.34506893157959, 0.7749723792076111, 2.8315529823303223, -63.814369201660156, -9.748544692993164, -4.3720197677612305, -0.64404296875, -0.027099609375, -0.09130859375, 
347, 3188315353, 0.5423859357833862, -0.411657452583313, -0.43261754512786865, -0.5909124612808228, 9.374225616455078, 0.7438521981239319, 2.8595995903015137, -63.63346481323242, -8.5133056640625, -4.897152423858643, -0.64697265625, -0.02587890625, -0.093017578125, 
348, 3188323686, 0.5400163531303406, -0.41430360078811646, -0.43038734793663025, -0.5928587317466736, 9.399006843566895, 0.6663414239883423, 2.908754825592041, -63.308677673339844, -7.659298896789551, -5.492403030395508, -0.64453125, -0.024658203125, -0.090576171875, 
349, 3188332019, 0.5376912355422974, -0.4168556332588196, -0.42821165919303894, -0.5947553515434265, 9.496533393859863, 0.5611999034881592, 2.9120700359344482, -61.97361373901367, -7.34157657623291, -5.7218546867370605, -0.64501953125, -0.024658203125, -0.090087890625, 
350, 3188340352, 0.5354220867156982, -0.41928839683532715, -0.42606136202812195, -0.5966337323188782, 9.58869743347168, 0.45638370513916016, 2.8398561477661133, -60.10035705566406, -6.304093360900879, -5.883352756500244, -0.64501953125, -0.024658203125, -0.092529296875, 
351, 3188348685, 0.5333319306373596, -0.4214799702167511, -0.424025297164917, -0.5984094142913818, 9.616388320922852, 0.3998127281665802, 2.8623626232147217, -56.28329849243164, -4.740210056304932, -5.879149913787842, -0.646728515625, -0.025390625, -0.093994140625, 
352, 3188357018, 0.5313417911529541, -0.4234895408153534, -0.42210572957992554, -0.6001155972480774, 9.573149681091309, 0.3989024758338928, 2.884913921356201, -52.47416687011719, -3.885176420211792, -6.1337785720825195, -0.648193359375, -0.02490234375, -0.093017578125, 
353, 3188365351, 0.5294171571731567, -0.4253983795642853, -0.4202750027179718, -0.6017493009567261, 9.503280639648438, 0.43080538511276245, 2.8817567825317383, -49.94210433959961, -3.7367665767669678, -6.064542293548584, -0.6455078125, -0.0263671875, -0.094482421875, 
354, 3188373684, 0.5275772213935852, -0.42722058296203613, -0.41852322220802307, -0.6032931804656982, 9.380209922790527, 0.42688947916030884, 2.881279945373535, -47.9056282043457, -3.638483762741089, -5.775022506713867, -0.646240234375, -0.022216796875, -0.09326171875, 
355, 3188382017, 0.525799036026001, -0.42901575565338135, -0.4168373644351959, -0.6047372221946716, 9.33064079284668, 0.3762179911136627, 2.919095039367676, -46.22100067138672, -4.130533695220947, -5.0600762367248535, -0.648681640625, -0.02587890625, -0.095947265625, 
356, 3188390350, 0.5240697264671326, -0.4308520257472992, -0.41520217061042786, -0.6060563325881958, 9.398872375488281, 0.39112553000450134, 2.9702870845794678, -45.09706497192383, -5.288836479187012, -3.835456371307373, -0.648681640625, -0.02490234375, -0.095458984375, 
357, 3188398683, 0.5224013328552246, -0.43269845843315125, -0.41350841522216797, -0.6073377728462219, 9.546677589416504, 0.38926273584365845, 2.9589452743530273, -45.146507263183594, -4.834132194519043, -2.651027202606201, -0.647216796875, -0.0234375, -0.095458984375, 
358, 3188407016, 0.5207829475402832, -0.4345204532146454, -0.41171538829803467, -0.6086437702178955, 9.612093925476074, 0.33005303144454956, 2.9485716819763184, -45.57646179199219, -3.4791367053985596, -1.9573922157287598, -0.646484375, -0.02490234375, -0.097412109375, 
359, 3188415349, 0.5191996097564697, -0.43632063269615173, -0.40986937284469604, -0.6099531054496765, 9.542491912841797, 0.25427791476249695, 2.9288487434387207, -45.67155075073242, -2.704996109008789, -1.4749985933303833, -0.650146484375, -0.02294921875, -0.09716796875, 
360, 3188423682, 0.5176365375518799, -0.4381006360054016, -0.4080648422241211, -0.6112145185470581, 9.457758903503418, 0.2294287383556366, 2.8821778297424316, -44.790103912353516, -2.9999444484710693, -1.3455950021743774, -0.647216796875, -0.02294921875, -0.09765625, 
361, 3188432015, 0.5160943269729614, -0.43982261419296265, -0.4063553214073181, -0.6124194860458374, 9.455646514892578, 0.21266068518161774, 2.8514468669891357, -43.09843063354492, -3.415151357650757, -1.6371878385543823, -0.648193359375, -0.023193359375, -0.10009765625, 
362, 3188440348, 0.5146179795265198, -0.4414493441581726, -0.40475043654441833, -0.6135532855987549, 9.47632122039795, 0.1629711091518402, 2.728182554244995, -40.78253173828125, -3.4143564701080322, -1.7707914113998413, -0.647216796875, -0.0234375, -0.097412109375, 
363, 3188448681, 0.5131980180740356, -0.44299501180648804, -0.4032503366470337, -0.6146154403686523, 9.450396537780762, 0.09630553424358368, 2.7116105556488037, -38.57135009765625, -3.5992143154144287, -1.85475492477417, -0.651123046875, -0.021728515625, -0.099609375, 
364, 3188457014, 0.5118204355239868, -0.4445059895515442, -0.40183401107788086, -0.6156002879142761, 9.452592849731445, 0.034397512674331665, 2.7615950107574463, -36.94289016723633, -4.125741004943848, -1.6749168634414673, -0.648193359375, -0.022216796875, -0.0986328125, 
365, 3188465347, 0.5104929208755493, -0.44594621658325195, -0.40046918392181396, -0.6165493726730347, 9.485442161560059, 0.05582372844219208, 2.8083479404449463, -35.49552917480469, -3.8399622440338135, -1.6865712404251099, -0.649169921875, -0.02197265625, -0.09716796875, 
366, 3188473680, 0.5092004537582397, -0.44732946157455444, -0.39917218685150146, -0.6174564957618713, 9.456517219543457, 0.0805395096540451, 2.85241961479187, -34.0861930847168, -3.888155698776245, -1.8421649932861328, -0.651123046875, -0.019775390625, -0.09814453125, 
367, 3188482013, 0.5079416632652283, -0.4486664831638336, -0.3979191482067108, -0.6183313727378845, 9.414447784423828, 0.1428988128900528, 2.851605176925659, -33.008480072021484, -3.825515031814575, -1.8414345979690552, -0.649658203125, -0.019775390625, -0.099609375, 
368, 3188490346, 0.5066579580307007, -0.45001596212387085, -0.3966970145702362, -0.6191887259483337, 9.480525970458984, 0.26373252272605896, 2.8503565788269043, -32.8846321105957, -4.384827613830566, -2.0675570964813232, -0.647705078125, -0.020263671875, -0.10009765625, 
369, 3188498679, 0.5053564310073853, -0.4513856768608093, -0.39545738697052, -0.6200476288795471, 9.531476974487305, 0.37257304787635803, 2.828251838684082, -33.28792953491211, -4.529445648193359, -1.993762493133545, -0.648193359375, -0.021240234375, -0.09912109375, 
370, 3188507012, 0.5040216445922852, -0.45278316736221313, -0.39413851499557495, -0.620954155921936, 9.588127136230469, 0.3915383219718933, 2.805422067642212, -34.62968444824219, -4.09354305267334, -1.982825517654419, -0.648193359375, -0.020263671875, -0.099609375, 
371, 3188515345, 0.5026370286941528, -0.45419347286224365, -0.39269235730171204, -0.6219620108604431, 9.674307823181152, 0.3930513262748718, 2.7955613136291504, -36.66128921508789, -2.966439723968506, -2.234819173812866, -0.648681640625, -0.018310546875, -0.1015625, 
372, 3188523678, 0.5012454986572266, -0.45556023716926575, -0.3911422789096832, -0.6230612397193909, 9.686707496643066, 0.3559921681880951, 2.7248587608337402, -37.78876495361328, -1.3362066745758057, -2.5252463817596436, -0.650146484375, -0.020751953125, -0.1015625, 
373, 3188532011, 0.4998900890350342, -0.4568888247013092, -0.3896011710166931, -0.6241418123245239, 9.569336891174316, 0.3186594545841217, 2.681466817855835, -37.121219635009766, -1.0020813941955566, -2.3340487480163574, -0.651123046875, -0.019775390625, -0.1015625, 
374, 3188540344, 0.4985772967338562, -0.4581974744796753, -0.38815516233444214, -0.62513267993927, 9.444136619567871, 0.2983975112438202, 2.7443087100982666, -35.42007064819336, -1.811236023902893, -2.070836305618286, -0.649658203125, -0.019775390625, -0.10205078125, 
375, 3188548677, 0.49729883670806885, -0.45950600504875183, -0.386713445186615, -0.6260833144187927, 9.400115966796875, 0.32127827405929565, 2.8238883018493652, -34.94955825805664, -1.9158698320388794, -1.5117024183273315, -0.651123046875, -0.02197265625, -0.103515625, 
376, 3188557010, 0.4960082173347473, -0.46085482835769653, -0.3852189779281616, -0.6270363330841064, 9.398285865783691, 0.3481212258338928, 2.8292295932769775, -35.770294189453125, -1.9468122720718384, -1.1012340784072876, -0.652099609375, -0.019287109375, -0.102294921875, 
377, 3188565343, 0.4946943521499634, -0.46223244071006775, -0.3836841285228729, -0.6280004382133484, 9.5221586227417, 0.3206135630607605, 2.838456392288208, -36.5196418762207, -1.9782153367996216, -0.9527226090431213, -0.648193359375, -0.01904296875, -0.1044921875, 
378, 3188573676, 0.4933977723121643, -0.46357476711273193, -0.38211971521377563, -0.628984272480011, 9.572214126586914, 0.29779234528541565, 2.7511675357818604, -36.53076171875, -1.2491565942764282, -0.9515445232391357, -0.650146484375, -0.01904296875, -0.1044921875, 
379, 3188582009, 0.4921257793903351, -0.46488264203071594, -0.3805411159992218, -0.6299718022346497, 9.579888343811035, 0.28790283203125, 2.691798686981201, -36.280555725097656, -0.7103859186172485, -0.8399428725242615, -0.651611328125, -0.01708984375, -0.106689453125, 
380, 3188590342, 0.4908513128757477, -0.4662090241909027, -0.3789234459400177, -0.63096022605896, 9.57181167602539, 0.25690916180610657, 2.6515512466430664, -36.767921447753906, -0.6044966578483582, -0.5362858772277832, -0.651123046875, -0.01708984375, -0.104736328125, 
381, 3188598675, 0.48954451084136963, -0.4675859212875366, -0.3772948086261749, -0.6319320201873779, 9.600342750549316, 0.21835672855377197, 2.7068824768066406, -37.321372985839844, -1.252384066581726, -0.35439905524253845, -0.650634765625, -0.01611328125, -0.107177734375, 
382, 3188607008, 0.4881669282913208, -0.4690210819244385, -0.3756604492664337, -0.6329070329666138, 9.616510391235352, 0.1804078221321106, 2.7294883728027344, -38.235801696777344, -2.05820894241333, -0.6665856838226318, -0.651611328125, -0.0166015625, -0.107177734375, 
383, 3188615341, 0.48677271604537964, -0.4704738259315491, -0.3740258514881134, -0.6338698863983154, 9.518827438354492, 0.1567259579896927, 2.7384538650512695, -38.400108337402344, -2.3830745220184326, -0.6247831583023071, -0.650634765625, -0.017578125, -0.105712890625, 
384, 3188623674, 0.48536333441734314, -0.471967875957489, -0.3723888099193573, -0.6348031759262085, 9.398667335510254, 0.15944623947143555, 2.8195860385894775, -38.646244049072266, -2.9869565963745117, -0.34622806310653687, -0.653564453125, -0.01708984375, -0.105712890625, 
385, 3188632007, 0.48394545912742615, -0.4734606444835663, -0.3707483410835266, -0.6357336044311523, 9.368010520935059, 0.089200459420681, 2.825850009918213, -38.70549011230469, -3.023329019546509, -0.36946019530296326, -0.651611328125, -0.01318359375, -0.10986328125, 
386, 3188640340, 0.4825764000415802, -0.4748779833316803, -0.3690866231918335, -0.6366833448410034, 9.395097732543945, 0.04492737352848053, 2.860563278198242, -38.17237854003906, -1.8404619693756104, -0.3323962986469269, -0.653076171875, -0.015625, -0.107666015625, 
387, 3188648673, 0.4812905192375183, -0.476185142993927, -0.36745724081993103, -0.6376221776008606, 9.429221153259277, -0.06302111595869064, 2.879725933074951, -36.55788803100586, -0.7486538290977478, -0.2888777256011963, -0.654052734375, -0.015869140625, -0.109619140625, 
388, 3188657006, 0.48014160990715027, -0.477338045835495, -0.36591851711273193, -0.6385106444358826, 9.458454132080078, -0.13759732246398926, 2.9030816555023193, -33.591793060302734, 0.3780280351638794, -0.14026369154453278, -0.651123046875, -0.01318359375, -0.10888671875, 
389, 3188665339, 0.47914114594459534, -0.478336364030838, -0.36452585458755493, -0.6393111944198608, 9.501035690307617, -0.12525606155395508, 2.973878860473633, -29.86958885192871, 0.9282861351966858, 0.020773159340023994, -0.65380859375, -0.012451171875, -0.10986328125, 
390, 3188673672, 0.47828054428100586, -0.4791604280471802, -0.3632983863353729, -0.6400367021560669, 9.526534080505371, -0.005083453841507435, 2.981107711791992, -25.974323272705078, 1.5897228717803955, -0.2296701818704605, -0.650634765625, -0.01416015625, -0.109619140625, 
391, 3188682005, 0.4775388538837433, -0.47981762886047363, -0.3622508943080902, -0.6406914591789246, 9.549829483032227, 0.06189246475696564, 2.854909658432007, -22.156757354736328, 1.9933903217315674, -0.7242428064346313, -0.65234375, -0.012451171875, -0.111328125, 
392, 3188690338, 0.47690048813819885, -0.480347216129303, -0.3613958954811096, -0.6412528157234192, 9.562373161315918, 0.07255848497152328, 2.7541825771331787, -18.475603103637695, 1.7618372440338135, -1.1200339794158936, -0.6533203125, -0.012939453125, -0.111328125, 
393, 3188698671, 0.47634249925613403, -0.48081040382385254, -0.3607022166252136, -0.6417108774185181, 9.564805030822754, -0.03291843459010124, 2.695927619934082, -15.571537017822266, 0.9957663416862488, -1.1156796216964722, -0.651611328125, -0.013427734375, -0.11279296875, 
394, 3188707004, 0.47586295008659363, -0.48126649856567383, -0.36015403270721436, -0.6420325636863708, 9.579834938049316, -0.17819546163082123, 2.6242454051971436, -13.049251556396484, -0.3976866900920868, -0.541843593120575, -0.65283203125, -0.010498046875, -0.1123046875, 
395, 3188715337, 0.4754667580127716, -0.481716126203537, -0.3596798777580261, -0.6422545313835144, 9.582168579101562, -0.21782946586608887, 2.5838088989257812, -11.302974700927734, -1.0807160139083862, 0.33965763449668884, -0.65478515625, -0.010986328125, -0.11279296875, 
396, 3188723670, 0.4750906527042389, -0.4821964502334595, -0.35924583673477173, -0.6424154043197632, 9.510308265686035, -0.17600196599960327, 2.623889446258545, -10.718226432800293, -1.9104634523391724, 0.7890080809593201, -0.6533203125, -0.01171875, -0.115234375, 
397, 3188732003, 0.4747169315814972, -0.4826977849006653, -0.3588602542877197, -0.6425306797027588, 9.446203231811523, -0.06141475588083267, 2.651702642440796, -10.180840492248535, -2.7136237621307373, 0.9019157886505127, -0.652099609375, -0.012939453125, -0.1142578125, 
398, 3188740336, 0.4743395447731018, -0.4831497371196747, -0.35850608348846436, -0.6426674723625183, 9.494635581970215, 0.032026831060647964, 2.6480441093444824, -9.716964721679688, -2.3458285331726074, 0.265683650970459, -0.6552734375, -0.011962890625, -0.11181640625, 
399, 3188748669, 0.4739680886268616, -0.4835309088230133, -0.35813820362091064, -0.6428597569465637, 9.561997413635254, 0.10272388160228729, 2.714925527572632, -9.606234550476074, -1.2441089153289795, -0.2905166447162628, -0.65478515625, -0.011474609375, -0.11279296875, 
400, 3188757002, 0.47358381748199463, -0.4839077889919281, -0.3577914535999298, -0.6430523991584778, 9.557589530944824, 0.19002148509025574, 2.852586030960083, -9.480854988098145, -1.3945159912109375, -0.5779340863227844, -0.65478515625, -0.011962890625, -0.11328125, 
401, 3188765335, 0.473191499710083, -0.4842548370361328, -0.35749542713165283, -0.643244743347168, 9.54744815826416, 0.26366126537323, 2.845050573348999, -8.88883113861084, -1.5134172439575195, -1.120469331741333, -0.65380859375, -0.01220703125, -0.11474609375, 
402, 3188773668, 0.4727831482887268, -0.4845912456512451, -0.3572157323360443, -0.6434469819068909, 9.512060165405273, 0.3491109311580658, 2.754316806793213, -8.832839965820312, -1.5266597270965576, -1.5002259016036987, -0.65478515625, -0.012451171875, -0.11181640625, 
403, 3188782001, 0.4722939133644104, -0.4849826693534851, -0.3569043278694153, -0.6436842083930969, 9.561113357543945, 0.28738483786582947, 2.7875137329101562, -10.179738998413086, -1.982311487197876, -1.9493460655212402, -0.654296875, -0.01318359375, -0.1142578125, 
404, 3188790334, 0.4717356860637665, -0.4854176640510559, -0.3565813899040222, -0.643944501876831, 9.596943855285645, 0.14329415559768677, 2.722243070602417, -11.140399932861328, -2.4672656059265137, -2.4306373596191406, -0.6552734375, -0.0126953125, -0.1142578125, 
405, 3188798667, 0.47119641304016113, -0.4857938289642334, -0.35624057054519653, -0.6442444324493408, 9.523208618164062, -0.08273553848266602, 2.6961963176727295, -10.981412887573242, -1.4840633869171143, -2.6770975589752197, -0.65478515625, -0.010986328125, -0.11279296875, 
406, 3188807000, 0.47071483731269836, -0.4861717224121094, -0.35595375299453735, -0.6444698572158813, 9.428683280944824, -0.20097710192203522, 2.7747397422790527, -9.76911735534668, -2.0532374382019043, -2.048191547393799, -0.654296875, -0.011474609375, -0.1123046875, 
407, 3188815333, 0.47028326988220215, -0.4865635931491852, -0.35567325353622437, -0.6446436643600464, 9.49557876586914, -0.18416927754878998, 2.8317553997039795, -9.212339401245117, -2.3298966884613037, -1.2327107191085815, -0.653076171875, -0.01318359375, -0.11474609375, 
408, 3188823666, 0.4701012969017029, -0.48679810762405396, -0.3551846146583557, -0.6448687314987183, 9.373958587646484, -0.3777798116207123, 3.011979341506958, -8.622160911560059, 1.9863967895507812, 1.2597976922988892, -0.65380859375, -0.011962890625, -0.111328125, 
409, 3188831999, 0.46996739506721497, -0.4869544506072998, -0.35472702980041504, -0.6451003551483154, 9.463944435119629, -0.7031210660934448, 3.225529432296753, -7.550540447235107, 2.7474217414855957, 1.0673325061798096, -0.65380859375, -0.011962890625, -0.11328125, 
410, 3188840332, 0.4700060188770294, -0.48704391717910767, -0.35456588864326477, -0.6450933814048767, 9.50865364074707, -0.5315335392951965, 2.9320263862609863, -2.1706528663635254, 0.6773300766944885, 1.814166784286499, -0.654296875, -0.012451171875, -0.111328125, 
411, 3188848665, 0.4705338776111603, -0.4867384433746338, -0.3546409010887146, -0.6448975801467896, 9.469037055969238, -0.2699181139469147, 2.99863600730896, 6.676542282104492, 3.7646138668060303, 3.8788273334503174, -0.65576171875, -0.01123046875, -0.11474609375, 
412, 3188856998, 0.47147655487060547, -0.4861162304878235, -0.35476887226104736, -0.6446081399917603, 9.434739112854004, -0.4005945920944214, 2.983705759048462, 12.42694091796875, 7.639153480529785, 6.254062652587891, -0.65283203125, -0.009033203125, -0.111572265625, 
413, 3188865331, 0.47230061888694763, -0.4855307638645172, -0.3550802171230316, -0.6442744731903076, 9.603782653808594, -0.42162254452705383, 2.7001712322235107, 13.238913536071777, 5.237715244293213, 4.451921463012695, -0.6552734375, -0.0107421875, -0.114990234375, 
414, 3188873664, 0.4731135666370392, -0.48481857776641846, -0.35556116700172424, -0.6439492702484131, 9.777117729187012, -0.19560645520687103, 2.477552890777588, 15.44711685180664, 5.27219295501709, 2.536770820617676, -0.65576171875, -0.009521484375, -0.113525390625, 
415, 3188881997, 0.4741760492324829, -0.4838429093360901, -0.35619208216667175, -0.6435525417327881, 9.616596221923828, -0.35009899735450745, 2.544762372970581, 20.505037307739258, 7.361649513244629, 2.93361234664917, -0.6533203125, -0.011474609375, -0.1142578125, 
416, 3188890330, 0.4752552807331085, -0.48287126421928406, -0.35697662830352783, -0.643051266670227, 9.413763999938965, -0.44271624088287354, 2.580512762069702, 22.460609436035156, 5.723439693450928, 2.7519309520721436, -0.65478515625, -0.010498046875, -0.114013671875, 
417, 3188898663, 0.47614431381225586, -0.4820801019668579, -0.357884019613266, -0.6424828171730042, 9.477926254272461, -0.3056428134441376, 2.5791826248168945, 21.43511199951172, 1.932709813117981, 1.5861492156982422, -0.65380859375, -0.007568359375, -0.114501953125, 
418, 3188906996, 0.4768409729003906, -0.4814983606338501, -0.35878992080688477, -0.6418968439102173, 9.616439819335938, -0.15059374272823334, 2.641308546066284, 18.858938217163086, -0.9585875868797302, 1.0354176759719849, -0.65380859375, -0.01025390625, -0.115234375, 
419, 3188915329, 0.4774823784828186, -0.480979859828949, -0.35959917306900024, -0.6413556337356567, 9.645039558410645, 0.10773039609193802, 2.713064193725586, 17.00640869140625, -0.8700388073921204, 1.2125909328460693, -0.6533203125, -0.010986328125, -0.11328125, 
420, 3188923662, 0.478180468082428, -0.48036396503448486, -0.3603772521018982, -0.6408603191375732, 9.530299186706543, 0.34087321162223816, 2.8205723762512207, 17.516874313354492, 0.786959171295166, 1.1273466348648071, -0.65234375, -0.011962890625, -0.11279296875, 
421, 3188931995, 0.47887879610061646, -0.4797680675983429, -0.3611551523208618, -0.6403471231460571, 9.396885871887207, 0.6413850784301758, 2.9204494953155518, 17.476016998291016, 0.48509520292282104, 1.355697512626648, -0.652587890625, -0.012451171875, -0.1142578125, 
422, 3188940328, 0.4794290363788605, -0.4793349802494049, -0.3618658781051636, -0.6398583054542542, 9.382771492004395, 0.9107543230056763, 2.9847168922424316, 14.712244987487793, -1.0694971084594727, 1.1364144086837769, -0.65283203125, -0.011474609375, -0.1123046875, 
423, 3188948661, 0.4797900915145874, -0.4790332317352295, -0.3624104857444763, -0.6395052075386047, 9.478124618530273, 0.9827908277511597, 2.824540138244629, 10.462303161621094, -1.1887824535369873, 0.3328954875469208, -0.65380859375, -0.010009765625, -0.11328125, 
424, 3188956994, 0.48005378246307373, -0.47875291109085083, -0.3628426194190979, -0.6392722725868225, 9.497922897338867, 0.8234240412712097, 2.675849437713623, 8.09267807006836, -0.31787267327308655, -0.47568202018737793, -0.65283203125, -0.011474609375, -0.11083984375, 
425, 3188965327, 0.4802965521812439, -0.4784489572048187, -0.36326706409454346, -0.6390761733055115, 9.54948616027832, 0.5002869963645935, 2.399250030517578, 7.861509323120117, 0.06786493211984634, -0.9574859142303467, -0.65185546875, -0.01123046875, -0.10888671875, 
426, 3188973660, 0.48059341311454773, -0.4781094789505005, -0.36376211047172546, -0.6388255953788757, 9.627790451049805, 0.24030140042304993, 2.24837589263916, 9.341909408569336, -0.16444341838359833, -0.7784935235977173, -0.65234375, -0.010986328125, -0.11328125, 
427, 3188981993, 0.480984628200531, -0.4776863157749176, -0.3643207848072052, -0.6385293006896973, 9.625718116760254, 0.06152951344847679, 2.326312303543091, 11.304701805114746, 0.3139665126800537, -0.4708152413368225, -0.65380859375, -0.011474609375, -0.11083984375, 
428, 3188990326, 0.4814695119857788, -0.4772050082683563, -0.3649442791938782, -0.6381677389144897, 9.572796821594238, 0.018513496965169907, 2.527007579803467, 13.199360847473145, 0.4453163146972656, 0.05492973327636719, -0.65185546875, -0.011474609375, -0.1123046875, 
429, 3188998659, 0.48197421431541443, -0.47669434547424316, -0.3656151294708252, -0.6377840638160706, 9.511332511901855, -0.01764179766178131, 2.7828567028045654, 14.055060386657715, 0.3342530429363251, -0.07046477496623993, -0.65380859375, -0.013427734375, -0.111328125, 
430, 3189006992, 0.48237699270248413, -0.4762892425060272, -0.36635762453079224, -0.6373561024665833, 9.403387069702148, 0.018298732116818428, 2.9437015056610107, 13.532246589660645, -1.8605928421020508, -0.6236811280250549, -0.652587890625, -0.013427734375, -0.11083984375, 
431, 3189015325, 0.48266440629959106, -0.4760173559188843, -0.3670930564403534, -0.6369181275367737, 9.429555892944336, 0.08977357298135757, 3.1310763359069824, 11.883225440979004, -3.6357104778289795, -0.8384308218955994, -0.65234375, -0.01123046875, -0.109375, 
432, 3189023658, 0.4828677475452423, -0.4757823050022125, -0.3677041232585907, -0.6365871429443359, 9.463582038879395, 0.20377637445926666, 3.25809907913208, 9.459068298339844, -2.849557876586914, -1.2974377870559692, -0.6533203125, -0.0107421875, -0.109375, 
433, 3189031991, 0.4830552041530609, -0.47544413805007935, -0.36821091175079346, -0.636404812335968, 9.483396530151367, 0.22415414452552795, 3.2486910820007324, 8.377787590026855, -0.3715088665485382, -2.250338554382324, -0.654052734375, -0.014404296875, -0.11181640625, 
434, 3189040324, 0.4832575023174286, -0.47501736879348755, -0.3686751127243042, -0.6363011002540588, 9.489815711975098, 0.10127744823694229, 3.0947468280792236, 8.288549423217773, 1.2872562408447266, -2.82368803024292, -0.65283203125, -0.012939453125, -0.1103515625, 
435, 3189048657, 0.48359209299087524, -0.4744616150856018, -0.3692017197608948, -0.6361560821533203, 9.549578666687012, -0.16416214406490326, 2.8323466777801514, 10.770593643188477, 2.387976884841919, -2.440908670425415, -0.652099609375, -0.014892578125, -0.109619140625, 
436, 3189056990, 0.4841817319393158, -0.4737072288990021, -0.36987897753715515, -0.6358763575553894, 9.627218246459961, -0.4782334566116333, 2.6222081184387207, 15.7523832321167, 3.5532968044281006, -1.3200809955596924, -0.652099609375, -0.014404296875, -0.109619140625, 
437, 3189065323, 0.4851113557815552, -0.4727538526058197, -0.37080442905426025, -0.6353380084037781, 9.549185752868652, -0.6306031942367554, 2.59818172454834, 22.78063201904297, 3.674556016921997, 0.7592190504074097, -0.653076171875, -0.01416015625, -0.10693359375, 
438, 3189073656, 0.48633790016174316, -0.471630334854126, -0.3720233738422394, -0.6345222592353821, 9.475245475769043, -0.6020281314849854, 2.62691068649292, 29.823535919189453, 2.925058126449585, 2.416205406188965, -0.653076171875, -0.0166015625, -0.108154296875, 
439, 3189081989, 0.48772597312927246, -0.470468133687973, -0.37348294258117676, -0.6334613561630249, 9.446231842041016, -0.3976549506187439, 2.64497971534729, 34.48518371582031, 0.8779674172401428, 3.7168984413146973, -0.651123046875, -0.01708984375, -0.108642578125, 
440, 3189090322, 0.48910102248191833, -0.46939948201179504, -0.37508195638656616, -0.6322479248046875, 9.417810440063477, -0.037091102451086044, 2.7339160442352295, 35.769920349121094, -1.9159209728240967, 4.1936564445495605, -0.651611328125, -0.01318359375, -0.10595703125, 
441, 3189098655, 0.49042248725891113, -0.46834680438041687, -0.37667208909988403, -0.6310586333274841, 9.378172874450684, 0.27103185653686523, 2.922551393508911, 35.11784744262695, -2.124741554260254, 3.7152209281921387, -0.653076171875, -0.0146484375, -0.10693359375, 
442, 3189106988, 0.4916161298751831, -0.4673037528991699, -0.37814223766326904, -0.6300230026245117, 9.364843368530273, 0.505832850933075, 3.106130838394165, 32.38926696777344, -1.0602766275405884, 2.3842391967773438, -0.65478515625, -0.01171875, -0.1044921875, 
443, 3189115321, 0.4926795959472656, -0.4662584364414215, -0.37946826219558716, -0.6291688084602356, 9.415841102600098, 0.6840860247612, 3.130788564682007, 29.376052856445312, 0.40996894240379333, 0.9526837468147278, -0.651611328125, -0.014404296875, -0.102783203125, 
444, 3189123654, 0.4936760663986206, -0.4652395248413086, -0.38065582513809204, -0.6284241676330566, 9.4634428024292, 0.7618198990821838, 3.088423490524292, 26.998228073120117, 1.4841537475585938, 0.6455431580543518, -0.653076171875, -0.015380859375, -0.103271484375, 
445, 3189131987, 0.4946567714214325, -0.4642001986503601, -0.3817209303379059, -0.6277751326560974, 9.553722381591797, 0.6936730146408081, 2.942913293838501, 25.480016708374023, 3.009302854537964, 0.5499251484870911, -0.652587890625, -0.016357421875, -0.102294921875, 
