sep=,
PacketCounter,SampleTimeFine,Quat_W,Quat_X,Quat_Y,Quat_Z,Acc_X,Acc_Y,Acc_Z,Gyr_X,Gyr_Y,Gyr_Z,Mag_X,Mag_Y,Mag_Z,
0, 3128542744, 0.6718577146530151, -0.38255178928375244, -0.19446244835853577, -0.6036770939826965, 0, 0, 0, 0, 0, 0, -0.69482421875, 0.287841796875, -0.430419921875, 
1, 3128551077, 0.6718572378158569, -0.3825499415397644, -0.19445708394050598, -0.6036806106567383, 7.074097156524658, -2.7726991176605225, 6.2277374267578125, -0.588077187538147, 0.40505072474479675, -0.17520135641098022, -0.69580078125, 0.286865234375, -0.431396484375, 
2, 3128559410, 0.6718651652336121, -0.3825328052043915, -0.19446904957294464, -0.6036787629127502, 7.092408657073975, -2.757556915283203, 6.196522235870361, -0.1503811776638031, 0.32792624831199646, -0.11493107676506042, -0.693359375, 0.289306640625, -0.431396484375, 
3, 3128567743, 0.6718925833702087, -0.38247546553611755, -0.19450394809246063, -0.6036732196807861, 7.103824615478516, -2.740368604660034, 6.1960859298706055, 0.5239775776863098, 0.48191899061203003, -0.14710256457328796, -0.69482421875, 0.286376953125, -0.431884765625, 
4, 3128576076, 0.6719358563423157, -0.38238242268562317, -0.19455213844776154, -0.6036686301231384, 7.103366851806641, -2.713144302368164, 6.165328025817871, 0.9389793872833252, 0.7458224892616272, -0.2719976007938385, -0.69287109375, 0.287353515625, -0.430419921875, 
5, 3128584409, 0.6719756722450256, -0.3822806477546692, -0.19460061192512512, -0.6036728620529175, 7.111535549163818, -2.700791835784912, 6.198653221130371, 1.0527706146240234, 0.826699435710907, -0.34786686301231384, -0.693359375, 0.289306640625, -0.432373046875, 
6, 3128592742, 0.672004222869873, -0.38218942284584045, -0.19466513395309448, -0.6036782264709473, 7.147428035736084, -2.712343692779541, 6.246098518371582, 1.058969259262085, 0.5493484735488892, -0.4860684871673584, -0.6943359375, 0.288330078125, -0.431884765625, 
7, 3128601075, 0.6720288395881653, -0.3821223974227905, -0.1947123110294342, -0.6036781072616577, 7.235208034515381, -2.7225937843322754, 6.252035140991211, 0.6852447986602783, 0.4704951345920563, -0.3115203380584717, -0.693359375, 0.285400390625, -0.431884765625, 
8, 3128609408, 0.672039270401001, -0.38208675384521484, -0.19474400579929352, -0.6036787033081055, 7.2346930503845215, -2.736362934112549, 6.274573802947998, 0.0968090072274208, 0.35661420226097107, -0.34235990047454834, -0.693359375, 0.285400390625, -0.433837890625, 
9, 3128617741, 0.672050952911377, -0.38204842805862427, -0.1947464942932129, -0.6036890149116516, 7.243677139282227, -2.7226009368896484, 6.271297931671143, -0.20283913612365723, 0.7253311276435852, -0.32916852831840515, -0.6943359375, 0.2861328125, -0.434326171875, 
10, 3128626074, 0.6720383763313293, -0.3820263743400574, -0.19473117589950562, -0.6037220358848572, 7.180903434753418, -2.7696166038513184, 6.269652843475342, -0.5324943661689758, 0.7501257658004761, -0.47778236865997314, -0.6943359375, 0.288330078125, -0.431396484375, 
11, 3128634407, 0.6720274686813354, -0.3820131719112396, -0.19473601877689362, -0.6037409901618958, 7.1491522789001465, -2.7841010093688965, 6.237457752227783, -0.5334420204162598, 0.4713915288448334, -0.5206093192100525, -0.69482421875, 0.28662109375, -0.434326171875, 
12, 3128642740, 0.6720064878463745, -0.3820096254348755, -0.19474029541015625, -0.6037653088569641, 7.121856212615967, -2.7880778312683105, 6.26678466796875, -0.561592161655426, 0.3444986641407013, -0.5202763080596924, -0.69482421875, 0.285400390625, -0.433837890625, 
13, 3128651073, 0.6719949245452881, -0.3820081055164337, -0.19476762413978577, -0.6037703156471252, 7.104840278625488, -2.790717363357544, 6.24614143371582, -0.35450097918510437, 0.06914562731981277, -0.42891034483909607, -0.693359375, 0.286865234375, -0.431884765625, 
14, 3128659406, 0.6719863414764404, -0.3819991648197174, -0.19479480385780334, -0.6037765741348267, 7.091700077056885, -2.798506736755371, 6.2336602210998535, -0.2087816298007965, 0.11806881427764893, -0.3851099908351898, -0.693359375, 0.287353515625, -0.430419921875, 
15, 3128667739, 0.6719984412193298, -0.3819587528705597, -0.19484660029411316, -0.6037721633911133, 7.078782558441162, -2.78840708732605, 6.237178802490234, 0.36063557863235474, 0.17552152276039124, -0.3753509819507599, -0.69580078125, 0.286376953125, -0.433349609375, 
16, 3128676072, 0.6720337271690369, -0.38189196586608887, -0.1949177384376526, -0.6037521362304688, 7.114503860473633, -2.8035929203033447, 6.244361400604248, 0.9923083782196045, 0.17175626754760742, -0.163470059633255, -0.69482421875, 0.286865234375, -0.430908203125, 
17, 3128684405, 0.6720815896987915, -0.38180574774742126, -0.1950078159570694, -0.6037241816520691, 7.124517917633057, -2.761705160140991, 6.229202747344971, 1.5209860801696777, 0.11742845922708511, -0.04231470823287964, -0.69140625, 0.285400390625, -0.43212890625, 
18, 3128692738, 0.6721402406692505, -0.38170745968818665, -0.19510391354560852, -0.6036900281906128, 7.103466987609863, -2.6959140300750732, 6.219354629516602, 1.650799036026001, 0.18904587626457214, -0.05540359392762184, -0.693359375, 0.287353515625, -0.430419921875, 
19, 3128701071, 0.672200083732605, -0.3816182017326355, -0.1951945424079895, -0.6036505103111267, 7.1022725105285645, -2.6791112422943115, 6.232650279998779, 1.4205269813537598, 0.19081322848796844, -0.039625220000743866, -0.6943359375, 0.286865234375, -0.433349609375, 
20, 3128709404, 0.6722310781478882, -0.3815639615058899, -0.19524110853672028, -0.6036352515220642, 7.112100124359131, -2.6711504459381104, 6.241199016571045, 0.6355533003807068, 0.30676889419555664, -0.08127397298812866, -0.69189453125, 0.287109375, -0.429931640625, 
21, 3128717737, 0.6722564697265625, -0.3815220892429352, -0.19527143239974976, -0.6036235094070435, 7.137206077575684, -2.673668622970581, 6.245117664337158, 0.11028208583593369, 0.44836434721946716, -0.23823799192905426, -0.6943359375, 0.287353515625, -0.432373046875, 
22, 3128726070, 0.6722540855407715, -0.3814871311187744, -0.19529950618743896, -0.6036391854286194, 7.1597089767456055, -2.6827094554901123, 6.232114791870117, 0.04633614793419838, 0.39207708835601807, -0.4947773218154907, -0.69287109375, 0.284423828125, -0.43212890625, 
23, 3128734403, 0.6722514033317566, -0.38145264983177185, -0.19533595442771912, -0.6036522388458252, 7.195603370666504, -2.6964073181152344, 6.22343111038208, 0.11723634600639343, 0.2947942316532135, -0.5167031288146973, -0.69140625, 0.285400390625, -0.43359375, 
24, 3128742736, 0.6722410917282104, -0.3814256191253662, -0.19539806246757507, -0.6036607027053833, 7.189144611358643, -2.705033779144287, 6.224389553070068, 0.1958848536014557, -0.03135182335972786, -0.6761389374732971, -0.69287109375, 0.285888671875, -0.431884765625, 
25, 3128751069, 0.6722206473350525, -0.3814024031162262, -0.19546619057655334, -0.6036760807037354, 7.164316177368164, -2.67826771736145, 6.2508978843688965, 0.1246260479092598, -0.1043267697095871, -0.8577438592910767, -0.6943359375, 0.284423828125, -0.431396484375, 
26, 3128759402, 0.6721978783607483, -0.3813789486885071, -0.19551509618759155, -0.6037004590034485, 7.175553321838379, -2.670921564102173, 6.274151802062988, -0.016124162822961807, 0.09274915605783463, -0.8231519460678101, -0.6640625, 0.285888671875, -0.432373046875, 
27, 3128767735, 0.6721851825714111, -0.3813444972038269, -0.1955559104681015, -0.6037232279777527, 7.200159072875977, -2.661379814147949, 6.266191005706787, 0.05733747035264969, 0.29004281759262085, -0.7197087407112122, -0.69189453125, 0.284423828125, -0.43359375, 
28, 3128776068, 0.672174870967865, -0.3813133239746094, -0.19558165967464447, -0.6037459969520569, 7.175123691558838, -2.6933462619781494, 6.246921539306641, -0.06872299313545227, 0.39700785279273987, -0.6051875352859497, -0.69287109375, 0.283447265625, -0.4326171875, 
29, 3128784401, 0.672173023223877, -0.3812868595123291, -0.19560396671295166, -0.6037575602531433, 7.206653594970703, -2.7032597064971924, 6.238080024719238, -0.06595665216445923, 0.35730573534965515, -0.39225637912750244, -0.6923828125, 0.285400390625, -0.43310546875, 
30, 3128792734, 0.6721785068511963, -0.38126832246780396, -0.1956072300672531, -0.6037620902061462, 7.185044288635254, -2.731935739517212, 6.231234073638916, -0.24087628722190857, 0.4464433491230011, -0.15422329306602478, -0.69384765625, 0.285400390625, -0.431396484375, 
31, 3128801067, 0.6721835732460022, -0.3812423348426819, -0.19562476873397827, -0.6037670969963074, 7.1925554275512695, -2.7637083530426025, 6.210269927978516, -0.1387779265642166, 0.41299110651016235, -0.31702736020088196, -0.69287109375, 0.285888671875, -0.432861328125, 
32, 3128809400, 0.6721776723861694, -0.38124242424964905, -0.19564393162727356, -0.603767454624176, 7.18572473526001, -2.744324207305908, 6.213524341583252, -0.3293350338935852, 0.09228808432817459, -0.24306629598140717, -0.69287109375, 0.284423828125, -0.43212890625, 
33, 3128817733, 0.6721829175949097, -0.38124942779541016, -0.19568173587322235, -0.6037449836730957, 7.156798362731934, -2.7433440685272217, 6.245297431945801, -0.1960129290819168, -0.19419430196285248, -0.0761895403265953, -0.69287109375, 0.285400390625, -0.433349609375, 
34, 3128826066, 0.6721693277359009, -0.38127902150154114, -0.19573089480400085, -0.6037254333496094, 7.114711284637451, -2.699718952178955, 6.258902072906494, -0.33797985315322876, -0.5546250343322754, -0.1988176852464676, -0.69287109375, 0.285400390625, -0.430908203125, 
35, 3128834399, 0.6721665859222412, -0.38129857182502747, -0.1957889199256897, -0.6036972999572754, 7.0914788246154785, -2.6546132564544678, 6.228781700134277, -0.18578003346920013, -0.5317258834838867, -0.17555995285511017, -0.69580078125, 0.284423828125, -0.430419921875, 
36, 3128842732, 0.6721575856208801, -0.381302148103714, -0.19584958255290985, -0.6036853790283203, 7.077151775360107, -2.6667373180389404, 6.228280544281006, -0.0010886050295084715, -0.3917825222015381, -0.3634275794029236, -0.6943359375, 0.286865234375, -0.433349609375, 
37, 3128851065, 0.6721530556678772, -0.3812897503376007, -0.19588610529899597, -0.6036863327026367, 7.081879615783691, -2.6649346351623535, 6.22810173034668, -0.08375854790210724, 0.05377708375453949, -0.3699207603931427, -0.69140625, 0.284423828125, -0.4345703125, 
38, 3128859398, 0.6721452474594116, -0.381279855966568, -0.19591288268566132, -0.6036925911903381, 7.095884799957275, -2.6654138565063477, 6.224339485168457, -0.19975261390209198, 0.13137540221214294, -0.37941086292266846, -0.6904296875, 0.283935546875, -0.4326171875, 
39, 3128867731, 0.6721457839012146, -0.38127297163009644, -0.1959323287010193, -0.603689968585968, 7.105669975280762, -2.7116427421569824, 6.229904651641846, -0.39629065990448, 0.21656835079193115, -0.32362303137779236, -0.69189453125, 0.283447265625, -0.4326171875, 
40, 3128876064, 0.6721358299255371, -0.381269246339798, -0.19595055282115936, -0.6036974787712097, 7.166740894317627, -2.7475571632385254, 6.242028713226318, -0.34256476163864136, 0.15935896337032318, -0.34771326184272766, -0.69287109375, 0.286376953125, -0.433349609375, 
41, 3128884397, 0.6721435189247131, -0.38124051690101624, -0.19597454369068146, -0.6036993265151978, 7.176347255706787, -2.7576069831848145, 6.243945598602295, -0.1426456719636917, 0.40295031666755676, -0.3976609706878662, -0.69384765625, 0.284423828125, -0.43408203125, 
42, 3128892730, 0.6721376180648804, -0.3812049627304077, -0.19600512087345123, -0.6037183403968811, 7.191346645355225, -2.7739155292510986, 6.255719184875488, 0.04440227150917053, 0.3816392719745636, -0.5707107782363892, -0.6943359375, 0.285400390625, -0.431884765625, 
43, 3128901063, 0.6721362471580505, -0.38115933537483215, -0.1960514634847641, -0.6037336587905884, 7.2275471687316895, -2.7632720470428467, 6.266934871673584, 0.3041050136089325, 0.3110208511352539, -0.6066988110542297, -0.693359375, 0.284912109375, -0.433349609375, 
44, 3128909396, 0.6721375584602356, -0.38111844658851624, -0.19611231982707977, -0.6037383079528809, 7.206267356872559, -2.7319209575653076, 6.266512870788574, 0.4192410111427307, 0.09404266625642776, -0.5469663739204407, -0.6943359375, 0.282470703125, -0.4306640625, 
45, 3128917729, 0.6721574664115906, -0.3810793459415436, -0.19618332386016846, -0.6037179827690125, 7.193478107452393, -2.6733179092407227, 6.278501033782959, 0.28696906566619873, 0.03536045178771019, -0.5202251672744751, -0.69482421875, 0.283447265625, -0.431640625, 
46, 3128926062, 0.6721476912498474, -0.3810575306415558, -0.19622370600700378, -0.6037294268608093, 7.181075096130371, -2.6691834926605225, 6.28587532043457, 0.00003842135629383847, 0.12647028267383575, -0.5466077923774719, -0.69189453125, 0.283447265625, -0.4326171875, 
47, 3128934395, 0.6721423268318176, -0.3810298442840576, -0.19625061750411987, -0.6037440896034241, 7.2115607261657715, -2.6865077018737793, 6.259402751922607, -0.08562838286161423, 0.34677833318710327, -0.5128993988037109, -0.693359375, 0.28369140625, -0.4345703125, 
48, 3128942728, 0.6721340417861938, -0.38100141286849976, -0.1962757259607315, -0.603763222694397, 7.197627544403076, -2.7285447120666504, 6.225498199462891, -0.07940412312746048, 0.36642441153526306, -0.5435852408409119, -0.69189453125, 0.283447265625, -0.43212890625, 
49, 3128951061, 0.6721375584602356, -0.38097110390663147, -0.1963154375553131, -0.6037652492523193, 7.186676502227783, -2.717507839202881, 6.200692176818848, 0.09068720042705536, 0.22093556821346283, -0.4271429479122162, -0.69384765625, 0.285400390625, -0.431396484375, 
50, 3128959394, 0.6721492409706116, -0.3809399902820587, -0.19634416699409485, -0.6037626266479492, 7.169995307922363, -2.739445924758911, 6.1957926750183105, 0.13905967772006989, 0.29546019434928894, -0.20326171815395355, -0.6923828125, 0.282958984375, -0.43212890625, 
51, 3128967727, 0.6721714735031128, -0.3808991312980652, -0.19639140367507935, -0.6037483811378479, 7.152249336242676, -2.751497745513916, 6.203330993652344, 0.42711734771728516, 0.19164569675922394, -0.1606396734714508, -0.6943359375, 0.283447265625, -0.4326171875, 
52, 3128976060, 0.6721917986869812, -0.3808623254299164, -0.1964292824268341, -0.6037365794181824, 7.132850646972656, -2.746555805206299, 6.211729049682617, 0.33797985315322876, 0.23339693248271942, -0.10948805510997772, -0.69482421875, 0.283935546875, -0.431396484375, 
53, 3128984393, 0.672224223613739, -0.3808237314224243, -0.19646653532981873, -0.6037126779556274, 7.146548271179199, -2.714918851852417, 6.228381156921387, 0.306487113237381, 0.277415007352829, -0.008222169242799282, -0.693359375, 0.28271484375, -0.43408203125, 
54, 3128992726, 0.6722521185874939, -0.38078996539115906, -0.19649341702461243, -0.6036941409111023, 7.161827087402344, -2.6920154094696045, 6.22451114654541, 0.27622389793395996, 0.2947686016559601, 0.08040308952331543, -0.69287109375, 0.282470703125, -0.43359375, 
55, 3129001059, 0.672277569770813, -0.38076406717300415, -0.1965164840221405, -0.6036746501922607, 7.1589155197143555, -2.676286220550537, 6.220169544219971, 0.06988844275474548, 0.288915753364563, 0.0385110042989254, -0.69677734375, 0.283935546875, -0.431396484375, 
56, 3129009392, 0.6722867488861084, -0.3807559609413147, -0.1965303272008896, -0.6036649942398071, 7.195380687713623, -2.65208101272583, 6.237178802490234, -0.1906595528125763, 0.19922751188278198, -0.017814699560403824, -0.69287109375, 0.282470703125, -0.431640625, 
57, 3129017725, 0.6722784638404846, -0.3807637095451355, -0.19654130935668945, -0.603665828704834, 7.200488090515137, -2.64278244972229, 6.227272033691406, -0.57292640209198, 0.13734354078769684, -0.2739570736885071, -0.69482421875, 0.285400390625, -0.430419921875, 
58, 3129026058, 0.6722555160522461, -0.38078007102012634, -0.19653266668319702, -0.6036838293075562, 7.184844970703125, -2.6446635723114014, 6.219776153564453, -0.8479849100112915, 0.26071450114250183, -0.35731858015060425, -0.69091796875, 0.283935546875, -0.431640625, 
59, 3129034391, 0.6722240447998047, -0.38081908226013184, -0.19651368260383606, -0.6037003993988037, 7.213055610656738, -2.6740975379943848, 6.2276082038879395, -1.204842448234558, 0.149958536028862, -0.31054699420928955, -0.69384765625, 0.283935546875, -0.4326171875, 
60, 3129042724, 0.6721875667572021, -0.3808688819408417, -0.19649042189121246, -0.6037172079086304, 7.236645698547363, -2.694711923599243, 6.2213640213012695, -1.3453620672225952, 0.07634322345256805, -0.291976660490036, -0.693359375, 0.284912109375, -0.430419921875, 
61, 3129051057, 0.6721489429473877, -0.3809407949447632, -0.1964499056339264, -0.6037279367446899, 7.214248180389404, -2.721101760864258, 6.231441020965576, -1.8217228651046753, 0.06631526350975037, -0.2100239247083664, -0.6923828125, 0.283447265625, -0.4326171875, 
62, 3129059390, 0.6721091866493225, -0.38101726770401, -0.19640830159187317, -0.6037375330924988, 7.212719917297363, -2.7382004261016846, 6.225269317626953, -1.7418320178985596, -0.023372989147901535, -0.08379696309566498, -0.6953125, 0.284423828125, -0.432373046875, 
63, 3129067723, 0.6720801591873169, -0.3810840845108032, -0.19636580348014832, -0.6037415266036987, 7.192219257354736, -2.7304046154022217, 6.247636318206787, -1.5878520011901855, 0.06622559577226639, 0.035898346453905106, -0.693359375, 0.283935546875, -0.43212890625, 
64, 3129076056, 0.6720691323280334, -0.3811314105987549, -0.1963455229997635, -0.6037304401397705, 7.183721542358398, -2.7125368118286133, 6.238831043243408, -1.1649609804153442, 0.022758251056075096, 0.10090728849172592, -0.69384765625, 0.283447265625, -0.4326171875, 
65, 3129084389, 0.6720632910728455, -0.3811766803264618, -0.19631601870059967, -0.6037179231643677, 7.1555681228637695, -2.688310146331787, 6.220498561859131, -1.1791514158248901, 0.12585555016994476, 0.20725759863853455, -0.69384765625, 0.285888671875, -0.432373046875, 
66, 3129092722, 0.672051727771759, -0.3812197148799896, -0.19628939032554626, -0.6037123799324036, 7.146319389343262, -2.6664371490478516, 6.214219093322754, -1.1189833879470825, 0.11307403445243835, 0.12183409929275513, -0.69287109375, 0.284423828125, -0.43212890625, 
67, 3129101055, 0.6720464825630188, -0.38125133514404297, -0.19627471268177032, -0.6037030220031738, 7.117686748504639, -2.6844472885131836, 6.2314558029174805, -0.9777721166610718, 0.13789422810077667, 0.033439382910728455, -0.693359375, 0.284423828125, -0.43408203125, 
68, 3129109388, 0.6720380783081055, -0.38128069043159485, -0.19625632464885712, -0.6036998629570007, 7.107458114624023, -2.6789186000823975, 6.217623233795166, -0.9157088398933411, 0.17139765620231628, 0.04437666013836861, -0.6884765625, 0.283447265625, -0.43310546875, 
69, 3129117721, 0.6720336675643921, -0.3813135623931885, -0.1962684541940689, -0.6036800146102905, 7.064548492431641, -2.682215929031372, 6.2053704261779785, -0.7620362639427185, -0.16396953165531158, -0.024013344198465347, -0.69287109375, 0.284912109375, -0.43212890625, 
70, 3129126054, 0.6720158457756042, -0.3813561201095581, -0.19627293944358826, -0.6036716103553772, 7.1071577072143555, -2.6749773025512695, 6.203274250030518, -0.8816676735877991, -0.2028135359287262, -0.06926089525222778, -0.69482421875, 0.283935546875, -0.431884765625, 
71, 3129134387, 0.6719918251037598, -0.3814142346382141, -0.19628910720348358, -0.6036564111709595, 7.133022308349609, -2.7027225494384766, 6.231498718261719, -1.03315007686615, -0.4543965458869934, -0.14382392168045044, -0.6904296875, 0.2841796875, -0.4296875, 
72, 3129142720, 0.6719558238983154, -0.3814980983734131, -0.19628669321537018, -0.6036441326141357, 7.119782447814941, -2.715062379837036, 6.206450939178467, -1.4055042266845703, -0.5507060289382935, -0.03611607104539871, -0.6923828125, 0.283447265625, -0.43310546875, 
73, 3129151053, 0.6719213724136353, -0.3816051185131073, -0.1962708830833435, -0.6036199927330017, 7.15029764175415, -2.725031852722168, 6.227599143981934, -1.7775765657424927, -0.6426099538803101, 0.153314009308815, -0.69287109375, 0.284423828125, -0.431640625, 
74, 3129159386, 0.6718862056732178, -0.38171160221099854, -0.1962549388408661, -0.603597104549408, 7.142420291900635, -2.7067930698394775, 6.241745471954346, -1.694535255432129, -0.6674813032150269, 0.20075155794620514, -0.6923828125, 0.282958984375, -0.43408203125, 
75, 3129167719, 0.6718541383743286, -0.38181135058403015, -0.1962311714887619, -0.6035773754119873, 7.154426574707031, -2.7001395225524902, 6.221827983856201, -1.6244803667068481, -0.5299841165542603, 0.2836648225784302, -0.69091796875, 0.284912109375, -0.43408203125, 
76, 3129176052, 0.6718384027481079, -0.38189348578453064, -0.1962047517299652, -0.6035515069961548, 7.175624847412109, -2.71675705909729, 6.183089256286621, -1.447127342224121, -0.332139790058136, 0.3786167800426483, -0.6943359375, 0.282958984375, -0.4306640625, 
77, 3129184385, 0.6718711256980896, -0.3818880021572113, -0.1961805373430252, -0.6035265922546387, 7.175530910491943, -2.7696661949157715, 6.1559648513793945, -0.3255569040775299, 0.5010784864425659, 0.5656519532203674, -0.69287109375, 0.282958984375, -0.431640625, 
78, 3129192718, 0.6719357967376709, -0.3818022310733795, -0.19612158834934235, -0.6035279035568237, 7.156813621520996, -2.758760929107666, 6.224390983581543, 0.18440966308116913, 1.72349214553833, 0.5138343572616577, -0.685302734375, 0.2841796875, -0.428466796875, 
79, 3129201051, 0.6719843149185181, -0.3817034661769867, -0.195975199341774, -0.6035838723182678, 7.126763343811035, -2.666862726211548, 6.381615161895752, -0.7740365266799927, 2.928821325302124, 0.2049010843038559, -0.6943359375, 0.284912109375, -0.432861328125, 
80, 3129209384, 0.671949028968811, -0.38168030977249146, -0.19567307829856873, -0.6037356853485107, 7.068443298339844, -2.5567100048065186, 6.49939489364624, -3.3435282707214355, 3.971550941467285, -0.26200804114341736, -0.69482421875, 0.284423828125, -0.431396484375, 
81, 3129217717, 0.6718481779098511, -0.38175728917121887, -0.19525820016860962, -0.6039336919784546, 7.061374187469482, -2.575829267501831, 6.485268592834473, -5.708004474639893, 4.263809680938721, -0.39458727836608887, -0.6953125, 0.284912109375, -0.431884765625, 
82, 3129226050, 0.6717328429222107, -0.3818683922290802, -0.19484442472457886, -0.6041253805160522, 7.091851234436035, -2.6826632022857666, 6.355058670043945, -6.03841495513916, 3.8800182342529297, -0.3471881151199341, -0.69287109375, 0.286376953125, -0.430419921875, 
83, 3129234383, 0.671633243560791, -0.3819487392902374, -0.19451171159744263, -0.6042926907539368, 7.134767532348633, -2.857327461242676, 6.279973030090332, -4.933173656463623, 3.30342960357666, -0.5002203583717346, -0.6923828125, 0.2841796875, -0.4345703125, 
84, 3129242716, 0.6715888381004333, -0.38192543387413025, -0.19427144527435303, -0.6044339537620544, 7.199109077453613, -2.980039119720459, 6.276427745819092, -2.8786301612854004, 3.33488392829895, -0.5816224813461304, -0.69091796875, 0.286376953125, -0.43359375, 
85, 3129251049, 0.6716142296791077, -0.3817864656448364, -0.19417230784893036, -0.6045253872871399, 7.175179481506348, -2.9877350330352783, 6.277949333190918, -0.17220449447631836, 2.9324071407318115, -0.6222978234291077, -0.69091796875, 0.285888671875, -0.43359375, 
86, 3129259382, 0.6716935038566589, -0.381580114364624, -0.19421428442001343, -0.6045542359352112, 7.173018455505371, -2.887202739715576, 6.270605087280273, 2.13916015625, 1.9757412672042847, -0.4678696095943451, -0.69189453125, 0.283935546875, -0.43408203125, 
87, 3129267715, 0.6718055605888367, -0.38134437799453735, -0.1943645179271698, -0.6045300960540771, 7.191775321960449, -2.773124933242798, 6.217122554779053, 3.5979418754577637, 1.0411800146102905, -0.3676154911518097, -0.68896484375, 0.2841796875, -0.43603515625, 
88, 3129276048, 0.6719246506690979, -0.38108885288238525, -0.1945483535528183, -0.6044997572898865, 7.206573009490967, -2.6778998374938965, 6.19840145111084, 4.139401435852051, 0.8688733577728271, -0.46669134497642517, -0.689453125, 0.283935546875, -0.43408203125, 
89, 3129284381, 0.6720070838928223, -0.380867600440979, -0.19471628963947296, -0.6044935584068298, 7.201088905334473, -2.581777572631836, 6.188034534454346, 3.450352907180786, 0.7579636573791504, -0.7967308163642883, -0.69287109375, 0.285400390625, -0.434326171875, 
90, 3129292714, 0.6720369458198547, -0.380726158618927, -0.19480980932712555, -0.604519248008728, 7.163966655731201, -2.5005686283111572, 6.208042621612549, 1.7158846855163574, 0.8103958964347839, -0.9478034973144531, -0.69189453125, 0.284912109375, -0.43212890625, 
91, 3129301047, 0.6720080375671387, -0.3806726932525635, -0.19482792913913727, -0.604578971862793, 7.12410306930542, -2.4640398025512695, 6.23512601852417, -0.14591149985790253, 0.810767412185669, -1.1324950456619263, -0.69091796875, 0.28466796875, -0.435546875, 
92, 3129309380, 0.6719533205032349, -0.3806810677051544, -0.1947363317012787, -0.604664146900177, 7.144278049468994, -2.5270442962646484, 6.270480632781982, -1.8094024658203125, 1.3606795072555542, -0.8308874368667603, -0.69140625, 0.284423828125, -0.43212890625, 
93, 3129317713, 0.671907901763916, -0.3806931674480438, -0.1945529729127884, -0.6047660708427429, 7.1596784591674805, -2.6494433879852295, 6.2652058601379395, -2.603008270263672, 2.2885549068450928, -0.4175248146057129, -0.69287109375, 0.282958984375, -0.43310546875, 
94, 3129326046, 0.6718736290931702, -0.3807072639465332, -0.19435825943946838, -0.6048580408096313, 7.1455841064453125, -2.745694398880005, 6.236739635467529, -2.683513879776001, 2.380356788635254, -0.2052084505558014, -0.68994140625, 0.284423828125, -0.4326171875, 
95, 3129334379, 0.6718783378601074, -0.3806804418563843, -0.19422778487205505, -0.6049112677574158, 7.1514387130737305, -2.7878456115722656, 6.204817295074463, -1.5491104125976562, 2.0583343505859375, -0.04094434902071953, -0.69189453125, 0.285400390625, -0.43310546875, 
96, 3129342712, 0.6719047427177429, -0.38062503933906555, -0.194169819355011, -0.6049354672431946, 7.170853614807129, -2.7603964805603027, 6.193761348724365, -0.35293853282928467, 1.4785687923431396, 0.06115398555994034, -0.6904296875, 0.28466796875, -0.435546875, 
97, 3129351045, 0.6719662547111511, -0.38054579496383667, -0.19417241215705872, -0.6049160957336426, 7.183700084686279, -2.7737865447998047, 6.214919090270996, 0.5128609538078308, 1.0432549715042114, 0.24872702360153198, -0.6923828125, 0.28515625, -0.4365234375, 
98, 3129359378, 0.6720213294029236, -0.38046422600746155, -0.19420641660690308, -0.6048953533172607, 7.19915771484375, -2.750404119491577, 6.19398307800293, 0.9255833029747009, 0.6874220371246338, 0.1651221662759781, -0.68994140625, 0.28662109375, -0.43701171875, 
99, 3129367711, 0.6720545887947083, -0.3803909420967102, -0.19425252079963684, -0.6048896908760071, 7.1780853271484375, -2.7143824100494385, 6.203817844390869, 0.9490202069282532, 0.4767449200153351, -0.05832361429929733, -0.68896484375, 0.285400390625, -0.43603515625, 
100, 3129376044, 0.6720757484436035, -0.3803618550300598, -0.19428741931915283, -0.6048731803894043, 7.138444423675537, -2.6704790592193604, 6.195478439331055, 0.2579481899738312, 0.1741383820772171, -0.020875602960586548, -0.6904296875, 0.2841796875, -0.4365234375, 
101, 3129384377, 0.6720699071884155, -0.3803917467594147, -0.1942959725856781, -0.6048582792282104, 7.141233921051025, -2.6694769859313965, 6.220270156860352, -0.74985671043396, -0.09718040376901627, -0.04177681729197502, -0.69091796875, 0.28515625, -0.43603515625, 
102, 3129392710, 0.6720290184020996, -0.3804760277271271, -0.19424958527088165, -0.604865550994873, 7.140765190124512, -2.632664680480957, 6.221977233886719, -1.8541374206542969, -0.05909202992916107, -0.02996864914894104, -0.69140625, 0.285888671875, -0.43359375, 
103, 3129401043, 0.6719825863838196, -0.38058000802993774, -0.19415521621704102, -0.6048819422721863, 7.122549057006836, -2.6207525730133057, 6.236985683441162, -2.5709776878356934, 0.2888645529747009, 0.08179906755685806, -0.68798828125, 0.28466796875, -0.4365234375, 
104, 3129409376, 0.6719189286231995, -0.38069581985473633, -0.1940212994813919, -0.6049228310585022, 7.087601184844971, -2.665196657180786, 6.2398200035095215, -3.0813028812408447, 0.6027286052703857, 0.013626773841679096, -0.6904296875, 0.28466796875, -0.435546875, 
105, 3129417709, 0.6718780994415283, -0.3807962238788605, -0.19388920068740845, -0.6049473881721497, 7.112339019775391, -2.702876567840576, 6.242554664611816, -2.777876615524292, 0.6992943286895752, 0.298072874546051, -0.68896484375, 0.285400390625, -0.43408203125, 
106, 3129426042, 0.6718696355819702, -0.3808424770832062, -0.1937694102525711, -0.6049661040306091, 7.140988349914551, -2.764317035675049, 6.2335309982299805, -1.9736026525497437, 1.082086205482483, 0.41706380248069763, -0.68994140625, 0.286865234375, -0.435546875, 
107, 3129434375, 0.6718869209289551, -0.3808658719062805, -0.19367912411689758, -0.6049610376358032, 7.160231113433838, -2.8006746768951416, 6.260733127593994, -1.4306317567825317, 0.9891321063041687, 0.5498480200767517, -0.68798828125, 0.284912109375, -0.43310546875, 
108, 3129442708, 0.6719144582748413, -0.38085755705833435, -0.19363117218017578, -0.6049510836601257, 7.189086437225342, -2.83683180809021, 6.2801103591918945, -0.6071341633796692, 0.8185156583786011, 0.45978832244873047, -0.68896484375, 0.2861328125, -0.43798828125, 
109, 3129451041, 0.6719385385513306, -0.38081592321395874, -0.19361308217048645, -0.6049562692642212, 7.213527679443359, -2.8165464401245117, 6.290510654449463, 0.2389295995235443, 0.7691442966461182, 0.35263121128082275, -0.69140625, 0.2861328125, -0.4365234375, 
110, 3129459374, 0.6719948053359985, -0.3807399570941925, -0.1936207115650177, -0.6049391031265259, 7.178264141082764, -2.7780282497406006, 6.303957939147949, 0.6507809162139893, 0.9068977236747742, 0.29589566588401794, -0.6875, 0.285400390625, -0.43408203125, 
111, 3129467707, 0.6720399260520935, -0.38067179918289185, -0.1936458945274353, -0.6049237847328186, 7.173908233642578, -2.763300895690918, 6.294909954071045, 0.6608217358589172, 0.662025511264801, 0.12156516313552856, -0.6904296875, 0.287353515625, -0.433837890625, 
112, 3129476040, 0.672069251537323, -0.3806177079677582, -0.19367782771587372, -0.6049149036407471, 7.141412734985352, -2.714139223098755, 6.277871608734131, 0.486913800239563, 0.4723905026912689, -0.07446057349443436, -0.69140625, 0.2841796875, -0.43603515625, 
113, 3129484373, 0.6720935702323914, -0.380584180355072, -0.1936900019645691, -0.6049051284790039, 7.130619049072266, -2.7005128860473633, 6.261212348937988, 0.10864278674125671, 0.46429646015167236, 0.04926898330450058, -0.68994140625, 0.2841796875, -0.43603515625, 
114, 3129492706, 0.6721134185791016, -0.38055935502052307, -0.19368992745876312, -0.6048988699913025, 7.09476900100708, -2.7194178104400635, 6.248144149780273, -0.11256174743175507, 0.5192517638206482, 0.06828755140304565, -0.6884765625, 0.28662109375, -0.43701171875, 
115, 3129501039, 0.672143816947937, -0.38052475452423096, -0.1936872899532318, -0.6048877239227295, 7.097873210906982, -2.745175361633301, 6.240877151489258, 0.05545481666922569, 0.6165346503257751, 0.21626099944114685, -0.68798828125, 0.284423828125, -0.43603515625, 
116, 3129509372, 0.6722007393836975, -0.38046956062316895, -0.19368577003479004, -0.6048597097396851, 7.116119861602783, -2.786790132522583, 6.262922286987305, 0.4139644205570221, 0.7625485062599182, 0.5033836960792542, -0.68994140625, 0.28515625, -0.4365234375, 
117, 3129517705, 0.672290563583374, -0.38037437200546265, -0.1936722695827484, -0.6048240661621094, 7.122504234313965, -2.765605926513672, 6.2997894287109375, 0.8277623653411865, 1.2755504846572876, 0.770258367061615, -0.69189453125, 0.2861328125, -0.436767578125, 
118, 3129526038, 0.6723912954330444, -0.38025805354118347, -0.19362717866897583, -0.6047996878623962, 7.131216526031494, -2.765493631362915, 6.3050312995910645, 0.8373421430587769, 1.8100682497024536, 0.9000457525253296, -0.6875, 0.28515625, -0.4365234375, 
119, 3129534371, 0.6724799871444702, -0.3801756501197815, -0.19351743161678314, -0.6047880053520203, 7.136603832244873, -2.688321828842163, 6.313034534454346, -0.11494388431310654, 2.1669132709503174, 1.1157561540603638, -0.69091796875, 0.28564453125, -0.43798828125, 
120, 3129542704, 0.6725308895111084, -0.3801407217979431, -0.19332289695739746, -0.6048157215118408, 7.11649227142334, -2.655243158340454, 6.338653087615967, -1.5579218864440918, 2.652712821960449, 1.0006200075149536, -0.686767578125, 0.28515625, -0.4375, 
121, 3129551037, 0.6725277900695801, -0.38019120693206787, -0.19302722811698914, -0.6048815250396729, 7.136082649230957, -2.636881113052368, 6.381102085113525, -3.6578919887542725, 2.9705724716186523, 0.8911064267158508, -0.68798828125, 0.286865234375, -0.43603515625, 
122, 3129559370, 0.6724438071250916, -0.3803415298461914, -0.1926421821117401, -0.6050033569335938, 7.145864009857178, -2.6291580200195312, 6.3951873779296875, -5.810794353485107, 3.0092244148254395, 0.49626296758651733, -0.6904296875, 0.28564453125, -0.43603515625, 
123, 3129567703, 0.6722935438156128, -0.3805621266365051, -0.19219067692756653, -0.6051750779151917, 7.149758815765381, -2.6596274375915527, 6.347293376922607, -7.362044811248779, 3.0828146934509277, 0.13968725502490997, -0.6884765625, 0.28759765625, -0.43896484375, 
124, 3129576036, 0.6721192002296448, -0.38079437613487244, -0.19173969328403473, -0.6053657531738281, 7.149440765380859, -2.6929783821105957, 6.326356887817383, -7.772024631500244, 3.0582499504089355, -0.3299369513988495, -0.6884765625, 0.2880859375, -0.43896484375, 
125, 3129584369, 0.6719451546669006, -0.38100188970565796, -0.19132012128829956, -0.6055613160133362, 7.141830921173096, -2.7725491523742676, 6.250181674957275, -7.4401679039001465, 3.057431221008301, -0.7201187014579773, -0.68896484375, 0.287841796875, -0.436279296875, 
126, 3129592702, 0.6717823147773743, -0.38117584586143494, -0.19094885885715485, -0.6057496070861816, 7.1220173835754395, -2.8646626472473145, 6.228096008300781, -6.504095077514648, 2.8248276710510254, -0.7836163640022278, -0.68798828125, 0.28759765625, -0.439453125, 
127, 3129601035, 0.6716727018356323, -0.38128775358200073, -0.19068709015846252, -0.605883002281189, 7.090324401855469, -2.906294822692871, 6.188200950622559, -4.656731605529785, 2.2081007957458496, -0.6128333210945129, -0.68798828125, 0.287109375, -0.4384765625, 
128, 3129609368, 0.6716258525848389, -0.38132041692733765, -0.1905495822429657, -0.6059576272964478, 7.048341274261475, -2.8884243965148926, 6.165812969207764, -2.343510389328003, 1.5509417057037354, -0.3629152774810791, -0.68798828125, 0.28759765625, -0.43798828125, 
129, 3129617701, 0.6716524362564087, -0.3812800943851471, -0.19051671028137207, -0.6059638261795044, 7.055907726287842, -2.8740265369415283, 6.175027847290039, -0.32267531752586365, 1.0645276308059692, 0.07323108613491058, -0.6884765625, 0.287841796875, -0.43603515625, 
130, 3129626034, 0.6717239618301392, -0.3811815083026886, -0.19055375456809998, -0.6059349775314331, 7.027346611022949, -2.8319106101989746, 6.195799350738525, 1.2125905752182007, 0.7995355725288391, 0.31919175386428833, -0.68701171875, 0.2900390625, -0.438720703125, 
131, 3129634367, 0.6718315482139587, -0.381053626537323, -0.19062647223472595, -0.6058732271194458, 7.043090343475342, -2.7502782344818115, 6.222503185272217, 1.8877947330474854, 0.704519510269165, 0.5230170488357544, -0.6884765625, 0.288818359375, -0.436279296875, 
132, 3129642700, 0.6719194650650024, -0.3809462785720825, -0.19069872796535492, -0.6058205366134644, 7.055098533630371, -2.7198328971862793, 6.217493057250977, 1.7377721071243286, 0.46497517824172974, 0.4700724184513092, -0.6884765625, 0.289794921875, -0.436279296875, 
133, 3129651033, 0.6719797849655151, -0.38086801767349243, -0.19077321887016296, -0.6057794094085693, 7.0898051261901855, -2.6958348751068115, 6.237829685211182, 1.31269109249115, 0.19101814925670624, 0.19803646206855774, -0.6865234375, 0.28564453125, -0.4384765625, 
134, 3129659366, 0.672031044960022, -0.38080260157585144, -0.1908261775970459, -0.6057471036911011, 7.1678924560546875, -2.704261541366577, 6.248495578765869, 0.9789888262748718, 0.2975221276283264, 0.22513629496097565, -0.6875, 0.2880859375, -0.43798828125, 
135, 3129667699, 0.6720574498176575, -0.38077548146247864, -0.19086489081382751, -0.6057224273681641, 7.207920074462891, -2.7371349334716797, 6.283642768859863, 0.2582811415195465, 0.11981058865785599, 0.03838293254375458, -0.68701171875, 0.28564453125, -0.4375, 
136, 3129676032, 0.6720541715621948, -0.38077956438064575, -0.19088289141654968, -0.6057177782058716, 7.229170799255371, -2.7486019134521484, 6.30467414855957, -0.34745708107948303, 0.05080583319067955, -0.15786051750183105, -0.685546875, 0.287353515625, -0.43701171875, 
137, 3129684365, 0.6720297336578369, -0.3808120787143707, -0.19087231159210205, -0.6057277917861938, 7.230172157287598, -2.7354185581207275, 6.294608116149902, -1.0630675554275513, 0.12928785383701324, -0.29256579279899597, -0.6875, 0.2890625, -0.437744140625, 
138, 3129692698, 0.6719900965690613, -0.38086745142936707, -0.1908319741487503, -0.6057497262954712, 7.2123260498046875, -2.726485252380371, 6.299666881561279, -1.569537878036499, 0.20692461729049683, -0.26628559827804565, -0.68603515625, 0.28857421875, -0.43896484375, 
139, 3129701031, 0.6719537377357483, -0.38093307614326477, -0.19078709185123444, -0.6057628989219666, 7.147897720336914, -2.739736557006836, 6.286749839782715, -1.732162594795227, 0.15892350673675537, -0.162419855594635, -0.6865234375, 0.287841796875, -0.4365234375, 
140, 3129709364, 0.6719139218330383, -0.3810182213783264, -0.19071875512599945, -0.6057751774787903, 7.1002349853515625, -2.7415120601654053, 6.289464950561523, -2.051917791366577, 0.16603146493434906, 0.047002121806144714, -0.685546875, 0.2900390625, -0.440185546875, 
141, 3129717697, 0.6718816161155701, -0.3811194598674774, -0.19064924120903015, -0.605769157409668, 7.111694812774658, -2.7818408012390137, 6.285279750823975, -2.217834234237671, 0.007799534127116203, 0.25331196188926697, -0.68798828125, 0.2890625, -0.439697265625, 
142, 3129726030, 0.6718481779098511, -0.38122817873954773, -0.19057004153728485, -0.6057628989219666, 7.083575248718262, -2.7909014225006104, 6.265841484069824, -2.27866792678833, -0.01078359130769968, 0.3890930116176605, -0.682373046875, 0.288818359375, -0.43505859375, 
143, 3129734363, 0.6718422174453735, -0.38130855560302734, -0.19049423933029175, -0.6057425141334534, 7.070664882659912, -2.8098304271698, 6.2736639976501465, -2.031618595123291, 0.27997642755508423, 0.4723649024963379, -0.6875, 0.289794921875, -0.436767578125, 
144, 3129742696, 0.6718308925628662, -0.3813699185848236, -0.19041557610034943, -0.6057412028312683, 7.09221076965332, -2.8193631172180176, 6.272134780883789, -1.731624722480774, 0.4639890491962433, 0.4025661051273346, -0.68798828125, 0.289794921875, -0.435302734375, 
145, 3129751029, 0.6718253493309021, -0.38141536712646484, -0.1903553605079651, -0.605737566947937, 7.083202838897705, -2.8370821475982666, 6.279201030731201, -1.4516355991363525, 0.4540763795375824, 0.293321430683136, -0.68701171875, 0.288330078125, -0.4345703125, 
146, 3129759362, 0.6718282699584961, -0.381442666053772, -0.19032928347587585, -0.6057254076004028, 7.1105194091796875, -2.8507015705108643, 6.277550220489502, -0.8769289255142212, 0.24247713387012482, 0.2557453215122223, -0.68896484375, 0.289794921875, -0.437255859375, 
147, 3129767695, 0.6718488335609436, -0.38144248723983765, -0.19036635756492615, -0.6056910157203674, 7.0972723960876465, -2.8202943801879883, 6.255704879760742, -0.018519088625907898, -0.151328906416893, 0.15102151036262512, -0.6875, 0.2890625, -0.438720703125, 
148, 3129776028, 0.6718891859054565, -0.3814123868942261, -0.190432608127594, -0.6056444048881531, 7.1025872230529785, -2.8056883811950684, 6.24590539932251, 0.7088227272033691, -0.21627378463745117, 0.2509170472621918, -0.68701171875, 0.289794921875, -0.434326171875, 
149, 3129784361, 0.67195063829422, -0.38133737444877625, -0.19049973785877228, -0.6056023836135864, 7.085455894470215, -2.7342886924743652, 6.2741804122924805, 1.138655185699463, 0.26856523752212524, 0.192132368683815, -0.6875, 0.288818359375, -0.435791015625, 
150, 3129792694, 0.6719894409179688, -0.3812735080718994, -0.19053810834884644, -0.6055875420570374, 7.068546772003174, -2.697608232498169, 6.272491931915283, 0.6962461471557617, 0.486183762550354, 0.0020747529342770576, -0.6875, 0.288818359375, -0.437255859375, 
151, 3129801027, 0.6720179319381714, -0.38123592734336853, -0.19056019186973572, -0.6055727005004883, 7.061286449432373, -2.700162649154663, 6.283801555633545, 0.19415588676929474, 0.42209696769714355, 0.01682855188846588, -0.68798828125, 0.289306640625, -0.436767578125, 
152, 3129809360, 0.6720268726348877, -0.38121935725212097, -0.19055593013763428, -0.6055744886398315, 7.109260559082031, -2.73624849319458, 6.254331588745117, -0.2956266403198242, 0.4940473437309265, -0.052547600120306015, -0.68798828125, 0.28759765625, -0.43798828125, 
153, 3129817693, 0.6720142364501953, -0.3812272846698761, -0.19051501154899597, -0.6055963635444641, 7.1403326988220215, -2.728938341140747, 6.254181385040283, -0.9922826290130615, 0.6777270436286926, -0.1613568663597107, -0.6875, 0.288818359375, -0.434814453125, 
154, 3129826026, 0.6719887256622314, -0.3812527358531952, -0.19046145677566528, -0.6056253910064697, 7.134817600250244, -2.769108772277832, 6.265418529510498, -1.417030692100525, 0.6844507455825806, -0.2759677767753601, -0.6875, 0.289306640625, -0.436767578125, 
155, 3129834359, 0.6719505190849304, -0.3812977373600006, -0.19042310118675232, -0.6056515574455261, 7.12022590637207, -2.8156163692474365, 6.256326198577881, -1.4985607862472534, 0.3210616111755371, -0.3570367991924286, -0.68994140625, 0.28759765625, -0.436279296875, 
156, 3129842692, 0.6719120144844055, -0.3813383877277374, -0.19041761755943298, -0.6056704521179199, 7.1100687980651855, -2.8239710330963135, 6.307190895080566, -1.127922773361206, -0.005020390264689922, -0.44909438490867615, -0.68603515625, 0.289794921875, -0.437255859375, 
157, 3129851025, 0.6718864440917969, -0.3813762068748474, -0.1904284805059433, -0.6056715250015259, 7.097815990447998, -2.842761993408203, 6.332920551300049, -0.958740770816803, -0.14758920669555664, -0.35468029975891113, -0.685546875, 0.287841796875, -0.4375, 
158, 3129859358, 0.6718683838844299, -0.3813943564891815, -0.19045959413051605, -0.6056704521179199, 7.117171764373779, -2.8165392875671387, 6.327383518218994, -0.4563944339752197, -0.20670686662197113, -0.34630441665649414, -0.68603515625, 0.28759765625, -0.43798828125, 
159, 3129867691, 0.6718671917915344, -0.3813883662223816, -0.19051189720630646, -0.605659008026123, 7.1344380378723145, -2.814650774002075, 6.3242292404174805, 0.0717838928103447, -0.21126621961593628, -0.2664136588573456, -0.6865234375, 0.288818359375, -0.4365234375, 
160, 3129876024, 0.6718812584877014, -0.38136908411979675, -0.19055300951004028, -0.6056427359580994, 7.1619415283203125, -2.7979776859283447, 6.362868785858154, 0.18151526153087616, 0.01686697266995907, -0.08888139575719833, -0.6884765625, 0.289306640625, -0.435302734375, 
161, 3129884357, 0.6718831062316895, -0.38137340545654297, -0.19055777788162231, -0.6056365370750427, 7.154752731323242, -2.7775490283966064, 6.336725234985352, -0.3165535032749176, 0.14154423773288727, 0.07594620436429977, -0.689453125, 0.28955078125, -0.437744140625, 
162, 3129892690, 0.671894907951355, -0.38138049840927124, -0.19055184721946716, -0.605620801448822, 7.14328670501709, -2.778671979904175, 6.311661243438721, -0.46785682439804077, 0.22678843140602112, 0.20411983132362366, -0.68798828125, 0.287841796875, -0.43603515625, 
163, 3129901023, 0.6718968152999878, -0.3814058303833008, -0.19050179421901703, -0.6056182980537415, 7.103288173675537, -2.7455759048461914, 6.310574054718018, -1.185349941253662, 0.5685464143753052, 0.2044912427663803, -0.68798828125, 0.28955078125, -0.437744140625, 
164, 3129909356, 0.6718721985816956, -0.38144755363464355, -0.19040751457214355, -0.6056489944458008, 7.080033779144287, -2.726189374923706, 6.296492576599121, -1.8344147205352783, 0.9053735136985779, 0.026446696370840073, -0.68701171875, 0.290771484375, -0.436279296875, 
165, 3129917689, 0.6718268990516663, -0.38152045011520386, -0.1902826726436615, -0.6056925654411316, 7.049633979797363, -2.7181005477905273, 6.2928595542907715, -2.5380632877349854, 0.951965868473053, -0.03112129308283329, -0.6875, 0.290283203125, -0.437744140625, 
166, 3129926022, 0.6717693209648132, -0.3815995752811432, -0.1901332437992096, -0.6057536005973816, 7.050769329071045, -2.711920976638794, 6.296156406402588, -2.8921802043914795, 1.1758599281311035, -0.14162111282348633, -0.68798828125, 0.2890625, -0.439208984375, 
167, 3129934355, 0.6717122793197632, -0.38166937232017517, -0.18994885683059692, -0.6058306097984314, 7.057802200317383, -2.762861490249634, 6.3215107917785645, -3.144557476043701, 1.669113278388977, -0.12399852275848389, -0.68798828125, 0.28759765625, -0.4384765625, 
168, 3129942688, 0.6716646552085876, -0.3817026615142822, -0.18977496027946472, -0.6059169173240662, 7.096477031707764, -2.813002824783325, 6.34440279006958, -2.6875991821289062, 1.9411619901657104, -0.2843436002731323, -0.68798828125, 0.2900390625, -0.438720703125, 
169, 3129951021, 0.6716289520263672, -0.381686806678772, -0.18963001668453217, -0.6060118079185486, 7.111945152282715, -2.8368449211120605, 6.367613315582275, -1.8909965753555298, 2.142874002456665, -0.482008695602417, -0.6845703125, 0.289306640625, -0.4384765625, 
170, 3129959354, 0.6716189980506897, -0.38162803649902344, -0.18950395286083221, -0.6060993075370789, 7.158881664276123, -2.8376190662384033, 6.369630336761475, -1.2426233291625977, 2.373197555541992, -0.47201916575431824, -0.68603515625, 0.291259765625, -0.436279296875, 
171, 3129967687, 0.6716530323028564, -0.381514310836792, -0.18940016627311707, -0.6061656475067139, 7.173328876495361, -2.863842010498047, 6.382287979125977, -0.486593633890152, 2.7136874198913574, -0.35575610399246216, -0.68798828125, 0.291015625, -0.438720703125, 
172, 3129976020, 0.6716955304145813, -0.38138988614082336, -0.1892877072095871, -0.6062319278717041, 7.229648113250732, -2.8333382606506348, 6.382225513458252, -0.19320815801620483, 2.8194994926452637, -0.08163256198167801, -0.685546875, 0.289794921875, -0.43798828125, 
173, 3129984353, 0.671717643737793, -0.38132578134536743, -0.18915081024169922, -0.6062905788421631, 7.21645450592041, -2.7663581371307373, 6.341650009155273, -1.0415387153625488, 2.44815731048584, 0.10424993187189102, -0.6845703125, 0.28857421875, -0.439453125, 
174, 3129992686, 0.6717206835746765, -0.3813157081604004, -0.18900226056575775, -0.6063398718833923, 7.205841541290283, -2.731644630432129, 6.276883125305176, -1.7948919534683228, 2.043055534362793, 0.1702706217765808, -0.679931640625, 0.290283203125, -0.4375, 
175, 3130001019, 0.6717284917831421, -0.3813268542289734, -0.188844695687294, -0.6063731908798218, 7.1893720626831055, -2.7420687675476074, 6.218723297119141, -2.1021347045898438, 1.9158294200897217, 0.37246939539909363, -0.68701171875, 0.28955078125, -0.438232421875, 
176, 3130009352, 0.6717163920402527, -0.38135120272636414, -0.1886824369430542, -0.606421947479248, 7.131762981414795, -2.7551183700561523, 6.150970935821533, -2.2235336303710938, 1.8050864934921265, 0.2721256613731384, -0.68701171875, 0.28857421875, -0.4384765625, 
177, 3130017685, 0.6717202663421631, -0.38136255741119385, -0.18854324519634247, -0.6064537763595581, 7.089593887329102, -2.7787792682647705, 6.13192081451416, -1.8361949920654297, 1.6756322383880615, 0.37125271558761597, -0.68701171875, 0.289794921875, -0.437744140625, 
178, 3130026018, 0.6717213988304138, -0.3813842833042145, -0.18841417133808136, -0.6064790487289429, 7.036728858947754, -2.7722175121307373, 6.163111686706543, -1.7911009788513184, 1.4316178560256958, 0.4204704463481903, -0.6865234375, 0.290283203125, -0.437744140625, 
179, 3130034351, 0.6717144250869751, -0.38143637776374817, -0.18830335140228271, -0.6064882278442383, 7.0121965408325195, -2.796590566635132, 6.211472034454346, -2.023499011993408, 0.9485591650009155, 0.4035394787788391, -0.68505859375, 0.291015625, -0.440185546875, 
180, 3130042684, 0.6717039942741394, -0.38150614500045776, -0.18822413682937622, -0.6064805388450623, 7.038646697998047, -2.7722713947296143, 6.270158290863037, -1.7957884073257446, 0.36604025959968567, 0.49032044410705566, -0.6865234375, 0.290771484375, -0.437744140625, 
181, 3130051017, 0.6717172265052795, -0.38154613971710205, -0.18815185129642487, -0.6064633727073669, 7.08349609375, -2.7209200859069824, 6.369992733001709, -1.3696444034576416, 0.5890121459960938, 0.621491014957428, -0.68212890625, 0.290771484375, -0.4384765625, 
182, 3130059350, 0.6717365384101868, -0.3815320134162903, -0.18804164230823517, -0.6064850687980652, 7.128076553344727, -2.6890926361083984, 6.444112777709961, -1.1988229751586914, 1.5848679542541504, 0.4129142761230469, -0.6845703125, 0.291259765625, -0.437255859375, 
183, 3130067683, 0.6717857718467712, -0.3814454972743988, -0.18785758316516876, -0.6065419912338257, 7.135355472564697, -2.7206151485443115, 6.4944844245910645, -1.0793582201004028, 3.1319167613983154, 0.5380654335021973, -0.685546875, 0.292236328125, -0.438232421875, 
184, 3130076016, 0.6718569993972778, -0.3813367187976837, -0.1876383274793625, -0.6065991520881653, 7.131631851196289, -2.8003480434417725, 6.469919204711914, -1.121903419494629, 3.733569383621216, 0.7953091859817505, -0.68310546875, 0.29052734375, -0.43994140625, 
185, 3130084349, 0.6719174385070801, -0.38123172521591187, -0.18738631904125214, -0.6066761016845703, 7.134388446807861, -2.828030824661255, 6.414763450622559, -1.5234194993972778, 4.072894096374512, 0.7142529487609863, -0.68603515625, 0.28857421875, -0.4404296875, 
186, 3130092682, 0.6720006465911865, -0.38107937574386597, -0.18712098896503448, -0.6067615747451782, 7.113332748413086, -2.8637962341308594, 6.343713760375977, -1.045854926109314, 4.6702561378479, 0.8130086660385132, -0.68408203125, 0.291015625, -0.439697265625, 
187, 3130101015, 0.6721277236938477, -0.3808862566947937, -0.1869044005870819, -0.6068087816238403, 7.106513500213623, -2.928046226501465, 6.235282897949219, 0.012743080966174603, 4.497180938720703, 1.1368237733840942, -0.68505859375, 0.2919921875, -0.442138671875, 
188, 3130109348, 0.6722666621208191, -0.38071420788764954, -0.1867503672838211, -0.6068103909492493, 7.130422115325928, -2.831944465637207, 6.231603622436523, 0.5728238821029663, 3.5094447135925293, 1.4179911613464355, -0.68408203125, 0.2919921875, -0.441162109375, 
189, 3130117681, 0.6723871231079102, -0.3805953860282898, -0.1866157054901123, -0.6067927479743958, 7.248636245727539, -2.658987522125244, 6.287158966064453, 0.13347578048706055, 2.767029047012329, 1.4338593482971191, -0.685546875, 0.291015625, -0.442138671875, 
190, 3130126014, 0.672398567199707, -0.3806212842464447, -0.18634286522865295, -0.6068478226661682, 7.341947555541992, -2.5193347930908203, 6.285691738128662, -3.0533323287963867, 2.9081122875213623, 0.9901695251464844, -0.685546875, 0.29150390625, -0.440673828125, 
191, 3130134347, 0.6722761988639832, -0.3807954490184784, -0.18590545654296875, -0.6070083379745483, 7.328769683837891, -2.542724847793579, 6.280839443206787, -6.797186374664307, 3.418732166290283, 0.12481817603111267, -0.68212890625, 0.29248046875, -0.443115234375, 
192, 3130142680, 0.6720590591430664, -0.38108617067337036, -0.18530476093292236, -0.6072497963905334, 7.3098039627075195, -2.641449213027954, 6.337923049926758, -9.911173820495605, 4.120243072509766, -0.24512825906276703, -0.68359375, 0.291015625, -0.43994140625, 
193, 3130151013, 0.6717774271965027, -0.3814878761768341, -0.18463854491710663, -0.6075120568275452, 7.243368625640869, -2.76450777053833, 6.358443737030029, -11.916231155395508, 3.7652292251586914, -0.3757352828979492, -0.68310546875, 0.29443359375, -0.443603515625, 
194, 3130159346, 0.6715347766876221, -0.381798654794693, -0.1840098798274994, -0.607775866985321, 7.208065032958984, -2.887826442718506, 6.376258373260498, -10.521560668945312, 4.264117240905762, -0.4681514799594879, -0.6845703125, 0.29345703125, -0.444091796875, 
195, 3130167679, 0.671451210975647, -0.38180238008499146, -0.1834859848022461, -0.6080242991447449, 7.209636688232422, -3.1365678310394287, 6.257139205932617, -6.074466228485107, 6.243892192840576, -0.43362337350845337, -0.68359375, 0.29443359375, -0.441162109375, 
196, 3130176012, 0.6715648770332336, -0.3815516531467438, -0.18315082788467407, -0.6081571578979492, 7.259415149688721, -3.457977056503296, 6.119452476501465, -0.6820942163467407, 6.459679126739502, 0.7609989047050476, -0.68310546875, 0.29541015625, -0.443115234375, 
197, 3130184345, 0.6717709302902222, -0.3813594579696655, -0.18314729630947113, -0.6080513000488281, 7.214400768280029, -3.5492372512817383, 6.067967891693115, 2.565265655517578, 1.9221947193145752, 2.091888904571533, -0.681640625, 0.294921875, -0.445068359375, 
198, 3130192678, 0.6719727516174316, -0.3814151883125305, -0.18357840180397034, -0.6076631546020508, 7.170964241027832, -3.2597310543060303, 6.230386734008789, 4.670257091522217, -5.690971851348877, 3.063142776489258, -0.68359375, 0.2939453125, -0.442626953125, 
199, 3130201011, 0.6722120642662048, -0.3815600275993347, -0.1843242347240448, -0.6070813536643982, 7.256270885467529, -2.776979684829712, 6.690305233001709, 7.124677658081055, -10.243788719177246, 3.7128098011016846, -0.679443359375, 0.29248046875, -0.44287109375, 
200, 3130209344, 0.672526478767395, -0.38138583302497864, -0.18512199819087982, -0.6065995693206787, 7.510449409484863, -2.4662609100341797, 7.173256874084473, 10.686003684997559, -7.366513729095459, 2.361325263977051, -0.681640625, 0.295654296875, -0.439208984375, 
201, 3130217677, 0.673101544380188, -0.3803402781486511, -0.18581154942512512, -0.6064073443412781, 7.594987392425537, -2.564730405807495, 7.543145656585693, 18.423479080200195, 3.109236001968384, 0.17468911409378052, -0.68212890625, 0.2919921875, -0.44091796875, 
202, 3130226010, 0.6740285158157349, -0.3782598078250885, -0.1865309178829193, -0.6064581871032715, 7.308404922485352, -3.0927107334136963, 7.552093505859375, 29.519250869750977, 13.609981536865234, -1.9095299243927002, -0.6826171875, 0.294921875, -0.442138671875, 
203, 3130234343, 0.6752432584762573, -0.3754902482032776, -0.1872633844614029, -0.6066024303436279, 7.104819297790527, -3.6026155948638916, 7.041069507598877, 37.272457122802734, 20.45855712890625, -2.2106528282165527, -0.683837890625, 0.288330078125, -0.4453125, 
204, 3130242676, 0.6766927242279053, -0.37239712476730347, -0.18824870884418488, -0.6065888404846191, 7.010666847229004, -3.849592447280884, 6.5695881843566895, 44.00056076049805, 20.608360290527344, -0.920974612236023, -0.682373046875, 0.2880859375, -0.44970703125, 
205, 3130251009, 0.6784100532531738, -0.3691796362400055, -0.1896517127752304, -0.6062003970146179, 6.803271293640137, -3.940372943878174, 6.107442855834961, 50.61383056640625, 16.66517448425293, 2.003909111022949, -0.681396484375, 0.28515625, -0.451416015625, 
206, 3130259342, 0.6803327798843384, -0.3659161329269409, -0.19154170155525208, -0.6054295301437378, 6.669050693511963, -3.8197741508483887, 5.852904319763184, 57.519195556640625, 10.95882797241211, 5.023991107940674, -0.67431640625, 0.280517578125, -0.455810546875, 
207, 3130267675, 0.682425320148468, -0.3626123368740082, -0.19391070306301117, -0.6043071150779724, 6.532259464263916, -3.5266711711883545, 5.940097332000732, 63.65498733520508, 5.50199556350708, 7.205552577972412, -0.68115234375, 0.27880859375, -0.45751953125, 
208, 3130276008, 0.6843775510787964, -0.35957732796669006, -0.19655346870422363, -0.6030579805374146, 6.493380546569824, -3.0506672859191895, 5.936204433441162, 63.053443908691406, -0.3194619119167328, 6.584098815917969, -0.677734375, 0.276123046875, -0.454345703125, 
209, 3130284341, 0.6861317753791809, -0.35682785511016846, -0.19894468784332275, -0.6019124388694763, 6.702407360076904, -2.4223499298095703, 5.847181797027588, 57.02284240722656, -0.3404397666454315, 5.983182430267334, -0.6767578125, 0.271484375, -0.4580078125, 
210, 3130292674, 0.6876051425933838, -0.35454773902893066, -0.20075219869613647, -0.60097736120224, 6.810362815856934, -1.9713315963745117, 5.7616190910339355, 45.74903106689453, 1.5715388059616089, 5.767030239105225, -0.6787109375, 0.2685546875, -0.4599609375, 
211, 3130301007, 0.6886825561523438, -0.35299238562583923, -0.20195111632347107, -0.600257158279419, 6.69706392288208, -1.7026571035385132, 5.8222808837890625, 31.340696334838867, 1.2921751737594604, 5.43159294128418, -0.672119140625, 0.267578125, -0.460693359375, 
212, 3130309340, 0.6893395185470581, -0.35223737359046936, -0.20270110666751862, -0.5996935963630676, 6.6294050216674805, -1.5293771028518677, 5.960300445556641, 17.640913009643555, -1.497318983078003, 4.9329962730407715, -0.678466796875, 0.267822265625, -0.46044921875, 
213, 3130317673, 0.6896862387657166, -0.352161705493927, -0.20310166478157043, -0.5992036461830139, 6.637700080871582, -1.3919163942337036, 6.1576714515686035, 6.550482273101807, -4.2685747146606445, 5.211524486541748, -0.677490234375, 0.267333984375, -0.461181640625, 
214, 3130326006, 0.6897538900375366, -0.3526094853878021, -0.20315708220005035, -0.5988436341285706, 6.897636890411377, -1.3095424175262451, 6.376941680908203, -2.9127490520477295, -5.484393119812012, 4.86407995223999, -0.678466796875, 0.268798828125, -0.46142578125, 
215, 3130334339, 0.6896083354949951, -0.3533642590045929, -0.202710822224617, -0.5987175107002258, 6.998216152191162, -1.1455003023147583, 6.486611843109131, -11.703978538513184, -2.6893796920776367, 4.130373001098633, -0.678466796875, 0.26806640625, -0.45947265625, 
216, 3130342672, 0.6892763376235962, -0.3542797267436981, -0.20182093977928162, -0.598859429359436, 6.884578227996826, -1.2834416627883911, 6.584906578063965, -18.47364616394043, 0.9509799480438232, 2.706529140472412, -0.67919921875, 0.26806640625, -0.458984375, 
217, 3130351005, 0.6887007355690002, -0.3554718494415283, -0.20072558522224426, -0.5991831421852112, 6.706447124481201, -1.4465409517288208, 6.550822734832764, -24.541200637817383, 0.8571295142173767, 0.6970917582511902, -0.677734375, 0.271484375, -0.45654296875, 
218, 3130359338, 0.6879405975341797, -0.35678529739379883, -0.19961629807949066, -0.5996461510658264, 6.750173568725586, -1.5106279850006104, 6.503147602081299, -27.029747009277344, 0.13307884335517883, -1.690643072128296, -0.67919921875, 0.2724609375, -0.457763671875, 
219, 3130367671, 0.6872420310974121, -0.35786330699920654, -0.19845926761627197, -0.6001887321472168, 6.888789176940918, -1.8296940326690674, 6.555966854095459, -25.11174964904785, 3.0859920978546143, -2.3459324836730957, -0.67724609375, 0.27392578125, -0.459228515625, 
220, 3130376004, 0.686606228351593, -0.3587079346179962, -0.19727781414985657, -0.6008013486862183, 7.01774787902832, -2.3695554733276367, 6.594204425811768, -23.053871154785156, 5.786783695220947, -3.0580079555511475, -0.67822265625, 0.275634765625, -0.456787109375, 
221, 3130384337, 0.6860792636871338, -0.35934290289878845, -0.19628693163394928, -0.6013482213020325, 7.078312397003174, -2.9744367599487305, 6.575977325439453, -18.784385681152344, 5.692675590515137, -3.0437660217285156, -0.67431640625, 0.274169921875, -0.45556640625, 
222, 3130392670, 0.6857461929321289, -0.35967475175857544, -0.19571101665496826, -0.6017171740531921, 7.149741172790527, -3.3173227310180664, 6.507472515106201, -10.99035358428955, 3.8982951641082764, -2.582658290863037, -0.67822265625, 0.27587890625, -0.458251953125, 
223, 3130401003, 0.6857136487960815, -0.35951706767082214, -0.1957150250673294, -0.6018472909927368, 7.259527683258057, -3.4238054752349854, 6.576180458068848, 0.5520764589309692, 2.106502056121826, -2.0317726135253906, -0.67724609375, 0.2763671875, -0.459228515625, 
224, 3130409336, 0.6859684586524963, -0.3588847815990448, -0.19613215327262878, -0.601798415184021, 7.289188385009766, -3.4720776081085205, 6.5820746421813965, 10.289456367492676, 2.0573995113372803, -1.330736517906189, -0.677734375, 0.2744140625, -0.459716796875, 
225, 3130417669, 0.6864151954650879, -0.35794442892074585, -0.1967703253030777, -0.6016409397125244, 7.195825099945068, -3.2954940795898438, 6.401251792907715, 16.265108108520508, 2.5034210681915283, -0.6410220861434937, -0.67919921875, 0.2744140625, -0.459228515625, 
226, 3130426002, 0.6869709491729736, -0.3568829894065857, -0.19755184650421143, -0.6013810634613037, 6.960649490356445, -2.963580846786499, 6.280474662780762, 19.46895408630371, 1.9136145114898682, 0.24208025634288788, -0.67724609375, 0.27197265625, -0.46142578125, 
227, 3130434335, 0.687524676322937, -0.3558907210826874, -0.19839057326316833, -0.6010599732398987, 6.767993927001953, -2.5896072387695312, 6.209356307983398, 19.384014129638672, 0.5249126553535461, 0.6618720293045044, -0.6767578125, 0.27294921875, -0.45947265625, 
228, 3130442668, 0.687992513179779, -0.3550862967967987, -0.19918975234031677, -0.6007359027862549, 6.68019437789917, -2.247166633605957, 6.282374858856201, 16.92998695373535, -0.9320381283760071, 0.7357434034347534, -0.67919921875, 0.270751953125, -0.46240234375, 
229, 3130451001, 0.6883387565612793, -0.35454505681991577, -0.19985473155975342, -0.6004382371902466, 6.648133754730225, -2.0704994201660156, 6.424022674560547, 12.605611801147461, -2.0131382942199707, 0.8083598613739014, -0.6787109375, 0.268798828125, -0.4609375, 
230, 3130459334, 0.6885213255882263, -0.35430365800857544, -0.20032992959022522, -0.6002129912376404, 6.721909046173096, -1.9843677282333374, 6.569596767425537, 7.263031959533691, -2.815491199493408, 0.5703138113021851, -0.6796875, 0.27001953125, -0.45849609375, 
231, 3130467667, 0.6885330677032471, -0.35434025526046753, -0.20058321952819824, -0.6000933647155762, 6.802028656005859, -1.8451629877090454, 6.738291263580322, 1.615835428237915, -2.9383625984191895, -0.04146944358944893, -0.670166015625, 0.26904296875, -0.458740234375, 
232, 3130476000, 0.688372015953064, -0.3546087145805359, -0.20054028928279877, -0.6001337766647339, 6.895650386810303, -1.769205093383789, 6.828309059143066, -4.248095512390137, -1.7719670534133911, -0.8528516292572021, -0.6787109375, 0.269775390625, -0.462890625, 
233, 3130484333, 0.6880737543106079, -0.35508662462234497, -0.20013463497161865, -0.600328803062439, 6.976757049560547, -1.8589190244674683, 6.822033405303955, -10.379453659057617, 0.33673760294914246, -1.1478252410888672, -0.678955078125, 0.268310546875, -0.4599609375, 
234, 3130492666, 0.6876705884933472, -0.3557316064834595, -0.19943532347679138, -0.6006414294242859, 6.91114616394043, -2.089982032775879, 6.742516994476318, -15.160414695739746, 1.9948370456695557, -1.186259388923645, -0.67919921875, 0.269287109375, -0.4619140625, 
235, 3130500999, 0.6871991157531738, -0.3565070629119873, -0.19857537746429443, -0.6010059714317322, 6.826617240905762, -2.366478443145752, 6.656014919281006, -18.25909996032715, 2.5295088291168213, -1.1437911987304688, -0.6787109375, 0.27099609375, -0.458984375, 
236, 3130509332, 0.6867188215255737, -0.3572911322116852, -0.19769036769866943, -0.6013810634613037, 6.774441719055176, -2.621222972869873, 6.578708648681641, -18.559772491455078, 2.6950156688690186, -1.1252336502075195, -0.67919921875, 0.271240234375, -0.4619140625, 
237, 3130517665, 0.6863088011741638, -0.3579791188240051, -0.19694046676158905, -0.6016858220100403, 6.751492977142334, -2.847297191619873, 6.565164089202881, -16.057952880859375, 2.0865490436553955, -0.8510843515396118, -0.677734375, 0.27294921875, -0.458984375, 
238, 3130525998, 0.6860069036483765, -0.35848531126976013, -0.1964205950498581, -0.6018986105918884, 6.753098964691162, -3.0333831310272217, 6.536022663116455, -11.596755027770996, 1.2331461906433105, -0.6646765470504761, -0.67822265625, 0.2734375, -0.460205078125, 
239, 3130534331, 0.685847282409668, -0.35876211524009705, -0.19616252183914185, -0.6019999384880066, 6.780430793762207, -3.127418041229248, 6.539742469787598, -6.262040615081787, 0.49554580450057983, -0.3458690047264099, -0.6796875, 0.275390625, -0.460205078125, 
240, 3130542664, 0.6858235597610474, -0.35883215069770813, -0.19616469740867615, -0.601984441280365, 6.808640956878662, -3.033470630645752, 6.5615458488464355, -1.234606146812439, -0.42855173349380493, -0.009938322007656097, -0.67822265625, 0.273681640625, -0.462646484375, 
241, 3130550997, 0.6858993768692017, -0.3587570786476135, -0.19641318917274475, -0.601861834526062, 6.827410697937012, -2.8251953125, 6.628332614898682, 2.9577524662017822, -1.8106317520141602, 0.21915538609027863, -0.67333984375, 0.275390625, -0.46044921875, 
242, 3130559330, 0.6860609650611877, -0.3584904670715332, -0.19691073894500732, -0.6016737818717957, 6.867149829864502, -2.676168203353882, 6.6937336921691895, 7.481522083282471, -2.6925430297851562, -0.15291699767112732, -0.6806640625, 0.2724609375, -0.458740234375, 
243, 3130567663, 0.6862896680831909, -0.35802727937698364, -0.19755269587039948, -0.6014783382415771, 6.994794845581055, -2.5091845989227295, 6.709962844848633, 10.883605003356934, -2.2837398052215576, -0.7724485397338867, -0.67822265625, 0.27197265625, -0.4580078125, 
244, 3130575996, 0.6865429282188416, -0.35747814178466797, -0.198146790266037, -0.6013205051422119, 7.057004451751709, -2.36928653717041, 6.68149995803833, 11.259378433227539, -0.8428493142127991, -0.9680261611938477, -0.68017578125, 0.27294921875, -0.458251953125, 
245, 3130584329, 0.6867563724517822, -0.35696902871131897, -0.19862906634807587, -0.6012201309204102, 6.946880340576172, -2.3005785942077637, 6.638519287109375, 9.602276802062988, 0.05651780962944031, -1.1817383766174316, -0.67822265625, 0.271240234375, -0.46142578125, 
246, 3130592662, 0.6868805885314941, -0.3566221594810486, -0.19898191094398499, -0.6011675596237183, 6.869273662567139, -2.203568696975708, 6.5995988845825195, 6.491659164428711, -0.09999797493219376, -1.2461838722229004, -0.6787109375, 0.2685546875, -0.45947265625, 
247, 3130600995, 0.6869078874588013, -0.35647767782211304, -0.19922304153442383, -0.6011419296264648, 6.853269577026367, -2.132734775543213, 6.5700907707214355, 3.0492851734161377, -0.8236258029937744, -1.2458252906799316, -0.6787109375, 0.27001953125, -0.45947265625, 
248, 3130609328, 0.6868732571601868, -0.35645371675491333, -0.19934500753879547, -0.6011554598808289, 6.842794895172119, -2.0823280811309814, 6.528128147125244, 0.5721067190170288, -0.6980391144752502, -1.1663953065872192, -0.681640625, 0.271728515625, -0.460205078125, 
249, 3130617661, 0.6867944598197937, -0.3565058410167694, -0.19935962557792664, -0.6012097001075745, 6.849316596984863, -2.111710548400879, 6.524050235748291, -1.4192335605621338, -0.20842304825782776, -1.2268962860107422, -0.6796875, 0.2685546875, -0.4580078125, 
250, 3130625994, 0.6866757869720459, -0.3566380739212036, -0.1992713212966919, -0.6012961864471436, 6.86776876449585, -2.1735646724700928, 6.490909099578857, -3.2549805641174316, 0.1225513145327568, -1.0936766862869263, -0.68017578125, 0.270751953125, -0.46044921875, 
251, 3130634327, 0.6865155100822449, -0.3568515479564667, -0.19911201298236847, -0.6014050841331482, 6.944271564483643, -2.2518889904022217, 6.5120697021484375, -4.930509567260742, 0.1440928727388382, -1.121749758720398, -0.677734375, 0.27001953125, -0.458984375, 
252, 3130642660, 0.6863315105438232, -0.3571210503578186, -0.19890913367271423, -0.6015225648880005, 7.039093494415283, -2.4278018474578857, 6.520541191101074, -5.901802062988281, 0.04258367046713829, -0.9874544143676758, -0.6787109375, 0.27099609375, -0.4599609375, 
253, 3130650993, 0.6861486434936523, -0.3574203848838806, -0.19869104027748108, -0.6016250848770142, 7.1018853187561035, -2.553907632827759, 6.433487415313721, -6.320926666259766, -0.10363518446683884, -0.723935067653656, -0.67822265625, 0.269775390625, -0.46142578125, 
254, 3130659326, 0.6860090494155884, -0.35764366388320923, -0.19856569170951843, -0.6016931533813477, 7.058959007263184, -2.6249828338623047, 6.3841776847839355, -4.471400260925293, -0.42701494693756104, -0.6610521674156189, -0.6796875, 0.270263671875, -0.46044921875, 
255, 3130667659, 0.6858981847763062, -0.3578052222728729, -0.19856250286102295, -0.6017244458198547, 7.02850866317749, -2.596142053604126, 6.369492053985596, -2.6950018405914307, -1.1452125310897827, -0.8904789090156555, -0.68017578125, 0.26953125, -0.458984375, 
256, 3130675992, 0.6857906579971313, -0.35796764492988586, -0.19861170649528503, -0.6017342805862427, 6.9626994132995605, -2.4667890071868896, 6.37418270111084, -2.135228157043457, -1.768816590309143, -0.8692446351051331, -0.6796875, 0.269287109375, -0.4599609375, 
257, 3130684325, 0.68565833568573, -0.3581746816635132, -0.1986658126115799, -0.6017438173294067, 6.880257606506348, -2.3546876907348633, 6.421692371368408, -2.695514440536499, -2.2263383865356445, -1.0186270475387573, -0.6806640625, 0.27099609375, -0.45751953125, 
258, 3130692658, 0.6854951977729797, -0.35847148299217224, -0.19874313473701477, -0.6017274856567383, 6.841319561004639, -2.245516777038574, 6.505282402038574, -3.373522996902466, -3.427722692489624, -0.8578208088874817, -0.67919921875, 0.2705078125, -0.4580078125, 
259, 3130700991, 0.6853260397911072, -0.35878974199295044, -0.1987544447183609, -0.6017268300056458, 6.854533672332764, -2.177499771118164, 6.583524227142334, -4.193613052368164, -2.9209702014923096, -0.6681473255157471, -0.6796875, 0.26953125, -0.45654296875, 
260, 3130709324, 0.6851605772972107, -0.35906171798706055, -0.19862815737724304, -0.6017944812774658, 6.8561882972717285, -2.262892246246338, 6.5702290534973145, -5.121642589569092, -0.8673492074012756, -0.7720130085945129, -0.681640625, 0.2705078125, -0.456787109375, 
261, 3130717657, 0.6849920749664307, -0.3593032658100128, -0.19836090505123138, -0.6019304394721985, 6.831791400909424, -2.484518527984619, 6.558201313018799, -6.202896595001221, 1.0406678915023804, -0.8291327953338623, -0.67919921875, 0.271484375, -0.4560546875, 
262, 3130725990, 0.6847957372665405, -0.3595954477787018, -0.19805923104286194, -0.6020786166191101, 6.795997142791748, -2.6650383472442627, 6.49477481842041, -7.0804667472839355, 0.9031707644462585, -0.8236770033836365, -0.68017578125, 0.271484375, -0.456787109375, 
263, 3130734323, 0.6845948696136475, -0.3599278926849365, -0.1978181004524231, -0.6021875739097595, 6.862049579620361, -2.7571403980255127, 6.463457107543945, -6.8726959228515625, -0.2053108811378479, -0.6805317997932434, -0.67919921875, 0.2724609375, -0.458740234375, 
264, 3130742656, 0.6844469308853149, -0.3602149486541748, -0.19773654639720917, -0.6022109389305115, 6.904090404510498, -2.8011231422424316, 6.437829971313477, -4.684382915496826, -1.5855724811553955, -0.3912830650806427, -0.6806640625, 0.273681640625, -0.455810546875, 
265, 3130750989, 0.6843656897544861, -0.3603675365447998, -0.1978326439857483, -0.6021804213523865, 6.902873992919922, -2.793377637863159, 6.4201741218566895, -1.4712176322937012, -2.2296297550201416, -0.577972412109375, -0.68017578125, 0.271484375, -0.456787109375, 
266, 3130759322, 0.6843155026435852, -0.36037570238113403, -0.19805791974067688, -0.6021585464477539, 6.8345723152160645, -2.7214179039001465, 6.370741844177246, 1.1436628103256226, -2.1487784385681152, -1.3934656381607056, -0.68017578125, 0.2724609375, -0.456298828125, 
267, 3130767655, 0.6842897534370422, -0.3602895438671112, -0.198373943567276, -0.6021352410316467, 6.664456367492676, -2.6709485054016113, 6.32358455657959, 2.8542325496673584, -2.1368417739868164, -1.9264978170394897, -0.68115234375, 0.271484375, -0.458740234375, 
268, 3130775988, 0.6842270493507385, -0.36018675565719604, -0.19873151183128357, -0.6021501421928406, 6.535775184631348, -2.6013197898864746, 6.312051296234131, 3.1204288005828857, -2.3265795707702637, -2.801288366317749, -0.681640625, 0.26953125, -0.4560546875, 
269, 3130784321, 0.6842076778411865, -0.3600265085697174, -0.19912342727184296, -0.6021385788917542, 6.579042911529541, -2.4808688163757324, 6.423357963562012, 4.179615497589111, -2.1602277755737305, -2.5611672401428223, -0.681640625, 0.27197265625, -0.457275390625, 
270, 3130792654, 0.6842074394226074, -0.3599085211753845, -0.1995164006948471, -0.6020795106887817, 6.755468845367432, -2.448847770690918, 6.617231369018555, 4.068962097167969, -2.7304773330688477, -1.8059570789337158, -0.68017578125, 0.26953125, -0.45556640625, 
271, 3130800987, 0.6842055916786194, -0.35990938544273376, -0.19977997243404388, -0.6019933819770813, 6.912655353546143, -2.544280529022217, 6.727870464324951, 1.8933913707733154, -2.60837459564209, -0.6373334527015686, -0.67822265625, 0.26953125, -0.45556640625, 
272, 3130809320, 0.6841914653778076, -0.3599916100502014, -0.19996151328086853, -0.6019001007080078, 7.053215026855469, -2.751814365386963, 6.816845893859863, 0.4596218466758728, -2.605236768722534, -0.002958444179967046, -0.68212890625, 0.26953125, -0.458984375, 
273, 3130817653, 0.6841920018196106, -0.36010757088661194, -0.19990476965904236, -0.6018490195274353, 7.170934200286865, -3.057152032852173, 6.758984565734863, -1.873181700706482, -0.3932425081729889, 0.9950361847877502, -0.68115234375, 0.269287109375, -0.4541015625, 
274, 3130825986, 0.6841968894004822, -0.3602946996688843, -0.1998281627893448, -0.6017569899559021, 7.079872131347656, -3.196263074874878, 6.637502193450928, -2.6266376972198486, -0.9604314565658569, 1.6680117845535278, -0.681640625, 0.26953125, -0.45556640625, 
275, 3130834319, 0.6842761635780334, -0.3604535162448883, -0.1999261975288391, -0.6015389561653137, 7.008479595184326, -3.1140551567077637, 6.625191688537598, -0.19772908091545105, -2.790632486343384, 2.5271003246307373, -0.6796875, 0.27001953125, -0.45703125, 
276, 3130842652, 0.6845186948776245, -0.36038094758987427, -0.20014341175556183, -0.6012343168258667, 6.9272003173828125, -2.984708309173584, 6.709221839904785, 4.063827037811279, -2.002866744995117, 3.5067427158355713, -0.68212890625, 0.27197265625, -0.454833984375, 
277, 3130850985, 0.6847987174987793, -0.3602175712585449, -0.20032331347465515, -0.6009533405303955, 6.836998462677002, -2.9984655380249023, 6.679347038269043, 4.6804890632629395, -0.6562750935554504, 3.487992525100708, -0.674560546875, 0.270751953125, -0.45556640625, 
278, 3130859318, 0.6850863695144653, -0.3601088225841522, -0.20055966079235077, -0.6006118059158325, 6.754015922546387, -3.002819299697876, 6.6370038986206055, 4.88716983795166, -1.9421863555908203, 4.032909393310547, -0.681640625, 0.271240234375, -0.452880859375, 
279, 3130867651, 0.6855014562606812, -0.3599129319190979, -0.20106753706932068, -0.6000856757164001, 6.840505599975586, -2.96416974067688, 6.682313919067383, 9.091748237609863, -4.343085765838623, 5.239597320556641, -0.68212890625, 0.270751953125, -0.453857421875, 
280, 3130875984, 0.686047375202179, -0.359561026096344, -0.20181943476200104, -0.5994200110435486, 7.091291904449463, -2.8291823863983154, 6.661951541900635, 13.559025764465332, -5.661041259765625, 5.954798698425293, -0.68115234375, 0.271728515625, -0.453369140625, 
281, 3130884317, 0.6866313815116882, -0.35911598801612854, -0.20267590880393982, -0.5987284183502197, 7.262515544891357, -2.4420840740203857, 6.585758209228516, 15.561239242553711, -5.903761863708496, 5.736411094665527, -0.67919921875, 0.272705078125, -0.452880859375, 
282, 3130892650, 0.6871430277824402, -0.3586295247077942, -0.20342685282230377, -0.5981780886650085, 7.2611894607543945, -1.9416543245315552, 6.534246921539307, 14.38171672821045, -4.092233180999756, 4.255921363830566, -0.6787109375, 0.270263671875, -0.45166015625, 
283, 3130900983, 0.6874488592147827, -0.3583085536956787, -0.2039545625448227, -0.5978392362594604, 7.1340484619140625, -1.5728037357330322, 6.5424699783325195, 9.374258995056152, -2.87611985206604, 2.127377510070801, -0.6787109375, 0.270751953125, -0.45263671875, 
284, 3130909316, 0.687493622303009, -0.3582727909088135, -0.20405368506908417, -0.5977754592895508, 7.098245143890381, -1.3654204607009888, 6.633002758026123, 1.2984751462936401, -0.6074158549308777, 0.47771820425987244, -0.676513671875, 0.268798828125, -0.45361328125, 
285, 3130917649, 0.6874111890792847, -0.3583865761756897, -0.20356501638889313, -0.5979686379432678, 7.160501956939697, -1.58768892288208, 6.635403156280518, -6.848606109619141, 4.809854507446289, -0.18024736642837524, -0.681640625, 0.270751953125, -0.452880859375, 
286, 3130925982, 0.6872603893280029, -0.35860109329223633, -0.20249038934707642, -0.5983781218528748, 7.150356292724609, -2.0309536457061768, 6.360917568206787, -13.209698677062988, 10.275547981262207, 0.6968737244606018, -0.67919921875, 0.269287109375, -0.4541015625, 
287, 3130934315, 0.6869691014289856, -0.35913920402526855, -0.20096224546432495, -0.5989047884941101, 6.94766092300415, -2.30493426322937, 6.095257759094238, -21.00480842590332, 12.086325645446777, 1.590273141860962, -0.68017578125, 0.2705078125, -0.45654296875, 
288, 3130942648, 0.68642657995224, -0.36015015840530396, -0.19910824298858643, -0.5995387434959412, 6.731040000915527, -2.25944447517395, 6.025752544403076, -29.70766830444336, 11.103946685791016, 1.4015992879867554, -0.67822265625, 0.273681640625, -0.455810546875, 
289, 3130950981, 0.6856635212898254, -0.36156225204467773, -0.19714410603046417, -0.6002106070518494, 6.599624156951904, -2.136308193206787, 6.105362892150879, -35.69821548461914, 8.462991714477539, 0.7877026200294495, -0.6796875, 0.274658203125, -0.456298828125, 
290, 3130959314, 0.6848259568214417, -0.3631593585014343, -0.19538630545139313, -0.600777268409729, 6.611289978027344, -2.275811195373535, 6.047717094421387, -35.725006103515625, 4.221960067749023, 0.7223349809646606, -0.6767578125, 0.277587890625, -0.453857421875, 
291, 3130967647, 0.6840875744819641, -0.36466550827026367, -0.1940794587135315, -0.6011295318603516, 6.759275436401367, -2.690692186355591, 6.066305160522461, -30.20335578918457, -0.02374441549181938, 0.952350914478302, -0.677734375, 0.279052734375, -0.45458984375, 
292, 3130975980, 0.6834974884986877, -0.36589258909225464, -0.19324946403503418, -0.6013224124908447, 7.080732345581055, -3.117780923843384, 6.210605144500732, -22.334402084350586, -2.6584126949310303, 0.6554428935050964, -0.677734375, 0.281982421875, -0.45751953125, 
293, 3130984313, 0.6831098198890686, -0.36674171686172485, -0.19285833835601807, -0.601371169090271, 7.327794551849365, -3.322551965713501, 6.373119354248047, -13.987051010131836, -3.7559826374053955, 0.26505613327026367, -0.677734375, 0.28076171875, -0.45263671875, 
294, 3130992646, 0.6828972697257996, -0.3672667443752289, -0.1929139494895935, -0.6012743711471558, 7.3243207931518555, -3.2647886276245117, 6.4702606201171875, -5.742366313934326, -5.631430625915527, 0.17376700043678284, -0.67626953125, 0.283203125, -0.45361328125, 
295, 3131000979, 0.6828249096870422, -0.367546945810318, -0.19337397813796997, -0.6010375618934631, 7.234836101531982, -2.9347498416900635, 6.614614486694336, 0.7668262720108032, -7.657812595367432, -0.230451300740242, -0.6767578125, 0.283203125, -0.45263671875, 
296, 3131009312, 0.6828087568283081, -0.36766353249549866, -0.19395916163921356, -0.6007962226867676, 7.218686580657959, -2.5365002155303955, 6.725918292999268, 3.8467202186584473, -7.435825347900391, -0.6050466299057007, -0.677490234375, 0.283203125, -0.451171875, 
297, 3131017645, 0.6827934980392456, -0.3677031397819519, -0.19451293349266052, -0.6006102561950684, 7.179965019226074, -2.0644099712371826, 6.858710765838623, 4.08126974105835, -6.186055660247803, -1.2338505983352661, -0.679443359375, 0.28173828125, -0.453125, 
298, 3131025978, 0.6826838850975037, -0.3677518665790558, -0.19469678401947021, -0.6006454229354858, 7.170716285705566, -1.6138641834259033, 7.018585681915283, -0.04286542534828186, -1.9591686725616455, -2.1239449977874756, -0.678466796875, 0.28173828125, -0.44921875, 
299, 3131034311, 0.6824390292167664, -0.36786699295043945, -0.19431625306606293, -0.6009763479232788, 7.133669853210449, -1.4048877954483032, 7.072432994842529, -6.804806232452393, 3.923832416534424, -2.986978530883789, -0.679931640625, 0.28173828125, -0.451171875, 
300, 3131042644, 0.6820788383483887, -0.36802199482917786, -0.19336260855197906, -0.6015974283218384, 6.99484920501709, -1.563094139099121, 7.019086837768555, -13.322006225585938, 10.157891273498535, -3.6927413940429688, -0.679931640625, 0.2822265625, -0.4501953125, 
301, 3131050977, 0.681670069694519, -0.36822500824928284, -0.19206249713897705, -0.602352499961853, 6.948287010192871, -2.1145596504211426, 6.8513336181640625, -17.142282485961914, 13.52103042602539, -3.3786470890045166, -0.677978515625, 0.2841796875, -0.452880859375, 
302, 3131059310, 0.6813340187072754, -0.36845314502716064, -0.19076992571353912, -0.603003740310669, 6.979013919830322, -2.767526865005493, 6.647855758666992, -16.72323226928711, 12.920784950256348, -1.831700086593628, -0.67626953125, 0.28271484375, -0.4521484375, 
303, 3131067643, 0.681107759475708, -0.3686240315437317, -0.18977341055870056, -0.6034689545631409, 7.06713342666626, -3.284534215927124, 6.478390693664551, -12.692304611206055, 9.97485065460205, -0.8202576041221619, -0.676513671875, 0.28515625, -0.455322265625, 
304, 3131075976, 0.6810815334320068, -0.36853840947151184, -0.1892997920513153, -0.6036994457244873, 7.136313438415527, -3.5409300327301025, 6.345913887023926, -4.318599224090576, 6.532399654388428, -0.28848037123680115, -0.678955078125, 0.283935546875, -0.456298828125, 
305, 3131084309, 0.6813293695449829, -0.3680631220340729, -0.18941228091716766, -0.6036745309829712, 7.143957138061523, -3.5057578086853027, 6.335803985595703, 6.121008396148682, 3.7488484382629395, 0.28470224142074585, -0.67578125, 0.285400390625, -0.45703125, 
306, 3131092642, 0.6817379593849182, -0.367315411567688, -0.19001728296279907, -0.603478729724884, 7.132111549377441, -3.213886022567749, 6.32083797454834, 14.148306846618652, 0.8964983820915222, 0.12638066709041595, -0.67529296875, 0.284912109375, -0.45703125, 
307, 3131100975, 0.6822043061256409, -0.3664141893386841, -0.19090482592582703, -0.6032193899154663, 7.049562931060791, -2.7306556701660156, 6.32977294921875, 18.214887619018555, -0.5784206986427307, -0.7810806035995483, -0.6748046875, 0.282958984375, -0.45654296875, 
308, 3131109308, 0.6825985312461853, -0.365522563457489, -0.1917710155248642, -0.6030396223068237, 6.963100910186768, -2.2706165313720703, 6.486326694488525, 17.553476333618164, -0.3162846267223358, -1.8379753828048706, -0.67529296875, 0.282470703125, -0.45751953125, 
309, 3131117641, 0.6828241348266602, -0.36485451459884644, -0.1923663169145584, -0.6029990911483765, 6.85594367980957, -2.086168050765991, 6.584364414215088, 11.993366241455078, 0.6287142038345337, -2.5913920402526855, -0.6767578125, 0.281005859375, -0.45654296875, 
310, 3131125974, 0.6828631162643433, -0.3645200729370117, -0.192622110247612, -0.6030755043029785, 6.868884563446045, -2.121694564819336, 6.551553726196289, 4.575893878936768, 1.2270371913909912, -2.848764419555664, -0.67431640625, 0.280517578125, -0.457763671875, 
311, 3131134307, 0.6827338933944702, -0.3644743263721466, -0.19257070124149323, -0.6032658219337463, 6.9931864738464355, -2.2973411083221436, 6.517017841339111, -1.5372381210327148, 1.741575837135315, -2.7428231239318848, -0.6748046875, 0.279541015625, -0.457275390625, 
312, 3131142640, 0.6825637817382812, -0.3645476698875427, -0.1923428326845169, -0.6034868955612183, 7.164618015289307, -2.457657814025879, 6.542242527008057, -4.473808288574219, 2.4731953144073486, -2.2413992881774902, -0.67724609375, 0.281005859375, -0.458984375, 
313, 3131150973, 0.6823704838752747, -0.36470651626586914, -0.19199411571025848, -0.6037205457687378, 7.19160795211792, -2.6176977157592773, 6.5320234298706055, -6.4263434410095215, 2.898993730545044, -1.7181646823883057, -0.673828125, 0.27978515625, -0.460693359375, 
314, 3131159306, 0.6822198629379272, -0.36486855149269104, -0.19164949655532837, -0.6039022207260132, 7.092623710632324, -2.764971971511841, 6.5265631675720215, -6.033214569091797, 2.6803500652313232, -0.8417477607727051, -0.67529296875, 0.280029296875, -0.459228515625, 
315, 3131167639, 0.682182252407074, -0.36491483449935913, -0.19140250980854034, -0.6039949655532837, 6.980254650115967, -2.7629151344299316, 6.5247802734375, -3.37900447845459, 2.5907392501831055, 0.0949135571718216, -0.671875, 0.280029296875, -0.456787109375, 
316, 3131175972, 0.6822599172592163, -0.3648061156272888, -0.19123992323875427, -0.6040244102478027, 6.886160850524902, -2.808110475540161, 6.526994705200195, -0.4743756353855133, 3.065626621246338, 0.8088078498840332, -0.6728515625, 0.280517578125, -0.457763671875, 
317, 3131184305, 0.6823938488960266, -0.36464008688926697, -0.19115793704986572, -0.6039992570877075, 6.849948883056641, -2.8063206672668457, 6.477850437164307, 0.9989039897918701, 2.720795154571533, 1.0955207347869873, -0.6728515625, 0.281494140625, -0.460205078125, 
318, 3131192638, 0.6824917197227478, -0.36452725529670715, -0.19110123813152313, -0.6039747595787048, 6.828282356262207, -2.8244149684906006, 6.339138984680176, 0.688510537147522, 1.889357089996338, 0.9425012469291687, -0.67431640625, 0.280029296875, -0.460205078125, 
319, 3131200971, 0.6825658082962036, -0.3644619584083557, -0.19114667177200317, -0.6039161682128906, 6.8214874267578125, -2.830308437347412, 6.2817769050598145, 1.0589948892593384, 0.3006599247455597, 0.6749095320701599, -0.6728515625, 0.279296875, -0.462158203125, 
320, 3131209304, 0.6825873851776123, -0.3644602596759796, -0.19137801229953766, -0.6038194298744202, 6.8573479652404785, -2.7844998836517334, 6.321617603302002, 2.034590005874634, -2.3612611293792725, 0.01872400753200054, -0.6728515625, 0.279052734375, -0.459228515625, 
321, 3131217637, 0.6825773119926453, -0.3644678294658661, -0.19170144200325012, -0.6037237048149109, 6.915018558502197, -2.7065656185150146, 6.481311798095703, 2.340731143951416, -3.307527780532837, -0.8852919340133667, -0.67333984375, 0.27880859375, -0.460205078125, 
322, 3131225970, 0.6825360059738159, -0.3644438683986664, -0.1920180469751358, -0.6036843061447144, 6.958296298980713, -2.5607101917266846, 6.57814359664917, 2.2937798500061035, -2.7946534156799316, -1.7137073278427124, -0.67431640625, 0.28125, -0.4609375, 
323, 3131234303, 0.6825218796730042, -0.3643159568309784, -0.19227807223796844, -0.6036946773529053, 7.020598411560059, -2.4697413444519043, 6.590626239776611, 2.7026219367980957, -1.0365824699401855, -2.030491828918457, -0.67431640625, 0.27880859375, -0.460205078125, 
324, 3131242636, 0.6825472712516785, -0.3640950918197632, -0.19241216778755188, -0.6037566065788269, 7.016369819641113, -2.4709348678588867, 6.630468845367432, 2.6943612098693848, 1.2362197637557983, -1.716601848602295, -0.6728515625, 0.280517578125, -0.456298828125, 
325, 3131250969, 0.6826168894767761, -0.3638565242290497, -0.19247063994407654, -0.6038028001785278, 6.959072589874268, -2.5264298915863037, 6.591155052185059, 2.4014883041381836, 2.171959161758423, -0.9468430876731873, -0.67529296875, 0.278076171875, -0.458251953125, 
326, 3131259302, 0.6827331781387329, -0.3636403977870941, -0.19250351190567017, -0.6037911772727966, 6.877528667449951, -2.573377847671509, 6.557036399841309, 2.457890510559082, 2.0211167335510254, 0.24825315177440643, -0.67333984375, 0.278076171875, -0.456787109375, 
327, 3131267635, 0.6828815340995789, -0.363489031791687, -0.1925559639930725, -0.6036977767944336, 6.850827217102051, -2.54303240776062, 6.556586265563965, 2.3198044300079346, 1.0054099559783936, 1.3018178939819336, -0.6728515625, 0.278564453125, -0.458740234375, 
328, 3131275968, 0.6830214262008667, -0.36339646577835083, -0.19255954027175903, -0.603594183921814, 6.880557060241699, -2.4948320388793945, 6.5353803634643555, 1.4174405336380005, 0.8714731931686401, 1.78139328956604, -0.673828125, 0.278076171875, -0.459228515625, 
329, 3131284301, 0.6831359267234802, -0.3633434772491455, -0.1924973428249359, -0.6035163402557373, 6.916774272918701, -2.432750701904297, 6.431485176086426, 0.31465810537338257, 1.2261148691177368, 1.7816877365112305, -0.67236328125, 0.278564453125, -0.458251953125, 
330, 3131292634, 0.6832053661346436, -0.36330896615982056, -0.19238871335983276, -0.6034932732582092, 6.907787322998047, -2.4260432720184326, 6.361454486846924, -0.6254484057426453, 1.6602251529693604, 1.1546257734298706, -0.67333984375, 0.280517578125, -0.456787109375, 
331, 3131300967, 0.6832177042961121, -0.3633474111557007, -0.19225600361824036, -0.6034984588623047, 6.891890048980713, -2.4269204139709473, 6.371454238891602, -2.1841771602630615, 1.3862552642822266, 0.4515917897224426, -0.67431640625, 0.27978515625, -0.460693359375, 
332, 3131309300, 0.6831523180007935, -0.3635035455226898, -0.19208280742168427, -0.6035335063934326, 6.922834873199463, -2.478034734725952, 6.4063568115234375, -3.7779970169067383, 0.6180842518806458, 0.3173987865447998, -0.673828125, 0.278564453125, -0.458251953125, 
333, 3131317633, 0.683052122592926, -0.36372706294059753, -0.19193056225776672, -0.603560745716095, 6.940221786499023, -2.524510622024536, 6.461071491241455, -4.3933024406433105, -0.26892387866973877, 0.1725502908229828, -0.67333984375, 0.28125, -0.461181640625, 
334, 3131325966, 0.6829517483711243, -0.36395224928855896, -0.19182558357715607, -0.6035717725753784, 7.0024027824401855, -2.5514063835144043, 6.527904987335205, -4.020449161529541, -0.7839364409446716, 0.06085941940546036, -0.67333984375, 0.28076171875, -0.461181640625, 
335, 3131334299, 0.6828786134719849, -0.36411362886428833, -0.1917470246553421, -0.6035822033882141, 7.0625224113464355, -2.580397129058838, 6.6112823486328125, -3.165074348449707, -0.4005810022354126, -0.10176535695791245, -0.6748046875, 0.2802734375, -0.460693359375, 
336, 3131342632, 0.6828036904335022, -0.36422038078308105, -0.19162702560424805, -0.6036405563354492, 7.054463863372803, -2.588902235031128, 6.720356464385986, -2.983635902404785, 0.6210939884185791, -0.37702876329421997, -0.6708984375, 0.281005859375, -0.458740234375, 
337, 3131350965, 0.682747483253479, -0.36428794264793396, -0.19144055247306824, -0.6037226915359497, 7.034820556640625, -2.5901997089385986, 6.768177509307861, -3.3601648807525635, 1.822965145111084, -0.4116591513156891, -0.6748046875, 0.278564453125, -0.458251953125, 
338, 3131359298, 0.6827249526977539, -0.36425819993019104, -0.1912122368812561, -0.6038384437561035, 7.0371832847595215, -2.7009787559509277, 6.669956207275391, -2.489985466003418, 3.19661808013916, -0.297637403011322, -0.67333984375, 0.280029296875, -0.457763671875, 
339, 3131367631, 0.682784914970398, -0.3641664385795593, -0.1910758763551712, -0.6038690805435181, 7.062443256378174, -2.813707113265991, 6.548316955566406, -0.5576474666595459, 2.661511182785034, 0.5264365673065186, -0.67236328125, 0.280517578125, -0.459716796875, 
340, 3131375964, 0.6828634142875671, -0.3640970289707184, -0.1910415142774582, -0.6038333177566528, 7.065657615661621, -2.732586622238159, 6.464783191680908, 0.3960217237472534, 1.2117582559585571, 0.8867904543876648, -0.67236328125, 0.281982421875, -0.458251953125, 
341, 3131384297, 0.6829066872596741, -0.36406823992729187, -0.19103245437145233, -0.603804349899292, 7.037403106689453, -2.582333564758301, 6.550745010375977, 0.01744329370558262, 0.5883589386940002, 0.5061115622520447, -0.6708984375, 0.281494140625, -0.461181640625, 
342, 3131392630, 0.6829174160957336, -0.364063024520874, -0.1909887194633484, -0.6038093566894531, 7.02229642868042, -2.4932377338409424, 6.596008777618408, -0.7292116284370422, 0.7918000221252441, 0.15825755894184113, -0.67333984375, 0.28076171875, -0.461669921875, 
343, 3131400963, 0.682948112487793, -0.3640218675136566, -0.1909237504005432, -0.6038199067115784, 7.012668609619141, -2.5427284240722656, 6.624805927276611, -0.7281357645988464, 1.4634051322937012, 0.06727577745914459, -0.67236328125, 0.283935546875, -0.4609375, 
344, 3131409296, 0.6829648017883301, -0.3639611005783081, -0.1908637434244156, -0.6038565635681152, 7.0084404945373535, -2.5783212184906006, 6.611257553100586, -0.3958680033683777, 1.5809234380722046, -0.15419769287109375, -0.671875, 0.281005859375, -0.459716796875, 
345, 3131417629, 0.6829625368118286, -0.3638884723186493, -0.1908123791217804, -0.6039192080497742, 6.9933576583862305, -2.5169975757598877, 6.646140098571777, -0.4053964912891388, 1.694778561592102, -0.6466057300567627, -0.6708984375, 0.281494140625, -0.458251953125, 
346, 3131425962, 0.6829029321670532, -0.36387377977371216, -0.19074317812919617, -0.6040172576904297, 6.981297016143799, -2.394394636154175, 6.653656959533691, -1.4475370645523071, 1.390430212020874, -1.1978752613067627, -0.6728515625, 0.281494140625, -0.458740234375, 
347, 3131434295, 0.6828198432922363, -0.3638747036457062, -0.19070203602313995, -0.604123592376709, 6.956740856170654, -2.350803852081299, 6.637886047363281, -1.6819589138031006, 1.0467129945755005, -1.7250676155090332, -0.67333984375, 0.279296875, -0.461669921875, 
348, 3131442628, 0.6827467679977417, -0.36381691694259644, -0.19063815474510193, -0.6042612195014954, 6.991560935974121, -2.419455051422119, 6.71891975402832, -1.1714414358139038, 1.8625261783599854, -1.8216842412948608, -0.6689453125, 0.27978515625, -0.462646484375, 
349, 3131450961, 0.6827195882797241, -0.3636917769908905, -0.19053998589515686, -0.6043983101844788, 7.0182204246521, -2.455853223800659, 6.8353376388549805, -0.5922651886940002, 2.8599319458007812, -1.4403269290924072, -0.669921875, 0.281005859375, -0.457763671875, 
350, 3131459294, 0.6827278137207031, -0.3634914457798004, -0.19037215411663055, -0.6045622229576111, 7.026036262512207, -2.4703216552734375, 6.844489574432373, -0.6427764892578125, 4.474832057952881, -1.495832920074463, -0.67138671875, 0.2802734375, -0.462158203125, 
351, 3131467627, 0.6827259659767151, -0.3632323443889618, -0.19024357199668884, -0.6047605872154236, 7.021964073181152, -2.499082565307617, 6.654447555541992, 0.15273767709732056, 4.717782974243164, -2.199788808822632, -0.67236328125, 0.278564453125, -0.459716796875, 
352, 3131475960, 0.6827505826950073, -0.3629286587238312, -0.19029101729393005, -0.6049001812934875, 7.034976959228516, -2.525779962539673, 6.485732555389404, 2.5480785369873047, 3.127344846725464, -2.227221727371216, -0.6708984375, 0.27978515625, -0.461669921875, 
353, 3131484293, 0.6827236413955688, -0.3627743422985077, -0.19053083658218384, -0.6049476861953735, 7.04586124420166, -2.5122737884521484, 6.339920520782471, 2.7288126945495605, -0.5168824791908264, -2.3598523139953613, -0.6728515625, 0.27783203125, -0.460205078125, 
354, 3131492626, 0.6826210021972656, -0.36279532313346863, -0.19093474745750427, -0.6049234867095947, 7.062889099121094, -2.3702280521392822, 6.149351119995117, 2.1472411155700684, -4.027031421661377, -2.768681049346924, -0.67041015625, 0.278564453125, -0.459228515625, 
355, 3131500959, 0.6824392080307007, -0.3628913164138794, -0.19152280688285828, -0.6048852205276489, 7.062772274017334, -2.106198310852051, 6.2647199630737305, 2.62965989112854, -6.661916255950928, -4.002185821533203, -0.6728515625, 0.27978515625, -0.462158203125, 
356, 3131509292, 0.6821550130844116, -0.3630036413669586, -0.19201438128948212, -0.6049824953079224, 7.106637954711914, -1.8858720064163208, 6.589152812957764, 0.9056938886642456, -5.526284694671631, -5.523492813110352, -0.673828125, 0.27783203125, -0.460205078125, 
357, 3131517625, 0.6817862391471863, -0.3631637692451477, -0.19216324388980865, -0.6052547097206116, 7.157404899597168, -1.8928714990615845, 6.8585381507873535, -3.3269944190979004, -2.0365750789642334, -6.060340404510498, -0.67529296875, 0.277587890625, -0.458251953125, 
358, 3131525958, 0.6813255548477173, -0.3633957505226135, -0.19191092252731323, -0.6057143211364746, 7.138659954071045, -2.1609315872192383, 7.090934753417969, -8.246170997619629, 1.7980300188064575, -6.360450744628906, -0.673828125, 0.27734375, -0.459716796875, 
359, 3131534291, 0.6809313893318176, -0.36357271671295166, -0.19146700203418732, -0.6061913967132568, 7.149306774139404, -2.5186421871185303, 7.172867298126221, -9.08964729309082, 4.337911605834961, -5.186882972717285, -0.671875, 0.277099609375, -0.459228515625, 
360, 3131542624, 0.6807621717453003, -0.3634767532348633, -0.1911281794309616, -0.606545627117157, 7.228983402252197, -2.8563640117645264, 6.8906331062316895, -4.160802364349365, 5.582917213439941, -3.3770322799682617, -0.67138671875, 0.277587890625, -0.460205078125, 
361, 3131550957, 0.6809561848640442, -0.3628149628639221, -0.19097918272018433, -0.6067711114883423, 7.289435863494873, -3.1824350357055664, 6.528244495391846, 4.647024154663086, 8.921451568603516, -1.77012300491333, -0.6748046875, 0.27587890625, -0.460693359375, 
362, 3131559290, 0.6814302802085876, -0.36175307631492615, -0.19108860194683075, -0.6068383455276489, 7.120327472686768, -3.5993592739105225, 6.193098068237305, 12.590998649597168, 9.700303077697754, -0.09848674386739731, -0.671142578125, 0.275390625, -0.46142578125, 
363, 3131567623, 0.682023286819458, -0.3606647253036499, -0.19145295023918152, -0.6067051291465759, 6.835023880004883, -3.79986572265625, 5.745767116546631, 16.08266830444336, 6.847837924957275, 1.4336800575256348, -0.672119140625, 0.2744140625, -0.462890625, 
364, 3131575956, 0.6825488805770874, -0.3598926365375519, -0.192268967628479, -0.6063143014907837, 6.6669840812683105, -3.4677107334136963, 5.511072635650635, 17.144983291625977, -1.4446176290512085, 1.8175995349884033, -0.671142578125, 0.27294921875, -0.462890625, 
365, 3131584289, 0.6829540133476257, -0.35945048928260803, -0.19344303011894226, -0.605746865272522, 6.705981731414795, -2.7813377380371094, 5.706421375274658, 16.94572639465332, -8.763347625732422, 1.6043351888656616, -0.674072265625, 0.2734375, -0.46240234375, 
366, 3131592622, 0.683198869228363, -0.35933905839920044, -0.19471953809261322, -0.6051275730133057, 6.849246501922607, -2.245281457901001, 6.155113220214844, 14.08203125, -13.186493873596191, 1.160158634185791, -0.671630859375, 0.271728515625, -0.4638671875, 
367, 3131600955, 0.683363676071167, -0.35930395126342773, -0.1956547498703003, -0.6046606302261353, 6.881226539611816, -2.021092176437378, 6.5547051429748535, 9.63592529296875, -10.038389205932617, 0.8844085335731506, -0.67529296875, 0.2724609375, -0.46240234375, 
368, 3131609288, 0.6834707260131836, -0.35924842953681946, -0.19612210988998413, -0.604421079158783, 6.830613136291504, -2.0383286476135254, 6.708726406097412, 5.125600814819336, -4.54096794128418, 0.5921114683151245, -0.67529296875, 0.27197265625, -0.45947265625, 
369, 3131617621, 0.6834929585456848, -0.35929131507873535, -0.19609831273555756, -0.6043781638145447, 6.770130157470703, -2.2014448642730713, 6.715546607971191, -0.8318734765052795, -0.00023052810865920037, 0.7315040826797485, -0.674560546875, 0.27197265625, -0.4599609375, 
370, 3131625954, 0.6834220886230469, -0.35951805114746094, -0.1956576108932495, -0.6044663190841675, 6.7846856117248535, -2.3952746391296387, 6.65837287902832, -6.820046901702881, 2.7898643016815186, 1.3072097301483154, -0.672607421875, 0.27099609375, -0.45849609375, 
371, 3131634287, 0.683331310749054, -0.3599082827568054, -0.19495968520641327, -0.6045623421669006, 6.848283290863037, -2.7179770469665527, 6.604792594909668, -10.525107383728027, 3.8028430938720703, 2.864619255065918, -0.67529296875, 0.271484375, -0.4580078125, 
372, 3131642620, 0.6833174824714661, -0.36037418246269226, -0.19418010115623474, -0.6045511960983276, 6.881608963012695, -3.1792190074920654, 6.582251071929932, -11.354394912719727, 3.6443679332733154, 5.007429599761963, -0.67333984375, 0.273193359375, -0.45703125, 
373, 3131650953, 0.6833922266960144, -0.3609327971935272, -0.193636953830719, -0.6043074131011963, 6.877316951751709, -3.499645471572876, 6.591415882110596, -9.174187660217285, -0.26524823904037476, 7.040509223937988, -0.671875, 0.27587890625, -0.4609375, 
374, 3131659286, 0.6834952235221863, -0.3615982234477997, -0.1933344304561615, -0.6038900017738342, 6.876336574554443, -3.4643616676330566, 6.557344913482666, -7.601728916168213, -4.199774265289307, 7.961161136627197, -0.67236328125, 0.2763671875, -0.4599609375, 
375, 3131667619, 0.6836077570915222, -0.36222782731056213, -0.19326016306877136, -0.6034089922904968, 6.8819966316223145, -3.0467588901519775, 6.693821907043457, -5.232540607452393, -6.302344799041748, 7.344447135925293, -0.67431640625, 0.27685546875, -0.459228515625, 
376, 3131675952, 0.6837361454963684, -0.3626464605331421, -0.19328628480434418, -0.6030034422874451, 6.972034931182861, -2.652850389480591, 6.865665912628174, -2.457519769668579, -5.113511085510254, 5.769684314727783, -0.67578125, 0.278564453125, -0.456787109375, 
377, 3131684285, 0.683879017829895, -0.3627650737762451, -0.19325637817382812, -0.602779746055603, 7.022454738616943, -2.3860037326812744, 6.877846717834473, -0.4877590835094452, -1.1533961296081543, 3.6916511058807373, -0.67626953125, 0.27783203125, -0.461181640625, 
378, 3131692618, 0.6841093301773071, -0.3624875843524933, -0.19310715794563293, -0.6027331352233887, 6.933807373046875, -2.534771203994751, 6.826895236968994, 2.190375804901123, 4.36625337600708, 2.265630006790161, -0.673828125, 0.277099609375, -0.456787109375, 
379, 3131700951, 0.6844246983528137, -0.36197853088378906, -0.19290678203105927, -0.6027451753616333, 6.779201984405518, -2.8291168212890625, 6.6006903648376465, 3.959064483642578, 7.38404655456543, 1.8328266143798828, -0.67333984375, 0.279052734375, -0.455322265625, 
380, 3131709284, 0.684776246547699, -0.3614208996295929, -0.19272732734680176, -0.6027379631996155, 6.646468639373779, -3.040250062942505, 6.50845193862915, 5.073898792266846, 7.492318153381348, 2.3051276206970215, -0.67138671875, 0.279052734375, -0.458251953125, 
381, 3131717617, 0.6851691603660583, -0.36097821593284607, -0.192753866314888, -0.6025480628013611, 6.662251949310303, -3.11044979095459, 6.469405174255371, 6.483116149902344, 3.77543568611145, 3.7450828552246094, -0.6767578125, 0.27783203125, -0.458740234375, 
382, 3131725950, 0.685681939125061, -0.36048150062561035, -0.19307589530944824, -0.6021589040756226, 6.785256385803223, -3.003307580947876, 6.451280117034912, 10.469242095947266, 0.7940284609794617, 4.910287380218506, -0.67333984375, 0.277587890625, -0.458251953125, 
383, 3131734283, 0.6863674521446228, -0.35971277952194214, -0.19380059838294983, -0.6016044616699219, 6.928539752960205, -2.774030923843384, 6.488253116607666, 17.38164710998535, -1.0058072805404663, 4.926591873168945, -0.67529296875, 0.27783203125, -0.460693359375, 
384, 3131742616, 0.6871155500411987, -0.35864555835723877, -0.1946747750043869, -0.6011050939559937, 6.907454967498779, -2.485719919204712, 6.491906642913818, 21.880891799926758, 0.3859298527240753, 3.643805742263794, -0.6708984375, 0.27734375, -0.4619140625, 
385, 3131750949, 0.6878074407577515, -0.3576219975948334, -0.19543305039405823, -0.6006776094436646, 6.836430072784424, -2.2948920726776123, 6.496542930603027, 19.916702270507812, 1.3758562803268433, 3.079869508743286, -0.67578125, 0.27490234375, -0.459716796875, 
386, 3131759282, 0.6883019804954529, -0.3567773401737213, -0.19601431488990784, -0.60042405128479, 6.788022994995117, -1.9732609987258911, 6.441674709320068, 15.448652267456055, 1.8454164266586304, 1.264664649963379, -0.673828125, 0.2763671875, -0.462158203125, 
387, 3131767615, 0.688685417175293, -0.3561004400253296, -0.1964145004749298, -0.6002554893493652, 6.812466144561768, -1.9532272815704346, 6.4534735679626465, 11.651802062988281, 2.2807815074920654, 0.9469711780548096, -0.6728515625, 0.2763671875, -0.462646484375, 
388, 3131775948, 0.6889740228652954, -0.3555704653263092, -0.19665420055389404, -0.6001600027084351, 6.92105770111084, -2.0622408390045166, 6.519678115844727, 8.213333129882812, 2.7001760005950928, 0.5908436179161072, -0.673828125, 0.275390625, -0.4619140625, 
389, 3131784281, 0.6892406344413757, -0.3550017476081848, -0.19684049487113953, -0.6001295447349548, 6.920300006866455, -2.3359763622283936, 6.518768787384033, 7.855489253997803, 3.7856945991516113, -0.05110040307044983, -0.672119140625, 0.2744140625, -0.46435546875, 
390, 3131792614, 0.6895575523376465, -0.3543074131011963, -0.19701159000396729, -0.6001195311546326, 6.9544243812561035, -2.611660957336426, 6.524875640869141, 9.116619110107422, 5.208399295806885, -0.08133801072835922, -0.67431640625, 0.274169921875, -0.46484375, 
391, 3131800947, 0.6898890137672424, -0.35366562008857727, -0.1971983015537262, -0.6000557541847229, 6.951136589050293, -2.76584792137146, 6.484696865081787, 8.867853164672852, 4.435412406921387, 0.5257578492164612, -0.672119140625, 0.273681640625, -0.46533203125, 
392, 3131809280, 0.6902607083320618, -0.35307878255844116, -0.19745618104934692, -0.5998890399932861, 6.9394145011901855, -2.877162218093872, 6.3979902267456055, 9.499871253967285, 2.8781051635742188, 1.7134772539138794, -0.671142578125, 0.272216796875, -0.4658203125, 
393, 3131817613, 0.6906175017356873, -0.3526014983654022, -0.19770324230194092, -0.5996776819229126, 6.971360683441162, -2.7526261806488037, 6.358364105224609, 8.235860824584961, 1.8886785507202148, 2.2004549503326416, -0.672119140625, 0.272705078125, -0.46533203125, 
394, 3131825946, 0.6908880472183228, -0.35237574577331543, -0.19788140058517456, -0.5994398593902588, 6.9631476402282715, -2.5558598041534424, 6.292220592498779, 5.116507053375244, 0.03671800345182419, 2.9228532314300537, -0.665283203125, 0.27099609375, -0.465576171875, 
395, 3131834279, 0.6910340189933777, -0.35242488980293274, -0.19808299839496613, -0.5991758704185486, 6.822315216064453, -2.3272511959075928, 6.354979515075684, 2.136688232421875, -2.899723529815674, 2.7584996223449707, -0.674072265625, 0.272216796875, -0.46533203125, 
396, 3131842612, 0.6910629868507385, -0.3526281416416168, -0.19833488762378693, -0.598939836025238, 6.7880730628967285, -2.0634264945983887, 6.5653395652771, 0.4703669548034668, -4.848390102386475, 1.7234153747558594, -0.671630859375, 0.272705078125, -0.4638671875, 
397, 3131850945, 0.69097501039505, -0.35288435220718384, -0.1984814554452896, -0.5988417863845825, 6.84920072555542, -1.9385638236999512, 6.716944694519043, -1.873783826828003, -3.9156484603881836, 0.08400189131498337, -0.673095703125, 0.271728515625, -0.46435546875, 
398, 3131859278, 0.6908052563667297, -0.3531048595905304, -0.19847847521305084, -0.5989086627960205, 6.9054341316223145, -1.9277654886245728, 6.816515922546387, -3.582432985305786, -1.640694260597229, -1.5069624185562134, -0.673095703125, 0.27197265625, -0.46240234375, 
399, 3131867611, 0.6906096339225769, -0.35323044657707214, -0.1982806921005249, -0.5991256833076477, 6.943626403808594, -2.077794313430786, 6.847527027130127, -4.8197407722473145, 1.6486858129501343, -2.4594662189483643, -0.672119140625, 0.272216796875, -0.46630859375, 
400, 3131875944, 0.6904247999191284, -0.35325533151626587, -0.1979488730430603, -0.5994337201118469, 6.899348258972168, -2.35768723487854, 6.774068832397461, -5.298368453979492, 4.27568244934082, -2.9751319885253906, -0.673095703125, 0.272216796875, -0.46435546875, 
401, 3131884277, 0.6903083324432373, -0.3531784415245056, -0.19762659072875977, -0.5997194647789001, 6.811184406280518, -2.647592782974243, 6.655099868774414, -4.125671863555908, 5.190853118896484, -2.77183198928833, -0.671630859375, 0.2724609375, -0.4619140625, 
402, 3131892610, 0.6902586221694946, -0.35303783416748047, -0.19742585718631744, -0.5999256372451782, 6.778671741485596, -2.807330369949341, 6.471607685089111, -1.578349232673645, 4.214912414550781, -1.8640246391296387, -0.673583984375, 0.272216796875, -0.466796875, 
403, 3131900943, 0.6903185844421387, -0.35281839966773987, -0.19740799069404602, -0.5999916791915894, 6.774205207824707, -2.84719181060791, 6.37161922454834, 1.5519793033599854, 2.770012855529785, -0.7603329420089722, -0.671142578125, 0.270263671875, -0.468505859375, 
404, 3131909276, 0.6904472708702087, -0.352573037147522, -0.19754920899868011, -0.5999412536621094, 6.785870552062988, -2.8389732837677, 6.358170986175537, 3.799832820892334, 1.0744017362594604, 0.09978023916482925, -0.672607421875, 0.268798828125, -0.466552734375, 
405, 3131917609, 0.6905831694602966, -0.35241416096687317, -0.19777925312519073, -0.5998023152351379, 6.835483551025391, -2.7719459533691406, 6.40310525894165, 3.7340176105499268, -0.8006881475448608, 0.5743735432624817, -0.672607421875, 0.272216796875, -0.46728515625, 
406, 3131925942, 0.6906787753105164, -0.35236310958862305, -0.19806206226348877, -0.5996290445327759, 6.838510036468506, -2.5861432552337646, 6.476297855377197, 3.2962961196899414, -2.559335947036743, 0.8351778388023376, -0.671142578125, 0.271240234375, -0.466552734375, 
407, 3131934275, 0.6907677054405212, -0.3522939682006836, -0.19849906861782074, -0.5994225144386292, 6.8670220375061035, -2.357171058654785, 6.659053802490234, 4.712571144104004, -4.017643928527832, 0.22388122975826263, -0.670654296875, 0.272705078125, -0.4658203125, 
408, 3131942608, 0.6908721923828125, -0.3520985543727875, -0.19897478818893433, -0.5992593169212341, 6.908353328704834, -2.1787168979644775, 6.84633731842041, 6.273374080657959, -3.129598379135132, -0.5169464349746704, -0.671630859375, 0.271240234375, -0.464599609375, 
409, 3131950941, 0.690962553024292, -0.3518056869506836, -0.19926470518112183, -0.5992307662963867, 6.9252471923828125, -2.113369941711426, 6.865206241607666, 5.230414390563965, 0.05405884608626366, -1.2794055938720703, -0.675048828125, 0.269775390625, -0.46435546875, 
410, 3131959274, 0.6910178661346436, -0.35155993700027466, -0.19933640956878662, -0.5992873907089233, 6.831409931182861, -2.173574686050415, 6.802875995635986, 2.2552950382232666, 2.1701278686523438, -1.4917476177215576, -0.670654296875, 0.271728515625, -0.464111328125, 
411, 3131967607, 0.690974235534668, -0.3514973521232605, -0.19924485683441162, -0.5994046330451965, 6.787425518035889, -2.244035482406616, 6.697422981262207, -1.0764254331588745, 2.101801872253418, -1.2192504405975342, -0.671142578125, 0.269287109375, -0.466552734375, 
412, 3131975940, 0.6908824443817139, -0.35153552889823914, -0.19908277690410614, -0.5995420813560486, 6.820121765136719, -2.290741443634033, 6.6042094230651855, -2.9760665893554688, 1.9227964878082275, -1.2638576030731201, -0.667236328125, 0.268798828125, -0.467529296875, 
413, 3131984273, 0.6907802224159241, -0.3515971302986145, -0.19891873002052307, -0.5996781587600708, 6.847568035125732, -2.3715438842773438, 6.545963764190674, -3.245810031890869, 1.717447280883789, -1.2429051399230957, -0.671142578125, 0.2666015625, -0.468017578125, 
414, 3131992606, 0.6906741261482239, -0.3516675531864166, -0.1987924426794052, -0.5998010039329529, 6.843414306640625, -2.4874329566955566, 6.522757053375244, -3.014385938644409, 1.20662260055542, -1.3283543586730957, -0.671630859375, 0.269775390625, -0.465576171875, 
415, 3132000939, 0.6905629634857178, -0.3517846167087555, -0.1987035870552063, -0.5998895168304443, 6.8409223556518555, -2.548989772796631, 6.512784004211426, -3.079113245010376, 0.2947814464569092, -1.088835597038269, -0.672119140625, 0.271728515625, -0.4677734375, 
416, 3132009272, 0.6904350519180298, -0.35193970799446106, -0.1986507624387741, -0.5999633073806763, 6.820278167724609, -2.533790349960327, 6.565344333648682, -3.186744213104248, -0.48551785945892334, -1.166907787322998, -0.671630859375, 0.269775390625, -0.465576171875, 
417, 3132017605, 0.690317690372467, -0.3520820140838623, -0.19862234592437744, -0.6000242829322815, 6.842803955078125, -2.513958215713501, 6.602092742919922, -2.8333182334899902, -0.6179689764976501, -1.1574559211730957, -0.672607421875, 0.272216796875, -0.4658203125, 
418, 3132025938, 0.6902508735656738, -0.35214269161224365, -0.19863633811473846, -0.6000609993934631, 6.873295783996582, -2.516741991043091, 6.689882278442383, -1.3408794403076172, -0.3531946837902069, -0.8927329182624817, -0.672607421875, 0.268798828125, -0.464111328125, 
419, 3132034271, 0.6902468800544739, -0.35208967328071594, -0.19873446226119995, -0.6000640392303467, 6.858853816986084, -2.545560836791992, 6.729945182800293, 0.6909567713737488, -0.15138012170791626, -0.8948845267295837, -0.671630859375, 0.269775390625, -0.466064453125, 
420, 3132042604, 0.690301239490509, -0.35192129015922546, -0.19896328449249268, -0.6000247001647949, 6.854328155517578, -2.4732444286346436, 6.761954307556152, 3.4008662700653076, -0.5407933592796326, -0.8368427753448486, -0.672119140625, 0.26708984375, -0.467041015625, 
421, 3132050937, 0.690423846244812, -0.35159072279930115, -0.19930791854858398, -0.5999629497528076, 6.921352386474609, -2.360429048538208, 6.790013313293457, 6.229023456573486, -0.19437360763549805, -1.112182855606079, -0.672119140625, 0.268310546875, -0.463134765625, 
422, 3132059270, 0.6906814575195312, -0.3509432375431061, -0.19973579049110413, -0.5999032258987427, 6.9870171546936035, -2.309831142425537, 6.827751159667969, 10.62960147857666, 1.9820295572280884, -1.242226481437683, -0.673095703125, 0.26904296875, -0.469970703125, 
423, 3132067603, 0.691139817237854, -0.34983494877815247, -0.20026957988739014, -0.599844753742218, 6.962841510772705, -2.3067171573638916, 6.946709156036377, 16.791351318359375, 5.359689712524414, -1.4171077013015747, -0.671142578125, 0.26904296875, -0.468505859375, 
424, 3132075936, 0.691764235496521, -0.3483838737010956, -0.20087993144989014, -0.599765419960022, 6.862936496734619, -2.322737455368042, 6.852097988128662, 21.592975616455078, 7.790867328643799, -1.1173189878463745, -0.667724609375, 0.2666015625, -0.46923828125, 
425, 3132084269, 0.6924228072166443, -0.34694692492485046, -0.20147627592086792, -0.5996385216712952, 6.826849937438965, -2.250041961669922, 6.718299865722656, 21.373077392578125, 7.767661094665527, -0.5189189910888672, -0.6689453125, 0.2626953125, -0.470703125, 
426, 3132092602, 0.6929594278335571, -0.34581878781318665, -0.20190435647964478, -0.599526047706604, 6.876392841339111, -2.170788288116455, 6.707810401916504, 16.688663482666016, 6.462357521057129, 0.23837891221046448, -0.67041015625, 0.263671875, -0.470703125, 
427, 3132100935, 0.693299412727356, -0.34513041377067566, -0.2019689977169037, -0.5995078682899475, 6.940537929534912, -2.140033721923828, 6.880972385406494, 8.337985038757324, 6.1963276863098145, 0.7075805068016052, -0.66943359375, 0.26318359375, -0.47021484375, 
428, 3132109268, 0.6933990716934204, -0.344934344291687, -0.2016119509935379, -0.5996258854866028, 6.8908514976501465, -2.1272428035736084, 6.96510124206543, -1.3856532573699951, 6.14286994934082, 0.7569646835327148, -0.669921875, 0.2626953125, -0.47021484375, 
429, 3132117601, 0.693296492099762, -0.34506934881210327, -0.20094744861125946, -0.5998896956443787, 6.83613920211792, -2.1110634803771973, 6.848189830780029, -8.2695951461792, 6.426996231079102, 0.2459222972393036, -0.66748046875, 0.26220703125, -0.472412109375, 
430, 3132125934, 0.6931410431861877, -0.3452657461166382, -0.20023086667060852, -0.6001957058906555, 6.821162223815918, -2.175605058670044, 6.662810802459717, -9.822125434875488, 6.519028663635254, -0.3461892306804657, -0.66796875, 0.262939453125, -0.47314453125, 
431, 3132134267, 0.6930255889892578, -0.3453531265258789, -0.19962002336978912, -0.600482165813446, 6.831374168395996, -2.3926215171813965, 6.5164337158203125, -7.720784664154053, 6.452635765075684, -0.6741026639938354, -0.66748046875, 0.264404296875, -0.474609375, 
432, 3132142600, 0.692969799041748, -0.34529373049736023, -0.19923561811447144, -0.6007086038589478, 6.800342082977295, -2.6288089752197266, 6.453129768371582, -3.951700448989868, 5.360803604125977, -1.0455090999603271, -0.66552734375, 0.264404296875, -0.475830078125, 
433, 3132150933, 0.6930127143859863, -0.345063179731369, -0.19919052720069885, -0.6008063554763794, 6.788352966308594, -2.7715985774993896, 6.4717488288879395, 1.1282685995101929, 3.2643935680389404, -1.2442370653152466, -0.66650390625, 0.264892578125, -0.47607421875, 
434, 3132159266, 0.6931585073471069, -0.3446560800075531, -0.19944441318511963, -0.600787878036499, 6.825728416442871, -2.7991549968719482, 6.537136077880859, 6.263295650482178, 1.539825439453125, -1.0297306776046753, -0.66650390625, 0.261474609375, -0.474853515625, 
435, 3132167599, 0.6934499740600586, -0.3440535366535187, -0.20000220835208893, -0.60061115026474, 6.804102897644043, -2.793369770050049, 6.5352582931518555, 11.814643859863281, -0.10182938724756241, -0.2352539747953415, -0.66748046875, 0.261474609375, -0.475830078125, 
436, 3132175932, 0.6938460469245911, -0.34329041838645935, -0.200773224234581, -0.6003330945968628, 6.790010929107666, -2.6473515033721924, 6.480593204498291, 15.82833194732666, -0.9910917282104492, 0.08597419410943985, -0.66650390625, 0.263427734375, -0.475341796875, 
437, 3132184265, 0.6942843198776245, -0.3424874246120453, -0.20161159336566925, -0.6000040173530579, 6.816388130187988, -2.4466652870178223, 6.512633323669434, 16.833972930908203, -1.3339128494262695, 0.2413501739501953, -0.66650390625, 0.260009765625, -0.476318359375, 
438, 3132192598, 0.6946706175804138, -0.3417688012123108, -0.20248709619045258, -0.5996717810630798, 6.809948921203613, -2.21045184135437, 6.578318119049072, 16.369075775146484, -2.640392780303955, 0.15349334478378296, -0.66796875, 0.260009765625, -0.476318359375, 
439, 3132200931, 0.695000171661377, -0.341115266084671, -0.2033359408378601, -0.5993748903274536, 6.851548671722412, -2.019292116165161, 6.6217474937438965, 15.163333892822266, -2.9129281044006348, -0.3458946943283081, -0.66748046875, 0.261474609375, -0.473388671875, 
440, 3132209264, 0.6952539682388306, -0.34055379033088684, -0.20412582159042358, -0.5991312265396118, 6.865744113922119, -1.8958526849746704, 6.620053291320801, 13.053860664367676, -2.9879648685455322, -1.1678171157836914, -0.66845703125, 0.258056640625, -0.473388671875, 
441, 3132217597, 0.6953669786453247, -0.3401508331298828, -0.20473924279212952, -0.5990195274353027, 6.777437686920166, -1.8636606931686401, 6.594770908355713, 9.378369331359863, -2.4822371006011963, -2.0061967372894287, -0.666015625, 0.256103515625, -0.47607421875, 
442, 3132225930, 0.695354163646698, -0.3399161100387573, -0.20524078607559204, -0.5989960432052612, 6.612070560455322, -1.8411548137664795, 6.6383466720581055, 5.925533771514893, -2.7233312129974365, -2.978090286254883, -0.6650390625, 0.255615234375, -0.4736328125, 
443, 3132234263, 0.6952585577964783, -0.33976274728775024, -0.20568661391735077, -0.5990411043167114, 6.565027236938477, -1.8894546031951904, 6.587461471557617, 4.193742275238037, -2.7923998832702637, -3.73618221282959, -0.66650390625, 0.255615234375, -0.47314453125, 
444, 3132242596, 0.695167601108551, -0.3396397531032562, -0.20600581169128418, -0.5991066694259644, 6.714375972747803, -1.995543122291565, 6.576101303100586, 2.737905740737915, -1.7037949562072754, -3.3056328296661377, -0.66552734375, 0.255615234375, -0.4736328125, 
445, 3132250929, 0.6950424313545227, -0.3396459221839905, -0.2061862349510193, -0.5991863012313843, 6.676787853240967, -2.117311954498291, 6.529063701629639, 0.0720912516117096, -1.4391611814498901, -2.7848305702209473, -0.66796875, 0.255615234375, -0.47509765625, 
446, 3132259262, 0.6948808431625366, -0.3397468626499176, -0.2063446193933487, -0.5992619395256042, 6.586030960083008, -2.1672942638397217, 6.4981794357299805, -1.0842763185501099, -2.165299654006958, -2.5972836017608643, -0.666748046875, 0.2529296875, -0.47607421875, 
