sep=,
PacketCounter,SampleTimeFine,Quat_W,Quat_X,Quat_Y,Quat_Z,Acc_X,Acc_Y,Acc_Z,Gyr_X,Gyr_Y,Gyr_Z,Mag_X,Mag_Y,Mag_Z,
0, 3709277847, 0.4583245515823364, -0.45078861713409424, -0.16691924631595612, -0.7475630640983582, 0, 0, 0, 0, 0, 0, -0.822021484375, 0.027099609375, -0.314208984375, 
1, 3709286180, 0.4582940340042114, -0.4507195055484772, -0.1669950783252716, -0.747606635093689, 8.30770492553711, -1.6702102422714233, 5.285393238067627, 0.48195740580558777, 0.7263427972793579, -1.2889978885650635, -0.8212890625, 0.024169921875, -0.313232421875, 
2, 3709294513, 0.45824527740478516, -0.4506738781929016, -0.16706620156764984, -0.7476480603218079, 8.265324592590332, -1.643837809562683, 5.338924884796143, 0.20650194585323334, 0.4525010585784912, -1.4222431182861328, -0.8212890625, 0.022216796875, -0.3134765625, 
3, 3709302846, 0.45818009972572327, -0.4506581425666809, -0.16714254021644592, -0.7476804852485657, 8.21667766571045, -1.6051480770111084, 5.336285591125488, -0.03886960446834564, 0.0256910789757967, -1.455695390701294, -0.81982421875, 0.023681640625, -0.314453125, 
4, 3709311179, 0.4581024944782257, -0.45067253708839417, -0.1671878546476364, -0.7477092742919922, 8.172202110290527, -1.5703494548797607, 5.354997158050537, -0.5889096260070801, -0.1454504281282425, -1.3413021564483643, -0.820556640625, 0.027099609375, -0.313720703125, 
5, 3709319512, 0.45800167322158813, -0.4506920576095581, -0.16720731556415558, -0.7477548718452454, 8.132570266723633, -1.5236672163009644, 5.3303728103637695, -1.0946882963180542, 0.020158400759100914, -1.4709869623184204, -0.82080078125, 0.026123046875, -0.314697265625, 
6, 3709327845, 0.45790499448776245, -0.45067691802978516, -0.16721148788928986, -0.7478222846984863, 8.10557746887207, -1.510870099067688, 5.336528778076172, -1.0332396030426025, 0.6126156449317932, -1.5930132865905762, -0.8203125, 0.024169921875, -0.313232421875, 
7, 3709336178, 0.4578028917312622, -0.4506387710571289, -0.16719630360603333, -0.7479112148284912, 8.07861042022705, -1.5352704524993896, 5.340633869171143, -1.196786642074585, 1.0969808101654053, -1.6753886938095093, -0.82177734375, 0.023193359375, -0.314697265625, 
8, 3709344511, 0.4577109217643738, -0.45057234168052673, -0.16718916594982147, -0.7480091452598572, 8.088152885437012, -1.5291796922683716, 5.345172882080078, -0.8667344450950623, 1.4118181467056274, -1.7839291095733643, -0.82080078125, 0.021728515625, -0.314453125, 
9, 3709352844, 0.45764580368995667, -0.4504798650741577, -0.16719922423362732, -0.7481024861335754, 8.085368156433105, -1.5724281072616577, 5.347553253173828, -0.37560713291168213, 1.609252691268921, -1.6034255027770996, -0.822265625, 0.0224609375, -0.317138671875, 
10, 3709361177, 0.4576079845428467, -0.45035719871520996, -0.16724893450737, -0.7481882572174072, 8.108723640441895, -1.649725079536438, 5.339639663696289, 0.4346223771572113, 1.6813185214996338, -1.6301541328430176, -0.82177734375, 0.022705078125, -0.312744140625, 
11, 3709369510, 0.4576033055782318, -0.45020592212677, -0.1673489362001419, -0.7482598423957825, 8.122624397277832, -1.6451730728149414, 5.333923816680908, 1.343543529510498, 1.6511449813842773, -1.5375330448150635, -0.82080078125, 0.021728515625, -0.31494140625, 
12, 3709377843, 0.4576236605644226, -0.4500228762626648, -0.16749602556228638, -0.7483245730400085, 8.126002311706543, -1.6005710363388062, 5.342199325561523, 2.2257490158081055, 1.6935107707977295, -1.6419621706008911, -0.82080078125, 0.022216796875, -0.314453125, 
13, 3709386176, 0.45766469836235046, -0.44985079765319824, -0.16768161952495575, -0.7483614087104797, 8.127182006835938, -1.548613429069519, 5.319578647613525, 2.71746563911438, 1.2175214290618896, -1.4260340929031372, -0.81982421875, 0.020263671875, -0.3134765625, 
14, 3709394509, 0.4577062726020813, -0.4497096836566925, -0.16785722970962524, -0.7483813166618347, 8.155882835388184, -1.5146143436431885, 5.3197407722473145, 2.4886534214019775, 0.8532100915908813, -1.2205309867858887, -0.82177734375, 0.021240234375, -0.31396484375, 
15, 3709402842, 0.4577372968196869, -0.4496254324913025, -0.16800501942634583, -0.7483798265457153, 8.178987503051758, -1.4735130071640015, 5.342143535614014, 1.8032423257827759, 0.29105454683303833, -0.851506769657135, -0.82080078125, 0.022705078125, -0.31396484375, 
16, 3709411175, 0.4577421247959137, -0.44958165287971497, -0.16809217631816864, -0.7483835816383362, 8.184683799743652, -1.4565263986587524, 5.3502197265625, 0.7751379013061523, 0.22376595437526703, -0.7252541780471802, -0.82177734375, 0.021728515625, -0.31591796875, 
17, 3709419508, 0.45772746205329895, -0.4495399296283722, -0.16811250150203705, -0.7484130263328552, 8.166472434997559, -1.449695348739624, 5.3574724197387695, -0.12982574105262756, 0.7419931292533875, -0.6305328011512756, -0.8193359375, 0.021240234375, -0.31396484375, 
18, 3709427841, 0.4576963186264038, -0.4495193064212799, -0.16808491945266724, -0.7484506964683533, 8.103312492370605, -1.4580923318862915, 5.330434322357178, -0.8532741665840149, 0.833564043045044, -0.5448787808418274, -0.8193359375, 0.022705078125, -0.3173828125, 
19, 3709436174, 0.4576634168624878, -0.44951266050338745, -0.16803620755672455, -0.7484858632087708, 8.055561065673828, -1.5351577997207642, 5.321872234344482, -1.1872069835662842, 0.8095890879631042, -0.34549760818481445, -0.8212890625, 0.019775390625, -0.31591796875, 
20, 3709444507, 0.457633912563324, -0.44951292872428894, -0.1679438352584839, -0.7485243082046509, 8.071775436401367, -1.5525840520858765, 5.3535308837890625, -1.6429355144500732, 1.0342003107070923, -0.08297731727361679, -0.818359375, 0.018798828125, -0.315185546875, 
21, 3709452840, 0.45760783553123474, -0.4495202302932739, -0.1678469032049179, -0.7485576868057251, 8.099424362182617, -1.5484602451324463, 5.3667778968811035, -1.7263097763061523, 0.9740837216377258, 0.066340871155262, -0.8203125, 0.022705078125, -0.314453125, 
22, 3709461173, 0.4575793743133545, -0.44953373074531555, -0.16775761544704437, -0.7485868334770203, 8.089320182800293, -1.5485440492630005, 5.358644485473633, -1.6656039953231812, 0.8242917060852051, -0.004008627962321043, -0.8193359375, 0.021240234375, -0.31494140625, 
23, 3709469506, 0.4575604200363159, -0.449516624212265, -0.16768163442611694, -0.7486258745193481, 8.105545997619629, -1.5587034225463867, 5.351531028747559, -1.3259080648422241, 1.1449049711227417, -0.08190151304006577, -0.82177734375, 0.022705078125, -0.316650390625, 
24, 3709477839, 0.45752519369125366, -0.44947803020477295, -0.167606920003891, -0.7486872673034668, 8.066944122314453, -1.5311338901519775, 5.357174873352051, -1.3065180778503418, 1.4519685506820679, -0.48614534735679626, -0.8193359375, 0.0185546875, -0.31640625, 
25, 3709486172, 0.45748451352119446, -0.44944462180137634, -0.16753190755844116, -0.7487490177154541, 8.039502143859863, -1.5596636533737183, 5.317666053771973, -1.3992927074432373, 1.3962575197219849, -0.49201104044914246, -0.8203125, 0.022216796875, -0.3173828125, 
26, 3709494505, 0.4574357867240906, -0.44945111870765686, -0.16747719049453735, -0.748786985874176, 8.051118850708008, -1.60677170753479, 5.311408042907715, -1.4127916097640991, 0.6866920590400696, -0.4981327950954437, -0.8203125, 0.023193359375, -0.31689453125, 
27, 3709502838, 0.45738041400909424, -0.44949468970298767, -0.16744233667850494, -0.7488026022911072, 8.156079292297363, -1.6453896760940552, 5.310098171234131, -1.4551572799682617, 0.03278622031211853, -0.42356979846954346, -0.8193359375, 0.022705078125, -0.31494140625, 
28, 3709511171, 0.4573178291320801, -0.4495381712913513, -0.16741091012954712, -0.7488217949867249, 8.222893714904785, -1.6441168785095215, 5.31722354888916, -1.4479856491088867, 0.009067438542842865, -0.5798422694206238, -0.8232421875, 0.021484375, -0.3173828125, 
29, 3709519504, 0.457253098487854, -0.44956207275390625, -0.1673847734928131, -0.7488527894020081, 8.255382537841797, -1.6577571630477905, 5.327988147735596, -1.3336949348449707, 0.2532223165035248, -0.7174162864685059, -0.82177734375, 0.02294921875, -0.319091796875, 
30, 3709527837, 0.4571869671344757, -0.4495667815208435, -0.16736029088497162, -0.7488957643508911, 8.24393081665039, -1.6222504377365112, 5.389237880706787, -1.2101829051971436, 0.5064190030097961, -0.8980991244316101, -0.81787109375, 0.019775390625, -0.31640625, 
31, 3709536170, 0.457089364528656, -0.44957494735717773, -0.16731882095336914, -0.7489597201347351, 8.200827598571777, -1.5878992080688477, 5.391103744506836, -1.6730835437774658, 0.6398948431015015, -1.2037025690078735, -0.81884765625, 0.023193359375, -0.31640625, 
32, 3709544503, 0.4570004343986511, -0.4495881199836731, -0.16729991137981415, -0.7490103244781494, 8.165525436401367, -1.5349040031433105, 5.385680198669434, -1.3634968996047974, 0.37805330753326416, -1.1959798336029053, -0.81787109375, 0.019287109375, -0.31689453125, 
33, 3709552836, 0.4568997025489807, -0.44961944222450256, -0.16726383566856384, -0.7490609884262085, 8.158231735229492, -1.5147721767425537, 5.366219997406006, -1.7518982887268066, 0.2777095139026642, -1.132981538772583, -0.8212890625, 0.021484375, -0.318359375, 
34, 3709561169, 0.45678645372390747, -0.4496523141860962, -0.16720575094223022, -0.7491233348846436, 8.127379417419434, -1.5318228006362915, 5.386682033538818, -2.067593812942505, 0.4367739260196686, -1.2315195798873901, -0.82177734375, 0.021484375, -0.31689453125, 
35, 3709569502, 0.45665982365608215, -0.4496932625770569, -0.16710230708122253, -0.7491990327835083, 8.132368087768555, -1.5663793087005615, 5.389263153076172, -2.724240303039551, 0.6972194910049438, -1.117869257926941, -0.81787109375, 0.019775390625, -0.31640625, 
36, 3709577835, 0.45652416348457336, -0.44973063468933105, -0.16698160767555237, -0.7492861747741699, 8.130277633666992, -1.6174753904342651, 5.368314743041992, -2.9379396438598633, 0.8865085244178772, -1.2209408283233643, -0.8203125, 0.021728515625, -0.314453125, 
37, 3709586168, 0.4563920497894287, -0.44976404309272766, -0.16687257587909698, -0.749370813369751, 8.090452194213867, -1.6775258779525757, 5.3536272048950195, -2.790043592453003, 0.852390468120575, -1.2136409282684326, -0.818359375, 0.020263671875, -0.3154296875, 
38, 3709594501, 0.45628538727760315, -0.44979336857795715, -0.16679516434669495, -0.7494354248046875, 8.102192878723145, -1.7211098670959473, 5.377959251403809, -2.2086257934570312, 0.6238346695899963, -1.0661540031433105, -0.818359375, 0.021240234375, -0.3173828125, 
39, 3709602834, 0.4562164843082428, -0.4497874081134796, -0.1667693853378296, -0.7494867444038391, 8.115400314331055, -1.7058188915252686, 5.377954006195068, -1.2156387567520142, 0.6750119924545288, -0.9573193192481995, -0.818359375, 0.0205078125, -0.3193359375, 
40, 3709611167, 0.45618173480033875, -0.4497308135032654, -0.16680485010147095, -0.7495339512825012, 8.145228385925293, -1.6776421070098877, 5.3186821937561035, -0.023142460733652115, 0.8594601154327393, -1.111773133277893, -0.82080078125, 0.02001953125, -0.3173828125, 
41, 3709619500, 0.4561680555343628, -0.4496317505836487, -0.1668824702501297, -0.749584436416626, 8.14320182800293, -1.693112850189209, 5.30601692199707, 0.7771870493888855, 1.106867790222168, -1.2367192506790161, -0.81982421875, 0.021728515625, -0.3154296875, 
42, 3709627833, 0.4561898112297058, -0.4494872987270355, -0.16699695587158203, -0.7496323585510254, 8.156908988952637, -1.6710985898971558, 5.314419746398926, 1.6924095153808594, 1.4029685258865356, -1.224501371383667, -0.82080078125, 0.021484375, -0.31982421875, 
43, 3709636166, 0.4562343955039978, -0.4493284821510315, -0.16717177629470825, -0.7496614456176758, 8.131865501403809, -1.6467992067337036, 5.296351432800293, 2.5625505447387695, 1.1142191886901855, -1.2405869960784912, -0.818359375, 0.01953125, -0.3173828125, 
44, 3709644499, 0.456288605928421, -0.44918471574783325, -0.1673673689365387, -0.7496710419654846, 8.123955726623535, -1.6245579719543457, 5.291844367980957, 2.81269907951355, 0.7248315811157227, -1.149041771888733, -0.818359375, 0.0185546875, -0.317626953125, 
45, 3709652832, 0.4563449025154114, -0.44907259941101074, -0.1675914227962494, -0.7496538758277893, 8.125391006469727, -1.5678099393844604, 5.2504987716674805, 2.9563183784484863, 0.06644332408905029, -1.0258629322052002, -0.818359375, 0.02099609375, -0.31884765625, 
46, 3709661165, 0.4563818871974945, -0.4490079879760742, -0.16777995228767395, -0.7496277689933777, 8.169903755187988, -1.5728113651275635, 5.265492916107178, 2.216604471206665, -0.3066408336162567, -0.8771467208862305, -0.8203125, 0.01953125, -0.31689453125, 
47, 3709669498, 0.4564128816127777, -0.4489686191082001, -0.16793645918369293, -0.7495974898338318, 8.184500694274902, -1.564042091369629, 5.259149074554443, 1.6789876222610474, -0.3999022841453552, -0.6186222434043884, -0.8203125, 0.017578125, -0.318603515625, 
48, 3709677831, 0.4564281105995178, -0.4489482343196869, -0.16805680096149445, -0.7495734691619873, 8.174554824829102, -1.5734895467758179, 5.283332824707031, 1.0974417924880981, -0.3725205659866333, -0.5909844040870667, -0.81591796875, 0.017822265625, -0.315185546875, 
49, 3709686164, 0.4564375579357147, -0.4489445984363556, -0.16817373037338257, -0.7495436072349548, 8.164684295654297, -1.5749486684799194, 5.27462100982666, 0.9123533964157104, -0.565779983997345, -0.5172410607337952, -0.81884765625, 0.0185546875, -0.318603515625, 
50, 3709694497, 0.4564553201198578, -0.44896820187568665, -0.16827814280986786, -0.7494953274726868, 8.177630424499512, -1.5590550899505615, 5.259535312652588, 0.7292884588241577, -0.8692061901092529, -0.21163760125637054, -0.8193359375, 0.019287109375, -0.31494140625, 
51, 3709702830, 0.4564736783504486, -0.4490000605583191, -0.16836027801036835, -0.7494466304779053, 8.152145385742188, -1.5585758686065674, 5.259764194488525, 0.42993494868278503, -0.8100374341011047, -0.01115499995648861, -0.8203125, 0.017578125, -0.316162109375, 
52, 3709711163, 0.4564802050590515, -0.4490436911582947, -0.16841648519039154, -0.749403715133667, 8.168560981750488, -1.5830743312835693, 5.280064105987549, 0.024410365149378777, -0.7655966877937317, -0.01768662966787815, -0.81787109375, 0.01904296875, -0.317626953125, 
53, 3709719496, 0.45648425817489624, -0.4490845799446106, -0.16846415400505066, -0.7493661046028137, 8.13102912902832, -1.5816007852554321, 5.289333343505859, -0.09734690189361572, -0.6508961915969849, 0.00683900061994791, -0.82080078125, 0.01806640625, -0.31640625, 
54, 3709727829, 0.4565051794052124, -0.44913288950920105, -0.16852755844593048, -0.7493101954460144, 8.108555793762207, -1.6250042915344238, 5.298554420471191, 0.1894172579050064, -0.9052966833114624, 0.1792484074831009, -0.818359375, 0.01953125, -0.31884765625, 
55, 3709736162, 0.4565427005290985, -0.4491717517375946, -0.1686094105243683, -0.7492455244064331, 8.12584400177002, -1.635225772857666, 5.312488079071045, 0.5362852811813354, -0.9331395030021667, 0.30501434206962585, -0.8193359375, 0.0185546875, -0.31640625, 
56, 3709744495, 0.4566200375556946, -0.44917032122612, -0.16869446635246277, -0.7491800785064697, 8.147302627563477, -1.6027731895446777, 5.3229241371154785, 1.0958538055419922, -0.4575085937976837, 0.570249617099762, -0.8203125, 0.020263671875, -0.3154296875, 
57, 3709752828, 0.45671841502189636, -0.4491370618343353, -0.16882261633872986, -0.7491113543510437, 8.103778839111328, -1.5772101879119873, 5.300809860229492, 1.8522167205810547, -0.3667318522930145, 0.5051127076148987, -0.8203125, 0.02001953125, -0.3173828125, 
58, 3709761161, 0.45682260394096375, -0.4491023123264313, -0.16892698407173157, -0.7490450739860535, 8.108672142028809, -1.5926824808120728, 5.314179420471191, 1.6715335845947266, -0.17798051238059998, 0.6557756066322327, -0.81884765625, 0.019287109375, -0.31494140625, 
59, 3709769494, 0.4569333791732788, -0.4490666389465332, -0.16902339458465576, -0.7489771842956543, 8.12447452545166, -1.6363635063171387, 5.287095069885254, 1.615259051322937, -0.10710590332746506, 0.8183490633964539, -0.81982421875, 0.017822265625, -0.314208984375, 
60, 3709777827, 0.45707279443740845, -0.44901877641677856, -0.16914412379264832, -0.7488934397697449, 8.154510498046875, -1.645671010017395, 5.288087844848633, 2.1813340187072754, -0.1715257316827774, 0.9975208640098572, -0.8173828125, 0.01904296875, -0.317626953125, 
61, 3709786160, 0.45721378922462463, -0.44897085428237915, -0.16926929354667664, -0.7488078474998474, 8.170148849487305, -1.6401100158691406, 5.28959846496582, 2.2161693572998047, -0.20139195024967194, 1.0340722799301147, -0.81884765625, 0.018310546875, -0.316650390625, 
62, 3709794493, 0.45733487606048584, -0.44895118474960327, -0.16939900815486908, -0.7487162351608276, 8.208375930786133, -1.6037390232086182, 5.2661662101745605, 2.001624345779419, -0.6097596287727356, 0.8693983554840088, -0.8193359375, 0.018798828125, -0.31396484375, 
63, 3709802826, 0.4574291706085205, -0.4489561915397644, -0.1695258468389511, -0.7486270070075989, 8.188941955566406, -1.535803198814392, 5.266621112823486, 1.6221494674682617, -0.8886474370956421, 0.6881776452064514, -0.81884765625, 0.018310546875, -0.314208984375, 
64, 3709811159, 0.4574931561946869, -0.44896364212036133, -0.1696249544620514, -0.7485610842704773, 8.210612297058105, -1.499471664428711, 5.288984298706055, 1.1013864278793335, -0.6712338328361511, 0.3708941340446472, -0.81884765625, 0.018310546875, -0.315185546875, 
65, 3709819492, 0.45752739906311035, -0.44896364212036133, -0.16971486806869507, -0.7485197186470032, 8.169011116027832, -1.4981415271759033, 5.251531600952148, 0.7893410921096802, -0.44709649682044983, -0.01444642897695303, -0.8203125, 0.017822265625, -0.3125, 
66, 3709827825, 0.4575195908546448, -0.44900646805763245, -0.16976574063301086, -0.7484872937202454, 8.172959327697754, -1.4473775625228882, 5.2739763259887695, -0.13748440146446228, -0.6923398971557617, -0.19821575284004211, -0.81982421875, 0.01953125, -0.31689453125, 
67, 3709836158, 0.4574766457080841, -0.44907063245773315, -0.16976095736026764, -0.7484760880470276, 8.16308879852295, -1.4359689950942993, 5.289656162261963, -1.136618971824646, -0.507686972618103, -0.2645566165447235, -0.81787109375, 0.01806640625, -0.317626953125, 
68, 3709844491, 0.45739027857780457, -0.4491764008998871, -0.16970384120941162, -0.748478353023529, 8.162426948547363, -1.4700318574905396, 5.314977169036865, -2.2122883796691895, -0.6283299922943115, -0.41130053997039795, -0.818359375, 0.018310546875, -0.316162109375, 
69, 3709852824, 0.457260400056839, -0.44931522011756897, -0.16958487033843994, -0.7485014796257019, 8.182507514953613, -1.4556187391281128, 5.356146335601807, -3.3968191146850586, -0.5476707816123962, -0.49493110179901123, -0.82080078125, 0.020263671875, -0.31396484375, 
70, 3709861157, 0.45710650086402893, -0.4494401514530182, -0.1694268137216568, -0.7485561966896057, 8.198122024536133, -1.490161418914795, 5.328187465667725, -3.913893461227417, -0.024397559463977814, -0.7676970362663269, -0.8193359375, 0.019775390625, -0.31494140625, 
71, 3709869490, 0.45694926381111145, -0.44955140352249146, -0.1692592054605484, -0.748623251914978, 8.186325073242188, -1.5575146675109863, 5.312931537628174, -3.997267484664917, 0.24922651052474976, -0.8175167441368103, -0.81884765625, 0.017333984375, -0.313232421875, 
72, 3709877823, 0.45681577920913696, -0.4496365785598755, -0.16912339627742767, -0.7486843466758728, 8.220290184020996, -1.6268044710159302, 5.339977264404297, -3.3257908821105957, 0.3324984014034271, -0.830016553401947, -0.8203125, 0.019775390625, -0.31396484375, 
73, 3709886156, 0.4567068815231323, -0.44968971610069275, -0.16903765499591827, -0.7487382292747498, 8.231376647949219, -1.6434907913208008, 5.329314708709717, -2.4588770866394043, 0.36466988921165466, -0.8775821924209595, -0.818359375, 0.016845703125, -0.314208984375, 
74, 3709894489, 0.4566219747066498, -0.4497271478176117, -0.16899554431438446, -0.7487768530845642, 8.224750518798828, -1.6860853433609009, 5.344783782958984, -1.7026678323745728, 0.20788513123989105, -0.8752511739730835, -0.81884765625, 0.020263671875, -0.31396484375, 
75, 3709902822, 0.4565581977367401, -0.44973164796829224, -0.16903430223464966, -0.7488043308258057, 8.228458404541016, -1.662234902381897, 5.306615352630615, -0.5310983061790466, 0.025127563625574112, -1.129549264907837, -0.8203125, 0.019287109375, -0.31298828125, 
76, 3709911155, 0.45652949810028076, -0.44967958331108093, -0.16914623975753784, -0.7488278746604919, 8.179876327514648, -1.6409051418304443, 5.293118000030518, 0.8280569314956665, 0.19927874207496643, -1.3622546195983887, -0.8193359375, 0.019287109375, -0.31591796875, 
77, 3709919488, 0.4565120339393616, -0.44959333539009094, -0.16933059692382812, -0.7488486766815186, 8.131326675415039, -1.5980645418167114, 5.273817539215088, 1.8409720659255981, 0.11180613934993744, -1.7234923839569092, -0.81884765625, 0.01708984375, -0.316650390625, 
78, 3709927821, 0.4564782977104187, -0.4495210647583008, -0.1695207804441452, -0.7488695383071899, 8.13602352142334, -1.5916908979415894, 5.29477596282959, 1.735518217086792, -0.11112736910581589, -1.9287391901016235, -0.818359375, 0.017333984375, -0.315673828125, 
79, 3709936154, 0.45643705129623413, -0.44946083426475525, -0.16971975564956665, -0.7488859295845032, 8.15354061126709, -1.5487271547317505, 5.266010761260986, 1.6902834177017212, -0.3314354121685028, -1.9696707725524902, -0.818359375, 0.019287109375, -0.3134765625, 
80, 3709944487, 0.45636990666389465, -0.44943973422050476, -0.16992628574371338, -0.7488924860954285, 8.172341346740723, -1.5127627849578857, 5.249791145324707, 1.4100379943847656, -0.9059882164001465, -2.1637494564056396, -0.818359375, 0.019775390625, -0.31591796875, 
81, 3709952820, 0.4562624990940094, -0.44945603609085083, -0.17006899416446686, -0.7489158511161804, 8.205408096313477, -1.5130057334899902, 5.277155876159668, 0.20429912209510803, -0.8787091374397278, -2.1692309379577637, -0.81982421875, 0.019287109375, -0.31298828125, 
82, 3709961153, 0.4561154246330261, -0.44947144389152527, -0.17013545334339142, -0.7489810585975647, 8.16885757446289, -1.4965698719024658, 5.295473575592041, -0.8941544890403748, -0.22818440198898315, -2.405317544937134, -0.81884765625, 0.016357421875, -0.313232421875, 
83, 3709969486, 0.45594727993011475, -0.44949254393577576, -0.17017707228660583, -0.7490612864494324, 8.107885360717773, -1.5475791692733765, 5.291598320007324, -1.3749337196350098, -0.08238819241523743, -2.514971971511841, -0.8212890625, 0.015869140625, -0.313720703125, 
84, 3709977819, 0.45577865839004517, -0.44954410195350647, -0.1702120006084442, -0.7491250038146973, 8.140750885009766, -1.572348713874817, 5.285157203674316, -1.5695507526397705, -0.4629901349544525, -2.3342127799987793, -0.82080078125, 0.017578125, -0.316162109375, 
85, 3709986152, 0.45563173294067383, -0.44959303736686707, -0.1702575385570526, -0.7491747140884399, 8.195493698120117, -1.5572030544281006, 5.270960330963135, -1.3059033155441284, -0.5332499742507935, -2.064417839050293, -0.8212890625, 0.015380859375, -0.313232421875, 
86, 3709994485, 0.4555065333843231, -0.44962066411972046, -0.17032235860824585, -0.749219536781311, 8.21550178527832, -1.5620111227035522, 5.246938705444336, -0.8052986860275269, -0.4173967242240906, -2.01334285736084, -0.81787109375, 0.016357421875, -0.314697265625, 
87, 3710002818, 0.4553914964199066, -0.44962024688720703, -0.17039929330348969, -0.749272346496582, 8.168818473815918, -1.5750418901443481, 5.246988773345947, -0.48296919465065, -0.12910853326320648, -2.064340829849243, -0.813720703125, 0.013427734375, -0.3134765625, 
88, 3710011151, 0.4553084671497345, -0.44959503412246704, -0.170498788356781, -0.7493152022361755, 8.150969505310059, -1.5839428901672363, 5.255188941955566, 0.1458730548620224, -0.0023437023628503084, -1.9059935808181763, -0.81884765625, 0.0146484375, -0.316162109375, 
89, 3710019484, 0.4552711546421051, -0.44954565167427063, -0.17064756155014038, -0.7493337392807007, 8.155235290527344, -1.5915766954421997, 5.262977123260498, 1.12449049949646, -0.10290518403053284, -1.608637809753418, -0.82080078125, 0.015869140625, -0.313720703125, 
90, 3710027817, 0.4552665054798126, -0.44952037930488586, -0.1708192378282547, -0.7493124604225159, 8.170446395874023, -1.5609050989151, 5.260993957519531, 1.5219979286193848, -0.6662647128105164, -1.1436116695404053, -0.81982421875, 0.013916015625, -0.314697265625, 
91, 3710036150, 0.4552488923072815, -0.44952595233917236, -0.1709616780281067, -0.7492874264717102, 8.240360260009766, -1.580363392829895, 5.2712082862854, 0.9392995834350586, -0.8532484769821167, -0.9635178446769714, -0.818359375, 0.015869140625, -0.311767578125, 
92, 3710044483, 0.45523932576179504, -0.44954490661621094, -0.17108029127120972, -0.7492547631263733, 8.236162185668945, -1.5626529455184937, 5.262990474700928, 0.7010359764099121, -0.8722288012504578, -0.6893430948257446, -0.8173828125, 0.014892578125, -0.312744140625, 
93, 3710052816, 0.45521730184555054, -0.44957685470581055, -0.17119982838630676, -0.7492217421531677, 8.204489707946777, -1.5453288555145264, 5.289455890655518, 0.5298560261726379, -1.0414619445800781, -0.7556583285331726, -0.8193359375, 0.012939453125, -0.311767578125, 
94, 3710061149, 0.45514991879463196, -0.44965073466300964, -0.17124809324741364, -0.7492071390151978, 8.189311027526855, -1.4775484800338745, 5.34006929397583, -0.7694900035858154, -1.0210474729537964, -0.8344221115112305, -0.82177734375, 0.0146484375, -0.314697265625, 
95, 3710069482, 0.45503130555152893, -0.4497700035572052, -0.1712387055158615, -0.7492098212242126, 8.157063484191895, -1.4587070941925049, 5.327111721038818, -2.02712345123291, -1.1411782503128052, -0.9717913269996643, -0.81884765625, 0.013427734375, -0.313232421875, 
96, 3710077815, 0.4549001455307007, -0.4499131441116333, -0.1712258905172348, -0.7492064833641052, 8.151588439941406, -1.4807449579238892, 5.3252668380737305, -2.2513246536254883, -1.4340513944625854, -1.0185884237289429, -0.81884765625, 0.014892578125, -0.313232421875, 
97, 3710086148, 0.4547646641731262, -0.45004546642303467, -0.17121751606464386, -0.7492112517356873, 8.150567054748535, -1.500170350074768, 5.349348545074463, -2.20721697807312, -1.308464765548706, -1.1343648433685303, -0.81982421875, 0.013916015625, -0.313232421875, 
98, 3710094481, 0.4546443223953247, -0.45016348361968994, -0.17124275863170624, -0.7492075562477112, 8.140220642089844, -1.5327988862991333, 5.3509840965271, -1.634636402130127, -1.3920440673828125, -1.2000653743743896, -0.818115234375, 0.013427734375, -0.31103515625, 
99, 3710102814, 0.4545547068119049, -0.45024240016937256, -0.1712973564863205, -0.7492020130157471, 8.148329734802246, -1.5662885904312134, 5.321455001831055, -0.9158241152763367, -1.1072648763656616, -1.1126439571380615, -0.8193359375, 0.013427734375, -0.312255859375, 
100, 3710111147, 0.4545234739780426, -0.45028209686279297, -0.1713874191045761, -0.7491764426231384, 8.145657539367676, -1.6121578216552734, 5.313560962677002, 0.12645746767520905, -0.9140310883522034, -0.73122239112854, -0.81982421875, 0.012451171875, -0.312744140625, 
101, 3710119480, 0.4545423984527588, -0.45026862621307373, -0.17151370644569397, -0.7491441965103149, 8.143046379089355, -1.5907206535339355, 5.340169429779053, 1.13340425491333, -0.512297511100769, -0.48862993717193604, -0.818115234375, 0.011962890625, -0.31103515625, 
102, 3710127813, 0.4545997381210327, -0.45022472739219666, -0.17167557775974274, -0.7490985989570618, 8.193644523620605, -1.58406400680542, 5.338688850402832, 1.9793912172317505, -0.41811394691467285, -0.3381207287311554, -0.818115234375, 0.012939453125, -0.310546875, 
103, 3710136146, 0.4546641409397125, -0.45016828179359436, -0.17185208201408386, -0.7490529417991638, 8.209244728088379, -1.528448224067688, 5.313382148742676, 2.2347397804260254, -0.36089175939559937, -0.3491860330104828, -0.8203125, 0.012939453125, -0.311279296875, 
104, 3710144479, 0.4547305703163147, -0.45011070370674133, -0.17202028632164001, -0.7490087151527405, 8.198661804199219, -1.4864038228988647, 5.323434352874756, 2.1844844818115234, -0.28584206104278564, -0.32282906770706177, -0.819580078125, 0.012451171875, -0.31201171875, 
105, 3710152812, 0.4547683894634247, -0.450082927942276, -0.17214001715183258, -0.7489749789237976, 8.233072280883789, -1.4726345539093018, 5.3364362716674805, 1.277458667755127, -0.28909504413604736, -0.2787981331348419, -0.819091796875, 0.012939453125, -0.31201171875, 
106, 3710161145, 0.4547654092311859, -0.4500969350337982, -0.17221467196941376, -0.7489510774612427, 8.25714111328125, -1.4955666065216064, 5.345462799072266, 0.2956394851207733, -0.47776949405670166, -0.4180883765220642, -0.818603515625, 0.012939453125, -0.31201171875, 
107, 3710169478, 0.4547275900840759, -0.45012786984443665, -0.17224906384944916, -0.7489475607872009, 8.255511283874512, -1.4787358045578003, 5.359067440032959, -0.5089420080184937, -0.3525158762931824, -0.5787664651870728, -0.81982421875, 0.012451171875, -0.313232421875, 
108, 3710177811, 0.45466604828834534, -0.4501582682132721, -0.17226457595825195, -0.7489631175994873, 8.282784461975098, -1.4806315898895264, 5.3543171882629395, -0.8693855404853821, -0.17044992744922638, -0.8598825931549072, -0.815673828125, 0.0126953125, -0.31005859375, 
109, 3710186144, 0.45458605885505676, -0.45020195841789246, -0.1722615361213684, -0.748986005783081, 8.277949333190918, -1.4852946996688843, 5.373859405517578, -1.2977581024169922, -0.18722723424434662, -0.9171817302703857, -0.818115234375, 0.012939453125, -0.3125, 
110, 3710194477, 0.4545091390609741, -0.45022445917129517, -0.17225022614002228, -0.7490217685699463, 8.254323959350586, -1.4795656204223633, 5.380704402923584, -1.2399210929870605, 0.16651813685894012, -0.9975079298019409, -0.8212890625, 0.012451171875, -0.310302734375, 
111, 3710202810, 0.4544551372528076, -0.45021530985832214, -0.1722613126039505, -0.7490575313568115, 8.21970272064209, -1.4880274534225464, 5.3516716957092285, -0.691673994064331, 0.41172319650650024, -0.9416432976722717, -0.8203125, 0.012939453125, -0.310302734375, 
112, 3710211143, 0.45441532135009766, -0.45018696784973145, -0.17226892709732056, -0.7490970492362976, 8.235934257507324, -1.4803663492202759, 5.379380702972412, -0.5115803480148315, 0.6834902763366699, -0.8790164589881897, -0.8193359375, 0.012939453125, -0.311767578125, 
113, 3710219476, 0.4544100761413574, -0.4501166045665741, -0.17227071523666382, -0.7491419911384583, 8.212121963500977, -1.4490514993667603, 5.375404357910156, -0.12460044771432877, 1.27210533618927, -0.584888219833374, -0.82177734375, 0.014892578125, -0.312744140625, 
114, 3710227809, 0.4544459283351898, -0.45002859830856323, -0.17228947579860687, -0.7491688132286072, 8.172781944274902, -1.4959172010421753, 5.321472644805908, 0.4851336181163788, 1.3261770009994507, -0.22452157735824585, -0.819580078125, 0.010498046875, -0.310546875, 
115, 3710236142, 0.45449909567832947, -0.44991815090179443, -0.17230455577373505, -0.7491994500160217, 8.114680290222168, -1.5113765001296997, 5.313750267028809, 0.6590542197227478, 1.6523228883743286, -0.07078493386507034, -0.817626953125, 0.011962890625, -0.3134765625, 
116, 3710244475, 0.45457229018211365, -0.44978204369544983, -0.172323539853096, -0.7492324113845825, 8.075640678405762, -1.4839502573013306, 5.321853160858154, 1.0059736967086792, 1.9480139017105103, 0.008529541082680225, -0.8203125, 0.012451171875, -0.311767578125, 
117, 3710252808, 0.45465216040611267, -0.44965171813964844, -0.17236563563346863, -0.7492524981498718, 8.109155654907227, -1.5275956392288208, 5.299588203430176, 1.2499361038208008, 1.6860697269439697, 0.05623605102300644, -0.819091796875, 0.011962890625, -0.31103515625, 
118, 3710261141, 0.45473095774650574, -0.44954344630241394, -0.1723964512348175, -0.7492626309394836, 8.184964179992676, -1.517061710357666, 5.282193183898926, 1.046277403831482, 1.4561052322387695, 0.20392772555351257, -0.818115234375, 0.012939453125, -0.31103515625, 
119, 3710269474, 0.4547857642173767, -0.44945624470710754, -0.17241916060447693, -0.7492763996124268, 8.257635116577148, -1.4950515031814575, 5.259606838226318, 0.6405863165855408, 1.2652150392532349, 0.05857974663376808, -0.818115234375, 0.013916015625, -0.311279296875, 
120, 3710277807, 0.45482558012008667, -0.44937634468078613, -0.1724332869052887, -0.7492967844009399, 8.265918731689453, -1.4637935161590576, 5.229400634765625, 0.4127478003501892, 1.245005488395691, -0.10357115417718887, -0.81884765625, 0.013427734375, -0.311767578125, 
121, 3710286140, 0.45482614636421204, -0.44932979345321655, -0.17244714498519897, -0.7493211627006531, 8.230162620544434, -1.4464975595474243, 5.264721870422363, -0.06351049244403839, 0.8373293280601501, -0.4150658845901489, -0.820068359375, 0.011474609375, -0.31005859375, 
122, 3710294473, 0.4548063278198242, -0.4493001401424408, -0.17241792380809784, -0.7493578791618347, 8.171515464782715, -1.412800908088684, 5.269620895385742, -0.7616264820098877, 0.9580490589141846, -0.4369148015975952, -0.819091796875, 0.011474609375, -0.310546875, 
123, 3710302806, 0.4547545313835144, -0.4493066072463989, -0.17235064506530762, -0.7494009137153625, 8.188563346862793, -1.3811802864074707, 5.302153587341309, -1.6001085042953491, 0.7899941802024841, -0.4431902766227722, -0.819580078125, 0.010986328125, -0.3125, 
124, 3710311139, 0.4546796381473541, -0.44934913516044617, -0.17222101986408234, -0.74945068359375, 8.171793937683105, -1.3837957382202148, 5.302523612976074, -2.6031618118286133, 0.7905833125114441, -0.28381848335266113, -0.818115234375, 0.012939453125, -0.3134765625, 
125, 3710319472, 0.4545805752277374, -0.44941264390945435, -0.17203766107559204, -0.7495147585868835, 8.16578483581543, -1.41089928150177, 5.291697978973389, -3.4947681427001953, 0.9471632838249207, -0.21028007566928864, -0.819091796875, 0.011474609375, -0.3115234375, 
126, 3710327805, 0.4544772803783417, -0.4494793117046356, -0.17183548212051392, -0.7495838403701782, 8.162298202514648, -1.4816404581069946, 5.258431434631348, -3.727524518966675, 1.0472379922866821, -0.19368202984333038, -0.818603515625, 0.010986328125, -0.31298828125, 
127, 3710336138, 0.45438477396965027, -0.44954714179039, -0.17163971066474915, -0.7496441006660461, 8.136195182800293, -1.525062084197998, 5.281543731689453, -3.5994784832000732, 0.9706259369850159, -0.03146708384156227, -0.818603515625, 0.013916015625, -0.315185546875, 
128, 3710344471, 0.45430612564086914, -0.4495985805988312, -0.17145460844039917, -0.7497031688690186, 8.105436325073242, -1.544283151626587, 5.27523946762085, -3.2776100635528564, 1.092549443244934, -0.015227660536766052, -0.820068359375, 0.01171875, -0.31494140625, 
129, 3710352804, 0.4542565941810608, -0.4496346116065979, -0.1713051050901413, -0.7497457265853882, 8.132224082946777, -1.5543644428253174, 5.2359209060668945, -2.617147445678711, 1.0006201267242432, 0.16139531135559082, -0.8203125, 0.014892578125, -0.311767578125, 
130, 3710361137, 0.45421865582466125, -0.4496634900569916, -0.1712118685245514, -0.7497727274894714, 8.114619255065918, -1.5592986345291138, 5.2482147216796875, -1.8534843921661377, 0.6489878296852112, -0.012256410904228687, -0.818603515625, 0.011474609375, -0.3125, 
131, 3710369470, 0.4542040228843689, -0.44967517256736755, -0.1711583435535431, -0.7497867941856384, 8.109586715698242, -1.5181840658187866, 5.288153648376465, -1.1920993328094482, 0.559056282043457, 0.04748879000544548, -0.818359375, 0.014404296875, -0.314208984375, 
132, 3710377803, 0.4541895091533661, -0.44969049096107483, -0.17113077640533447, -0.749792754650116, 8.159491539001465, -1.4711109399795532, 5.263319492340088, -0.9139286279678345, 0.30529606342315674, -0.08792085945606232, -0.818115234375, 0.013916015625, -0.311279296875, 
133, 3710386136, 0.45417308807373047, -0.4497089684009552, -0.17111992835998535, -0.749794065952301, 8.207765579223633, -1.4492660760879517, 5.291358470916748, -0.7767132520675659, 0.14062215387821198, -0.13889317214488983, -0.817138671875, 0.01025390625, -0.3154296875, 
134, 3710394469, 0.45415958762168884, -0.44972169399261475, -0.1710871458053589, -0.7498021125793457, 8.198144912719727, -1.4496595859527588, 5.295778751373291, -0.9678211808204651, 0.38247179985046387, -0.07534428685903549, -0.817626953125, 0.012939453125, -0.31298828125, 
135, 3710402802, 0.4541246294975281, -0.44973692297935486, -0.17104513943195343, -0.7498236894607544, 8.217114448547363, -1.408895492553711, 5.289477825164795, -1.2380512952804565, 0.4497603178024292, -0.27162617444992065, -0.818115234375, 0.013916015625, -0.312744140625, 
136, 3710411135, 0.4540691077709198, -0.44976484775543213, -0.17098887264728546, -0.7498533725738525, 8.19582462310791, -1.4470850229263306, 5.258952617645264, -1.6186017990112305, 0.40972527861595154, -0.46288764476776123, -0.818115234375, 0.013916015625, -0.313720703125, 
137, 3710419468, 0.45400530099868774, -0.4498044550418854, -0.17092512547969818, -0.7498828768730164, 8.18015193939209, -1.4691137075424194, 5.247558116912842, -1.8123223781585693, 0.31397926807403564, -0.426438570022583, -0.818115234375, 0.013427734375, -0.31201171875, 
138, 3710427801, 0.4539377689361572, -0.44984909892082214, -0.17087094485759735, -0.7499092817306519, 8.18127727508545, -1.4748823642730713, 5.245416641235352, -1.7433689832687378, 0.17230696976184845, -0.523849606513977, -0.819091796875, 0.011962890625, -0.31396484375, 
139, 3710436134, 0.4538775682449341, -0.449899286031723, -0.17084713280200958, -0.7499211430549622, 8.18557071685791, -1.5049221515655518, 5.257160186767578, -1.4036728143692017, -0.1446307748556137, -0.5017187595367432, -0.8193359375, 0.013427734375, -0.314208984375, 
140, 3710444467, 0.45383119583129883, -0.4499426782131195, -0.1708318144083023, -0.7499265670776367, 8.193653106689453, -1.5228831768035889, 5.249514579772949, -1.1645383834838867, -0.13756123185157776, -0.42400527000427246, -0.817626953125, 0.012451171875, -0.314453125, 
141, 3710452800, 0.45380154252052307, -0.44996464252471924, -0.1708378791809082, -0.7499299049377441, 8.181443214416504, -1.5050084590911865, 5.221404075622559, -0.7090660333633423, -0.019863838329911232, -0.38555827736854553, -0.819091796875, 0.012939453125, -0.31201171875, 
142, 3710461133, 0.45377346873283386, -0.45000749826431274, -0.1708448976278305, -0.749919593334198, 8.1677885055542, -1.5138705968856812, 5.240137100219727, -0.7837828397750854, -0.3240073025226593, -0.27810657024383545, -0.820068359375, 0.010986328125, -0.3125, 
143, 3710469466, 0.45374247431755066, -0.4500651955604553, -0.17086872458457947, -0.7498982548713684, 8.125486373901367, -1.486525297164917, 5.211124897003174, -0.6993839144706726, -0.6550200581550598, -0.27078089118003845, -0.817626953125, 0.014404296875, -0.312255859375, 
144, 3710477799, 0.45371392369270325, -0.4501301050186157, -0.17088551819324493, -0.7498727440834045, 8.144943237304688, -1.435260534286499, 5.203685760498047, -0.7633426189422607, -0.7125751972198486, -0.1825142353773117, -0.818603515625, 0.011474609375, -0.31103515625, 
145, 3710486132, 0.4536536633968353, -0.45022398233413696, -0.17088846862316132, -0.7498521208763123, 8.14256763458252, -1.4189308881759644, 5.234886646270752, -1.3233721256256104, -0.9628005623817444, -0.36273595690727234, -0.817626953125, 0.012939453125, -0.31298828125, 
146, 3710494465, 0.453585684299469, -0.4503324031829834, -0.17085856199264526, -0.7498349547386169, 8.155821800231934, -1.3907328844070435, 5.24139404296875, -1.7840697765350342, -0.9099584817886353, -0.2506480813026428, -0.818115234375, 0.012451171875, -0.31103515625, 
147, 3710502798, 0.453510582447052, -0.4504363536834717, -0.17078328132629395, -0.7498351335525513, 8.169538497924805, -1.4288592338562012, 5.254855155944824, -2.3335208892822266, -0.48460853099823, -0.1371002048254013, -0.81982421875, 0.013916015625, -0.311279296875, 
148, 3710511131, 0.4534182548522949, -0.45056796073913574, -0.17067593336105347, -0.7498364448547363, 8.176640510559082, -1.4528793096542358, 5.256436824798584, -2.9271819591522217, -0.6081972122192383, -0.08543627709150314, -0.817626953125, 0.013427734375, -0.31201171875, 
149, 3710519464, 0.4533310830593109, -0.4507080614566803, -0.17055924236774445, -0.7498314380645752, 8.184783935546875, -1.4401147365570068, 5.262538433074951, -3.0484910011291504, -0.6596049666404724, 0.11277946829795837, -0.818115234375, 0.013916015625, -0.312255859375, 
150, 3710527797, 0.453252911567688, -0.45085152983665466, -0.17043539881706238, -0.7498207092285156, 8.185136795043945, -1.4667633771896362, 5.255638599395752, -3.0539724826812744, -0.6676990389823914, 0.2661063075065613, -0.819091796875, 0.011962890625, -0.31396484375, 
151, 3710536130, 0.4531905949115753, -0.45098602771759033, -0.170322984457016, -0.7498030066490173, 8.198711395263672, -1.504124402999878, 5.259740829467773, -2.78714919090271, -0.6496667265892029, 0.4076249599456787, -0.818115234375, 0.013427734375, -0.3115234375, 
152, 3710544463, 0.4531468451023102, -0.4511273205280304, -0.17020641267299652, -0.7497708797454834, 8.218921661376953, -1.5266073942184448, 5.298797130584717, -2.7067971229553223, -0.7423388957977295, 0.7019837498664856, -0.81982421875, 0.014892578125, -0.311279296875, 
153, 3710552796, 0.4530995190143585, -0.45127153396606445, -0.1701027899980545, -0.7497362494468689, 8.210805892944336, -1.5341572761535645, 5.303728103637695, -2.623755693435669, -0.873099684715271, 0.6354379653930664, -0.8193359375, 0.013427734375, -0.313720703125, 
154, 3710561129, 0.45303580164909363, -0.45142167806625366, -0.16997933387756348, -0.749712347984314, 8.242585182189941, -1.5443145036697388, 5.311313629150391, -2.9782567024230957, -0.7857550382614136, 0.5068032145500183, -0.817626953125, 0.013427734375, -0.3115234375, 
155, 3710569462, 0.4529688358306885, -0.45158207416534424, -0.1698484867811203, -0.7496858835220337, 8.233399391174316, -1.5575487613677979, 5.329787254333496, -3.14556884765625, -0.8675925135612488, 0.5903568863868713, -0.8193359375, 0.013916015625, -0.312255859375, 
156, 3710577795, 0.45290276408195496, -0.45173510909080505, -0.169706791639328, -0.7496656775474548, 8.207856178283691, -1.5780543088912964, 5.375845432281494, -3.207939863204956, -0.6841947436332703, 0.5784975290298462, -0.818359375, 0.014404296875, -0.311767578125, 
157, 3710586128, 0.45282891392707825, -0.45189613103866577, -0.16955626010894775, -0.7496474385261536, 8.22520923614502, -1.6006908416748047, 5.3874359130859375, -3.414543867111206, -0.7165454030036926, 0.5913301706314087, -0.818359375, 0.016357421875, -0.311767578125, 
158, 3710594461, 0.45276588201522827, -0.4520375728607178, -0.16938598453998566, -0.749638557434082, 8.228245735168457, -1.6010915040969849, 5.394951343536377, -3.439979076385498, -0.3083826005458832, 0.6895353198051453, -0.82080078125, 0.01416015625, -0.308837890625, 
159, 3710602794, 0.45270708203315735, -0.4521476924419403, -0.16920116543769836, -0.7496494054794312, 8.185504913330078, -1.6359890699386597, 5.362170219421387, -3.4259426593780518, 0.23823802173137665, 0.6593360304832458, -0.8193359375, 0.014404296875, -0.312255859375, 
160, 3710611127, 0.45266592502593994, -0.4522300362586975, -0.16903835535049438, -0.7496613264083862, 8.171786308288574, -1.6444170475006104, 5.340878486633301, -2.9018752574920654, 0.43183040618896484, 0.6041629910469055, -0.8173828125, 0.0166015625, -0.310791015625, 
161, 3710619460, 0.4526561200618744, -0.4522757828235626, -0.1689290702342987, -0.749664306640625, 8.19421672821045, -1.6171882152557373, 5.35546875, -1.9231550693511963, 0.4961477220058441, 0.594634473323822, -0.817626953125, 0.013916015625, -0.3125, 
162, 3710627793, 0.4526655375957489, -0.4523036479949951, -0.168846994638443, -0.749660313129425, 8.199646949768066, -1.5868223905563354, 5.322216033935547, -1.3960142135620117, 0.513181209564209, 0.5855414271354675, -0.818359375, 0.015869140625, -0.313232421875, 
163, 3710636126, 0.45268264412879944, -0.452321320772171, -0.1687869280576706, -0.7496528625488281, 8.215826988220215, -1.544220209121704, 5.317567825317383, -1.0493767261505127, 0.4785507619380951, 0.5655366778373718, -0.81982421875, 0.015380859375, -0.311279296875, 
164, 3710644459, 0.45270395278930664, -0.45231711864471436, -0.16872838139533997, -0.7496557831764221, 8.223637580871582, -1.5491055250167847, 5.316128730773926, -0.9128144383430481, 0.7696820497512817, 0.43370020389556885, -0.81884765625, 0.013916015625, -0.310302734375, 
165, 3710652792, 0.45273357629776, -0.4522833526134491, -0.16868770122528076, -0.7496673464775085, 8.236019134521484, -1.583331823348999, 5.310957431793213, -0.49441877007484436, 1.0353786945343018, 0.3357257843017578, -0.81640625, 0.0166015625, -0.311767578125, 
166, 3710661125, 0.4527578353881836, -0.45225802063941956, -0.1686633825302124, -0.7496734261512756, 8.279251098632812, -1.614132046699524, 5.311737060546875, -0.39769941568374634, 0.7961416244506836, 0.1957952082157135, -0.81884765625, 0.014404296875, -0.311279296875, 
167, 3710669458, 0.4527725279331207, -0.4522444009780884, -0.16864654421806335, -0.749676525592804, 8.274444580078125, -1.606921911239624, 5.276437759399414, -0.44700685143470764, 0.5928158164024353, 0.13298910856246948, -0.818359375, 0.01416015625, -0.308349609375, 
168, 3710677791, 0.4527682960033417, -0.4522237479686737, -0.16863754391670227, -0.7496935725212097, 8.280023574829102, -1.5789185762405396, 5.299906253814697, -0.4552032947540283, 0.6526762843132019, -0.24076099693775177, -0.815673828125, 0.015625, -0.311279296875, 
169, 3710686124, 0.45275017619132996, -0.4521905481815338, -0.1686250865459442, -0.7497273683547974, 8.244738578796387, -1.5688472986221313, 5.320184230804443, -0.556763768196106, 0.8804636597633362, -0.4690093994140625, -0.8193359375, 0.014404296875, -0.312255859375, 
170, 3710694457, 0.45270559191703796, -0.4521467089653015, -0.16861529648303986, -0.7497829794883728, 8.160664558410645, -1.55291748046875, 5.303968906402588, -0.6363472938537598, 1.03860604763031, -0.9314489364624023, -0.8212890625, 0.016357421875, -0.311767578125, 
171, 3710702790, 0.45265713334083557, -0.45209792256355286, -0.16863133013248444, -0.7498380541801453, 8.098634719848633, -1.521953821182251, 5.264993667602539, -0.40410295128822327, 0.9263131618499756, -1.1276538372039795, -0.816650390625, 0.013916015625, -0.3125, 
172, 3710711123, 0.4526340961456299, -0.45203930139541626, -0.16868555545806885, -0.749875009059906, 8.09578800201416, -1.5757856369018555, 5.250208377838135, 0.28867244720458984, 0.7275468111038208, -1.0282450914382935, -0.8212890625, 0.014892578125, -0.314697265625, 
173, 3710719456, 0.45263752341270447, -0.45198896527290344, -0.16876009106636047, -0.7498865127563477, 8.156222343444824, -1.5491770505905151, 5.234421730041504, 0.6322873830795288, 0.427808940410614, -0.6877293586730957, -0.818603515625, 0.012939453125, -0.3125, 
174, 3710727789, 0.4526480734348297, -0.4519362449645996, -0.16884683072566986, -0.7498923540115356, 8.160070419311523, -1.5713865756988525, 5.215660095214844, 0.8524162173271179, 0.3514529764652252, -0.686576783657074, -0.81884765625, 0.014892578125, -0.310791015625, 
175, 3710736122, 0.45267000794410706, -0.4518892467021942, -0.168919175863266, -0.7498911619186401, 8.20348834991455, -1.5906420946121216, 5.227562427520752, 0.7351028919219971, 0.3711758553981781, -0.39718711376190186, -0.816650390625, 0.01416015625, -0.31005859375, 
176, 3710744455, 0.45269709825515747, -0.45184415578842163, -0.16894064843654633, -0.7498972415924072, 8.220111846923828, -1.5858782529830933, 5.258398056030273, 0.2363937497138977, 0.7199392914772034, -0.09322300553321838, -0.8193359375, 0.014404296875, -0.314208984375, 
177, 3710752788, 0.45273101329803467, -0.45179641246795654, -0.16897113621234894, -0.7498986721038818, 8.242820739746094, -1.5585613250732422, 5.231410026550293, 0.37519729137420654, 0.6814667582511902, -0.031108487397432327, -0.81884765625, 0.015869140625, -0.312255859375, 
178, 3710761121, 0.4527633488178253, -0.4517783224582672, -0.1689787060022354, -0.7498881816864014, 8.237198829650879, -1.5113027095794678, 5.243320465087891, 0.012346060946583748, 0.43329036235809326, 0.22432945668697357, -0.8173828125, 0.014892578125, -0.311279296875, 
179, 3710769454, 0.45276573300361633, -0.45178598165512085, -0.16894660890102386, -0.7498893737792969, 8.283599853515625, -1.475867509841919, 5.237934112548828, -0.8102422952651978, 0.4268612563610077, 0.1625223308801651, -0.81884765625, 0.013427734375, -0.313232421875, 
180, 3710777787, 0.4527491331100464, -0.4518139660358429, -0.16889747977256775, -0.7498935461044312, 8.251347541809082, -1.4830204248428345, 5.2255096435546875, -1.267046570777893, 0.30278587341308594, 0.044082097709178925, -0.8193359375, 0.014892578125, -0.314208984375, 
181, 3710786120, 0.4527129530906677, -0.45184481143951416, -0.16881915926933289, -0.7499145865440369, 8.213981628417969, -1.4639931917190552, 5.232109546661377, -1.7167043685913086, 0.5079814791679382, -0.018045227974653244, -0.81787109375, 0.014404296875, -0.310791015625, 
182, 3710794453, 0.4526424705982208, -0.451911598443985, -0.1687241643667221, -0.7499382495880127, 8.159134864807129, -1.4925711154937744, 5.2532958984375, -2.370353937149048, 0.18472987413406372, -0.262763649225235, -0.818359375, 0.015380859375, -0.312255859375, 
183, 3710802786, 0.4525602161884308, -0.45198553800582886, -0.16860316693782806, -0.7499706149101257, 8.13167667388916, -1.4704376459121704, 5.293401718139648, -2.738276958465576, 0.29369279742240906, -0.19739611446857452, -0.8193359375, 0.015869140625, -0.312255859375, 
184, 3710811119, 0.45247945189476013, -0.4520687758922577, -0.16849353909492493, -0.7499938607215881, 8.137385368347168, -1.5117835998535156, 5.2691426277160645, -2.6345903873443604, 0.06977317482233047, -0.2042606920003891, -0.8193359375, 0.015869140625, -0.313232421875, 
185, 3710819452, 0.45240023732185364, -0.4521869719028473, -0.1683848798274994, -0.7499947547912598, 8.189057350158691, -1.5914024114608765, 5.250629901885986, -2.794935941696167, -0.4271557629108429, 0.05463515967130661, -0.81982421875, 0.014892578125, -0.312255859375, 
186, 3710827785, 0.45233821868896484, -0.45229992270469666, -0.1682640016078949, -0.749991238117218, 8.211211204528809, -1.6324623823165894, 5.292168140411377, -2.7546701431274414, -0.29024770855903625, 0.29768866300582886, -0.8173828125, 0.014892578125, -0.313232421875, 
187, 3710836118, 0.4522985517978668, -0.45239049196243286, -0.16816529631614685, -0.7499825954437256, 8.200119972229004, -1.6234376430511475, 5.320096969604492, -2.2515554428100586, -0.17216607928276062, 0.39573991298675537, -0.81884765625, 0.016845703125, -0.314208984375, 
188, 3710844451, 0.452289342880249, -0.4524349570274353, -0.1680929809808731, -0.7499775290489197, 8.182738304138184, -1.5997047424316406, 5.289069652557373, -1.4900182485580444, 0.22630175948143005, 0.39371636509895325, -0.817626953125, 0.013916015625, -0.31298828125, 
189, 3710852784, 0.45231306552886963, -0.4524582028388977, -0.16806916892528534, -0.7499544620513916, 8.164984703063965, -1.5759358406066895, 5.305950164794922, -0.6334015727043152, 0.11341983079910278, 0.5174074769020081, -0.81982421875, 0.015380859375, -0.314208984375, 
190, 3710861117, 0.4523526728153229, -0.4524649679660797, -0.16807280480861664, -0.7499256134033203, 8.148089408874512, -1.5786324739456177, 5.310084819793701, -0.13223347067832947, 0.1111401617527008, 0.4729155898094177, -0.8173828125, 0.01611328125, -0.310791015625, 
191, 3710869450, 0.45239371061325073, -0.45248037576675415, -0.168110191822052, -0.749883234500885, 8.173562049865723, -1.5537619590759277, 5.277675151824951, 0.19876645505428314, -0.26780959963798523, 0.41779375076293945, -0.8193359375, 0.013916015625, -0.312255859375, 
192, 3710877783, 0.452438086271286, -0.4524577558040619, -0.16815659403800964, -0.749859631061554, 8.184962272644043, -1.528298258781433, 5.275336742401123, 0.530726969242096, 0.18767549097537994, 0.16946376860141754, -0.81640625, 0.016357421875, -0.311767578125, 
193, 3710886116, 0.45247623324394226, -0.45240625739097595, -0.16820979118347168, -0.7498557567596436, 8.162309646606445, -1.5274467468261719, 5.271130084991455, 0.6717588901519775, 0.5561618804931641, -0.10457011312246323, -0.8193359375, 0.015869140625, -0.312255859375, 
194, 3710894449, 0.45249441266059875, -0.45237627625465393, -0.16824163496494293, -0.7498558163642883, 8.18366813659668, -1.5203367471694946, 5.30308198928833, 0.19666610658168793, 0.4440227746963501, -0.18172021210193634, -0.81787109375, 0.016357421875, -0.312255859375, 
195, 3710902782, 0.452505499124527, -0.4523828625679016, -0.16827189922332764, -0.7498384118080139, 8.22785758972168, -1.5424963235855103, 5.250959396362305, -0.06379224359989166, -0.04655386880040169, -0.022015433758497238, -0.818115234375, 0.013916015625, -0.312255859375, 
196, 3710911115, 0.4524865746498108, -0.4524247646331787, -0.16827410459518433, -0.7498241066932678, 8.242815017700195, -1.5531902313232422, 5.265623092651367, -0.7388554215431213, -0.2922455966472626, -0.11558422446250916, -0.81884765625, 0.015869140625, -0.315185546875, 
197, 3710919448, 0.4524487257003784, -0.45247626304626465, -0.16824749112129211, -0.7498217225074768, 8.244159698486328, -1.5506004095077515, 5.268240451812744, -1.269812822341919, -0.17452257871627808, -0.16289371252059937, -0.8173828125, 0.01611328125, -0.310302734375, 
198, 3710927781, 0.4524037539958954, -0.4525362551212311, -0.16818079352378845, -0.7498276829719543, 8.240545272827148, -1.538447380065918, 5.285097122192383, -1.771467685699463, 0.015599066391587257, -0.039279427379369736, -0.81884765625, 0.015869140625, -0.310791015625, 
199, 3710936114, 0.4523518681526184, -0.45260193943977356, -0.16807681322097778, -0.749842643737793, 8.208086013793945, -1.5408039093017578, 5.303824424743652, -2.2815496921539307, 0.23544606566429138, 0.09912709891796112, -0.81884765625, 0.013916015625, -0.311279296875, 
200, 3710944447, 0.45230385661125183, -0.4526607096195221, -0.16795480251312256, -0.7498635053634644, 8.250444412231445, -1.5430842638015747, 5.319225788116455, -2.383648157119751, 0.45795688033103943, 0.18296247720718384, -0.81884765625, 0.013916015625, -0.313720703125, 
201, 3710952780, 0.4522494375705719, -0.4527161717414856, -0.167831152677536, -0.7498905062675476, 8.260340690612793, -1.5940067768096924, 5.330678939819336, -2.4643073081970215, 0.5315465927124023, 0.09584847837686539, -0.813232421875, 0.0146484375, -0.31005859375, 
202, 3710961113, 0.45221075415611267, -0.45276162028312683, -0.16772538423538208, -0.7499101161956787, 8.217585563659668, -1.561937689781189, 5.3071794509887695, -2.0618560314178467, 0.5067776441574097, 0.16101108491420746, -0.81982421875, 0.016357421875, -0.312255859375, 
203, 3710969446, 0.45218053460121155, -0.45277366042137146, -0.1676536649465561, -0.749937117099762, 8.172323226928711, -1.5926305055618286, 5.28549337387085, -1.5086143016815186, 0.7130746245384216, -0.07708604633808136, -0.8193359375, 0.015869140625, -0.313232421875, 
204, 3710977779, 0.4521566331386566, -0.4527676999568939, -0.1676112413406372, -0.7499645352363586, 8.143818855285645, -1.637442708015442, 5.287532329559326, -1.048966884613037, 0.7302106022834778, -0.26962822675704956, -0.81884765625, 0.015380859375, -0.310791015625, 
205, 3710986112, 0.4521545469760895, -0.45272260904312134, -0.1676102876663208, -0.7499932050704956, 8.142460823059082, -1.6220427751541138, 5.268906593322754, -0.25226181745529175, 0.9386080503463745, -0.37031781673431396, -0.818359375, 0.015380859375, -0.313232421875, 
206, 3710994445, 0.4521583616733551, -0.4526745080947876, -0.16762422025203705, -0.7500168085098267, 8.140678405761719, -1.640468955039978, 5.260501384735107, 0.0028944083023816347, 0.8503925800323486, -0.39155200123786926, -0.81689453125, 0.015869140625, -0.313232421875, 
207, 3711002778, 0.4521693289279938, -0.4526335895061493, -0.16764788329601288, -0.7500296831130981, 8.19087028503418, -1.6525856256484985, 5.281623363494873, 0.09218563884496689, 0.6721175312995911, -0.27997639775276184, -0.818359375, 0.01611328125, -0.310791015625, 
208, 3711011111, 0.4521876275539398, -0.4525916576385498, -0.1676708310842514, -0.7500386834144592, 8.240639686584473, -1.6525212526321411, 5.248240947723389, 0.2327437400817871, 0.6628835797309875, -0.16119037568569183, -0.8203125, 0.015380859375, -0.314208984375, 
209, 3711019444, 0.452205091714859, -0.452544242143631, -0.16770391166210175, -0.7500494122505188, 8.241642951965332, -1.6225438117980957, 5.237247943878174, 0.2771203815937042, 0.6833620667457581, -0.27421319484710693, -0.8173828125, 0.016845703125, -0.314697265625, 
210, 3711027777, 0.4522201120853424, -0.4525146186351776, -0.1677258014678955, -0.7500534653663635, 8.244389533996582, -1.5921869277954102, 5.275694370269775, 0.0487695075571537, 0.5207630395889282, -0.18466582894325256, -0.81689453125, 0.016845703125, -0.315185546875, 
211, 3711036110, 0.4522121548652649, -0.4524913430213928, -0.16772234439849854, -0.7500730156898499, 8.226133346557617, -1.531159520149231, 5.295749664306641, -0.4290512800216675, 0.6575687527656555, -0.3074861168861389, -0.8173828125, 0.014892578125, -0.312744140625, 
212, 3711044443, 0.45217832922935486, -0.452495276927948, -0.16767199337482452, -0.7501022219657898, 8.20517635345459, -1.4959241151809692, 5.2879180908203125, -1.2590548992156982, 0.6678398847579956, -0.3129931390285492, -0.81591796875, 0.017333984375, -0.312255859375, 
213, 3711052776, 0.4521292746067047, -0.45252493023872375, -0.16757982969284058, -0.7501345276832581, 8.203165054321289, -1.4917672872543335, 5.289019584655762, -1.958733320236206, 0.646887481212616, -0.13661351799964905, -0.8173828125, 0.015380859375, -0.311279296875, 
214, 3711061109, 0.4520542323589325, -0.452602356672287, -0.16746066510677338, -0.7501596808433533, 8.193891525268555, -1.483425498008728, 5.27552604675293, -2.673754930496216, 0.21587678790092468, -0.11491826921701431, -0.81787109375, 0.015869140625, -0.315185546875, 
215, 3711069442, 0.45195716619491577, -0.45270368456840515, -0.1673174351453781, -0.7501888871192932, 8.197219848632812, -1.5210072994232178, 5.288309574127197, -3.2232820987701416, 0.09661687910556793, -0.13072222471237183, -0.8173828125, 0.01611328125, -0.310791015625, 
216, 3711077775, 0.45184871554374695, -0.45281782746315, -0.16714201867580414, -0.7502245306968689, 8.200493812561035, -1.5421984195709229, 5.262129306793213, -3.6620030403137207, 0.16705603897571564, -0.05628727748990059, -0.81787109375, 0.015380859375, -0.312744140625, 
217, 3711086108, 0.45174241065979004, -0.4529067575931549, -0.16697518527507782, -0.7502720355987549, 8.190483093261719, -1.5766195058822632, 5.259158134460449, -3.4869813919067383, 0.46274682879447937, -0.21950121223926544, -0.81884765625, 0.016357421875, -0.312255859375, 
218, 3711094441, 0.45165520906448364, -0.452981173992157, -0.16684095561504364, -0.7503094673156738, 8.159481048583984, -1.5994881391525269, 5.246193885803223, -2.884610891342163, 0.3823692798614502, -0.2094860076904297, -0.81640625, 0.018310546875, -0.313232421875, 
219, 3711102774, 0.4515869915485382, -0.45303550362586975, -0.16674849390983582, -0.7503383159637451, 8.125203132629395, -1.64983332157135, 5.241652488708496, -2.2266581058502197, 0.33083343505859375, -0.25454145669937134, -0.8154296875, 0.017822265625, -0.313232421875, 
220, 3711111107, 0.45155656337738037, -0.45307397842407227, -0.1666749119758606, -0.7503496408462524, 8.137323379516602, -1.6663737297058105, 5.244934558868408, -1.7087385654449463, 0.3613656461238861, 0.021772101521492004, -0.8193359375, 0.014892578125, -0.311767578125, 
221, 3711119440, 0.45153674483299255, -0.4530758857727051, -0.16665002703666687, -0.7503659725189209, 8.164433479309082, -1.6971049308776855, 5.250945091247559, -0.8736374974250793, 0.4844163954257965, -0.21760572493076324, -0.8173828125, 0.015869140625, -0.313232421875, 
222, 3711127773, 0.4515412747859955, -0.4530507028102875, -0.16666145622730255, -0.7503758668899536, 8.182658195495605, -1.6195971965789795, 5.250472068786621, -0.14813992381095886, 0.5494765639305115, -0.24355293810367584, -0.81884765625, 0.014892578125, -0.310791015625, 
223, 3711136106, 0.4515526592731476, -0.4530220627784729, -0.16671858727931976, -0.7503736019134521, 8.17779541015625, -1.5944902896881104, 5.227812767028809, 0.39894169569015503, 0.24605034291744232, -0.36130160093307495, -0.81640625, 0.017333984375, -0.312255859375, 
224, 3711144439, 0.45155832171440125, -0.4529953896999359, -0.16679027676582336, -0.7503703236579895, 8.199211120605469, -1.5559793710708618, 5.232662200927734, 0.49412423372268677, 0.11631423979997635, -0.5433419346809387, -0.816650390625, 0.015380859375, -0.313232421875, 
225, 3711152772, 0.45152661204338074, -0.45298871397972107, -0.16685445606708527, -0.750379204750061, 8.217914581298828, -1.5296210050582886, 5.236381530761719, 0.042417172342538834, -0.055057793855667114, -0.8689244389533997, -0.81787109375, 0.015380859375, -0.313232421875, 
226, 3711161105, 0.45146170258522034, -0.4530215263366699, -0.16689346730709076, -0.7503898739814758, 8.202013969421387, -1.501231074333191, 5.254157066345215, -0.6583754420280457, -0.3735963702201843, -1.0010427236557007, -0.817626953125, 0.013916015625, -0.3134765625, 
227, 3711169438, 0.45137080550193787, -0.4530757665634155, -0.1669011265039444, -0.7504100799560547, 8.207070350646973, -1.4953325986862183, 5.219053268432617, -1.3150477409362793, -0.3977506160736084, -1.0582393407821655, -0.81982421875, 0.015869140625, -0.312255859375, 
228, 3711177771, 0.45124703645706177, -0.4531559646129608, -0.16686047613620758, -0.7504451870918274, 8.214811325073242, -1.4966273307800293, 5.2256975173950195, -2.24625301361084, -0.34119439125061035, -1.187104344367981, -0.8173828125, 0.016357421875, -0.312255859375, 
229, 3711186104, 0.45109742879867554, -0.4532678723335266, -0.1667860448360443, -0.7504841089248657, 8.1757173538208, -1.5446395874023438, 5.2130513191223145, -2.9277710914611816, -0.5022567510604858, -1.1366957426071167, -0.81689453125, 0.016845703125, -0.313720703125, 
230, 3711194437, 0.45095324516296387, -0.45339834690093994, -0.166690856218338, -0.750512957572937, 8.18613338470459, -1.5578633546829224, 5.265737533569336, -3.2609100341796875, -0.6034329533576965, -0.9188722968101501, -0.81787109375, 0.016845703125, -0.311767578125, 
231, 3711202770, 0.45080819725990295, -0.4535393714904785, -0.16658200323581696, -0.7505391240119934, 8.2046480178833, -1.6029988527297974, 5.2475481033325195, -3.40596342086792, -0.6560447216033936, -0.7285585999488831, -0.815673828125, 0.016357421875, -0.314208984375, 
232, 3711211103, 0.45068034529685974, -0.4536874294281006, -0.16651348769664764, -0.7505416870117188, 8.213628768920898, -1.61443293094635, 5.239177227020264, -2.814453601837158, -1.1013736724853516, -0.639087975025177, -0.818359375, 0.017578125, -0.311279296875, 
233, 3711219436, 0.45057743787765503, -0.453788697719574, -0.16644322872161865, -0.7505578994750977, 8.20100212097168, -1.6077733039855957, 5.289261341094971, -2.474322557449341, -0.4505416452884674, -0.5634747743606567, -0.81884765625, 0.016845703125, -0.312744140625, 
234, 3711227769, 0.4504908621311188, -0.45384660363197327, -0.1664101481437683, -0.7505820989608765, 8.185083389282227, -1.5902762413024902, 5.268832206726074, -1.7437019348144531, -0.1477813422679901, -0.8140076398849487, -0.81787109375, 0.016845703125, -0.314208984375, 
235, 3711236102, 0.4504472017288208, -0.45387595891952515, -0.16642431914806366, -0.7505874037742615, 8.190978050231934, -1.608967661857605, 5.272660732269287, -0.7643160223960876, -0.16499410569667816, -0.5760769844055176, -0.81689453125, 0.015625, -0.310791015625, 
236, 3711244435, 0.45042726397514343, -0.45389458537101746, -0.16647936403751373, -0.750575840473175, 8.206921577453613, -1.6511980295181274, 5.256109237670898, -0.06883826106786728, -0.36294087767601013, -0.5292541980743408, -0.81787109375, 0.018798828125, -0.312744140625, 
237, 3711252768, 0.4504154324531555, -0.45392313599586487, -0.16657641530036926, -0.7505441308021545, 8.244093894958496, -1.6306480169296265, 5.258082866668701, 0.3791675269603729, -0.828351616859436, -0.5382704138755798, -0.816650390625, 0.01513671875, -0.311279296875, 
238, 3711261101, 0.45040521025657654, -0.45394760370254517, -0.16669444739818573, -0.7505092620849609, 8.253643989562988, -1.6209200620651245, 5.270257472991943, 0.6430965065956116, -0.9327806830406189, -0.6738976836204529, -0.81640625, 0.015869140625, -0.311767578125, 
239, 3711269434, 0.4504145383834839, -0.45393887162208557, -0.16683349013328552, -0.750478208065033, 8.253729820251465, -1.5712435245513916, 5.2555084228515625, 1.1748993396759033, -0.652509868144989, -0.6714387536048889, -0.8173828125, 0.01513671875, -0.310791015625, 
240, 3711277767, 0.45041966438293457, -0.45393386483192444, -0.16697145998477936, -0.7504473328590393, 8.235575675964355, -1.5982812643051147, 5.273848533630371, 1.1374256610870361, -0.6941586136817932, -0.7200801968574524, -0.818359375, 0.015380859375, -0.311279296875, 
241, 3711286100, 0.45044171810150146, -0.4539104700088501, -0.1670863926410675, -0.7504227161407471, 8.248122215270996, -1.582795262336731, 5.27634334564209, 1.0806645154953003, -0.28251218795776367, -0.46373292803764343, -0.81591796875, 0.01611328125, -0.310302734375, 
242, 3711294433, 0.45046529173851013, -0.4539104700088501, -0.1671806424856186, -0.7503875494003296, 8.222321510314941, -1.5833675861358643, 5.23714017868042, 0.8456283211708069, -0.47210875153541565, -0.1787489354610443, -0.814697265625, 0.015869140625, -0.312255859375, 
243, 3711302766, 0.4504936635494232, -0.4539209306240082, -0.16723793745040894, -0.7503514885902405, 8.1989107131958, -1.5875738859176636, 5.249764442443848, 0.34212934970855713, -0.32979607582092285, 0.11096086353063583, -0.81787109375, 0.016357421875, -0.312255859375, 
244, 3711311099, 0.4505298137664795, -0.45393866300582886, -0.16728611290454865, -0.7503082156181335, 8.193717956542969, -1.5800268650054932, 5.296343803405762, 0.2359839528799057, -0.37049710750579834, 0.2545798718929291, -0.81787109375, 0.013671875, -0.309326171875, 
245, 3711319432, 0.4505671262741089, -0.45395565032958984, -0.1673215627670288, -0.7502676248550415, 8.206377983093262, -1.5911785364151, 5.280915260314941, 0.14203092455863953, -0.26878300309181213, 0.3824973404407501, -0.81689453125, 0.015380859375, -0.312255859375, 
246, 3711327765, 0.4506106674671173, -0.4539589583873749, -0.16733191907405853, -0.7502371668815613, 8.223374366760254, -1.5810647010803223, 5.270185947418213, 0.03906170651316643, 0.09274914115667343, 0.5098769068717957, -0.818359375, 0.01611328125, -0.310791015625, 
247, 3711336098, 0.4506451487541199, -0.45395785570144653, -0.16733455657958984, -0.750216543674469, 8.246011734008789, -1.5773305892944336, 5.239243030548096, -0.1472434103488922, 0.2380843162536621, 0.39205148816108704, -0.818359375, 0.0166015625, -0.310791015625, 
248, 3711344431, 0.4506698250770569, -0.4539821743965149, -0.16733328998088837, -0.750187337398529, 8.241756439208984, -1.575242042541504, 5.230874061584473, -0.38788917660713196, -0.0750368982553482, 0.3913598954677582, -0.818359375, 0.015625, -0.310302734375, 
249, 3711352764, 0.4506829082965851, -0.4540288746356964, -0.16733892261981964, -0.7501499652862549, 8.234045028686523, -1.5636903047561646, 5.259893417358398, -0.5077124834060669, -0.42702770233154297, 0.36743617057800293, -0.81689453125, 0.01708984375, -0.309814453125, 
250, 3711361097, 0.4506761431694031, -0.45409706234931946, -0.16731670498847961, -0.750117838382721, 8.25263500213623, -1.5701491832733154, 5.254056453704834, -1.0349047183990479, -0.49598124623298645, 0.337390661239624, -0.81884765625, 0.013671875, -0.309326171875, 
251, 3711369430, 0.45065221190452576, -0.4541681110858917, -0.16730016469955444, -0.7500928640365601, 8.242199897766113, -1.5370100736618042, 5.238134384155273, -1.1466338634490967, -0.5492332577705383, 0.10271307826042175, -0.8173828125, 0.015625, -0.309814453125, 
252, 3711377763, 0.4506177604198456, -0.45423921942710876, -0.16727381944656372, -0.750076174736023, 8.228952407836914, -1.5449138879776, 5.241009712219238, -1.2960803508758545, -0.46699872612953186, -0.006377944722771645, -0.81591796875, 0.015625, -0.309326171875, 
253, 3711386096, 0.45056620240211487, -0.45430514216423035, -0.16723376512527466, -0.7500762343406677, 8.219582557678223, -1.5169320106506348, 5.228764057159424, -1.5878136157989502, -0.2575126886367798, -0.2020578682422638, -0.81884765625, 0.01611328125, -0.308349609375, 
254, 3711394429, 0.4505349397659302, -0.45437145233154297, -0.16717587411403656, -0.7500677704811096, 8.195891380310059, -1.5414879322052002, 5.247391223907471, -1.7096861600875854, -0.14240233600139618, 0.08693470805883408, -0.8173828125, 0.0146484375, -0.309326171875, 
255, 3711402762, 0.45049622654914856, -0.45444852113723755, -0.1671139895915985, -0.750058114528656, 8.171247482299805, -1.558896541595459, 5.251330852508545, -1.7810473442077637, -0.2677839994430542, 0.1519436240196228, -0.81689453125, 0.015625, -0.310302734375, 
256, 3711411095, 0.4504668712615967, -0.454524427652359, -0.16705462336540222, -0.7500429153442383, 8.199152946472168, -1.5924595594406128, 5.249899864196777, -1.6384530067443848, -0.29242488741874695, 0.2548360228538513, -0.81689453125, 0.01708984375, -0.310302734375, 
257, 3711419428, 0.45047304034233093, -0.4545663595199585, -0.16701768338680267, -0.7500219941139221, 8.186715126037598, -1.5664368867874146, 5.229515075683594, -0.9967907667160034, -0.027957934886217117, 0.4483003318309784, -0.81640625, 0.016357421875, -0.312255859375, 
258, 3711427761, 0.4505040645599365, -0.4545779526233673, -0.1670246124267578, -0.7499949336051941, 8.159219741821289, -1.5441129207611084, 5.220546722412109, -0.3360459506511688, 0.05852852389216423, 0.27297088503837585, -0.816650390625, 0.01416015625, -0.3095703125, 
259, 3711436094, 0.45051151514053345, -0.454575777053833, -0.16702061891555786, -0.7499925494194031, 8.167187690734863, -1.5290560722351074, 5.260272026062012, -0.4207009971141815, 0.3430001735687256, 0.03977890685200691, -0.82080078125, 0.016357421875, -0.310302734375, 
260, 3711444427, 0.4505181312561035, -0.4545844793319702, -0.16701918840408325, -0.7499836683273315, 8.17250919342041, -1.5008381605148315, 5.244321346282959, -0.549694299697876, 0.18980148434638977, -0.015714332461357117, -0.8173828125, 0.015869140625, -0.311767578125, 
261, 3711452760, 0.45050162076950073, -0.4546017050743103, -0.16701500117778778, -0.749984085559845, 8.190649032592773, -1.5206372737884521, 5.223628997802734, -0.6973859667778015, 0.10665766894817352, -0.17961980402469635, -0.818359375, 0.0185546875, -0.306884765625, 
262, 3711461093, 0.4504354000091553, -0.4546394348144531, -0.16699285805225372, -0.750005841255188, 8.253043174743652, -1.541301965713501, 5.229901313781738, -1.1719664335250854, -0.013024838641285896, -0.5724397301673889, -0.8193359375, 0.01708984375, -0.310791015625, 
263, 3711469426, 0.45035362243652344, -0.45469069480895996, -0.1669776290655136, -0.7500272989273071, 8.29019546508789, -1.5708932876586914, 5.27067756652832, -1.4783639907836914, -0.19521887600421906, -0.8352161645889282, -0.81591796875, 0.01708984375, -0.308349609375, 
264, 3711477759, 0.45024755597114563, -0.4547364413738251, -0.16695444285869598, -0.7500684261322021, 8.278740882873535, -1.5757205486297607, 5.260983943939209, -1.6174236536026, -0.042942263185977936, -1.1357736587524414, -0.81884765625, 0.014892578125, -0.310791015625, 
265, 3711486092, 0.4501367509365082, -0.45478641986846924, -0.16694104671478271, -0.7501075863838196, 8.223502159118652, -1.5773508548736572, 5.252652645111084, -1.6744664907455444, -0.14936941862106323, -1.2583377361297607, -0.8173828125, 0.015625, -0.308837890625, 
266, 3711494425, 0.45004191994667053, -0.4548279047012329, -0.16695798933506012, -0.750135600566864, 8.222848892211914, -1.5783121585845947, 5.245361328125, -1.196889042854309, -0.2802325189113617, -1.2745260000228882, -0.81689453125, 0.015625, -0.308349609375, 
267, 3711502758, 0.44997456669807434, -0.4548618197441101, -0.16699665784835815, -0.7501468658447266, 8.237643241882324, -1.5828025341033936, 5.230759620666504, -0.7021246552467346, -0.381639301776886, -1.0009146928787231, -0.816650390625, 0.01513671875, -0.310791015625, 
268, 3711511091, 0.4499131739139557, -0.45487087965011597, -0.16702233254909515, -0.7501723766326904, 8.271733283996582, -1.607844591140747, 5.237640857696533, -0.6545845866203308, 0.055121831595897675, -1.0206118822097778, -0.8173828125, 0.01513671875, -0.308837890625, 
269, 3711519424, 0.4498741626739502, -0.45487159490585327, -0.1670670360326767, -0.7501853704452515, 8.204046249389648, -1.6275936365127563, 5.2186713218688965, -0.2606888711452484, 0.001460011349990964, -0.8321168422698975, -0.81689453125, 0.0146484375, -0.310302734375, 
270, 3711527757, 0.44986504316329956, -0.454865425825119, -0.1671271175146103, -0.7501811385154724, 8.220219612121582, -1.6225224733352661, 5.2175703048706055, 0.17965824902057648, -0.06491927802562714, -0.5539718866348267, -0.81689453125, 0.01513671875, -0.308349609375, 
271, 3711536090, 0.4498571753501892, -0.4548497796058655, -0.1672009378671646, -0.750178873538971, 8.273392677307129, -1.622357726097107, 5.2106099128723145, 0.37132957577705383, -0.036487478762865067, -0.6370131969451904, -0.81884765625, 0.01611328125, -0.310791015625, 
272, 3711544423, 0.4498561918735504, -0.4548264443874359, -0.16727697849273682, -0.7501768469810486, 8.307226181030273, -1.6044254302978516, 5.213921546936035, 0.5121053457260132, 0.04374910891056061, -0.6130638718605042, -0.815673828125, 0.013427734375, -0.3125, 
273, 3711552756, 0.44982975721359253, -0.45480379462242126, -0.16732509434223175, -0.7501956820487976, 8.329292297363281, -1.54383385181427, 5.225645542144775, -0.01568872109055519, 0.2848559319972992, -0.8142638206481934, -0.81787109375, 0.01416015625, -0.309326171875, 
274, 3711561089, 0.4497759938240051, -0.45481428503990173, -0.16735686361789703, -0.7502144575119019, 8.278870582580566, -1.4646588563919067, 5.20534610748291, -0.5362980365753174, -0.02134946547448635, -0.9343688488006592, -0.815185546875, 0.0166015625, -0.311279296875, 
275, 3711569422, 0.4496893882751465, -0.4548666775226593, -0.16734910011291504, -0.7502363324165344, 8.254901885986328, -1.4543750286102295, 5.201896667480469, -1.4407879114151, -0.26314783096313477, -0.9315512776374817, -0.81787109375, 0.014404296875, -0.310791015625, 
276, 3711577755, 0.44956597685813904, -0.45495063066482544, -0.16729815304279327, -0.7502707242965698, 8.209002494812012, -1.4202617406845093, 5.223988056182861, -2.283803701400757, -0.33714738488197327, -1.042665958404541, -0.818359375, 0.01416015625, -0.307373046875, 
277, 3711586088, 0.44943514466285706, -0.45503199100494385, -0.1672166883945465, -0.7503180503845215, 8.214502334594727, -1.483624815940857, 5.210903644561768, -2.7146096229553223, -0.046605098992586136, -1.0170003175735474, -0.81689453125, 0.01513671875, -0.310302734375, 
278, 3711594421, 0.44930601119995117, -0.4551001191139221, -0.16713039577007294, -0.7503732442855835, 8.178412437438965, -1.5463889837265015, 5.196455955505371, -2.6856141090393066, 0.17043711245059967, -1.0754008293151855, -0.8173828125, 0.01416015625, -0.310302734375, 
279, 3711602754, 0.4491741955280304, -0.4551621973514557, -0.16704405844211578, -0.7504338026046753, 8.176076889038086, -1.5944920778274536, 5.238079071044922, -2.681131362915039, 0.26157253980636597, -1.12419593334198, -0.817626953125, 0.014404296875, -0.311279296875, 
280, 3711611087, 0.4490601420402527, -0.45522594451904297, -0.1669619381427765, -0.7504816055297852, 8.180351257324219, -1.6189459562301636, 5.219742774963379, -2.4838764667510986, 0.17438170313835144, -0.897330641746521, -0.816650390625, 0.013671875, -0.30712890625, 
281, 3711619420, 0.4489743709564209, -0.4552781581878662, -0.16691528260707855, -0.7505115866661072, 8.209473609924316, -1.6306612491607666, 5.213230609893799, -1.8533564805984497, 0.03291429579257965, -0.7308638691902161, -0.81884765625, 0.015625, -0.308837890625, 
282, 3711627753, 0.4489244818687439, -0.4553144574165344, -0.16690459847450256, -0.7505218386650085, 8.192300796508789, -1.626012921333313, 5.2398223876953125, -0.9111878871917725, -0.10377606004476547, -0.40302717685699463, -0.817138671875, 0.01318359375, -0.30908203125, 
283, 3711636086, 0.4489160478115082, -0.45532405376434326, -0.16692987084388733, -0.7505154013633728, 8.225504875183105, -1.5834747552871704, 5.253606796264648, -0.28064239025115967, -0.022527720779180527, -0.25579655170440674, -0.817138671875, 0.013671875, -0.30908203125, 
284, 3711644419, 0.44891709089279175, -0.455323725938797, -0.16692908108234406, -0.7505151033401489, 8.221491813659668, -1.5590264797210693, 5.265830039978027, -0.4440355598926544, 0.3031187951564789, -0.08638399839401245, -0.816650390625, 0.012939453125, -0.31103515625, 
285, 3711652752, 0.44892174005508423, -0.455312043428421, -0.1669325977563858, -0.7505186796188354, 8.20888900756836, -1.538061499595642, 5.223935604095459, -0.3146837055683136, 0.42230191826820374, -0.09463179111480713, -0.817138671875, 0.01416015625, -0.310302734375, 
286, 3711661085, 0.44891291856765747, -0.45531103014945984, -0.16692423820495605, -0.7505264282226562, 8.182945251464844, -1.5004876852035522, 5.2314677238464355, -0.4967496991157532, 0.36612993478775024, -0.1282120645046234, -0.816162109375, 0.0146484375, -0.30908203125, 
287, 3711669418, 0.4488943815231323, -0.45529523491859436, -0.16689781844615936, -0.7505530118942261, 8.244653701782227, -1.4802027940750122, 5.256995677947998, -0.796256959438324, 0.7416858077049255, -0.2989053428173065, -0.817138671875, 0.013916015625, -0.31201171875, 
288, 3711677751, 0.4488694965839386, -0.45529112219810486, -0.1668257862329483, -0.7505863308906555, 8.226069450378418, -1.470917820930481, 5.234807968139648, -1.3366403579711914, 0.9227271676063538, -0.08651207387447357, -0.815673828125, 0.0146484375, -0.31103515625, 
289, 3711686084, 0.44883090257644653, -0.45532330870628357, -0.16672442853450775, -0.7506124377250671, 8.230722427368164, -1.525452733039856, 5.247405529022217, -1.9896241426467896, 0.6596689820289612, 0.07704760879278183, -0.816650390625, 0.01416015625, -0.310546875, 
290, 3711694417, 0.44879019260406494, -0.4553815424442291, -0.16660678386688232, -0.7506276369094849, 8.23332405090332, -1.5605342388153076, 5.265203475952148, -2.2567548751831055, 0.4095204174518585, 0.2874429523944855, -0.8173828125, 0.01513671875, -0.308837890625, 
291, 3711702750, 0.44876188039779663, -0.45546048879623413, -0.16649167239665985, -0.7506222128868103, 8.268312454223633, -1.5854405164718628, 5.261647701263428, -2.2838292121887207, 0.08959858864545822, 0.5709156394004822, -0.817138671875, 0.01416015625, -0.310302734375, 
292, 3711711083, 0.4487112760543823, -0.45551013946533203, -0.1663680225610733, -0.7506496906280518, 8.297384262084961, -1.5520957708358765, 5.266878604888916, -2.398350477218628, 0.5980411767959595, 0.10017728060483932, -0.81982421875, 0.01513671875, -0.309814453125, 
293, 3711719416, 0.4486030340194702, -0.455592542886734, -0.166255384683609, -0.7506893277168274, 8.280475616455078, -1.4973915815353394, 5.315139293670654, -2.8834586143493652, 0.13726668059825897, -0.5402682423591614, -0.817138671875, 0.013916015625, -0.31201171875, 
294, 3711727749, 0.44839704036712646, -0.4556700587272644, -0.1661524623632431, -0.750788152217865, 8.232732772827148, -1.4590743780136108, 5.438904285430908, -3.4753003120422363, 0.269999623298645, -1.9968984127044678, -0.818359375, 0.015625, -0.310302734375, 
295, 3711736082, 0.44808241724967957, -0.4557550847530365, -0.16611722111701965, -0.7509321570396423, 8.217952728271484, -1.416691541671753, 5.44654655456543, -3.633033514022827, -0.18325702846050262, -3.7930197715759277, -0.817626953125, 0.013671875, -0.30859375, 
296, 3711744415, 0.4476277828216553, -0.45588377118110657, -0.16621476411819458, -0.7511034607887268, 8.241741180419922, -1.287859320640564, 5.3652143478393555, -3.3235366344451904, -1.6313576698303223, -6.075068473815918, -0.817138671875, 0.01318359375, -0.30908203125, 
297, 3711752748, 0.447131872177124, -0.4558476507663727, -0.1662934571504593, -0.7514033913612366, 8.143330574035645, -1.2520301342010498, 5.256819725036621, -3.202099323272705, 0.92741459608078, -7.615970134735107, -0.818603515625, 0.0126953125, -0.31005859375, 
298, 3711761081, 0.4465962052345276, -0.4556140899658203, -0.16635197401046753, -0.7518506050109863, 7.777251720428467, -1.4645308256149292, 5.054261207580566, -2.773266315460205, 3.9211556911468506, -9.277182579040527, -0.818603515625, 0.013427734375, -0.311279296875, 
299, 3711769414, 0.446115106344223, -0.4552612006664276, -0.16657833755016327, -0.7522996068000793, 7.412438869476318, -1.8714615106582642, 4.858252048492432, 0.022130701690912247, 4.264514446258545, -10.029166221618652, -0.816650390625, 0.01171875, -0.31005859375, 
300, 3711777747, 0.4457210898399353, -0.4550498425960541, -0.1672525554895401, -0.7525113821029663, 7.371011257171631, -2.169736385345459, 4.735931396484375, 5.036348342895508, -1.2639729976654053, -10.079137802124023, -0.816162109375, 0.009033203125, -0.311767578125, 
301, 3711786080, 0.445452481508255, -0.45499661564826965, -0.1683018058538437, -0.7524687647819519, 7.820681571960449, -2.141139507293701, 4.795130252838135, 9.156987190246582, -6.472653388977051, -9.278411865234375, -0.817138671875, 0.007080078125, -0.312744140625, 
302, 3711794413, 0.44521564245224, -0.4550606608390808, -0.16952772438526154, -0.7522949576377869, 8.202608108520508, -1.9310046434402466, 4.858901500701904, 10.802984237670898, -9.523796081542969, -8.990840911865234, -0.816162109375, 0.0068359375, -0.308349609375, 
303, 3711802746, 0.4450388252735138, -0.45507684350013733, -0.17077724635601044, -0.7521072626113892, 8.323064804077148, -1.6937962770462036, 4.873931407928467, 11.714032173156738, -9.111869812011719, -8.533961296081543, -0.815673828125, 0.00390625, -0.306884765625, 
304, 3711811079, 0.4449290633201599, -0.45496460795402527, -0.17190371453762054, -0.7519833445549011, 8.324101448059082, -1.5067988634109497, 4.880017280578613, 11.510910987854004, -6.475292205810547, -7.785947799682617, -0.813232421875, 0.0048828125, -0.306640625, 
305, 3711819412, 0.44497424364089966, -0.45472973585128784, -0.17289918661117554, -0.7518706321716309, 8.289409637451172, -1.2898805141448975, 4.8185038566589355, 11.837057113647461, -3.968811273574829, -5.698847770690918, -0.818115234375, 0.002685546875, -0.307373046875, 
306, 3711827745, 0.44517695903778076, -0.4546293318271637, -0.1738503873348236, -0.7515916228294373, 8.29491901397705, -1.2306244373321533, 4.736482620239258, 11.921687126159668, -5.749846458435059, -2.4969146251678467, -0.81494140625, 0, -0.306640625, 
307, 3711836078, 0.4455232322216034, -0.4547467529773712, -0.17466263473033905, -0.7511271834373474, 8.428071022033691, -1.2882832288742065, 4.74089241027832, 10.509188652038574, -7.968191623687744, 1.5541181564331055, -0.816650390625, -0.0009765625, -0.30419921875, 
308, 3711844411, 0.446010947227478, -0.45505383610725403, -0.1753520667552948, -0.7504908442497253, 8.599721908569336, -1.323943853378296, 4.7670745849609375, 9.436874389648438, -9.919228553771973, 5.29827880859375, -0.815673828125, 0.00048828125, -0.30419921875, 
309, 3711852744, 0.4466124475002289, -0.45547574758529663, -0.1759023815393448, -0.7497479319572449, 8.538004875183105, -1.3925901651382446, 4.887770175933838, 8.202857971191406, -10.636862754821777, 8.265995979309082, -0.819091796875, 0, -0.30224609375, 
310, 3711861077, 0.4472498595714569, -0.45594459772109985, -0.17618727684020996, -0.7490158677101135, 8.467582702636719, -1.4753332138061523, 5.046792030334473, 5.389492988586426, -9.330718040466309, 10.3218994140625, -0.819580078125, 0.002685546875, -0.297607421875, 
311, 3711869410, 0.44787511229515076, -0.45648255944252014, -0.17623504996299744, -0.7483030557632446, 8.385290145874023, -1.5671489238739014, 5.169925212860107, 2.387810468673706, -8.49674129486084, 11.7576265335083, -0.818115234375, 0.003173828125, -0.297607421875, 
312, 3711877743, 0.44854506850242615, -0.45698851346969604, -0.17602847516536713, -0.7476411461830139, 8.4033842086792, -1.6565346717834473, 5.300099849700928, 0.1424151510000229, -6.170661926269531, 13.402444839477539, -0.818603515625, 0.00390625, -0.296142578125, 
313, 3711886076, 0.4492262005805969, -0.4574637711048126, -0.17570650577545166, -0.7470171451568604, 8.38339614868164, -1.729354977607727, 5.361144065856934, -0.8951536417007446, -4.881651878356934, 13.953230857849121, -0.819091796875, 0.005615234375, -0.298095703125, 
314, 3711894409, 0.44999900460243225, -0.4578668773174286, -0.1753736436367035, -0.746383011341095, 8.394203186035156, -1.9118754863739014, 5.4348626136779785, -0.025627044960856438, -3.897193670272827, 14.779953956604004, -0.820556640625, 0.00732421875, -0.29638671875, 
315, 3711902742, 0.4508603811264038, -0.4582567512989044, -0.17496933043003082, -0.7457184791564941, 8.377928733825684, -2.084556818008423, 5.304061412811279, 0.01974858157336712, -3.313189744949341, 16.36742401123047, -0.8212890625, 0.009765625, -0.2939453125, 
316, 3711911075, 0.45177388191223145, -0.4586685001850128, -0.17461459338665009, -0.7449951767921448, 8.210453987121582, -2.05855131149292, 5.11732816696167, 0.5947627425193787, -4.038661956787109, 16.80970573425293, -0.82177734375, 0.01025390625, -0.29443359375, 
317, 3711919408, 0.4526965618133545, -0.459126353263855, -0.17434397339820862, -0.7442160844802856, 8.170034408569336, -1.9566487073898315, 5.0725202560424805, 1.630090355873108, -5.415555000305176, 17.02814483642578, -0.82080078125, 0.013916015625, -0.293212890625, 
318, 3711927741, 0.4535883367061615, -0.459695965051651, -0.17399221658706665, -0.7434032559394836, 8.153568267822266, -1.8735296726226807, 5.106485366821289, -0.028931288048624992, -6.334491729736328, 17.654512405395508, -0.8232421875, 0.016357421875, -0.291015625, 
319, 3711936074, 0.45434296131134033, -0.4604467451572418, -0.1734902709722519, -0.7425945997238159, 8.176164627075195, -1.751767635345459, 4.978476524353027, -3.552503824234009, -7.5575480461120605, 17.65602684020996, -0.822509765625, 0.01953125, -0.2900390625, 
320, 3711944407, 0.4549488425254822, -0.46136367321014404, -0.17287489771842957, -0.7417978048324585, 8.133002281188965, -1.6138372421264648, 4.919360637664795, -6.880472183227539, -8.790833473205566, 17.042423248291016, -0.822998046875, 0.020263671875, -0.29150390625, 
321, 3711952740, 0.4553149342536926, -0.4624210298061371, -0.172143816947937, -0.7410844564437866, 8.156824111938477, -1.3147249221801758, 4.946109294891357, -10.498588562011719, -9.574451446533203, 15.277552604675293, -0.823486328125, 0.02392578125, -0.287841796875, 
322, 3711961073, 0.4553762376308441, -0.463550865650177, -0.17122924327850342, -0.7405526041984558, 8.208221435546875, -0.9994626045227051, 5.013788223266602, -15.138725280761719, -8.736930847167969, 12.366686820983887, -0.823974609375, 0.02587890625, -0.286865234375, 
323, 3711969406, 0.4550589919090271, -0.4648454785346985, -0.17007341980934143, -0.7402024865150452, 8.236493110656738, -0.847644031047821, 5.084590435028076, -21.519468307495117, -8.633731842041016, 9.306169509887695, -0.824462890625, 0.027587890625, -0.28662109375, 
324, 3711977739, 0.454400897026062, -0.4663093388080597, -0.16858512163162231, -0.7400262951850891, 8.347424507141113, -0.9108803868293762, 5.194981575012207, -28.55962371826172, -7.954237937927246, 7.231082916259766, -0.822998046875, 0.029052734375, -0.28466796875, 
325, 3711986072, 0.4535045027732849, -0.4678325951099396, -0.1668970137834549, -0.7399974465370178, 8.402533531188965, -1.098484754562378, 5.299336910247803, -32.8221549987793, -6.9233174324035645, 5.342981815338135, -0.82763671875, 0.031005859375, -0.285400390625, 
326, 3711994405, 0.45248618721961975, -0.46931934356689453, -0.16517779231071472, -0.7400652766227722, 8.438554763793945, -1.2357639074325562, 5.338149070739746, -33.91116714477539, -6.01500940322876, 3.5910167694091797, -0.82666015625, 0.034912109375, -0.284423828125, 
327, 3712002738, 0.45145970582962036, -0.4706760346889496, -0.1635395586490631, -0.7401943206787109, 8.46951675415039, -1.3361910581588745, 5.332716941833496, -32.4764289855957, -4.820001602172852, 2.3335611820220947, -0.8271484375, 0.033935546875, -0.283447265625, 
328, 3712011071, 0.4505484104156494, -0.4717991352081299, -0.1620486080646515, -0.7403624653816223, 8.518993377685547, -1.501880407333374, 5.2133097648620605, -28.801828384399414, -2.856027364730835, 1.796839714050293, -0.82861328125, 0.035888671875, -0.28564453125, 
329, 3712019404, 0.4498240649700165, -0.47262558341026306, -0.16077826917171478, -0.7405527830123901, 8.483918190002441, -1.8085830211639404, 5.005117416381836, -23.623212814331055, -0.629969596862793, 1.458065390586853, -0.82568359375, 0.03662109375, -0.28369140625, 
330, 3712027737, 0.44929492473602295, -0.4732573628425598, -0.15978789329528809, -0.7406848669052124, 8.43121337890625, -2.1305816173553467, 4.803832530975342, -17.920324325561523, -0.3780021369457245, 1.6767083406448364, -0.82470703125, 0.038818359375, -0.2861328125, 
331, 3712036070, 0.4489702880382538, -0.4737999439239502, -0.15917979180812836, -0.7406656742095947, 8.36915397644043, -2.4003987312316895, 4.7082672119140625, -12.061603546142578, -2.3150534629821777, 1.889793038368225, -0.82763671875, 0.03857421875, -0.2841796875, 
332, 3712044403, 0.44878992438316345, -0.4743712544441223, -0.15895530581474304, -0.7404573559761047, 8.219228744506836, -2.585134983062744, 4.725846290588379, -7.034860610961914, -5.876866817474365, 2.031055450439453, -0.8291015625, 0.03955078125, -0.282470703125, 
333, 3712052736, 0.44874247908592224, -0.4749491810798645, -0.15907146036624908, -0.7400907278060913, 8.114447593688965, -2.4759421348571777, 4.825563907623291, -2.3360824584960938, -8.806187629699707, 2.213480234146118, -0.82958984375, 0.0400390625, -0.282470703125, 
334, 3712061069, 0.44872406125068665, -0.4755733907222748, -0.15944889187812805, -0.7396197319030762, 8.112117767333984, -2.0959675312042236, 4.892856597900391, 0.5833642482757568, -11.529287338256836, 1.5915662050247192, -0.82568359375, 0.039794921875, -0.27978515625, 
335, 3712069402, 0.44861868023872375, -0.47620919346809387, -0.15993109345436096, -0.7391703724861145, 8.251788139343262, -1.5219206809997559, 5.032682418823242, 0.8326162695884705, -12.320460319519043, -0.13159312307834625, -0.8271484375, 0.04052734375, -0.28076171875, 
336, 3712077735, 0.44829225540161133, -0.4768848121166229, -0.16023100912570953, -0.7388676404953003, 8.393308639526367, -1.0653492212295532, 5.174691677093506, -2.98071551322937, -11.135186195373535, -1.9982303380966187, -0.828857421875, 0.040283203125, -0.278564453125, 
337, 3712086068, 0.447740763425827, -0.47758790850639343, -0.16012193262577057, -0.7387716770172119, 8.615589141845703, -0.8851219415664673, 5.249953269958496, -9.292320251464844, -8.022521018981934, -2.820063591003418, -0.82568359375, 0.039794921875, -0.27880859375, 
338, 3712094401, 0.44699352979660034, -0.47831788659095764, -0.1595945507287979, -0.7388660311698914, 8.767313003540039, -1.0538960695266724, 5.261017322540283, -15.653668403625488, -4.846816062927246, -3.336088180541992, -0.82861328125, 0.039794921875, -0.275146484375, 
339, 3712102734, 0.4461308419704437, -0.47901031374931335, -0.15870247781276703, -0.739130973815918, 8.834589004516602, -1.4070216417312622, 5.17195987701416, -20.018718719482422, -1.4104353189468384, -3.0779480934143066, -0.828125, 0.038818359375, -0.2744140625, 
340, 3712111067, 0.44537660479545593, -0.4795423746109009, -0.1577526181936264, -0.7394440174102783, 8.753077507019043, -1.7930036783218384, 5.073658466339111, -19.043561935424805, 1.1351720094680786, -2.276581048965454, -0.829833984375, 0.039794921875, -0.274658203125, 
341, 3712119400, 0.4448307752609253, -0.4798460900783539, -0.15691131353378296, -0.7397544980049133, 8.55470085144043, -2.1270651817321777, 5.0018110275268555, -15.131855964660645, 3.219658851623535, -1.317301869392395, -0.829833984375, 0.039794921875, -0.276123046875, 
342, 3712127733, 0.4444620609283447, -0.4800752103328705, -0.156288281083107, -0.7399594187736511, 8.387310028076172, -2.3171000480651855, 4.903105735778809, -11.016056060791016, 2.321136474609375, -0.46619194746017456, -0.82666015625, 0.041748046875, -0.278076171875, 
343, 3712136066, 0.4442368745803833, -0.48031193017959595, -0.15582939982414246, -0.7400378584861755, 8.399527549743652, -2.4733400344848633, 4.771597385406494, -8.21380615234375, 0.7222445607185364, 0.6946068406105042, -0.830810546875, 0.041259765625, -0.277099609375, 
344, 3712144399, 0.44412297010421753, -0.48056331276893616, -0.1554776281118393, -0.7400169968605042, 8.467727661132812, -2.555081844329834, 4.685497760772705, -6.232468128204346, -0.5059451460838318, 1.7564704418182373, -0.829345703125, 0.0419921875, -0.280029296875, 
345, 3712152732, 0.44413265585899353, -0.4808402955532074, -0.15525785088539124, -0.7398772835731506, 8.46083927154541, -2.459933280944824, 4.649320125579834, -4.009947299957275, -2.086010694503784, 2.924326181411743, -0.829833984375, 0.041259765625, -0.275634765625, 
346, 3712161065, 0.44416531920433044, -0.48120537400245667, -0.15515469014644623, -0.7396418452262878, 8.417898178100586, -2.3220579624176025, 4.656801700592041, -2.958585262298584, -4.288015365600586, 3.161334753036499, -0.829833984375, 0.04248046875, -0.280029296875, 
347, 3712169398, 0.44421857595443726, -0.48165085911750793, -0.15519407391548157, -0.7393115758895874, 8.429854393005371, -2.162715435028076, 4.69424295425415, -1.7082518339157104, -6.551340579986572, 3.1759347915649414, -0.828857421875, 0.044677734375, -0.275634765625, 
348, 3712177731, 0.44427409768104553, -0.48206695914268494, -0.15533551573753357, -0.7389772534370422, 8.524192810058594, -2.0029942989349365, 4.817059516906738, -0.5223895311355591, -6.879843235015869, 2.427896738052368, -0.831787109375, 0.044921875, -0.2734375, 
349, 3712186064, 0.44428449869155884, -0.4824128746986389, -0.1554841250181198, -0.7387139797210693, 8.541193008422852, -1.9661588668823242, 4.928323268890381, -0.41665399074554443, -5.854403018951416, 1.395822286605835, -0.830810546875, 0.04345703125, -0.273193359375, 
350, 3712194397, 0.44427329301834106, -0.48266223073005676, -0.15562717616558075, -0.7385277152061462, 8.465666770935059, -2.04142165184021, 4.942314624786377, -0.2633015513420105, -4.35463809967041, 0.46845877170562744, -0.826904296875, 0.04248046875, -0.271728515625, 
351, 3712202730, 0.44424012303352356, -0.4828386604785919, -0.15574219822883606, -0.7384082078933716, 8.414605140686035, -2.1078598499298096, 4.934638023376465, -0.3172707259654999, -3.0655245780944824, -0.0641508549451828, -0.829833984375, 0.0439453125, -0.273681640625, 
352, 3712211063, 0.44416990876197815, -0.48296213150024414, -0.15575125813484192, -0.7383676767349243, 8.334527969360352, -2.1091346740722656, 4.907576560974121, -1.3388177156448364, -1.4676316976547241, -0.2776454985141754, -0.829345703125, 0.04296875, -0.272705078125, 
353, 3712219396, 0.44404369592666626, -0.4831629991531372, -0.15575455129146576, -0.7383115887641907, 8.344093322753906, -1.9809224605560303, 4.866013526916504, -2.3556768894195557, -2.4108757972717285, -0.6017167568206787, -0.829345703125, 0.04296875, -0.274658203125, 
354, 3712227729, 0.44381076097488403, -0.4834800958633423, -0.1556694358587265, -0.738261878490448, 8.485391616821289, -1.8692257404327393, 4.9542155265808105, -4.5304789543151855, -3.268850088119507, -0.8288382291793823, -0.829345703125, 0.0439453125, -0.271728515625, 
355, 3712236062, 0.44341805577278137, -0.4838045835494995, -0.1553804725408554, -0.7383463382720947, 8.579842567443848, -1.7859714031219482, 5.011246204376221, -8.150463104248047, -1.5171183347702026, -1.9579651355743408, -0.831298828125, 0.04638671875, -0.271484375, 
356, 3712244395, 0.44291824102401733, -0.4840780794620514, -0.15504176914691925, -0.7385379076004028, 8.593770980834961, -1.79495370388031, 4.987667083740234, -9.483863830566406, -0.1656600832939148, -3.6145403385162354, -0.829833984375, 0.04248046875, -0.272216796875, 
357, 3712252728, 0.44235411286354065, -0.48426830768585205, -0.15473854541778564, -0.7388150095939636, 8.59926986694336, -1.7110350131988525, 5.058731555938721, -9.028365135192871, 0.8484460115432739, -5.0639729499816895, -0.830810546875, 0.044921875, -0.27197265625, 
358, 3712261061, 0.44179853796958923, -0.48423078656196594, -0.1544865518808365, -0.7392247319221497, 8.557432174682617, -1.533141016960144, 5.097162246704102, -7.319768905639648, 3.749617338180542, -6.620166778564453, -0.829833984375, 0.0419921875, -0.272216796875, 
359, 3712269394, 0.44129419326782227, -0.48399436473846436, -0.15439581871032715, -0.7396995425224304, 8.475480079650879, -1.377992033958435, 5.038212776184082, -4.297928333282471, 5.337033748626709, -7.981332302093506, -0.831787109375, 0.04248046875, -0.272705078125, 
360, 3712277727, 0.440860778093338, -0.48364537954330444, -0.1544664204120636, -0.7401713132858276, 8.448780059814453, -1.3166242837905884, 4.923312187194824, -1.4870216846466064, 5.632033348083496, -8.571945190429688, -0.82568359375, 0.04150390625, -0.272216796875, 
361, 3712286060, 0.44054198265075684, -0.48322388529777527, -0.15454135835170746, -0.7406207323074341, 8.360564231872559, -1.3389579057693481, 4.953252792358398, -0.20031613111495972, 6.440520286560059, -7.435697555541992, -0.831298828125, 0.038818359375, -0.273681640625, 
362, 3712294393, 0.44020384550094604, -0.48280197381973267, -0.15458902716636658, -0.7410867810249329, 8.311071395874023, -1.3564846515655518, 5.044140815734863, -0.6083253026008606, 6.67056131362915, -7.551985740661621, -0.828125, 0.038818359375, -0.2744140625, 
363, 3712302726, 0.43982118368148804, -0.48241981863975525, -0.15465714037418365, -0.741548478603363, 8.48086929321289, -1.3243894577026367, 5.046139717102051, -0.9588304758071899, 6.028208255767822, -8.03189468383789, -0.828125, 0.038818359375, -0.27392578125, 
364, 3712311059, 0.43934231996536255, -0.4819490909576416, -0.1545102596282959, -0.7421689033508301, 8.921051025390625, -1.483438491821289, 5.323930740356445, -3.4777350425720215, 9.049715995788574, -8.685674667358398, -0.82763671875, 0.037841796875, -0.2744140625, 
365, 3712319392, 0.4388488531112671, -0.4814349412918091, -0.15383842587471008, -0.7429336905479431, 9.360284805297852, -1.9969578981399536, 5.604220390319824, -9.089892387390137, 13.621062278747559, -6.368916034698486, -0.82666015625, 0.036376953125, -0.2783203125, 
366, 3712327725, 0.43838417530059814, -0.48128020763397217, -0.15277890861034393, -0.7435265779495239, 9.6134614944458, -2.819727897644043, 5.615139007568359, -14.778815269470215, 11.230334281921387, -1.7864781618118286, -0.828125, 0.03662109375, -0.28173828125, 
367, 3712336058, 0.4381023049354553, -0.4808046221733093, -0.15115484595298767, -0.744331955909729, 9.589704513549805, -3.4723782539367676, 5.7763671875, -17.73939323425293, 19.684114456176758, 1.9397671222686768, -0.828125, 0.03662109375, -0.28271484375, 
368, 3712344391, 0.43829452991485596, -0.47980526089668274, -0.14967745542526245, -0.745161771774292, 8.814763069152832, -3.7472589015960693, 5.310235500335693, -9.951635360717773, 25.294532775878906, 4.598193168640137, -0.82666015625, 0.036865234375, -0.28759765625, 
369, 3712352724, 0.43910691142082214, -0.47835513949394226, -0.1489492654800415, -0.7457613945007324, 7.667341709136963, -3.497596502304077, 4.919848442077637, 4.961071014404297, 25.16935920715332, 6.458223819732666, -0.82568359375, 0.0390625, -0.291015625, 
370, 3712361057, 0.4404507875442505, -0.4765535891056061, -0.14899367094039917, -0.7461133003234863, 6.8479766845703125, -2.9093244075775146, 4.522833824157715, 18.894052505493164, 23.591115951538086, 7.5098700523376465, -0.82568359375, 0.0400390625, -0.29443359375, 
371, 3712369390, 0.4419315457344055, -0.47488585114479065, -0.14995871484279633, -0.7461076378822327, 6.456465244293213, -2.1504344940185547, 4.081414699554443, 29.27474021911621, 14.555020332336426, 5.413931846618652, -0.822265625, 0.03857421875, -0.29296875, 
372, 3712377723, 0.4432697296142578, -0.4736480116844177, -0.15125322341918945, -0.7458393573760986, 6.95479154586792, -1.5087766647338867, 4.107424259185791, 29.68146514892578, 6.122165203094482, 4.267846584320068, -0.81982421875, 0.0400390625, -0.294921875, 
373, 3712386056, 0.4442130923271179, -0.47317466139793396, -0.1521647423505783, -0.7453929781913757, 8.098626136779785, -1.4397504329681396, 4.36052942276001, 18.8648624420166, -1.3530339002609253, 5.4024271965026855, -0.82373046875, 0.038330078125, -0.296875, 
374, 3712394389, 0.44474291801452637, -0.4733438491821289, -0.15201759338378906, -0.7449996471405029, 9.361299514770508, -1.8899587392807007, 4.717894077301025, 1.3118075132369995, -2.003020763397217, 9.0597562789917, -0.8212890625, 0.0380859375, -0.294677734375, 
375, 3712402722, 0.4448450207710266, -0.4739445447921753, -0.15063250064849854, -0.7448381781578064, 10.137663841247559, -2.6382696628570557, 5.215339183807373, -17.304841995239258, 1.7718397378921509, 12.234848976135254, -0.82373046875, 0.041748046875, -0.2978515625, 
376, 3712411055, 0.44458112120628357, -0.4747745096683502, -0.14818501472473145, -0.7449581027030945, 10.198265075683594, -3.187281370162964, 5.925152778625488, -32.56542205810547, 6.998047351837158, 14.129135131835938, -0.82421875, 0.04443359375, -0.296142578125, 
377, 3712419388, 0.4442908465862274, -0.4755913019180298, -0.14531639218330383, -0.7451754212379456, 9.591714859008789, -3.097519874572754, 6.389577388763428, -37.16314697265625, 10.291072845458984, 16.019575119018555, -0.82421875, 0.048583984375, -0.299072265625, 
378, 3712427721, 0.4443857967853546, -0.47620394825935364, -0.14284780621528625, -0.7452048063278198, 8.862279891967773, -2.4811198711395264, 6.258850574493408, -28.90878677368164, 9.476431846618652, 18.06507110595703, -0.82080078125, 0.05078125, -0.298828125, 
379, 3712436054, 0.4444333612918854, -0.47620445489883423, -0.1408441960811615, -0.7455573081970215, 8.45127010345459, -1.6270794868469238, 5.856841564178467, -21.36040687561035, 14.93295669555664, 11.382640838623047, -0.824462890625, 0.052978515625, -0.3017578125, 
380, 3712444387, 0.44452399015426636, -0.47461193799972534, -0.13903895020484924, -0.7468565106391907, 7.4374566078186035, -1.2118489742279053, 4.814579010009766, -11.114670753479004, 36.326271057128906, 1.6403250694274902, -0.823974609375, 0.054931640625, -0.303955078125, 
381, 3712452720, 0.44481784105300903, -0.4722616374492645, -0.13846595585346222, -0.7482764720916748, 5.817690372467041, -1.7196595668792725, 3.5723884105682373, 7.242395401000977, 37.76494598388672, -6.488657474517822, -0.8212890625, 0.05419921875, -0.31005859375, 
382, 3712461053, 0.4453825056552887, -0.4701716899871826, -0.13955333828926086, -0.7490543723106384, 4.733120441436768, -2.808671474456787, 3.285287857055664, 25.768278121948242, 21.256301879882812, -10.058757781982422, -0.8203125, 0.052490234375, -0.314453125, 
383, 3712469386, 0.44629690051078796, -0.46880385279655457, -0.14192600548267365, -0.7489215731620789, 5.227313995361328, -3.609452962875366, 3.7551703453063965, 38.541664123535156, 0.7468096017837524, -7.8057050704956055, -0.8193359375, 0.052978515625, -0.3154296875, 
384, 3712477719, 0.4475301206111908, -0.4678332209587097, -0.145252525806427, -0.7481545209884644, 6.817535877227783, -3.2951009273529053, 4.270057678222656, 49.274593353271484, -12.683415412902832, -6.0093560218811035, -0.82080078125, 0.049072265625, -0.315185546875, 
385, 3712486052, 0.448828786611557, -0.4669843316078186, -0.1489117294549942, -0.7471868991851807, 8.545024871826172, -2.3877224922180176, 4.670393943786621, 52.71677017211914, -17.124778747558594, -5.992749214172363, -0.81884765625, 0.047119140625, -0.310302734375, 
386, 3712494385, 0.44987359642982483, -0.4664611220359802, -0.15216706693172455, -0.7462289333343506, 9.686301231384277, -1.5046495199203491, 5.00860595703125, 44.90650177001953, -18.441530227661133, -5.444943428039551, -0.81982421875, 0.04443359375, -0.3056640625, 
387, 3712502718, 0.4506172239780426, -0.4661440849304199, -0.1545753926038742, -0.7454830408096313, 10.177634239196777, -0.8449746966362, 5.370140552520752, 32.56298065185547, -14.580574035644531, -3.9382572174072266, -0.82177734375, 0.0419921875, -0.30517578125, 
388, 3712511051, 0.4511045813560486, -0.46582868695259094, -0.15605203807353973, -0.7450777292251587, 10.098430633544922, -0.3885563313961029, 5.607120513916016, 20.643648147583008, -7.190854072570801, -2.7336676120758057, -0.82275390625, 0.039306640625, -0.30078125, 
389, 3712519384, 0.45128917694091797, -0.46552398800849915, -0.15673547983169556, -0.7450128793716431, 9.524872779846191, -0.09233561158180237, 5.708553791046143, 9.77043628692627, -0.8428876996040344, -2.810932159423828, -0.820068359375, 0.038330078125, -0.301513671875, 
390, 3712527717, 0.45110785961151123, -0.4651832580566406, -0.15669625997543335, -0.7453436851501465, 8.903242111206055, -0.0835241749882698, 5.686186790466309, -0.39344748854637146, 5.706160068511963, -4.3657546043396, -0.82275390625, 0.037109375, -0.301513671875, 
391, 3712536050, 0.4507291316986084, -0.46480676531791687, -0.15614770352840424, -0.7459225058555603, 8.422990798950195, -0.3872947096824646, 5.503184795379639, -7.401555061340332, 10.442463874816895, -4.847072601318359, -0.819580078125, 0.037353515625, -0.301513671875, 
392, 3712544383, 0.4503641426563263, -0.4643131494522095, -0.15543359518051147, -0.7465993165969849, 7.9773030281066895, -0.9189552664756775, 5.318129062652588, -8.59279727935791, 13.34322738647461, -4.587318420410156, -0.821533203125, 0.0361328125, -0.305419921875, 
393, 3712552716, 0.4500512182712555, -0.4637244939804077, -0.15491102635860443, -0.747262179851532, 7.57253885269165, -1.5592576265335083, 5.223476409912109, -5.578922271728516, 13.135801315307617, -5.3116631507873535, -0.820556640625, 0.0380859375, -0.305419921875, 
394, 3712561049, 0.4498322904109955, -0.46310362219810486, -0.1547967940568924, -0.7478023767471313, 7.331754207611084, -2.137407064437866, 5.141108512878418, -0.2772100865840912, 10.3445405960083, -6.24927282333374, -0.819091796875, 0.036865234375, -0.307373046875, 
395, 3712569382, 0.44975003600120544, -0.4624798595905304, -0.15520906448364258, -0.7481524348258972, 7.348953723907471, -2.512410879135132, 4.927665710449219, 6.385885238647461, 6.210145950317383, -7.036243915557861, -0.816650390625, 0.033935546875, -0.30859375, 
396, 3712577715, 0.44977566599845886, -0.4618791341781616, -0.1561451107263565, -0.748313307762146, 7.610223770141602, -2.6426186561584473, 4.880709648132324, 12.696106910705566, 1.7623364925384521, -8.074850082397461, -0.816650390625, 0.034912109375, -0.31005859375, 
397, 3712586048, 0.44983717799186707, -0.46129247546195984, -0.15739724040031433, -0.7483758926391602, 7.998794078826904, -2.5301613807678223, 5.027886390686035, 16.325927734375, -0.8871620893478394, -9.038740158081055, -0.817626953125, 0.031494140625, -0.30859375, 
398, 3712594381, 0.44998764991760254, -0.46070772409439087, -0.15871600806713104, -0.748367190361023, 8.339975357055664, -2.30503249168396, 5.2704339027404785, 17.748647689819336, -1.5866872072219849, -8.108458518981934, -0.818115234375, 0.031005859375, -0.30810546875, 
399, 3712602714, 0.4502966105937958, -0.4601674973964691, -0.15999434888362885, -0.7482414245605469, 8.610310554504395, -2.0948784351348877, 5.445500373840332, 18.287084579467773, -2.180245876312256, -5.391964435577393, -0.817626953125, 0.029052734375, -0.307373046875, 
400, 3712611047, 0.4507860243320465, -0.45961496233940125, -0.16111637651920319, -0.7480456233024597, 8.71196460723877, -1.7648640871047974, 5.402740955352783, 18.08915901184082, -1.1453790664672852, -2.142899990081787, -0.81640625, 0.027587890625, -0.308349609375, 
401, 3712619380, 0.45140543580055237, -0.4589831233024597, -0.16201120615005493, -0.747866690158844, 8.685188293457031, -1.4374834299087524, 5.3229522705078125, 16.989336013793945, 1.4869579076766968, 0.3532972037792206, -0.81689453125, 0.027587890625, -0.307861328125, 
402, 3712627713, 0.45209646224975586, -0.45829489827156067, -0.16268688440322876, -0.7477246522903442, 8.611184120178223, -1.3373886346817017, 5.21570348739624, 15.338165283203125, 3.837934970855713, 2.018965482711792, -0.818603515625, 0.027587890625, -0.308837890625, 
403, 3712636046, 0.4528627097606659, -0.4575177729129791, -0.16313748061656952, -0.7476387619972229, 8.539196968078613, -1.5478192567825317, 5.094303131103516, 14.042110443115234, 6.654374122619629, 3.762834072113037, -0.81787109375, 0.026123046875, -0.307373046875, 
404, 3712644379, 0.45373818278312683, -0.4566424489021301, -0.16352328658103943, -0.7475587129592896, 8.372246742248535, -1.8894147872924805, 4.903458595275879, 14.830491065979004, 8.311436653137207, 5.118954658508301, -0.8134765625, 0.027099609375, -0.3095703125, 
405, 3712652712, 0.4547460675239563, -0.45562827587127686, -0.1640208661556244, -0.7474561333656311, 8.202279090881348, -2.2057926654815674, 4.796435356140137, 17.559101104736328, 9.236930847167969, 5.524197578430176, -0.81494140625, 0.024658203125, -0.3095703125, 
406, 3712661045, 0.45584431290626526, -0.45459073781967163, -0.16474217176437378, -0.7472601532936096, 8.025635719299316, -2.388638973236084, 4.830817222595215, 20.66537094116211, 7.716650485992432, 5.48190975189209, -0.81640625, 0.02587890625, -0.311767578125, 
407, 3712669378, 0.45686545968055725, -0.4537782073020935, -0.16557447612285614, -0.7469465732574463, 7.926569938659668, -2.4022812843322754, 4.964207649230957, 20.296497344970703, 3.778049945831299, 5.343080520629883, -0.8134765625, 0.026123046875, -0.310546875, 
408, 3712677711, 0.45776090025901794, -0.45328766107559204, -0.16659130156040192, -0.7464697957038879, 7.9332733154296875, -2.1716771125793457, 5.024314880371094, 19.71717643737793, -1.9866278171539307, 4.604159832000732, -0.82080078125, 0.025390625, -0.308349609375, 
409, 3712686044, 0.45846307277679443, -0.45305195450782776, -0.16762982308864594, -0.7459492683410645, 8.008613586425781, -1.6649435758590698, 5.30154275894165, 17.27045249938965, -5.462864398956299, 3.39949631690979, -0.81591796875, 0.026123046875, -0.308837890625, 
410, 3712694377, 0.45886796712875366, -0.4530470371246338, -0.16847246885299683, -0.7455132603645325, 8.144857406616211, -1.1323883533477783, 5.503546714782715, 11.864490509033203, -6.773442268371582, 1.6048345565795898, -0.81689453125, 0.027099609375, -0.307861328125, 
411, 3712702710, 0.4589354991912842, -0.45324426889419556, -0.1689620167016983, -0.745241105556488, 8.242612838745117, -0.760047435760498, 5.611355781555176, 4.382390975952148, -6.358388900756836, -0.25520744919776917, -0.81640625, 0.026123046875, -0.307373046875, 
412, 3712711043, 0.45865195989608765, -0.4535112977027893, -0.16895881295204163, -0.7452538013458252, 8.333022117614746, -0.5922432541847229, 5.658400058746338, -3.819018840789795, -3.0337371826171875, -2.356496810913086, -0.81884765625, 0.024169921875, -0.306884765625, 
413, 3712719376, 0.4580609202384949, -0.45378223061561584, -0.1684984266757965, -0.7455567717552185, 8.327362060546875, -0.6307327151298523, 5.604109764099121, -11.260056495666504, 0.9347401857376099, -4.5383429527282715, -0.8173828125, 0.023681640625, -0.30712890625, 
414, 3712727709, 0.45725932717323303, -0.4540407061576843, -0.16777002811431885, -0.7460553646087646, 8.201659202575684, -0.8329312801361084, 5.424119472503662, -15.345478057861328, 3.413020610809326, -6.087723255157471, -0.8115234375, 0.024658203125, -0.31005859375, 
415, 3712736042, 0.4564986228942871, -0.45417293906211853, -0.16702920198440552, -0.7466068267822266, 8.223700523376465, -1.3617628812789917, 5.296547889709473, -14.897791862487793, 5.283833026885986, -6.413229465484619, -0.8173828125, 0.023193359375, -0.306640625, 
416, 3712744375, 0.4560025632381439, -0.45409223437309265, -0.16645033657550812, -0.7470881938934326, 8.268725395202637, -1.9748868942260742, 5.221789360046387, -10.372138977050781, 6.672969818115234, -4.957776069641113, -0.8173828125, 0.0224609375, -0.31103515625, 
417, 3712752708, 0.4558877646923065, -0.4537537097930908, -0.16629326343536377, -0.7473989129066467, 8.30803108215332, -2.451032876968384, 5.146512985229492, -1.362433910369873, 6.432964324951172, -2.9939072132110596, -0.81640625, 0.023681640625, -0.30712890625, 
418, 3712761041, 0.45628052949905396, -0.4531044661998749, -0.16677424311637878, -0.7474458813667297, 8.359930992126465, -2.687472343444824, 5.10978889465332, 10.543153762817383, 5.208117485046387, -1.0710209608078003, -0.81640625, 0.02392578125, -0.31201171875, 
419, 3712769374, 0.45711374282836914, -0.4521615505218506, -0.1678922176361084, -0.7472575306892395, 8.39147663116455, -2.7242298126220703, 5.161346912384033, 22.58925437927246, 3.7058942317962646, 0.5455065369606018, -0.81787109375, 0.0244140625, -0.3115234375, 
420, 3712777707, 0.45815587043762207, -0.45103490352630615, -0.1695421040058136, -0.7469274997711182, 8.252803802490234, -2.400700330734253, 5.227451324462891, 31.06133460998535, 1.8083666563034058, -0.03062184527516365, -0.81640625, 0.02197265625, -0.310546875, 
421, 3712786040, 0.4592844247817993, -0.4497329890727997, -0.17161259055137634, -0.7465465664863586, 8.082311630249023, -1.8195120096206665, 5.265242099761963, 36.91394805908203, 0.8877904415130615, -1.9573014974594116, -0.814453125, 0.021484375, -0.31005859375, 
422, 3712794373, 0.46032214164733887, -0.44841137528419495, -0.17383001744747162, -0.7461892366409302, 7.965251445770264, -1.1909185647964478, 5.223066806793213, 37.89988708496094, 0.09759034216403961, -4.044607639312744, -0.81591796875, 0.0185546875, -0.309326171875, 
423, 3712802706, 0.46115177869796753, -0.4471719264984131, -0.17588810622692108, -0.7459385991096497, 7.889742374420166, -0.7947866320610046, 5.230714321136475, 34.23738479614258, 0.4202788472175598, -5.625878810882568, -0.81689453125, 0.01611328125, -0.309326171875, 
424, 3712811039, 0.4616774618625641, -0.4461177587509155, -0.17754040658473969, -0.7458529472351074, 7.884368419647217, -0.5979721546173096, 5.264281272888184, 26.87275505065918, 1.327765941619873, -6.718708038330078, -0.815185546875, 0.01416015625, -0.31005859375, 
425, 3712819372, 0.46193087100982666, -0.44532349705696106, -0.17877937853336334, -0.7458750009536743, 8.034486770629883, -0.5460827946662903, 5.29569149017334, 18.808204650878906, 1.3264080286026, -7.1518168449401855, -0.811767578125, 0.013427734375, -0.30712890625, 
426, 3712827705, 0.461946040391922, -0.44472965598106384, -0.1795899122953415, -0.7460250854492188, 8.229353904724121, -0.5174959301948547, 5.24574613571167, 11.187095642089844, 2.2182953357696533, -7.431599140167236, -0.815673828125, 0.01025390625, -0.30859375, 
427, 3712836038, 0.4617851972579956, -0.4441990852355957, -0.18005357682704926, -0.7463288903236389, 8.325248718261719, -0.64201420545578, 5.136780738830566, 5.949880123138428, 4.249504566192627, -7.798011779785156, -0.815185546875, 0.009765625, -0.30908203125, 
428, 3712844371, 0.4614971876144409, -0.4437468945980072, -0.1803222894668579, -0.746711015701294, 8.334246635437012, -0.9289398789405823, 5.103569984436035, 2.609117269515991, 4.823288917541504, -8.151359558105469, -0.814697265625, 0.009521484375, -0.311767578125, 
429, 3712852704, 0.46123775839805603, -0.44338586926460266, -0.18047478795051575, -0.7470489144325256, 8.341415405273438, -1.3764374256134033, 5.108905792236328, 0.9911173582077026, 4.450679302215576, -6.706486701965332, -0.814208984375, 0.0087890625, -0.308349609375, 
430, 3712861037, 0.46110498905181885, -0.4430774748325348, -0.18060128390789032, -0.7472832202911377, 8.38823413848877, -1.8377679586410522, 5.060890197753906, 1.4478703737258911, 3.7500267028808594, -4.4581451416015625, -0.813720703125, 0.0068359375, -0.309814453125, 
431, 3712869370, 0.46112534403800964, -0.442764014005661, -0.18082556128501892, -0.7474021911621094, 8.303279876708984, -2.1287319660186768, 5.017594814300537, 3.6770260334014893, 2.8679232597351074, -2.7625339031219482, -0.817138671875, 0.007080078125, -0.311279296875, 
432, 3712877703, 0.4612596333026886, -0.4424695372581482, -0.18120624125003815, -0.7474015355110168, 8.154906272888184, -2.19936466217041, 5.050961494445801, 5.790456771850586, 1.293493390083313, -1.9941068887710571, -0.810791015625, 0.006591796875, -0.31103515625, 
433, 3712886036, 0.46136435866355896, -0.44229233264923096, -0.18165403604507446, -0.7473329901695251, 7.951301097869873, -1.9138405323028564, 5.145444393157959, 6.090809345245361, -0.8829098343849182, -1.7268476486206055, -0.814697265625, 0.006591796875, -0.310791015625, 
434, 3712894369, 0.46134790778160095, -0.4422990679740906, -0.1820455938577652, -0.7472440600395203, 7.84181022644043, -1.4381113052368164, 5.196885108947754, 3.6293320655822754, -2.837839365005493, -2.0847041606903076, -0.8125, 0.00341796875, -0.30859375, 
435, 3712902702, 0.46110591292381287, -0.442549467086792, -0.18220891058444977, -0.7472054362297058, 7.841386318206787, -1.0624526739120483, 5.205222129821777, -1.7299981117248535, -4.157228469848633, -2.6806704998016357, -0.8134765625, 0.003662109375, -0.3115234375, 
436, 3712911035, 0.46062710881233215, -0.4430369436740875, -0.18206985294818878, -0.7472456097602844, 7.92130708694458, -0.8873487710952759, 5.177961826324463, -8.093547821044922, -4.772841930389404, -3.2770214080810547, -0.813720703125, 0.004150390625, -0.3115234375, 
437, 3712919368, 0.45994141697883606, -0.4437117576599121, -0.18162091076374054, -0.7473768591880798, 8.048935890197754, -0.9445921182632446, 5.19338846206665, -13.838387489318848, -4.714390277862549, -3.523738145828247, -0.814208984375, 0.005126953125, -0.311767578125, 
438, 3712927701, 0.45914584398269653, -0.4445440173149109, -0.18092215061187744, -0.7475408315658569, 8.213420867919922, -1.089064598083496, 5.268648624420166, -18.4337100982666, -4.783600330352783, -3.1445705890655518, -0.813720703125, 0.00634765625, -0.307861328125, 
439, 3712936034, 0.4582979679107666, -0.4454258382320404, -0.1800694316625595, -0.7477423548698425, 8.304295539855957, -1.2813643217086792, 5.322840690612793, -20.46161651611328, -4.267294406890869, -2.652982234954834, -0.813232421875, 0.00537109375, -0.308349609375, 
440, 3712944367, 0.4575115442276001, -0.44622382521629333, -0.17922867834568024, -0.7479499578475952, 8.36001205444336, -1.3918659687042236, 5.355086326599121, -19.473342895507812, -3.286268711090088, -2.3763742446899414, -0.812255859375, 0.0048828125, -0.30908203125, 
441, 3712952700, 0.45685455203056335, -0.446869432926178, -0.17848727107048035, -0.7481434345245361, 8.363667488098145, -1.3815118074417114, 5.380129337310791, -16.640968322753906, -2.115748882293701, -1.907402753829956, -0.815185546875, 0.006103515625, -0.309326171875, 
442, 3712961033, 0.4563368558883667, -0.44738978147506714, -0.17785759270191193, -0.748298168182373, 8.33733081817627, -1.411310076713562, 5.34672737121582, -13.479069709777832, -1.468963623046875, -1.0707391500473022, -0.812255859375, 0.0068359375, -0.308349609375, 
443, 3712969366, 0.45602938532829285, -0.44779133796691895, -0.17729699611663818, -0.7483784556388855, 8.317599296569824, -1.583906650543213, 5.328926086425781, -10.81998062133789, -0.5795861482620239, 0.6921480298042297, -0.809814453125, 0.00634765625, -0.30712890625, 
444, 3712977699, 0.45592865347862244, -0.44812196493148804, -0.17678822576999664, -0.7483624219894409, 8.280970573425293, -1.8252719640731812, 5.340779781341553, -8.669536590576172, -0.20920430123806, 2.6984856128692627, -0.814697265625, 0.00634765625, -0.307373046875, 
