sep=,
PacketCounter,SampleTimeFine,Quat_W,Quat_X,Quat_Y,Quat_Z,Acc_X,Acc_Y,Acc_Z,Gyr_X,Gyr_Y,Gyr_Z,Mag_X,Mag_Y,Mag_Z,
0, 3824414908, 0.39901435375213623, -0.5045521855354309, -0.43301522731781006, -0.6314259767532349, 0, 0, 0, 0, 0, 0, -0.811279296875, -0.171630859375, 0.16796875, 
1, 3824423241, 0.3987736999988556, -0.5044737458229065, -0.43308570981025696, -0.6315923929214478, 9.661091804504395, 1.3889869451522827, 1.1413453817367554, -2.105451822280884, 0.325864315032959, -4.0549516677856445, -0.810791015625, -0.173583984375, 0.16845703125, 
2, 3824431574, 0.3985399901866913, -0.5044023990631104, -0.4331589341163635, -0.6317466497421265, 9.72556209564209, 1.4247139692306519, 1.137784481048584, -1.9455677270889282, 0.18342356383800507, -3.880441427230835, -0.810302734375, -0.172607421875, 0.1689453125, 
3, 3824439907, 0.3983146548271179, -0.5043286085128784, -0.4332323968410492, -0.6318970918655396, 9.728110313415527, 1.4238996505737305, 1.0905821323394775, -1.8792012929916382, 0.2521209418773651, -3.824218273162842, -0.811767578125, -0.173583984375, 0.16845703125, 
4, 3824448240, 0.39809271693229675, -0.5042626857757568, -0.43330317735671997, -0.6320410370826721, 9.708707809448242, 1.4465832710266113, 1.102116346359253, -1.8540990352630615, 0.1495358943939209, -3.6726841926574707, -0.810791015625, -0.17236328125, 0.16357421875, 
5, 3824456573, 0.3978883624076843, -0.5042058229446411, -0.43337878584861755, -0.6321632862091064, 9.684540748596191, 1.4592666625976562, 1.1190381050109863, -1.5552324056625366, 0.036986950784921646, -3.389698028564453, -0.809326171875, -0.176513671875, 0.165771484375, 
6, 3824464906, 0.3976888358592987, -0.5041630268096924, -0.43346405029296875, -0.6322644948959351, 9.680713653564453, 1.4361393451690674, 1.1158782243728638, -1.4443868398666382, -0.2944868803024292, -3.2059035301208496, -0.810791015625, -0.175048828125, 0.16650390625, 
7, 3824473239, 0.3974926173686981, -0.5041261315345764, -0.43354928493499756, -0.6323589086532593, 9.72561264038086, 1.442078709602356, 1.133510708808899, -1.5373278856277466, -0.36150649189949036, -3.139011859893799, -0.811279296875, -0.1748046875, 0.1650390625, 
8, 3824481572, 0.3972953259944916, -0.5040991306304932, -0.4336240589618683, -0.6324531435966492, 9.751287460327148, 1.4223300218582153, 1.1173491477966309, -1.5648376941680908, -0.4083805978298187, -2.981023073196411, -0.810791015625, -0.176025390625, 0.166015625, 
9, 3824489905, 0.39710545539855957, -0.5040652751922607, -0.4336903393268585, -0.6325539946556091, 9.767902374267578, 1.4385924339294434, 1.0957952737808228, -1.5900166034698486, -0.2125597447156906, -2.9359676837921143, -0.810302734375, -0.177978515625, 0.166748046875, 
10, 3824498238, 0.39688438177108765, -0.5040558576583862, -0.43372416496276855, -0.6326770186424255, 9.708885192871094, 1.4645472764968872, 1.092171311378479, -2.161367177963257, -0.223394513130188, -2.949260950088501, -0.806640625, -0.177490234375, 0.168212890625, 
11, 3824506571, 0.396658718585968, -0.5040555596351624, -0.4337638318538666, -0.6327915191650391, 9.670348167419434, 1.472989797592163, 1.064439296722412, -2.21354341506958, -0.43066489696502686, -2.9381959438323975, -0.807861328125, -0.177001953125, 0.167236328125, 
12, 3824514904, 0.3964160084724426, -0.5040744543075562, -0.43380650877952576, -0.632899284362793, 9.659292221069336, 1.4682395458221436, 1.096022605895996, -2.4905872344970703, -0.8107289671897888, -2.9551525115966797, -0.808837890625, -0.177978515625, 0.168212890625, 
13, 3824523237, 0.39618468284606934, -0.5040896534919739, -0.43386110663414, -0.6329945921897888, 9.706817626953125, 1.4400005340576172, 1.0877866744995117, -2.309699296951294, -0.8451287150382996, -2.921571969985962, -0.809814453125, -0.177001953125, 0.166748046875, 
14, 3824531570, 0.39596372842788696, -0.5040870904922485, -0.43391767144203186, -0.6330962777137756, 9.714341163635254, 1.4046597480773926, 1.0872678756713867, -2.0645713806152344, -0.6108354330062866, -2.955921173095703, -0.810791015625, -0.1787109375, 0.164794921875, 
15, 3824539903, 0.39576849341392517, -0.5040553212165833, -0.4340232312679291, -0.6331710815429688, 9.73483943939209, 1.4324442148208618, 1.0142556428909302, -1.1759624481201172, -0.6322490572929382, -3.121978521347046, -0.810791015625, -0.181396484375, 0.168701171875, 
16, 3824548236, 0.3956303298473358, -0.5039700269699097, -0.43426448106765747, -0.633159875869751, 9.73957633972168, 1.5120793581008911, 0.9318919777870178, 1.2410095930099487, -1.1840052604675293, -3.3953075408935547, -0.80859375, -0.180908203125, 0.168212890625, 
17, 3824556569, 0.39556825160980225, -0.5038366913795471, -0.43458813428878784, -0.6330826878547668, 9.76961612701416, 1.57883882522583, 0.9049633145332336, 3.0869252681732178, -1.1962231397628784, -3.255223512649536, -0.808349609375, -0.178955078125, 0.170166015625, 
18, 3824564902, 0.39543649554252625, -0.5037726163864136, -0.4347536265850067, -0.6331024765968323, 9.747285842895508, 1.5678623914718628, 0.9308391809463501, 0.32591551542282104, -0.703533411026001, -2.855257272720337, -0.807373046875, -0.177978515625, 0.168212890625, 
19, 3824573235, 0.3951595425605774, -0.5038615465164185, -0.43468984961509705, -0.6332483291625977, 9.740568161010742, 1.4927650690078735, 0.9835288524627686, -4.332456111907959, -0.7654173970222473, -2.327706813812256, -0.809326171875, -0.179931640625, 0.168701171875, 
20, 3824581568, 0.3948250114917755, -0.5040330290794373, -0.4345206916332245, -0.6334366202354431, 9.734989166259766, 1.4635971784591675, 1.0397670269012451, -6.280930519104004, -0.9814223051071167, -1.8121174573898315, -0.80859375, -0.181884765625, 0.1669921875, 
21, 3824589901, 0.39448124170303345, -0.504244327545166, -0.4343029856681824, -0.6336318254470825, 9.727179527282715, 1.4912810325622559, 1.115404486656189, -6.903689384460449, -1.021867036819458, -1.354544758796692, -0.80712890625, -0.182861328125, 0.169921875, 
22, 3824598234, 0.39413920044898987, -0.5044601559638977, -0.4340909719467163, -0.6338181495666504, 9.726366996765137, 1.482839584350586, 1.1586157083511353, -6.937065601348877, -1.1930214166641235, -1.3036236763000488, -0.80615234375, -0.181396484375, 0.166015625, 
23, 3824606567, 0.3937866985797882, -0.5046833157539368, -0.43389081954956055, -0.6339966654777527, 9.730854988098145, 1.443995475769043, 1.158090591430664, -6.777167797088623, -1.389418601989746, -1.3934142589569092, -0.80712890625, -0.183837890625, 0.1689453125, 
24, 3824614900, 0.3934488594532013, -0.5048868060112, -0.4337271749973297, -0.6341565847396851, 9.729350090026855, 1.399621844291687, 1.1371122598648071, -6.260400295257568, -1.504708170890808, -1.5321922302246094, -0.80859375, -0.182861328125, 0.16943359375, 
25, 3824623233, 0.39314350485801697, -0.5050765872001648, -0.4335525333881378, -0.6343141794204712, 9.744485855102539, 1.4067786931991577, 1.1169958114624023, -6.00063419342041, -1.1135149002075195, -1.2546749114990234, -0.8056640625, -0.18310546875, 0.166015625, 
26, 3824631566, 0.39287421107292175, -0.5052527785301208, -0.4333483576774597, -0.6344801187515259, 9.70883846282959, 1.466428518295288, 1.114875078201294, -6.027836799621582, -0.5971319079399109, -0.8494833111763, -0.80712890625, -0.183837890625, 0.1669921875, 
27, 3824639899, 0.39263439178466797, -0.5054359436035156, -0.43312931060791016, -0.6346321702003479, 9.69981575012207, 1.49575674533844, 1.1380960941314697, -6.077489852905273, -0.4955073893070221, -0.41154396533966064, -0.80712890625, -0.185791015625, 0.16845703125, 
28, 3824648232, 0.3924317955970764, -0.5056122541427612, -0.43291014432907104, -0.6347665786743164, 9.706013679504395, 1.4881958961486816, 1.1701840162277222, -5.507277965545654, -0.3405284583568573, 0.009144282899796963, -0.80615234375, -0.184814453125, 0.16845703125, 
29, 3824656565, 0.39228785037994385, -0.5057666301727295, -0.4327116012573242, -0.6348679065704346, 9.741805076599121, 1.488958716392517, 1.1498675346374512, -4.3135528564453125, -0.06753194332122803, 0.4434080421924591, -0.806640625, -0.182373046875, 0.16796875, 
30, 3824664898, 0.3922491669654846, -0.5058473944664001, -0.4325728714466095, -0.6349219679832458, 9.764400482177734, 1.4405068159103394, 1.191660761833191, -2.6720898151397705, 0.47819212079048157, 0.7447339296340942, -0.8076171875, -0.18359375, 0.16650390625, 
31, 3824673231, 0.39228883385658264, -0.5058733820915222, -0.43249890208244324, -0.6349272131919861, 9.814265251159668, 1.4576992988586426, 1.165090799331665, -0.8902227878570557, 0.7745360732078552, 0.9083960652351379, -0.80712890625, -0.183349609375, 0.1689453125, 
32, 3824681564, 0.3923867642879486, -0.50584477186203, -0.4324941337108612, -0.6348927021026611, 9.794896125793457, 1.462935209274292, 1.1459784507751465, 0.5651909112930298, 0.9062188267707825, 0.832680344581604, -0.8095703125, -0.18310546875, 0.1669921875, 
33, 3824689897, 0.3924912214279175, -0.5058096647262573, -0.4325305223464966, -0.634831428527832, 9.79031753540039, 1.4956451654434204, 1.1677018404006958, 1.237013816833496, 0.633542537689209, 0.7006261944770813, -0.8076171875, -0.184814453125, 0.1689453125, 
34, 3824698230, 0.39259961247444153, -0.5057641863822937, -0.4325862228870392, -0.634762704372406, 9.799488067626953, 1.5456292629241943, 1.1499842405319214, 1.4597039222717285, 0.5513463616371155, 0.5871294736862183, -0.8076171875, -0.18310546875, 0.166015625, 
35, 3824706563, 0.39267781376838684, -0.5057406425476074, -0.4326234757900238, -0.634707510471344, 9.794652938842773, 1.61672842502594, 1.1552342176437378, 0.9814350008964539, 0.4176144599914551, 0.5036526322364807, -0.80908203125, -0.182373046875, 0.16748046875, 
36, 3824714896, 0.3927144408226013, -0.5057542324066162, -0.43261781334877014, -0.6346779465675354, 9.789702415466309, 1.6564840078353882, 1.1142340898513794, -0.12413938343524933, 0.2123163789510727, 0.5277044177055359, -0.8076171875, -0.18408203125, 0.1669921875, 
37, 3824723229, 0.3927040100097656, -0.5058128237724304, -0.4325655400753021, -0.6346733570098877, 9.803071022033691, 1.6931637525558472, 1.1020313501358032, -1.3082340955734253, -0.013255366124212742, 0.5502705574035645, -0.80859375, -0.18310546875, 0.1669921875, 
38, 3824731562, 0.39262887835502625, -0.505915641784668, -0.4324714243412018, -0.6347020864486694, 9.849701881408691, 1.7156387567520142, 1.129623293876648, -2.5041372776031494, -0.3501337766647339, 0.3840598464012146, -0.8095703125, -0.1845703125, 0.166015625, 
39, 3824739895, 0.39250651001930237, -0.5060576796531677, -0.4323141574859619, -0.6347717046737671, 9.850885391235352, 1.6866674423217773, 1.152281641960144, -3.8386003971099854, -0.34497249126434326, 0.423057496547699, -0.8076171875, -0.184814453125, 0.16748046875, 
40, 3824748228, 0.39236781001091003, -0.5062018036842346, -0.4321417212486267, -0.6348598003387451, 9.83571720123291, 1.6478642225265503, 1.1353191137313843, -4.461205959320068, -0.26085537672042847, 0.2502382695674896, -0.80712890625, -0.180419921875, 0.16748046875, 
41, 3824756561, 0.3921894133090973, -0.5063631534576416, -0.4319538176059723, -0.6349692344665527, 9.782462120056152, 1.6209747791290283, 1.1270005702972412, -4.825133323669434, -0.3732762634754181, 0.03295271471142769, -0.80908203125, -0.1826171875, 0.166015625, 
42, 3824764894, 0.3920067548751831, -0.5065134763717651, -0.43179166316986084, -0.6350725889205933, 9.738808631896973, 1.5505379438400269, 1.110695481300354, -4.545668601989746, -0.5145259499549866, -0.20151999592781067, -0.80908203125, -0.183837890625, 0.16796875, 
43, 3824773227, 0.39179229736328125, -0.5066772699356079, -0.4316648244857788, -0.6351603865623474, 9.682822227478027, 1.502350091934204, 1.1235346794128418, -4.072958469390869, -1.0389518737792969, -0.5307654142379761, -0.8076171875, -0.183349609375, 0.16796875, 
44, 3824781560, 0.39162003993988037, -0.5068047642707825, -0.43159621953964233, -0.6352115273475647, 9.64373779296875, 1.4555680751800537, 1.1272571086883545, -3.222949743270874, -1.1211735010147095, -0.6164962649345398, -0.8076171875, -0.185546875, 0.16748046875, 
45, 3824789893, 0.3914892375469208, -0.506912887096405, -0.43158042430877686, -0.6352166533470154, 9.593688011169434, 1.4260787963867188, 1.1480835676193237, -2.458979606628418, -1.3382540941238403, -0.5511799454689026, -0.80859375, -0.18408203125, 0.1669921875, 
46, 3824798226, 0.39139074087142944, -0.5069954991340637, -0.43160930275917053, -0.6351918578147888, 9.56047534942627, 1.4101530313491821, 1.1071633100509644, -1.1654475927352905, -1.3456950187683105, -0.5092365741729736, -0.8076171875, -0.186279296875, 0.167724609375, 
47, 3824806559, 0.39133360981941223, -0.5070509910583496, -0.4316880404949188, -0.6351292133331299, 9.557913780212402, 1.4306830167770386, 1.0850074291229248, -0.014766605570912361, -1.3594112396240234, -0.46037739515304565, -0.8076171875, -0.182861328125, 0.1689453125, 
48, 3824814892, 0.39131423830986023, -0.5070757269859314, -0.4317990839481354, -0.6350458860397339, 9.528952598571777, 1.46978759765625, 1.0951932668685913, 0.7631505727767944, -1.2218631505966187, -0.4207010269165039, -0.8076171875, -0.185791015625, 0.1689453125, 
49, 3824823225, 0.391318142414093, -0.5070872902870178, -0.4319330155849457, -0.6349431276321411, 9.525299072265625, 1.427465796470642, 1.0739487409591675, 1.327086329460144, -1.1945455074310303, -0.36264634132385254, -0.80859375, -0.184326171875, 0.1689453125, 
50, 3824831558, 0.3913494944572449, -0.5070897340774536, -0.43207064270973206, -0.6348282694816589, 9.530438423156738, 1.3860217332839966, 1.0256167650222778, 1.6557809114456177, -1.0881823301315308, -0.12603484094142914, -0.80712890625, -0.182861328125, 0.169921875, 
51, 3824839891, 0.39138928055763245, -0.5071005821228027, -0.4322115182876587, -0.6346989870071411, 9.532694816589355, 1.3675771951675415, 1.0512577295303345, 1.7978118658065796, -1.2004239559173584, 0.039906978607177734, -0.806640625, -0.184326171875, 0.1689453125, 
52, 3824848224, 0.3914370834827423, -0.5071118474006653, -0.4323526620864868, -0.6345645189285278, 9.604966163635254, 1.3329017162322998, 1.0460989475250244, 1.870607614517212, -1.2235280275344849, 0.15158504247665405, -0.80908203125, -0.183837890625, 0.16796875, 
53, 3824856557, 0.39148926734924316, -0.5071442723274231, -0.43247711658477783, -0.6344214677810669, 9.623075485229492, 1.3429080247879028, 1.0314009189605713, 1.740999460220337, -1.3157391548156738, 0.46991872787475586, -0.8076171875, -0.185791015625, 0.1689453125, 
54, 3824864890, 0.3915312588214874, -0.507199764251709, -0.4325876235961914, -0.6342760324478149, 9.668060302734375, 1.3468890190124512, 1.035276174545288, 1.3900588750839233, -1.5558725595474243, 0.6361807584762573, -0.8076171875, -0.183837890625, 0.17041015625, 
55, 3824873223, 0.3915616571903229, -0.5072931051254272, -0.4326651990413666, -0.6341295838356018, 9.714690208435059, 1.3700774908065796, 1.0390334129333496, 0.8702949285507202, -1.7488760948181152, 0.9877874255180359, -0.80615234375, -0.182861328125, 0.169921875, 
56, 3824881556, 0.39157629013061523, -0.507415235042572, -0.43269848823547363, -0.6340001821517944, 9.72905158996582, 1.411320447921753, 1.0705124139785767, 0.07171985507011414, -1.771570086479187, 1.2462093830108643, -0.8056640625, -0.181884765625, 0.16845703125, 
57, 3824889889, 0.3915787935256958, -0.5075709819793701, -0.43269574642181396, -0.6338755488395691, 9.732109069824219, 1.4509921073913574, 1.071375846862793, -0.5487209558486938, -1.8828386068344116, 1.5491745471954346, -0.80859375, -0.184326171875, 0.16943359375, 
58, 3824898222, 0.3915603756904602, -0.5077453255653381, -0.43267151713371277, -0.6337639689445496, 9.728769302368164, 1.4989711046218872, 1.0735974311828613, -1.0486595630645752, -1.9888044595718384, 1.5749167203903198, -0.8056640625, -0.181884765625, 0.16796875, 
59, 3824906555, 0.39152467250823975, -0.5079249143600464, -0.4326249957084656, -0.633673906326294, 9.764710426330566, 1.5073031187057495, 1.1075116395950317, -1.5179123878479004, -1.868263840675354, 1.495461344718933, -0.8076171875, -0.180908203125, 0.17041015625, 
60, 3824914888, 0.3915001153945923, -0.5080879926681519, -0.4325781464576721, -0.6335904598236084, 9.762188911437988, 1.515695571899414, 1.1265894174575806, -1.6920890808105469, -1.6247237920761108, 1.409500002861023, -0.80712890625, -0.18505859375, 0.173828125, 
61, 3824923221, 0.391451358795166, -0.5082550644874573, -0.43250536918640137, -0.633536159992218, 9.776773452758789, 1.468030571937561, 1.1345791816711426, -1.4899929761886597, -1.3436331748962402, 1.3420580625534058, -0.80859375, -0.182861328125, 0.1708984375, 
62, 3824931554, 0.391442209482193, -0.5083757638931274, -0.43247130513191223, -0.6334681510925293, 9.753888130187988, 1.492333173751831, 1.1429353952407837, -1.0394511222839355, -1.1104282140731812, 1.1698917150497437, -0.80859375, -0.1826171875, 0.1728515625, 
63, 3824939887, 0.39145585894584656, -0.5084472894668579, -0.4324822723865509, -0.633394718170166, 9.760533332824707, 1.4634859561920166, 1.1094846725463867, -0.2194499522447586, -0.8017127513885498, 0.7719618082046509, -0.80615234375, -0.18310546875, 0.171875, 
64, 3824948220, 0.39148184657096863, -0.5084962844848633, -0.43251532316207886, -0.6333167552947998, 9.763809204101562, 1.4848514795303345, 1.145442008972168, 0.23721343278884888, -0.7071706056594849, 0.6339266896247864, -0.8076171875, -0.18115234375, 0.17578125, 
65, 3824956553, 0.39151066541671753, -0.5085350275039673, -0.4325687289237976, -0.6332314610481262, 9.814351081848145, 1.4951587915420532, 1.153832197189331, 0.5323662161827087, -0.7613702416419983, 0.49640384316444397, -0.80712890625, -0.18017578125, 0.173095703125, 
66, 3824964886, 0.3915337920188904, -0.5085657238960266, -0.432623028755188, -0.6331554055213928, 9.869729042053223, 1.5332903861999512, 1.1526092290878296, 0.6309041976928711, -0.6173414587974548, 0.3425903618335724, -0.80908203125, -0.18408203125, 0.17431640625, 
67, 3824973219, 0.39157187938690186, -0.5085795521736145, -0.4326980710029602, -0.6330694556236267, 9.912638664245605, 1.5307585000991821, 1.1438254117965698, 0.932896077632904, -0.5819681882858276, 0.2650560736656189, -0.8076171875, -0.181396484375, 0.16943359375, 
68, 3824981552, 0.39162084460258484, -0.5085828304290771, -0.4327773153781891, -0.6329823732376099, 9.934504508972168, 1.5348570346832275, 1.1487966775894165, 1.0984665155410767, -0.48401939868927, 0.28869807720184326, -0.806640625, -0.18359375, 0.171875, 
69, 3824989885, 0.3916787803173065, -0.5085634589195251, -0.4328571856021881, -0.6329074501991272, 9.928818702697754, 1.5839685201644897, 1.118425726890564, 1.2674179077148438, -0.11735161393880844, 0.15181556344032288, -0.80859375, -0.181640625, 0.1748046875, 
70, 3824998218, 0.3917478621006012, -0.5085324645042419, -0.4329352378845215, -0.6328362226486206, 9.914305686950684, 1.6063427925109863, 1.1126891374588013, 1.3209260702133179, 0.05104916915297508, 0.18316738307476044, -0.80712890625, -0.1826171875, 0.1728515625, 
71, 3825006551, 0.39183545112609863, -0.5084919929504395, -0.4329950213432312, -0.6327736377716064, 9.845237731933594, 1.6489877700805664, 1.063112735748291, 1.272950530052185, 0.42573419213294983, 0.35001853108406067, -0.80810546875, -0.181640625, 0.1748046875, 
72, 3825014884, 0.3919055461883545, -0.5084575414657593, -0.4330384135246277, -0.6327282190322876, 9.778193473815918, 1.6924771070480347, 1.0638494491577148, 0.8895823359489441, 0.4535512328147888, 0.2742772102355957, -0.80712890625, -0.18212890625, 0.17236328125, 
73, 3825023217, 0.3919270634651184, -0.5084595084190369, -0.4330300986766815, -0.6327188611030579, 9.723526000976562, 1.70834219455719, 1.0732914209365845, -0.14424654841423035, 0.4306008815765381, 0.24156783521175385, -0.80859375, -0.181640625, 0.17431640625, 
74, 3825031550, 0.39192822575569153, -0.5084954500198364, -0.43296411633491516, -0.6327342987060547, 9.674971580505371, 1.6798813343048096, 1.1065595149993896, -1.2852840423583984, 0.4456108808517456, 0.5295487642288208, -0.806640625, -0.180908203125, 0.1689453125, 
75, 3825039883, 0.39191386103630066, -0.508547842502594, -0.4328646659851074, -0.6327691674232483, 9.602241516113281, 1.6596360206604004, 1.11077880859375, -1.8895236253738403, 0.5281655192375183, 0.623219907283783, -0.806640625, -0.1806640625, 0.17236328125, 
76, 3825048216, 0.39189428091049194, -0.5086113810539246, -0.43274158239364624, -0.6328146457672119, 9.589993476867676, 1.5861988067626953, 1.112868070602417, -2.14835524559021, 0.641739010810852, 0.7494212985038757, -0.808349609375, -0.17822265625, 0.173095703125, 
77, 3825056549, 0.39190274477005005, -0.5086574554443359, -0.4326384663581848, -0.6328428983688354, 9.59183120727539, 1.4906047582626343, 1.088145136833191, -1.6784497499465942, 0.7190940380096436, 0.8330262303352356, -0.80908203125, -0.180419921875, 0.170654296875, 
78, 3825064882, 0.39194566011428833, -0.5086760520935059, -0.4325566291809082, -0.6328572630882263, 9.616703987121582, 1.4150969982147217, 1.083262324333191, -1.0311777591705322, 0.9235594868659973, 0.9078324437141418, -0.807373046875, -0.17919921875, 0.173095703125, 
79, 3825073215, 0.39201101660728455, -0.5086998343467712, -0.43246564269065857, -0.6328598856925964, 9.611540794372559, 1.4218889474868774, 1.0392746925354004, -0.9132882952690125, 0.9783357381820679, 1.261168122291565, -0.80517578125, -0.18212890625, 0.17431640625, 
80, 3825081548, 0.39209437370300293, -0.5087281465530396, -0.43235352635383606, -0.6328619718551636, 9.625566482543945, 1.4424117803573608, 0.9958778619766235, -1.0452016592025757, 1.1755397319793701, 1.5754802227020264, -0.80810546875, -0.181640625, 0.1728515625, 
81, 3825089881, 0.39220187067985535, -0.5087840557098389, -0.43219444155693054, -0.6328591108322144, 9.636123657226562, 1.4366251230239868, 0.9906238913536072, -1.228637933731079, 1.3229880332946777, 2.327014684677124, -0.8076171875, -0.18115234375, 0.171875, 
82, 3825098214, 0.3923439085483551, -0.5088555812835693, -0.4320208430290222, -0.6328322291374207, 9.585139274597168, 1.4568397998809814, 0.9786183834075928, -1.1747585535049438, 1.2570953369140625, 2.948633909225464, -0.806640625, -0.1796875, 0.170654296875, 
83, 3825106547, 0.3925085961818695, -0.5089451670646667, -0.4318506121635437, -0.6327742338180542, 9.626585960388184, 1.443642020225525, 0.9770089387893677, -0.8745339512825012, 1.0300507545471191, 3.3877129554748535, -0.807861328125, -0.1796875, 0.172607421875, 
84, 3825114880, 0.39267849922180176, -0.5090562701225281, -0.43168455362319946, -0.6326928734779358, 9.666685104370117, 1.4593321084976196, 0.978343665599823, -0.8059134483337402, 0.6558268666267395, 3.6676766872406006, -0.806640625, -0.1787109375, 0.173583984375, 
85, 3825123213, 0.39283373951911926, -0.5091989636421204, -0.4315062165260315, -0.632603108882904, 9.675816535949707, 1.4329581260681152, 0.9914358258247375, -1.1377969980239868, 0.32988572120666504, 3.8457722663879395, -0.806640625, -0.18017578125, 0.17236328125, 
86, 3825131546, 0.39298486709594727, -0.5093457698822021, -0.43128955364227295, -0.6325387954711914, 9.73558235168457, 1.389935851097107, 0.9630753397941589, -1.6706502437591553, 0.6282659769058228, 3.9788899421691895, -0.80810546875, -0.18017578125, 0.172119140625, 
87, 3825139879, 0.39312344789505005, -0.5094943046569824, -0.43102777004241943, -0.632511556148529, 9.791474342346191, 1.3782192468643188, 0.9573107957839966, -2.3144125938415527, 1.0777701139450073, 3.9895455837249756, -0.80712890625, -0.1787109375, 0.170654296875, 
88, 3825148212, 0.39319807291030884, -0.5096450448036194, -0.4307432174682617, -0.6325376629829407, 9.790231704711914, 1.3921550512313843, 0.997612714767456, -3.355478048324585, 1.1406275033950806, 3.324164390563965, -0.809814453125, -0.179443359375, 0.171142578125, 
89, 3825156545, 0.3931947648525238, -0.5098483562469482, -0.43042442202568054, -0.6325926780700684, 9.768350601196289, 1.4366544485092163, 1.0394998788833618, -4.71792459487915, 0.6278561353683472, 3.019252300262451, -0.807861328125, -0.17578125, 0.170654296875, 
90, 3825164878, 0.39308595657348633, -0.5101033449172974, -0.4300495982170105, -0.6327097415924072, 9.753554344177246, 1.464982509613037, 1.1057385206222534, -6.529978275299072, 0.2747126519680023, 2.4858357906341553, -0.809326171875, -0.1767578125, 0.170654296875, 
91, 3825173211, 0.39286336302757263, -0.5104116797447205, -0.42963194847106934, -0.6328829526901245, 9.725260734558105, 1.423962950706482, 1.1728036403656006, -8.3351411819458, -0.21489064395427704, 1.7917927503585815, -0.805419921875, -0.17626953125, 0.171142578125, 
92, 3825181544, 0.39256995916366577, -0.5107249021530151, -0.429192453622818, -0.6331104636192322, 9.761392593383789, 1.3909186124801636, 1.2115086317062378, -9.354165077209473, -0.1995605230331421, 1.0822911262512207, -0.808837890625, -0.177001953125, 0.169189453125, 
93, 3825189877, 0.392238587141037, -0.5110146999359131, -0.42874932289123535, -0.633382260799408, 9.769742965698242, 1.3103593587875366, 1.2446720600128174, -9.820050239562988, 0.13209262490272522, 0.3816777169704437, -0.810302734375, -0.177978515625, 0.169677734375, 
94, 3825198210, 0.39188113808631897, -0.5112918019294739, -0.42835187911987305, -0.6336488723754883, 9.74953556060791, 1.2166669368743896, 1.2520712614059448, -9.473030090332031, -0.2152748852968216, -0.1967557966709137, -0.808349609375, -0.177490234375, 0.168701171875, 
95, 3825206543, 0.39152586460113525, -0.5115441083908081, -0.4280538558959961, -0.6338661909103394, 9.758811950683594, 1.1468173265457153, 1.2642791271209717, -8.16875171661377, -0.8690781593322754, -0.7567341327667236, -0.807373046875, -0.177978515625, 0.168212890625, 
96, 3825214876, 0.39121752977371216, -0.5117484331130981, -0.42786261439323425, -0.6340207457542419, 9.803861618041992, 1.067050814628601, 1.2811899185180664, -6.235132217407227, -1.160107135772705, -1.0521430969238281, -0.809814453125, -0.176513671875, 0.167236328125, 
97, 3825223209, 0.3909693956375122, -0.5118798017501831, -0.427785187959671, -0.6341200470924377, 9.861578941345215, 0.990628719329834, 1.305064082145691, -3.913471221923828, -1.1433424949645996, -1.4380855560302734, -0.809814453125, -0.17919921875, 0.171630859375, 
98, 3825231542, 0.3908371925354004, -0.5119185447692871, -0.42783889174461365, -0.6341341137886047, 9.920191764831543, 0.9626816511154175, 1.2843806743621826, -1.1859261989593506, -1.0162575244903564, -1.4498298168182373, -0.808349609375, -0.177490234375, 0.169189453125, 
99, 3825239875, 0.3908323645591736, -0.5118622183799744, -0.4280271828174591, -0.6340555548667908, 9.986260414123535, 0.9476139545440674, 1.2406432628631592, 1.9392794370651245, -0.8140844702720642, -1.3481158018112183, -0.808837890625, -0.178466796875, 0.168701171875, 
100, 3825248208, 0.3909686207771301, -0.5117045640945435, -0.42836636304855347, -0.6338696479797363, 9.988096237182617, 0.9815531969070435, 1.195082664489746, 5.423455715179443, -0.64349365234375, -1.2165096998214722, -0.809814453125, -0.178955078125, 0.169189453125, 
101, 3825256541, 0.3912411332130432, -0.5114473104476929, -0.4288525879383087, -0.6335800886154175, 9.969295501708984, 1.0451102256774902, 1.0906760692596436, 8.768163681030273, -0.4973900616168976, -1.099068522453308, -0.809326171875, -0.179443359375, 0.167236328125, 
102, 3825264874, 0.3916224539279938, -0.5111045241355896, -0.4294476807117462, -0.6332179307937622, 9.915157318115234, 1.2079628705978394, 1.058944821357727, 11.413345336914062, -0.22634020447731018, -1.008163571357727, -0.808837890625, -0.17822265625, 0.171630859375, 
103, 3825273207, 0.3920642137527466, -0.5107241868972778, -0.43009889125823975, -0.6328094005584717, 9.850130081176758, 1.3312510251998901, 1.0566209554672241, 12.79456901550293, -0.1471410095691681, -0.8670035600662231, -0.808837890625, -0.178955078125, 0.170166015625, 
104, 3825281540, 0.3925125002861023, -0.5103464722633362, -0.4307505488395691, -0.6323928236961365, 9.814573287963867, 1.476435661315918, 1.0148204565048218, 12.885895729064941, -0.21101009845733643, -0.7349750399589539, -0.808349609375, -0.1767578125, 0.172119140625, 
105, 3825289873, 0.39290738105773926, -0.5100242495536804, -0.43133631348609924, -0.6320081353187561, 9.777626037597656, 1.5565452575683594, 0.9973254799842834, 11.420671463012695, -0.4128630757331848, -0.6028950810432434, -0.809814453125, -0.17626953125, 0.17431640625, 
106, 3825298206, 0.39321261644363403, -0.5097525715827942, -0.4318130910396576, -0.631712019443512, 9.773770332336426, 1.6589667797088623, 0.9435220956802368, 9.077583312988281, -0.19304171204566956, -0.7748947143554688, -0.807861328125, -0.17822265625, 0.173095703125, 
107, 3825306539, 0.39342987537384033, -0.5095539689064026, -0.4321571886539459, -0.6315016150474548, 9.742958068847656, 1.6982988119125366, 0.9064850211143494, 6.328944206237793, -0.019415590912103653, -0.6635110974311829, -0.809326171875, -0.177734375, 0.172607421875, 
108, 3825314872, 0.3935341238975525, -0.5094455480575562, -0.43236398696899414, -0.6313825249671936, 9.730499267578125, 1.6838136911392212, 0.9140348434448242, 3.3875086307525635, -0.10305888950824738, -0.6163938641548157, -0.807861328125, -0.17919921875, 0.173095703125, 
109, 3825323205, 0.39353540539741516, -0.5094144344329834, -0.4324444532394409, -0.6313515305519104, 9.72200870513916, 1.681118369102478, 0.927873969078064, 0.6050851345062256, -0.06686597317457199, -0.6614492535591125, -0.809326171875, -0.17578125, 0.17529296875, 
110, 3825331538, 0.3934551179409027, -0.5094423890113831, -0.4324333369731903, -0.6313866376876831, 9.732858657836914, 1.6641660928726196, 0.9062222838401794, -1.4526985883712769, -0.12490782141685486, -0.714701235294342, -0.807373046875, -0.17724609375, 0.175048828125, 
111, 3825339871, 0.39332619309425354, -0.5095123648643494, -0.43235424160957336, -0.6314646601676941, 9.76828384399414, 1.6679917573928833, 0.923681378364563, -2.844550609588623, -0.08295169472694397, -0.6562751531600952, -0.806640625, -0.17919921875, 0.174072265625, 
112, 3825348204, 0.3931786119937897, -0.5096076130867004, -0.43222126364707947, -0.6315707564353943, 9.775697708129883, 1.6374695301055908, 0.9432678818702698, -3.7683277130126953, 0.04638737812638283, -0.42943546175956726, -0.808349609375, -0.17431640625, 0.17431640625, 
113, 3825356537, 0.3930211663246155, -0.5097158551216125, -0.4320465326309204, -0.6317009925842285, 9.77465534210205, 1.5712406635284424, 0.9545987248420715, -4.349745273590088, 0.3035799264907837, -0.2835880219936371, -0.807861328125, -0.17919921875, 0.174560546875, 
114, 3825364870, 0.3928786516189575, -0.5098186731338501, -0.43186429142951965, -0.6318312883377075, 9.761795043945312, 1.5313307046890259, 0.9746688604354858, -4.346646308898926, 0.4471733570098877, -0.12618853151798248, -0.805908203125, -0.17724609375, 0.170654296875, 
115, 3825373203, 0.3927657902240753, -0.5099195837974548, -0.4316897690296173, -0.6319394111633301, 9.773317337036133, 1.4988892078399658, 0.9830310940742493, -3.9267773628234863, 0.44310063123703003, 0.1872144341468811, -0.808349609375, -0.1767578125, 0.173583984375, 
116, 3825381536, 0.3927086889743805, -0.5099966526031494, -0.4315353035926819, -0.6320180892944336, 9.78381633758545, 1.4889291524887085, 1.0089911222457886, -3.0957491397857666, 0.6857955455780029, 0.5283704996109009, -0.806884765625, -0.17578125, 0.174072265625, 
117, 3825389869, 0.39269959926605225, -0.5100454688072205, -0.43140527606010437, -0.632073163986206, 9.786351203918457, 1.4732105731964111, 1.0122417211532593, -2.2264535427093506, 0.922163724899292, 0.7378693222999573, -0.807373046875, -0.17822265625, 0.172607421875, 
118, 3825398202, 0.39274072647094727, -0.5100578665733337, -0.431327760219574, -0.6320905685424805, 9.724418640136719, 1.4688506126403809, 1.0302239656448364, -0.9883636236190796, 0.9657847285270691, 0.8080521821975708, -0.806884765625, -0.17822265625, 0.175048828125, 
119, 3825406535, 0.3928014039993286, -0.5100552439689636, -0.43126827478408813, -0.6320953965187073, 9.700628280639648, 1.4770334959030151, 1.0474480390548706, -0.4419351816177368, 1.0649373531341553, 0.8289022445678711, -0.809326171875, -0.17822265625, 0.172119140625, 
120, 3825414868, 0.3928808569908142, -0.5100388526916504, -0.4312181770801544, -0.6320933699607849, 9.69640064239502, 1.4898442029953003, 1.047362208366394, -0.21238042414188385, 1.1578658819198608, 0.8838447332382202, -0.808349609375, -0.17724609375, 0.171142578125, 
121, 3825423201, 0.3929572105407715, -0.5100236535072327, -0.4311557412147522, -0.6321008205413818, 9.677947044372559, 1.4861676692962646, 1.037834644317627, -0.4404751658439636, 1.2822484970092773, 0.8804892897605896, -0.808349609375, -0.176513671875, 0.169189453125, 
122, 3825431534, 0.39299681782722473, -0.5100135207176208, -0.4310557544231415, -0.6321525573730469, 9.676353454589844, 1.4504380226135254, 1.0011160373687744, -1.2762677669525146, 1.5163627862930298, 0.63461834192276, -0.809326171875, -0.17822265625, 0.171630859375, 
123, 3825439867, 0.3929961919784546, -0.5100339651107788, -0.43091917037963867, -0.6322296261787415, 9.662627220153809, 1.4313859939575195, 0.9970450401306152, -2.1436426639556885, 1.4170308113098145, 0.5768325328826904, -0.807861328125, -0.1787109375, 0.173583984375, 
124, 3825448200, 0.39296773076057434, -0.5100804567337036, -0.4307544231414795, -0.6323221325874329, 9.666078567504883, 1.4246108531951904, 0.9975346922874451, -2.8650929927825928, 1.2545851469039917, 0.6118472218513489, -0.807373046875, -0.17626953125, 0.173095703125, 
125, 3825456533, 0.3929283022880554, -0.5101539492607117, -0.4305720031261444, -0.6324114799499512, 9.684394836425781, 1.4007736444473267, 1.0123999118804932, -3.2781741619110107, 1.0443692207336426, 0.7978835105895996, -0.809814453125, -0.177734375, 0.173095703125, 
126, 3825464866, 0.392859548330307, -0.5102495551109314, -0.4303838014602661, -0.6325051188468933, 9.709514617919922, 1.4045859575271606, 1.0181505680084229, -3.6239912509918213, 0.7241142988204956, 0.7100008130073547, -0.808837890625, -0.1748046875, 0.1728515625, 
127, 3825473199, 0.3928036689758301, -0.5103490948677063, -0.43018221855163574, -0.6325967311859131, 9.757174491882324, 1.3844369649887085, 1.0110417604446411, -3.599837064743042, 0.8563351035118103, 0.9434747695922852, -0.807373046875, -0.17529296875, 0.169677734375, 
128, 3825481532, 0.3927536606788635, -0.5104478597640991, -0.4299805760383606, -0.6326851844787598, 9.761446952819824, 1.3745704889297485, 0.9853793382644653, -3.5941765308380127, 0.8445525169372559, 1.0159885883331299, -0.808349609375, -0.178466796875, 0.170166015625, 
129, 3825489865, 0.39270272850990295, -0.5105495452880859, -0.4297914206981659, -0.6327632665634155, 9.751431465148926, 1.3367595672607422, 1.0056029558181763, -3.4495327472686768, 0.671784520149231, 0.9913476705551147, -0.807861328125, -0.177490234375, 0.170166015625, 
130, 3825498198, 0.39266499876976013, -0.5106515884399414, -0.42964187264442444, -0.6328058838844299, 9.746077537536621, 1.365675926208496, 1.0159529447555542, -2.8955228328704834, 0.2961518168449402, 0.9978794455528259, -0.809326171875, -0.17041015625, 0.169677734375, 
131, 3825506531, 0.39263927936553955, -0.5107459425926208, -0.4295347034931183, -0.6328185200691223, 9.716297149658203, 1.3812165260314941, 1.025708794593811, -2.6232049465179443, -0.061141178011894226, 0.8721006512641907, -0.810791015625, -0.177001953125, 0.16845703125, 
132, 3825514864, 0.3925912082195282, -0.5108469128608704, -0.42945101857185364, -0.632823646068573, 9.725747108459473, 1.393662691116333, 1.0564240217208862, -2.073561906814575, -0.38596808910369873, 0.6671227812767029, -0.807861328125, -0.17724609375, 0.171142578125, 
133, 3825523197, 0.39256423711776733, -0.5108866691589355, -0.4294058382511139, -0.632838785648346, 9.745039939880371, 1.4881489276885986, 1.046074628829956, -1.390174150466919, 0.14856255054473877, 0.14156986773014069, -0.809326171875, -0.1787109375, 0.173095703125, 
134, 3825531530, 0.39255112409591675, -0.5108575224876404, -0.4294264614582062, -0.6328564882278442, 9.695384979248047, 1.5636043548583984, 1.0105249881744385, -0.29193824529647827, 0.4788837134838104, -0.5979002714157104, -0.808349609375, -0.1767578125, 0.171142578125, 
135, 3825539863, 0.3925318419933319, -0.5107597708702087, -0.42956867814064026, -0.6328508853912354, 9.709875106811523, 1.662284016609192, 0.985653817653656, 1.229252815246582, 0.21802836656570435, -1.7859396934509277, -0.811279296875, -0.177978515625, 0.171142578125, 
136, 3825548196, 0.3924482762813568, -0.5106320381164551, -0.42979907989501953, -0.6328494548797607, 9.811824798583984, 1.8270046710968018, 0.9888188242912292, 1.7027320861816406, -0.3181160092353821, -3.175896167755127, -0.810302734375, -0.177001953125, 0.170166015625, 
137, 3825556529, 0.39226076006889343, -0.5104874968528748, -0.4300321936607361, -0.6329237818717957, 9.876871109008789, 1.9628288745880127, 0.9950184226036072, 0.5706852078437805, -0.27884939312934875, -4.614955425262451, -0.80615234375, -0.177734375, 0.170166015625, 
138, 3825564862, 0.3920021951198578, -0.5102050304412842, -0.43025076389312744, -0.6331632733345032, 9.811311721801758, 2.105086326599121, 0.8959212303161621, -0.2390192151069641, 1.7188687324523926, -6.819520950317383, -0.808349609375, -0.1787109375, 0.173095703125, 
139, 3825573195, 0.39156681299209595, -0.5099339485168457, -0.4306727349758148, -0.6333640813827515, 9.825444221496582, 2.255678176879883, 0.7552803754806519, 0.5059068202972412, -0.7598335146903992, -9.513806343078613, -0.80810546875, -0.1806640625, 0.171630859375, 
140, 3825581528, 0.3909022808074951, -0.5096611380577087, -0.43116024136543274, -0.6336624026298523, 9.966931343078613, 2.4374020099639893, 0.8812946677207947, -1.1449437141418457, -1.803767442703247, -12.500862121582031, -0.80712890625, -0.180908203125, 0.16796875, 
141, 3825589861, 0.38998374342918396, -0.5093209743499756, -0.4314379394054413, -0.6343125104904175, 10.029851913452148, 2.5982699394226074, 0.9338840842247009, -6.35052490234375, 0.9149150848388672, -15.52564811706543, -0.80712890625, -0.182373046875, 0.169921875, 
142, 3825598194, 0.38877227902412415, -0.5089601278305054, -0.43171629309654236, -0.635155975818634, 9.91750431060791, 2.7258095741271973, 0.6559926271438599, -9.559224128723145, 0.6647153496742249, -19.253679275512695, -0.80712890625, -0.185302734375, 0.17138671875, 
143, 3825606527, 0.38720566034317017, -0.5085576772689819, -0.43205317854881287, -0.6362053751945496, 9.831932067871094, 2.810190200805664, 0.46450409293174744, -12.53081226348877, 0.0738971158862114, -24.116470336914062, -0.8046875, -0.189208984375, 0.170166015625, 
144, 3825614860, 0.3851137161254883, -0.508211076259613, -0.4324781596660614, -0.6374620795249939, 9.85012149810791, 3.1846556663513184, 0.49427756667137146, -16.967641830444336, -2.5819814205169678, -30.097436904907227, -0.805908203125, -0.19140625, 0.16845703125, 
145, 3825623193, 0.3823041021823883, -0.5080546140670776, -0.432830274105072, -0.6390369534492493, 10.018285751342773, 3.765712022781372, 0.9598264694213867, -25.657350540161133, -5.898264408111572, -36.449954986572266, -0.802490234375, -0.1962890625, 0.166748046875, 
146, 3825631526, 0.3785519599914551, -0.508236289024353, -0.4325726330280304, -0.6412965655326843, 10.254128456115723, 4.010700702667236, 1.3077244758605957, -43.31673812866211, -6.501412391662598, -42.04344940185547, -0.80029296875, -0.20068359375, 0.1669921875, 
147, 3825639859, 0.37388429045677185, -0.5088849067687988, -0.43197211623191833, -0.6439201831817627, 10.357796669006348, 3.8141067028045654, 1.1356167793273926, -57.24393844604492, -11.688460350036621, -46.8193244934082, -0.797119140625, -0.211181640625, 0.16455078125, 
148, 3825648192, 0.36859214305877686, -0.5098152160644531, -0.4313339591026306, -0.6466573476791382, 10.492433547973633, 3.214113473892212, 0.9625582098960876, -64.16112518310547, -16.951425552368164, -51.01515579223633, -0.795654296875, -0.215087890625, 0.162353515625, 
149, 3825656525, 0.363080233335495, -0.510699450969696, -0.43078890442848206, -0.64943528175354, 10.666692733764648, 2.587742567062378, 0.7917183637619019, -64.88280487060547, -18.029834747314453, -54.10195541381836, -0.79296875, -0.22509765625, 0.163330078125, 
150, 3825664858, 0.35771825909614563, -0.5112727284431458, -0.43077048659324646, -0.6519671082496643, 10.609040260314941, 2.2321231365203857, 0.6338095664978027, -56.21961975097656, -18.71324348449707, -57.0739860534668, -0.788818359375, -0.236328125, 0.16162109375, 
151, 3825673191, 0.35236895084381104, -0.5116543173789978, -0.43104925751686096, -0.6543918251991272, 10.285865783691406, 1.980769157409668, 0.9432372450828552, -51.794952392578125, -19.115283966064453, -59.645660400390625, -0.7841796875, -0.244384765625, 0.15869140625, 
152, 3825681524, 0.34700265526771545, -0.5118568539619446, -0.43132734298706055, -0.6569129824638367, 9.889690399169922, 1.6942527294158936, 1.1776043176651, -51.61604309082031, -16.95128059387207, -61.33680725097656, -0.779541015625, -0.25244140625, 0.1572265625, 
153, 3825689857, 0.3419339060783386, -0.51164710521698, -0.43187853693962097, -0.659367561340332, 9.520371437072754, 1.7022026777267456, 0.9898350834846497, -44.69947814941406, -13.206552505493164, -62.686222076416016, -0.775146484375, -0.262451171875, 0.1611328125, 
154, 3825698190, 0.33692505955696106, -0.5111410617828369, -0.43258705735206604, -0.6618693470954895, 9.208173751831055, 2.1121230125427246, 0.9004186391830444, -41.73048400878906, -10.599008560180664, -65.24317169189453, -0.7734375, -0.27197265625, 0.1572265625, 
155, 3825706523, 0.33154791593551636, -0.5107405185699463, -0.4330329895019531, -0.6645966172218323, 8.922693252563477, 2.28361439704895, 1.132264494895935, -48.5496826171875, -10.921195030212402, -67.1545639038086, -0.768798828125, -0.282470703125, 0.15283203125, 
156, 3825714856, 0.32585012912750244, -0.5105295777320862, -0.43291980028152466, -0.6676437258720398, 8.868680953979492, 1.9571276903152466, 1.449264645576477, -58.669105529785156, -9.796833992004395, -66.50114440917969, -0.76513671875, -0.291259765625, 0.1552734375, 
157, 3825723189, 0.32027703523635864, -0.5104143619537354, -0.4322061538696289, -0.6708828806877136, 9.256576538085938, 1.3543972969055176, 1.7378818988800049, -64.89083099365234, -5.866123199462891, -61.41572189331055, -0.757568359375, -0.2998046875, 0.150634765625, 
158, 3825731522, 0.31569018959999084, -0.5097919702529907, -0.43053168058395386, -0.6745966672897339, 9.898346900939941, 0.44089585542678833, 2.886425495147705, -67.41016387939453, 12.210793495178223, -50.69272232055664, -0.75634765625, -0.308349609375, 0.14599609375, 
159, 3825739855, 0.31101173162460327, -0.5099320411682129, -0.4280819296836853, -0.6782131195068359, 9.693588256835938, -0.20648638904094696, 3.0453414916992188, -77.98278045654297, 7.301362037658691, -41.16132354736328, -0.754150390625, -0.316650390625, 0.1396484375, 
160, 3825748188, 0.30683258175849915, -0.5105888247489929, -0.4260912835597992, -0.6808709502220154, 9.565154075622559, 0.13052088022232056, 2.232936382293701, -66.76204681396484, -3.2870521545410156, -32.59029006958008, -0.751953125, -0.322265625, 0.133544921875, 
161, 3825756521, 0.3040448725223541, -0.5107892751693726, -0.42378464341163635, -0.6834059953689575, 10.29687786102295, 0.3757668733596802, 2.516390085220337, -57.31013107299805, 9.626629829406738, -19.497814178466797, -0.75048828125, -0.32861328125, 0.126220703125, 
162, 3825764854, 0.30227935314178467, -0.511005163192749, -0.4206283986568451, -0.6859729886054993, 10.655289649963379, 0.4148467183113098, 2.4833881855010986, -58.35908889770508, 19.19927406311035, -3.969296932220459, -0.74951171875, -0.329833984375, 0.121337890625, 
163, 3825773187, 0.30143678188323975, -0.5110567212104797, -0.41631340980529785, -0.6889311671257019, 10.520928382873535, 0.23782037198543549, 2.4523468017578125, -64.38908386230469, 33.66908264160156, 10.298393249511719, -0.74951171875, -0.3291015625, 0.116455078125, 
164, 3825781520, 0.3016974627971649, -0.5106358528137207, -0.41112154722213745, -0.6922391653060913, 10.27172565460205, -0.5361942052841187, 2.528500556945801, -64.98333740234375, 50.53763961791992, 22.764488220214844, -0.750244140625, -0.32958984375, 0.107177734375, 
165, 3825789853, 0.3030884861946106, -0.5100387930870056, -0.4053800702095032, -0.6954501867294312, 9.859199523925781, -1.6179938316345215, 2.690674066543579, -60.9927978515625, 60.21841812133789, 36.7755241394043, -0.75537109375, -0.328125, 0.09765625, 
166, 3825798186, 0.3055095374584198, -0.5097110867500305, -0.3989449739456177, -0.6983463764190674, 9.425400733947754, -2.6190552711486816, 3.0200326442718506, -59.7755012512207, 64.05415344238281, 54.32017135620117, -0.759033203125, -0.31640625, 0.0869140625, 
167, 3825806519, 0.30912768840789795, -0.509715735912323, -0.39201822876930237, -0.7006696462631226, 9.09869384765625, -3.055750608444214, 3.017957925796509, -54.243648529052734, 65.51722717285156, 73.48677825927734, -0.765869140625, -0.316162109375, 0.074462890625, 
168, 3825814852, 0.31394365429878235, -0.5100458264350891, -0.3850073218345642, -0.7021741271018982, 8.99760627746582, -3.0131208896636963, 2.949432373046875, -43.74298858642578, 63.419742584228516, 90.85950469970703, -0.771484375, -0.306884765625, 0.061767578125, 
169, 3825823185, 0.31978023052215576, -0.5105862617492676, -0.37792259454727173, -0.7029959559440613, 9.213068008422852, -2.755204200744629, 2.7495758533477783, -34.585601806640625, 62.3289680480957, 105.25131225585938, -0.777099609375, -0.2939453125, 0.0546875, 
170, 3825831518, 0.3265704810619354, -0.511175274848938, -0.3709917366504669, -0.7031379342079163, 9.52502727508545, -2.395402431488037, 2.5023274421691895, -23.087766647338867, 61.358970642089844, 116.67514038085938, -0.783203125, -0.28125, 0.045166015625, 
171, 3825839851, 0.33407074213027954, -0.5118107199668884, -0.36398231983184814, -0.7028155326843262, 9.829946517944336, -2.123441219329834, 2.5309054851531982, -16.685932159423828, 61.62342834472656, 126.35955047607422, -0.7939453125, -0.266845703125, 0.036376953125, 
172, 3825848184, 0.3420158624649048, -0.5125067234039307, -0.35663139820098877, -0.7022553086280823, 10.07912826538086, -1.9035054445266724, 2.469940185546875, -15.954099655151367, 63.15802764892578, 134.5157012939453, -0.801025390625, -0.24951171875, 0.028076171875, 
173, 3825856517, 0.35033953189849854, -0.5130296945571899, -0.3489834666252136, -0.7016120553016663, 10.101837158203125, -1.745424509048462, 2.395321846008301, -14.919239044189453, 67.49971771240234, 139.74032592773438, -0.809326171875, -0.229736328125, 0.020263671875, 
174, 3825864850, 0.3589198589324951, -0.5135067701339722, -0.3412540555000305, -0.700727641582489, 9.971787452697754, -1.6775161027908325, 2.200444459915161, -12.528599739074707, 67.86508178710938, 143.79928588867188, -0.816162109375, -0.2109375, 0.011474609375, 
175, 3825873183, 0.367442786693573, -0.5143596529960632, -0.33324915170669556, -0.6995364427566528, 9.930087089538574, -1.6962941884994507, 2.661849021911621, -15.862610816955566, 63.17887496948242, 148.4276885986328, -0.8251953125, -0.192626953125, 0.00390625, 
176, 3825881516, 0.3760700821876526, -0.5153944492340088, -0.3250579535961151, -0.6980426907539368, 10.137325286865234, -1.3902099132537842, 3.065274715423584, -16.590442657470703, 60.696571350097656, 153.15322875976562, -0.83251953125, -0.172607421875, -0.005859375, 
177, 3825889849, 0.38486966490745544, -0.5164204835891724, -0.31676897406578064, -0.6962965130805969, 10.459189414978027, -0.9402020573616028, 3.1582789421081543, -14.964925765991211, 60.27580642700195, 156.7291259765625, -0.83984375, -0.149658203125, -0.013916015625, 
178, 3825898182, 0.3938196897506714, -0.5173356533050537, -0.30849912762641907, -0.6943231225013733, 10.70470905303955, -0.6304658055305481, 3.0685737133026123, -12.305827140808105, 60.26894760131836, 158.79074096679688, -0.84521484375, -0.12939453125, -0.023193359375, 
179, 3825906515, 0.40280431509017944, -0.5181123614311218, -0.30021238327026367, -0.6922188401222229, 10.933382987976074, -0.5574585795402527, 3.1127548217773438, -10.896062850952148, 60.897701263427734, 159.279052734375, -0.8525390625, -0.106689453125, -0.02880859375, 
180, 3825914848, 0.41173750162124634, -0.5187087059020996, -0.2919585406780243, -0.6900436282157898, 11.11095905303955, -0.6583873629570007, 3.01716685295105, -9.67651081085205, 61.71614074707031, 158.2890625, -0.857177734375, -0.085205078125, -0.03466796875, 
181, 3825923181, 0.42068782448768616, -0.519098699092865, -0.28390008211135864, -0.6877102255821228, 11.124672889709473, -0.8915709853172302, 2.9390997886657715, -5.875322341918945, 61.50541687011719, 157.03768920898438, -0.863525390625, -0.0625, -0.046142578125, 
182, 3825931514, 0.4297080338001251, -0.5192612409591675, -0.2761465311050415, -0.6851629614830017, 11.182716369628906, -1.1037938594818115, 3.0819149017333984, -0.36392316222190857, 60.64106369018555, 155.95767211914062, -0.866455078125, -0.043212890625, -0.052978515625, 
183, 3825939847, 0.4387485682964325, -0.5192273259162903, -0.2685113251209259, -0.6824883818626404, 11.231636047363281, -1.0892642736434937, 3.35231876373291, 2.5632283687591553, 60.95966339111328, 155.22470092773438, -0.86865234375, -0.019287109375, -0.059326171875, 
184, 3825948180, 0.4477052390575409, -0.5190702080726624, -0.2608492374420166, -0.679757297039032, 11.265485763549805, -1.0467768907546997, 3.4007787704467773, 2.6406362056732178, 61.563724517822266, 154.60067749023438, -0.87451171875, 0.000244140625, -0.06591796875, 
185, 3825956513, 0.45652279257774353, -0.5188900232315063, -0.2531827986240387, -0.6769230961799622, 11.193531036376953, -1.2662230730056763, 3.313796043395996, 2.14455246925354, 60.57185363769531, 153.79736328125, -0.875732421875, 0.021484375, -0.078369140625, 
186, 3825964846, 0.4652101993560791, -0.518683135509491, -0.2457064539194107, -0.673915445804596, 11.002455711364746, -1.7162818908691406, 3.2186782360076904, 3.7318127155303955, 57.93779754638672, 152.31216430664062, -0.875732421875, 0.04541015625, -0.08447265625, 
187, 3825973179, 0.4738597571849823, -0.518388569355011, -0.23857465386390686, -0.6706702709197998, 10.797388076782227, -2.086562395095825, 3.1442174911499023, 8.04590892791748, 54.72306823730469, 150.6415252685547, -0.88037109375, 0.0673828125, -0.0888671875, 
188, 3825981512, 0.48254501819610596, -0.5179709196090698, -0.23185844719409943, -0.6671465039253235, 10.641745567321777, -2.3911244869232178, 3.1299397945404053, 13.821784973144531, 51.28123092651367, 149.5052490234375, -0.880859375, 0.088623046875, -0.0986328125, 
189, 3825989845, 0.4912674129009247, -0.5173971652984619, -0.22544395923614502, -0.6634136438369751, 10.487106323242188, -2.6005399227142334, 3.1725027561187744, 18.587003707885742, 49.341583251953125, 148.5003662109375, -0.878173828125, 0.1083984375, -0.103759765625, 
190, 3825998178, 0.5000649094581604, -0.5166052579879761, -0.21934835612773895, -0.6594896912574768, 10.312965393066406, -2.727133274078369, 3.2004554271698, 24.06633949279785, 48.04844665527344, 147.6150665283203, -0.8798828125, 0.12890625, -0.109619140625, 
191, 3826006511, 0.5089080929756165, -0.5156425833702087, -0.2134600430727005, -0.6553980112075806, 10.161382675170898, -2.8040997982025146, 3.369436025619507, 27.982620239257812, 47.12073516845703, 147.11183166503906, -0.87939453125, 0.15234375, -0.115478515625, 
192, 3826014844, 0.5176378488540649, -0.5146444439888, -0.2074294537305832, -0.651269257068634, 9.991564750671387, -2.748790979385376, 3.680875062942505, 26.221961975097656, 47.838104248046875, 147.3383331298828, -0.878662109375, 0.1708984375, -0.1181640625, 
193, 3826023177, 0.5261832475662231, -0.5135951042175293, -0.20116949081420898, -0.6472005844116211, 9.746599197387695, -2.79899525642395, 3.5185561180114746, 23.088478088378906, 49.829139709472656, 146.65281677246094, -0.87548828125, 0.190673828125, -0.125, 
194, 3826031510, 0.5345337390899658, -0.5124931931495667, -0.19453315436840057, -0.643247663974762, 9.524527549743652, -2.9794349670410156, 3.327662944793701, 18.389537811279297, 53.29978561401367, 146.6778564453125, -0.875244140625, 0.212158203125, -0.132080078125, 
195, 3826039843, 0.5425010919570923, -0.5114923715591431, -0.18729211390018463, -0.6395123600959778, 9.049972534179688, -3.2689037322998047, 3.2054710388183594, 9.049333572387695, 57.35921096801758, 146.1379852294922, -0.8720703125, 0.23193359375, -0.140625, 
196, 3826048176, 0.5500795245170593, -0.5109099745750427, -0.17993764579296112, -0.6356039643287659, 8.462712287902832, -3.409825563430786, 3.260230302810669, 2.60547137260437, 52.30597686767578, 145.966796875, -0.867919921875, 0.2509765625, -0.149658203125, 
197, 3826056509, 0.5570228695869446, -0.5110245943069458, -0.17223475873470306, -0.631585955619812, 7.934849739074707, -3.2396209239959717, 3.9219939708709717, -9.863884925842285, 46.50650405883789, 145.33486938476562, -0.86474609375, 0.26953125, -0.154296875, 
198, 3826064842, 0.5634697675704956, -0.5116369128227234, -0.1646302193403244, -0.627385675907135, 7.5260467529296875, -2.833834409713745, 4.0042901039123535, -15.91791820526123, 38.97526168823242, 142.9906768798828, -0.86279296875, 0.292236328125, -0.16015625, 
199, 3826073175, 0.569916844367981, -0.5121341943740845, -0.1578458696603775, -0.6228837966918945, 7.512975215911865, -2.6097559928894043, 3.6587765216827393, -7.22836446762085, 31.49051284790039, 139.216064453125, -0.856689453125, 0.3125, -0.160400390625, 
200, 3826081508, 0.5764167308807373, -0.5121297836303711, -0.15182754397392273, -0.6183861494064331, 7.947577476501465, -2.6347341537475586, 3.536053419113159, 3.588933229446411, 29.92804527282715, 133.23065185546875, -0.851806640625, 0.3291015625, -0.168212890625, 
201, 3826089841, 0.5827960968017578, -0.5117382407188416, -0.14603683352470398, -0.6141108870506287, 8.43458080291748, -2.607941150665283, 3.6794397830963135, 7.318664073944092, 32.730525970458984, 127.95553588867188, -0.851806640625, 0.347412109375, -0.166748046875, 
202, 3826098174, 0.5887452363967896, -0.5114201307296753, -0.14004769921302795, -0.6100829243659973, 8.697370529174805, -2.6437714099884033, 3.8633177280426025, 1.492435336112976, 34.57665252685547, 123.96110534667969, -0.843505859375, 0.36669921875, -0.173583984375, 
203, 3826106507, 0.5942014455795288, -0.5112338066101074, -0.13376399874687195, -0.6063483953475952, 8.751877784729004, -2.9901511669158936, 3.6909003257751465, -6.0412774085998535, 36.97239303588867, 119.70156860351562, -0.83984375, 0.38037109375, -0.176513671875, 
204, 3826114840, 0.599297046661377, -0.5111223459243774, -0.1274779736995697, -0.602770984172821, 8.639047622680664, -3.697714328765869, 3.4531056880950928, -9.533116340637207, 36.80603790283203, 115.63834381103516, -0.835205078125, 0.398681640625, -0.18212890625, 
205, 3826123173, 0.6041908860206604, -0.5110834836959839, -0.12130676954984665, -0.5991812348365784, 8.465136528015137, -4.376642227172852, 3.5231974124908447, -10.539454460144043, 34.819427490234375, 113.32008361816406, -0.829833984375, 0.412353515625, -0.185546875, 
206, 3826131506, 0.6090008616447449, -0.5110644698143005, -0.1152290403842926, -0.5955164432525635, 8.252476692199707, -4.703494071960449, 3.7786858081817627, -10.433919906616211, 33.210208892822266, 112.697021484375, -0.82470703125, 0.4287109375, -0.1875, 
207, 3826139839, 0.6136850118637085, -0.5109609365463257, -0.10925595462322235, -0.5919113159179688, 7.79365873336792, -4.738178730010986, 4.112911701202393, -9.809687614440918, 33.24974060058594, 110.23133087158203, -0.817138671875, 0.443603515625, -0.19189453125, 
208, 3826148172, 0.6182379126548767, -0.5108006596565247, -0.10386940091848373, -0.588270366191864, 7.181902885437012, -4.6372833251953125, 4.027722358703613, -5.465559005737305, 28.309152603149414, 105.32318115234375, -0.811767578125, 0.45947265625, -0.19287109375, 
209, 3826156505, 0.622809648513794, -0.5104962587356567, -0.09933102130889893, -0.584483802318573, 6.827210903167725, -4.568977355957031, 3.9130780696868896, 3.0029642581939697, 21.272613525390625, 100.48770141601562, -0.8076171875, 0.47119140625, -0.1982421875, 
210, 3826164838, 0.6272960901260376, -0.51002037525177, -0.09523602575063705, -0.5807713270187378, 6.876623153686523, -4.1456451416015625, 4.4206223487854, 7.294061660766602, 19.251733779907227, 95.88135528564453, -0.80419921875, 0.482666015625, -0.199951171875, 
211, 3826173171, 0.6315168142318726, -0.5093677043914795, -0.09117007255554199, -0.5774127244949341, 6.876255989074707, -3.323821544647217, 4.627955913543701, 6.76552677154541, 22.550268173217773, 90.21165466308594, -0.796630859375, 0.49658203125, -0.200927734375, 
212, 3826181504, 0.6357111930847168, -0.508393406867981, -0.08751728385686874, -0.5742253065109253, 6.687836170196533, -2.8454830646514893, 4.189608097076416, 12.399757385253906, 22.678590774536133, 85.28065490722656, -0.792236328125, 0.50634765625, -0.20654296875, 
213, 3826189837, 0.6399577260017395, -0.506988525390625, -0.08465030044317245, -0.5711718201637268, 6.688624382019043, -3.1612424850463867, 3.817500114440918, 22.609773635864258, 20.21224021911621, 78.4526138305664, -0.783935546875, 0.518310546875, -0.20703125, 
214, 3826198170, 0.6440788507461548, -0.5053417682647705, -0.08253832161426544, -0.5683009624481201, 7.064470291137695, -4.027686595916748, 3.782578945159912, 29.544755935668945, 16.590595245361328, 70.3702621459961, -0.780517578125, 0.5234375, -0.2138671875, 
215, 3826206503, 0.6480287909507751, -0.5038442611694336, -0.08096545189619064, -0.5653589367866516, 7.274674415588379, -4.845125675201416, 3.947636604309082, 31.36215591430664, 9.965713500976562, 66.03118133544922, -0.77734375, 0.533203125, -0.216064453125, 
216, 3826214836, 0.6518306136131287, -0.5025665760040283, -0.07950983941555023, -0.562324047088623, 7.3477959632873535, -5.246059894561768, 4.319958686828613, 29.358427047729492, 6.398131370544434, 65.19610595703125, -0.77392578125, 0.5390625, -0.21923828125, 
217, 3826223169, 0.6553803086280823, -0.501559317111969, -0.078063003718853, -0.5592918992042542, 7.35690975189209, -5.51637077331543, 4.802912712097168, 25.290956497192383, 3.976651906967163, 63.40401840209961, -0.76708984375, 0.548095703125, -0.219970703125, 
218, 3826231502, 0.6587657928466797, -0.5004196166992188, -0.07653815299272537, -0.5565394163131714, 7.209591388702393, -5.744348049163818, 4.830471038818359, 24.416439056396484, 7.44740629196167, 60.06766891479492, -0.76611328125, 0.552490234375, -0.2236328125, 
219, 3826239835, 0.6622781753540039, -0.49887824058532715, -0.0751008540391922, -0.5539441704750061, 6.929527282714844, -5.762826919555664, 4.699852466583252, 29.46971893310547, 10.94788646697998, 58.539215087890625, -0.764404296875, 0.561279296875, -0.225341796875, 
220, 3826248168, 0.6659156680107117, -0.4970601499080658, -0.0738450437784195, -0.5513809323310852, 6.690733909606934, -5.52848482131958, 4.5920844078063965, 34.16037368774414, 11.747055053710938, 57.72029113769531, -0.757080078125, 0.574951171875, -0.225341796875, 
221, 3826256501, 0.6696216464042664, -0.49520182609558105, -0.07258383929729462, -0.5487256646156311, 6.5816731452941895, -5.094037055969238, 4.362014293670654, 35.08644485473633, 11.545859336853027, 59.03004837036133, -0.755615234375, 0.573486328125, -0.23095703125, 
222, 3826264834, 0.673444926738739, -0.493259996175766, -0.07141613960266113, -0.545941948890686, 6.630148410797119, -4.884104251861572, 4.03156852722168, 37.45181655883789, 10.554393768310547, 60.42540740966797, -0.749755859375, 0.5791015625, -0.232421875, 
223, 3826273167, 0.6773562431335449, -0.49120795726776123, -0.07048213481903076, -0.5430669188499451, 6.763610363006592, -4.925662040710449, 3.918848991394043, 40.950660705566406, 8.688070297241211, 60.192710876464844, -0.746337890625, 0.587158203125, -0.238525390625, 
224, 3826281500, 0.6813178062438965, -0.4890933632850647, -0.06977377831935883, -0.5401033163070679, 6.8692946434021, -4.990877628326416, 3.93391752243042, 43.60646057128906, 6.49978494644165, 59.85470199584961, -0.742431640625, 0.59130859375, -0.24072265625, 
225, 3826289833, 0.6853117346763611, -0.48684975504875183, -0.0692363753914833, -0.5371384024620056, 6.90468692779541, -5.084354400634766, 4.014956474304199, 46.34194564819336, 5.885565757751465, 58.79011535644531, -0.739013671875, 0.596435546875, -0.244140625, 
226, 3826298166, 0.6893121004104614, -0.4844617545604706, -0.06894689798355103, -0.5342079401016235, 6.685260772705078, -5.1613993644714355, 4.130577087402344, 49.50664138793945, 4.845109939575195, 56.759681701660156, -0.731689453125, 0.602294921875, -0.24951171875, 
227, 3826306499, 0.6934151649475098, -0.48189711570739746, -0.06915812194347382, -0.531181812286377, 6.473492622375488, -5.114626884460449, 4.062802314758301, 55.67240905761719, 0.8642416596412659, 54.875186920166016, -0.731689453125, 0.609619140625, -0.251953125, 
228, 3826314832, 0.6975259780883789, -0.47926485538482666, -0.06972679495811462, -0.5280976891517639, 6.530781269073486, -4.894834995269775, 4.3777313232421875, 58.996864318847656, -2.4351844787597656, 53.094520568847656, -0.726318359375, 0.611572265625, -0.2578125, 
229, 3826323165, 0.7012988924980164, -0.47696736454963684, -0.07017885893583298, -0.5251127481460571, 6.633977890014648, -4.4695539474487305, 4.776499271392822, 52.65658187866211, -3.409308910369873, 50.740013122558594, -0.723876953125, 0.61572265625, -0.26171875, 
230, 3826331498, 0.7045844197273254, -0.4751149117946625, -0.07051001489162445, -0.5223420858383179, 6.5066375732421875, -4.093072414398193, 4.727325439453125, 44.04771423339844, -4.53032922744751, 46.41317367553711, -0.720947265625, 0.620361328125, -0.26171875, 
231, 3826339831, 0.7073647379875183, -0.4737330973148346, -0.0708497166633606, -0.5197871923446655, 6.3380537033081055, -3.821878671646118, 4.676361083984375, 36.07563400268555, -7.062888145446777, 41.061580657958984, -0.717529296875, 0.62451171875, -0.265869140625, 
232, 3826348164, 0.709445059299469, -0.47307470440864563, -0.07102255523204803, -0.5175230503082275, 6.276005268096924, -3.555088996887207, 4.8976569175720215, 22.965042114257812, -9.410212516784668, 35.05485534667969, -0.715087890625, 0.628173828125, -0.264892578125, 
233, 3826356497, 0.7106421589851379, -0.4734061360359192, -0.07080041617155075, -0.515604555606842, 6.330072402954102, -3.2974164485931396, 5.007258892059326, 4.44859504699707, -11.203291893005371, 28.904272079467773, -0.712158203125, 0.632080078125, -0.265625, 
234, 3826364830, 0.7109391689300537, -0.4747147560119629, -0.07017245888710022, -0.5140753984451294, 6.38890266418457, -3.3329250812530518, 4.9816389083862305, -14.251169204711914, -12.52008056640625, 22.339855194091797, -0.71142578125, 0.63525390625, -0.2646484375, 
235, 3826373163, 0.7104712128639221, -0.4768247902393341, -0.06918220221996307, -0.5129024386405945, 6.447084903717041, -3.556337594985962, 5.026271820068359, -29.954437255859375, -13.043157577514648, 16.56523323059082, -0.7099609375, 0.636474609375, -0.25830078125, 
236, 3826381496, 0.7094674706459045, -0.4795389175415039, -0.0679868757724762, -0.5119203329086304, 6.4731597900390625, -3.876887321472168, 5.125255584716797, -41.02907943725586, -14.571553230285645, 12.86286449432373, -0.7119140625, 0.640625, -0.255126953125, 
237, 3826389829, 0.7081208229064941, -0.4825925827026367, -0.06670036911964417, -0.5110836625099182, 6.5414934158325195, -4.335224628448486, 5.1548542976379395, -47.35273361206055, -15.418985366821289, 9.932493209838867, -0.71142578125, 0.642333984375, -0.252197265625, 
238, 3826398162, 0.706601619720459, -0.4856952130794525, -0.065375916659832, -0.5104180574417114, 6.630144119262695, -4.789697170257568, 5.252495288848877, -49.42734146118164, -14.431068420410156, 7.367094039916992, -0.711181640625, 0.645751953125, -0.24267578125, 
239, 3826406495, 0.7051460146903992, -0.4884711503982544, -0.06423269212245941, -0.5099271535873413, 6.679634094238281, -5.101704120635986, 5.280563831329346, -44.68756103515625, -12.659897804260254, 4.598583221435547, -0.710205078125, 0.645263671875, -0.23974609375, 
240, 3826414828, 0.7039817571640015, -0.4906119406223297, -0.0634179413318634, -0.5095824003219604, 6.690819263458252, -5.229878902435303, 5.217319488525391, -34.42188262939453, -10.167555809020996, 2.4710466861724854, -0.709228515625, 0.6474609375, -0.23828125, 
241, 3826423161, 0.703248918056488, -0.4919569194316864, -0.06301616132259369, -0.509347140789032, 6.6710357666015625, -5.265633583068848, 5.0995354652404785, -20.984933853149414, -7.456153869628906, 0.9438337683677673, -0.709716796875, 0.649658203125, -0.234619140625, 
242, 3826431494, 0.7029170393943787, -0.49265778064727783, -0.0630263090133667, -0.5091267824172974, 6.587436199188232, -5.3459320068359375, 5.11557674407959, -9.194717407226562, -6.498562812805176, 0.27234336733818054, -0.710693359375, 0.648193359375, -0.232421875, 
243, 3826439827, 0.7028908729553223, -0.4928774833679199, -0.06331022083759308, -0.5089150071144104, 6.558412075042725, -5.473535537719727, 5.183067321777344, -0.5397431254386902, -5.434751510620117, 0.053187958896160126, -0.710693359375, 0.64892578125, -0.229248046875, 
244, 3826448160, 0.7031545639038086, -0.49259328842163086, -0.06389204412698746, -0.5087531805038452, 6.514920711517334, -5.39688777923584, 5.267800807952881, 8.312640190124512, -4.2131452560424805, -0.8539914488792419, -0.711669921875, 0.650146484375, -0.231689453125, 
245, 3826456493, 0.7035514116287231, -0.49195215106010437, -0.06467653065919876, -0.508725643157959, 6.5402374267578125, -5.037717819213867, 5.384271621704102, 13.987857818603516, -2.6325674057006836, -2.910404920578003, -0.711181640625, 0.649169921875, -0.229736328125, 
246, 3826464826, 0.7039435505867004, -0.4910793900489807, -0.06541398167610168, -0.5089321732521057, 6.555612564086914, -4.602077960968018, 5.5440521240234375, 15.639813423156738, 1.0052436590194702, -5.091855049133301, -0.710693359375, 0.648193359375, -0.23193359375, 
247, 3826473159, 0.7042404413223267, -0.4902020990848541, -0.06592052429914474, -0.5093017220497131, 6.577650547027588, -4.41771125793457, 5.527952671051025, 13.294648170471191, 4.305740833282471, -5.781466007232666, -0.711181640625, 0.648193359375, -0.23291015625, 
248, 3826481492, 0.7043958902359009, -0.48949378728866577, -0.06626655161380768, -0.509722888469696, 6.587583541870117, -4.706527233123779, 5.372755527496338, 9.51664924621582, 4.878551483154297, -6.036224842071533, -0.710205078125, 0.646240234375, -0.2333984375, 
249, 3826489825, 0.7043690085411072, -0.4889906644821167, -0.06635398417711258, -0.5102312564849854, 6.574552536010742, -5.2302937507629395, 5.390881538391113, 4.422118663787842, 6.38293981552124, -6.227627277374268, -0.710693359375, 0.64501953125, -0.2373046875, 
250, 3826498158, 0.7042074203491211, -0.48859262466430664, -0.06625718623399734, -0.5108476281166077, 6.428618431091309, -5.687615394592285, 5.420254230499268, 1.0949574708938599, 8.017128944396973, -6.8885273933410645, -0.713134765625, 0.647216796875, -0.23974609375, 
251, 3826506491, 0.7039453387260437, -0.48827502131462097, -0.06611635535955429, -0.5115304589271545, 6.26873254776001, -6.036797523498535, 5.512625217437744, -0.7159051895141602, 8.250166893005371, -7.861611843109131, -0.714111328125, 0.644775390625, -0.24072265625, 
252, 3826514824, 0.7036537528038025, -0.4879221022129059, -0.06604398041963577, -0.5122771859169006, 6.155871391296387, -6.001463413238525, 5.671482086181641, -0.16311144828796387, 8.222079277038574, -9.186365127563477, -0.715087890625, 0.642822265625, -0.2392578125, 
253, 3826523157, 0.7033251523971558, -0.4875280559062958, -0.06596370041370392, -0.513113260269165, 6.141477584838867, -5.61798620223999, 5.748178482055664, -0.13724109530448914, 9.170756340026855, -10.287422180175781, -0.7138671875, 0.640869140625, -0.240478515625, 
254, 3826531490, 0.7029790282249451, -0.48711004853248596, -0.06583862751722336, -0.5139999985694885, 6.151280403137207, -5.24659538269043, 5.6973772048950195, -0.39814770221710205, 10.078268051147461, -10.632059097290039, -0.7138671875, 0.64111328125, -0.242919921875, 
255, 3826539823, 0.7025173902511597, -0.486709326505661, -0.0654737800359726, -0.5150562524795532, 6.196040153503418, -5.0244140625, 5.721337795257568, -3.177805185317993, 13.322416305541992, -11.454816818237305, -0.7138671875, 0.638671875, -0.244873046875, 
256, 3826548156, 0.7019405364990234, -0.4864117503166199, -0.06514062732458115, -0.5161651372909546, 6.114232063293457, -5.10126256942749, 5.468624591827393, -4.777029991149902, 12.516924858093262, -12.910012245178223, -0.71630859375, 0.63671875, -0.243896484375, 
257, 3826556489, 0.7013400197029114, -0.48616823554039, -0.064906045794487, -0.5172389149665833, 6.228850841522217, -5.278754234313965, 5.313656806945801, -4.719194412231445, 10.943160057067871, -13.3369779586792, -0.7138671875, 0.63671875, -0.244873046875, 
258, 3826564822, 0.7006751298904419, -0.4859561324119568, -0.06462237238883972, -0.5183737874031067, 6.327515125274658, -5.485136032104492, 5.103470802307129, -5.864867210388184, 11.527241706848145, -14.039806365966797, -0.71484375, 0.635986328125, -0.244873046875, 
259, 3826573155, 0.6999484896659851, -0.4856869578361511, -0.06440478563308716, -0.5196333527565002, 6.241245269775391, -5.7047600746154785, 4.879060745239258, -5.360074996948242, 12.093174934387207, -16.15886116027832, -0.71533203125, 0.634033203125, -0.24609375, 
260, 3826581488, 0.6991440057754517, -0.4854109585285187, -0.06437576562166214, -0.5209758877754211, 6.026466369628906, -5.776993274688721, 4.842243671417236, -4.546554088592529, 10.794086456298828, -18.794246673583984, -0.71630859375, 0.63330078125, -0.25, 
261, 3826589821, 0.6982982754707336, -0.4851154088973999, -0.06464418768882751, -0.5223503112792969, 5.920163154602051, -5.671314716339111, 4.86809778213501, -2.523899555206299, 8.268292427062988, -21.383182525634766, -0.71923828125, 0.6298828125, -0.24853515625, 
262, 3826598154, 0.6974273920059204, -0.484720915555954, -0.06505435705184937, -0.5238271951675415, 5.967733383178711, -5.284013271331787, 5.071074962615967, -0.8228833079338074, 8.261377334594727, -23.59848403930664, -0.71875, 0.626220703125, -0.250732421875, 
263, 3826606487, 0.6963834762573242, -0.48437440395355225, -0.06548787653446198, -0.5254799723625183, 6.003289699554443, -4.681081295013428, 5.195210933685303, -2.418830633163452, 8.728887557983398, -26.62537384033203, -0.7197265625, 0.624755859375, -0.250732421875, 
264, 3826614820, 0.6951860189437866, -0.48403894901275635, -0.06600780040025711, -0.527306318283081, 6.040261745452881, -4.196796894073486, 5.139185905456543, -3.085378408432007, 8.820884704589844, -29.981552124023438, -0.7216796875, 0.6240234375, -0.254150390625, 
265, 3826623153, 0.6936923265457153, -0.4839478135108948, -0.06645116209983826, -0.5292976498603821, 6.2061767578125, -4.058500289916992, 5.240314960479736, -8.094325065612793, 8.627755165100098, -32.95491409301758, -0.722900390625, 0.6181640625, -0.2548828125, 
266, 3826631486, 0.6918646097183228, -0.4841717481613159, -0.06666114926338196, -0.5314545631408691, 6.416691303253174, -4.384265422821045, 5.205913543701172, -15.176302909851074, 9.340103149414062, -35.143653869628906, -0.725830078125, 0.61474609375, -0.25146484375, 
267, 3826639819, 0.6898555159568787, -0.48446589708328247, -0.06664114445447922, -0.5337952971458435, 6.4277567863464355, -4.795067310333252, 5.108179569244385, -18.9018497467041, 12.091028213500977, -36.59967803955078, -0.727294921875, 0.610107421875, -0.254150390625, 
268, 3826648152, 0.6878834366798401, -0.48460230231285095, -0.06682828068733215, -0.5361875295639038, 6.375619411468506, -5.215749263763428, 4.954522609710693, -15.68462085723877, 11.642624855041504, -38.3658561706543, -0.730224609375, 0.607666015625, -0.253173828125, 
269, 3826656485, 0.6860690712928772, -0.48441582918167114, -0.06726108491420746, -0.538621187210083, 6.416451454162598, -5.3365912437438965, 5.087071895599365, -9.80816650390625, 12.138873100280762, -39.50215148925781, -0.731689453125, 0.60400390625, -0.256103515625, 
270, 3826664818, 0.6843782067298889, -0.48396968841552734, -0.06782121956348419, -0.5410974621772766, 6.466773986816406, -5.311213970184326, 5.107436656951904, -5.627955436706543, 13.240556716918945, -40.10067367553711, -0.734619140625, 0.598388671875, -0.2568359375, 
271, 3826673151, 0.6829079389572144, -0.4831145703792572, -0.06860233843326569, -0.5436149835586548, 6.416184902191162, -5.356514930725098, 4.83782434463501, 1.2900373935699463, 14.704412460327148, -40.67499542236328, -0.7353515625, 0.592529296875, -0.257568359375, 
272, 3826681484, 0.6817152500152588, -0.4818355441093445, -0.06963971257209778, -0.5461095571517944, 6.406366348266602, -5.513216972351074, 4.851016044616699, 9.056415557861328, 15.5543212890625, -40.51332092285156, -0.73974609375, 0.58984375, -0.261474609375, 
273, 3826689817, 0.6807144284248352, -0.4803740084171295, -0.07080976665019989, -0.5484895706176758, 6.365725040435791, -5.761266231536865, 5.004824638366699, 13.140995979309082, 15.127767562866211, -39.02396774291992, -0.740234375, 0.583251953125, -0.263671875, 
274, 3826698150, 0.6798667311668396, -0.4787953197956085, -0.072056844830513, -0.5507543087005615, 6.307716369628906, -5.895209789276123, 5.260387420654297, 15.944849967956543, 14.657709121704102, -37.44269943237305, -0.74267578125, 0.5791015625, -0.265625, 
275, 3826706483, 0.6791528463363647, -0.4769701659679413, -0.07325013726949692, -0.5530565977096558, 6.323270320892334, -5.884620189666748, 5.604115962982178, 18.683835983276367, 17.42845344543457, -36.63984298706055, -0.743896484375, 0.573974609375, -0.267822265625, 
276, 3826714816, 0.6787651181221008, -0.4745684862136841, -0.07451954483985901, -0.5554239749908447, 6.349122047424316, -5.906141757965088, 5.795262813568115, 26.723661422729492, 21.83542823791504, -35.8764762878418, -0.744384765625, 0.5693359375, -0.2724609375, 
277, 3826723149, 0.6790010929107666, -0.47121700644493103, -0.07608729600906372, -0.5577713847160339, 6.297922134399414, -6.093893527984619, 6.0635151863098145, 41.955116271972656, 26.83577537536621, -33.81935501098633, -0.747314453125, 0.5654296875, -0.27880859375, 
278, 3826731482, 0.6795628666877747, -0.4674820005893707, -0.07799083739519119, -0.5599629282951355, 6.218921661376953, -6.230153560638428, 6.300337791442871, 50.391082763671875, 25.95193862915039, -32.46992874145508, -0.74658203125, 0.55712890625, -0.28564453125, 
279, 3826739815, 0.6798784732818604, -0.4641282260417938, -0.0798148587346077, -0.5621083974838257, 6.158078193664551, -6.040124416351318, 5.852513790130615, 44.67717361450195, 23.219697952270508, -32.987937927246094, -0.748046875, 0.552978515625, -0.290771484375, 
280, 3826748148, 0.6797364354133606, -0.4614744782447815, -0.08145420253276825, -0.5642261505126953, 6.132025241851807, -5.769256114959717, 5.6286163330078125, 33.819053649902344, 18.835535049438477, -34.346744537353516, -0.748046875, 0.54833984375, -0.294921875, 
281, 3826756481, 0.6788714528083801, -0.45990219712257385, -0.08252602815628052, -0.5663913488388062, 6.2532429695129395, -5.481992244720459, 5.779236316680908, 14.66053295135498, 15.258986473083496, -35.560951232910156, -0.751708984375, 0.542236328125, -0.29736328125, 
282, 3826764814, 0.6773991584777832, -0.4591315984725952, -0.08282660692930222, -0.5687306523323059, 6.536830425262451, -5.194845199584961, 5.68209981918335, -2.8638672828674316, 16.60834312438965, -36.153480529785156, -0.752685546875, 0.5390625, -0.301513671875, 
283, 3826773147, 0.6755273938179016, -0.4587855637073517, -0.0826452448964119, -0.5712571740150452, 6.637122631072998, -5.052454471588135, 5.621355056762695, -13.328747749328613, 18.52420997619629, -37.471309661865234, -0.753173828125, 0.535400390625, -0.302001953125, 
284, 3826781480, 0.6733582019805908, -0.45881739258766174, -0.08219658583402634, -0.573851466178894, 6.602226257324219, -5.091585159301758, 5.781508922576904, -20.887271881103516, 18.10918426513672, -38.34586715698242, -0.755126953125, 0.52978515625, -0.3037109375, 
285, 3826789813, 0.671014130115509, -0.45910099148750305, -0.08144930750131607, -0.5764709115028381, 6.578244209289551, -5.225992202758789, 5.900956153869629, -26.71424102783203, 18.86749839782715, -37.76603698730469, -0.755859375, 0.524169921875, -0.306884765625, 
286, 3826798146, 0.6687923073768616, -0.4593309164047241, -0.08078893274068832, -0.578957200050354, 6.570436954498291, -5.550049304962158, 5.7104268074035645, -24.60318374633789, 17.767820358276367, -36.20238494873047, -0.75830078125, 0.523193359375, -0.306396484375, 
287, 3826806479, 0.6668205857276917, -0.45936283469200134, -0.08028306812047958, -0.5812721252441406, 6.710954666137695, -5.907796859741211, 5.797558307647705, -19.786026000976562, 17.137651443481445, -33.80497360229492, -0.75927734375, 0.519287109375, -0.30859375, 
288, 3826814812, 0.6650707125663757, -0.45917877554893494, -0.07968688011169434, -0.5834999084472656, 6.8444623947143555, -6.124091148376465, 5.846836566925049, -17.024757385253906, 19.366579055786133, -30.924928665161133, -0.7587890625, 0.518798828125, -0.30908203125, 
289, 3826823145, 0.6635207533836365, -0.4587637782096863, -0.07879610359668732, -0.5857076048851013, 6.803117275238037, -6.280853271484375, 5.958797454833984, -15.996381759643555, 24.026952743530273, -27.506053924560547, -0.75927734375, 0.51513671875, -0.3095703125, 
290, 3826831478, 0.6621389389038086, -0.45819225907325745, -0.07779816538095474, -0.5878482460975647, 6.653522491455078, -6.509849548339844, 5.7671685218811035, -14.29410457611084, 26.005369186401367, -25.057016372680664, -0.7587890625, 0.51220703125, -0.311767578125, 
291, 3826839811, 0.66098952293396, -0.4575268030166626, -0.0769624337553978, -0.5897669196128845, 6.521841049194336, -6.682854175567627, 5.8639984130859375, -10.429306983947754, 24.156972885131836, -22.258663177490234, -0.760986328125, 0.5087890625, -0.317626953125, 
292, 3826848144, 0.6600692272186279, -0.45673009753227234, -0.0761183649301529, -0.5915222764015198, 6.4977126121521, -6.495922565460205, 6.200196743011475, -7.683406352996826, 24.491546630859375, -19.02327537536621, -0.760498046875, 0.5087890625, -0.320068359375, 
293, 3826856477, 0.6594172120094299, -0.45572757720947266, -0.07526691257953644, -0.5931295156478882, 6.475255489349365, -6.201030731201172, 6.006417751312256, -4.039381504058838, 25.603321075439453, -15.64601993560791, -0.760498046875, 0.505615234375, -0.322265625, 
294, 3826864810, 0.6589673161506653, -0.45458003878593445, -0.07453446090221405, -0.5946007966995239, 6.449407577514648, -6.142792224884033, 5.84193229675293, -0.34495997428894043, 25.045927047729492, -13.681278228759766, -0.760498046875, 0.50341796875, -0.326171875, 
295, 3826873143, 0.6588461399078369, -0.45296216011047363, -0.07389967888593674, -0.5960471034049988, 6.482025146484375, -6.098173141479492, 5.745504856109619, 6.7977294921875, 28.204666137695312, -11.841164588928223, -0.757568359375, 0.5029296875, -0.326904296875, 
296, 3826881476, 0.6590825915336609, -0.4508468508720398, -0.07333067804574966, -0.5974583029747009, 6.484828472137451, -5.965521812438965, 5.817158222198486, 14.106401443481445, 31.812829971313477, -9.524382591247559, -0.757568359375, 0.502197265625, -0.333251953125, 
297, 3826889809, 0.6594849824905396, -0.44861072301864624, -0.072902150452137, -0.5987483263015747, 6.37616491317749, -5.841765880584717, 5.828295707702637, 17.50802993774414, 30.967042922973633, -8.0408296585083, -0.75830078125, 0.49951171875, -0.336669921875, 
298, 3826898142, 0.659907877445221, -0.4464152157306671, -0.0723695233464241, -0.5999866724014282, 6.3285322189331055, -5.678836822509766, 6.060354709625244, 16.46059799194336, 31.25956916809082, -6.736026763916016, -0.75634765625, 0.497314453125, -0.34033203125, 
299, 3826906475, 0.6602534055709839, -0.44434618949890137, -0.07159090787172318, -0.601234495639801, 6.385201454162598, -5.58590841293335, 6.149229049682617, 12.79948616027832, 32.449058532714844, -5.809570789337158, -0.75439453125, 0.49658203125, -0.34765625, 
300, 3826914808, 0.6604107022285461, -0.4426443576812744, -0.07056017220020294, -0.6024376153945923, 6.400657653808594, -5.571356296539307, 6.199911594390869, 6.272637367248535, 31.224124908447266, -5.073774814605713, -0.7529296875, 0.496826171875, -0.35205078125, 
301, 3826923141, 0.6605581641197205, -0.44111335277557373, -0.06951255351305008, -0.6035197973251343, 6.42975378036499, -5.597009658813477, 6.123795509338379, 4.642967700958252, 29.235443115234375, -3.773709535598755, -0.753662109375, 0.494384765625, -0.354248046875, 
302, 3826931474, 0.6607105731964111, -0.43964943289756775, -0.06821324676275253, -0.604568600654602, 6.569713115692139, -5.600841522216797, 6.397241592407227, 2.002535581588745, 30.748266220092773, -1.852474570274353, -0.752685546875, 0.4931640625, -0.358154296875, 
303, 3826939807, 0.6608902812004089, -0.4380505084991455, -0.06666559725999832, -0.6057042479515076, 6.5996994972229, -5.508983612060547, 6.229659080505371, 1.2512567043304443, 34.69866943359375, -1.0267860889434814, -0.749755859375, 0.494384765625, -0.361572265625, 
304, 3826948140, 0.6611315608024597, -0.4363412857055664, -0.06513182073831558, -0.6068405508995056, 6.462489604949951, -5.559970855712891, 5.977659225463867, 2.737114667892456, 35.531028747558594, -0.7173147201538086, -0.749267578125, 0.49609375, -0.366943359375, 
305, 3826956473, 0.6614217162132263, -0.43460220098495483, -0.06365963071584702, -0.6079277396202087, 6.255496978759766, -5.530691146850586, 6.181583404541016, 3.8625786304473877, 34.9871826171875, -0.24721603095531464, -0.745361328125, 0.494140625, -0.37109375, 
306, 3826964806, 0.6616473197937012, -0.4329398274421692, -0.06193641573190689, -0.6090453863143921, 6.146421432495117, -5.422203063964844, 6.357481002807617, 0.6512426137924194, 36.738258361816406, 0.49089738726615906, -0.74365234375, 0.493408203125, -0.37353515625, 
307, 3826973139, 0.6618946194648743, -0.4313163757324219, -0.06018197536468506, -0.6101033091545105, 6.032163143157959, -5.31348991394043, 6.229498386383057, 0.21993689239025116, 36.37705993652344, 1.446911334991455, -0.743408203125, 0.49755859375, -0.3798828125, 
308, 3826981472, 0.6621643900871277, -0.42966416478157043, -0.05825014412403107, -0.6111629605293274, 6.033883571624756, -5.300414562225342, 6.259634971618652, -0.8787230253219604, 38.24270248413086, 2.637206554412842, -0.73974609375, 0.49462890625, -0.3837890625, 
309, 3826989805, 0.6624303460121155, -0.42811885476112366, -0.05620035529136658, -0.6121504902839661, 6.119549751281738, -5.471471786499023, 6.260444641113281, -2.8043782711029053, 38.00836181640625, 4.054521083831787, -0.73681640625, 0.497314453125, -0.38818359375, 
310, 3826998138, 0.6627256274223328, -0.42677223682403564, -0.054076917469501495, -0.6129619479179382, 6.176458835601807, -5.687313079833984, 6.379732131958008, -4.930157661437988, 35.97315216064453, 6.482753276824951, -0.73486328125, 0.498291015625, -0.392578125, 
311, 3827006471, 0.6629688739776611, -0.42566370964050293, -0.051655832678079605, -0.6136778593063354, 6.136485576629639, -5.8097686767578125, 6.508255481719971, -9.839079856872559, 36.0983772277832, 8.84582233428955, -0.73486328125, 0.5, -0.3984375, 
312, 3827014804, 0.6633264422416687, -0.42450395226478577, -0.04935123026371002, -0.6142843961715698, 5.931725025177002, -5.867936134338379, 6.305412292480469, -7.6461262702941895, 34.890953063964844, 10.084155082702637, -0.73046875, 0.5009765625, -0.3984375, 
313, 3827023137, 0.6639049053192139, -0.42299923300743103, -0.04706599563360214, -0.6148762702941895, 5.8194780349731445, -5.685265064239502, 6.526358604431152, -3.029130697250366, 37.71215057373047, 11.743041038513184, -0.7275390625, 0.502197265625, -0.402587890625, 
314, 3827031470, 0.6647388339042664, -0.42098790407180786, -0.04483631253242493, -0.6155221462249756, 5.700016498565674, -5.366445541381836, 6.515204906463623, 3.5091300010681152, 41.94903564453125, 12.749147415161133, -0.725341796875, 0.504150390625, -0.408203125, 
315, 3827039803, 0.6657266616821289, -0.4186093509197235, -0.04272368550300598, -0.6162265539169312, 5.661531448364258, -5.157281398773193, 6.344400882720947, 8.719359397888184, 44.43986511230469, 12.622002601623535, -0.721923828125, 0.50537109375, -0.411865234375, 
316, 3827048136, 0.66666179895401, -0.41645151376724243, -0.040818952023983, -0.6168066263198853, 5.5204291343688965, -5.264815330505371, 6.241321086883545, 8.222591400146484, 39.90019989013672, 12.239167213439941, -0.720947265625, 0.506591796875, -0.417724609375, 
317, 3827056469, 0.6675742864608765, -0.4145250916481018, -0.038946934044361115, -0.6172381639480591, 5.552863121032715, -5.347105979919434, 6.468976020812988, 6.3407745361328125, 36.79191589355469, 13.35726547241211, -0.714599609375, 0.5087890625, -0.424560546875, 
318, 3827064802, 0.6685688495635986, -0.41259264945983887, -0.03688674792647362, -0.6175829172134399, 5.696722984313965, -5.2621989250183105, 6.628973484039307, 5.304908752441406, 38.10332107543945, 15.913265228271484, -0.713134765625, 0.50830078125, -0.428466796875, 
319, 3827073135, 0.66958087682724, -0.4106597304344177, -0.034755706787109375, -0.6178985238075256, 5.700762748718262, -5.291324138641357, 6.587623596191406, 4.829967975616455, 38.61762619018555, 16.738018035888672, -0.710205078125, 0.511474609375, -0.432373046875, 
320, 3827081468, 0.6704853773117065, -0.4089203178882599, -0.03248044103384018, -0.6181949377059937, 5.705311298370361, -5.376702308654785, 6.659361362457275, 1.2155635356903076, 38.12670135498047, 16.903535842895508, -0.70654296875, 0.513427734375, -0.437255859375, 
321, 3827089801, 0.6712339520454407, -0.4073580801486969, -0.029833003878593445, -0.618547260761261, 5.653858661651611, -5.416008472442627, 6.811828136444092, -4.4728169441223145, 40.31232833862305, 17.239395141601562, -0.703125, 0.5166015625, -0.441162109375, 
322, 3827098134, 0.6719058156013489, -0.40591612458229065, -0.026963721960783005, -0.6188971996307373, 5.531604290008545, -5.470335483551025, 6.801004409790039, -7.909958362579346, 41.27682113647461, 17.894084930419922, -0.7001953125, 0.51806640625, -0.445556640625, 
323, 3827106467, 0.6725448369979858, -0.4046096205711365, -0.023975573480129242, -0.6191816329956055, 5.316402912139893, -5.392297744750977, 6.740990161895752, -10.321288108825684, 40.860801696777344, 18.940149307250977, -0.697265625, 0.5224609375, -0.449462890625, 
324, 3827114800, 0.6732715964317322, -0.40337440371513367, -0.021045485511422157, -0.6193044185638428, 5.141885757446289, -5.29297399520874, 6.644113063812256, -9.955310821533203, 38.82820129394531, 20.876020431518555, -0.69287109375, 0.524658203125, -0.454345703125, 
325, 3827123133, 0.674039363861084, -0.402099072933197, -0.01807696372270584, -0.6193922162055969, 5.030749797821045, -5.243351459503174, 6.602291584014893, -9.661718368530273, 39.362205505371094, 21.758281707763672, -0.689453125, 0.526611328125, -0.456298828125, 
326, 3827131466, 0.6747714281082153, -0.40069136023521423, -0.01495202537626028, -0.6195907592773438, 4.960615158081055, -5.2135443687438965, 6.550696849822998, -10.00481128692627, 42.52497863769531, 21.251007080078125, -0.68603515625, 0.530029296875, -0.458740234375, 
327, 3827139799, 0.6755649447441101, -0.39912259578704834, -0.011731286533176899, -0.6198080778121948, 4.867478370666504, -5.165791034698486, 6.502263069152832, -8.98039722442627, 44.9193115234375, 22.101818084716797, -0.6845703125, 0.53271484375, -0.4658203125, 
328, 3827148132, 0.676426887512207, -0.39763960242271423, -0.00856370385736227, -0.6198729276657104, 4.813988208770752, -5.141218662261963, 6.667185306549072, -8.934175491333008, 42.85065841674805, 23.81870460510254, -0.67919921875, 0.537109375, -0.46826171875, 
329, 3827156465, 0.6771968007087708, -0.3963952660560608, -0.005276934243738651, -0.6198655962944031, 4.822849750518799, -5.265741348266602, 6.756664752960205, -12.653958320617676, 41.53813552856445, 24.39018440246582, -0.67431640625, 0.5400390625, -0.47119140625, 
330, 3827164798, 0.6778669953346252, -0.39540743827819824, -0.002021314576268196, -0.6197834610939026, 4.837765693664551, -5.479597568511963, 6.59961462020874, -15.326909065246582, 38.629234313964844, 24.08114242553711, -0.668701171875, 0.544189453125, -0.47705078125, 
331, 3827173131, 0.678543210029602, -0.3943902850151062, 0.0011923415586352348, -0.6196936368942261, 4.957399368286133, -5.495898246765137, 6.654210567474365, -14.650296211242676, 38.46248245239258, 23.97931480407715, -0.66650390625, 0.548828125, -0.478759765625, 
332, 3827181464, 0.6792383790016174, -0.39323627948760986, 0.004438704811036587, -0.6196508407592773, 4.972438335418701, -5.461562156677246, 6.608437538146973, -13.559947967529297, 40.17115783691406, 23.878421783447266, -0.662353515625, 0.550537109375, -0.484375, 
333, 3827189797, 0.6799377202987671, -0.3920086622238159, 0.007594957947731018, -0.6196309328079224, 4.850423336029053, -5.434968948364258, 6.646793365478516, -12.069465637207031, 40.09709548950195, 23.220582962036133, -0.658447265625, 0.552978515625, -0.48486328125, 
334, 3827198130, 0.6806044578552246, -0.390794038772583, 0.010714978910982609, -0.619620144367218, 4.634814739227295, -5.39129114151001, 6.679745674133301, -12.069130897521973, 39.684207916259766, 22.656526565551758, -0.653076171875, 0.5595703125, -0.487060546875, 
335, 3827206463, 0.6812248826026917, -0.3897314667701721, 0.013767254538834095, -0.6195471882820129, 4.481715202331543, -5.374252796173096, 6.743249416351318, -13.161118507385254, 37.445701599121094, 22.46167755126953, -0.650634765625, 0.559814453125, -0.491455078125, 
336, 3827214796, 0.6818491220474243, -0.3886755704879761, 0.016797054558992386, -0.6194491386413574, 4.386798858642578, -5.414644718170166, 6.6391401290893555, -13.027090072631836, 37.023460388183594, 22.60410499572754, -0.644287109375, 0.563232421875, -0.496337890625, 
337, 3827223129, 0.6825266480445862, -0.38759541511535645, 0.01976979523897171, -0.619292140007019, 4.352543830871582, -5.334926605224609, 6.6459784507751465, -12.03107738494873, 36.38698959350586, 23.315126419067383, -0.641357421875, 0.568603515625, -0.497802734375, 
338, 3827231462, 0.6832380294799805, -0.38661471009254456, 0.022838067263364792, -0.6190149188041687, 4.330920696258545, -5.197485446929932, 6.733110427856445, -13.641297340393066, 35.76774597167969, 25.209257125854492, -0.639892578125, 0.573486328125, -0.49951171875, 
339, 3827239795, 0.6838634610176086, -0.38585758209228516, 0.026052193716168404, -0.6186696290969849, 4.173618316650391, -5.174462795257568, 6.712265968322754, -17.450653076171875, 34.918663024902344, 25.82622718811035, -0.634033203125, 0.57568359375, -0.50439453125, 
340, 3827248128, 0.6843461394309998, -0.3853388726711273, 0.02930900827050209, -0.6183134913444519, 4.106419086456299, -5.347418785095215, 6.731959819793701, -20.83024024963379, 33.26801300048828, 24.851362228393555, -0.630615234375, 0.579833984375, -0.5048828125, 
341, 3827256461, 0.6847757697105408, -0.38491925597190857, 0.032486505806446075, -0.617940366268158, 4.164729118347168, -5.427590847015381, 6.732551574707031, -21.36375617980957, 31.625566482543945, 24.10572624206543, -0.627197265625, 0.584228515625, -0.5078125, 
342, 3827264794, 0.6852240562438965, -0.38437652587890625, 0.035585418343544006, -0.6176104545593262, 4.303968906402588, -5.492242813110352, 6.732934951782227, -19.430721282958984, 32.136695861816406, 23.489702224731445, -0.625732421875, 0.588134765625, -0.509033203125, 
343, 3827273127, 0.6857046484947205, -0.38358354568481445, 0.0386008583009243, -0.617388904094696, 4.300573348999023, -5.597533702850342, 6.691658020019531, -16.1278133392334, 34.04739761352539, 22.429838180541992, -0.618896484375, 0.591064453125, -0.510986328125, 
344, 3827281460, 0.6862072348594666, -0.38279423117637634, 0.04142414778470993, -0.6171373128890991, 4.1474714279174805, -5.658012390136719, 6.765797138214111, -14.441350936889648, 32.02018356323242, 21.880699157714844, -0.615966796875, 0.596923828125, -0.514892578125, 
345, 3827289793, 0.6867167353630066, -0.38207852840423584, 0.04418352246284485, -0.6168228387832642, 4.023298263549805, -5.616588115692139, 6.828874111175537, -14.582986831665039, 30.473047256469727, 22.158985137939453, -0.612548828125, 0.598388671875, -0.515869140625, 
346, 3827298126, 0.687282145023346, -0.3813294768333435, 0.046935517340898514, -0.616453230381012, 3.9056954383850098, -5.567442893981934, 6.872182846069336, -13.956460952758789, 30.345430374145508, 23.128814697265625, -0.605712890625, 0.601318359375, -0.519775390625, 
347, 3827306459, 0.6878396272659302, -0.38060569763183594, 0.04968629032373428, -0.6160628199577332, 3.8095035552978516, -5.606905937194824, 6.837342262268066, -14.227537155151367, 30.032703399658203, 23.24243927001953, -0.604248046875, 0.603515625, -0.518798828125, 
348, 3827314792, 0.6883937120437622, -0.37991470098495483, 0.05237571522593498, -0.6156476140022278, 3.7442848682403564, -5.678711414337158, 6.76193904876709, -14.065347671508789, 29.030241012573242, 23.098617553710938, -0.601806640625, 0.609375, -0.51904296875, 
349, 3827323125, 0.6889523863792419, -0.3792515993118286, 0.054991692304611206, -0.6152032613754272, 3.723099708557129, -5.7251811027526855, 6.821796417236328, -13.692375183105469, 27.960920333862305, 23.014240264892578, -0.598388671875, 0.60986328125, -0.521484375, 
350, 3827331458, 0.6894176006317139, -0.3786140978336334, 0.057705555111169815, -0.6148260831832886, 3.6946089267730713, -5.816185474395752, 6.89504861831665, -15.212121963500977, 29.07539939880371, 22.072919845581055, -0.593994140625, 0.61572265625, -0.5244140625, 
351, 3827339791, 0.6898464560508728, -0.37808480858802795, 0.06031665578484535, -0.6144201755523682, 3.6842331886291504, -5.897320747375488, 6.827248573303223, -15.567378044128418, 27.081029891967773, 21.42422103881836, -0.589599609375, 0.61865234375, -0.52783203125, 
352, 3827348124, 0.690311074256897, -0.37758171558380127, 0.06273971498012543, -0.613964855670929, 3.6610958576202393, -5.8406476974487305, 6.810979843139648, -14.095402717590332, 24.772977828979492, 21.188261032104492, -0.5849609375, 0.62158203125, -0.52783203125, 
353, 3827356457, 0.6907898783683777, -0.37696659564971924, 0.06507834792137146, -0.6135607361793518, 3.6340317726135254, -5.802422523498535, 6.766851902008057, -12.18916130065918, 25.188949584960938, 20.48650360107422, -0.582763671875, 0.626953125, -0.531494140625, 
354, 3827364790, 0.6912702322006226, -0.3762342929840088, 0.0673086941242218, -0.6132285594940186, 3.5198497772216797, -5.8002848625183105, 6.707137584686279, -10.101791381835938, 25.502429962158203, 19.35342025756836, -0.5791015625, 0.626953125, -0.53125, 
355, 3827373123, 0.6917904019355774, -0.37546175718307495, 0.06935513019561768, -0.6128870844841003, 3.4167001247406006, -5.763319492340088, 6.653947830200195, -7.957977294921875, 24.024452209472656, 18.871299743652344, -0.57861328125, 0.6279296875, -0.532470703125, 
356, 3827381456, 0.6923472285270691, -0.3746955692768097, 0.07125388085842133, -0.6125093102455139, 3.4882590770721436, -5.738644123077393, 6.613440036773682, -6.632849216461182, 22.328378677368164, 18.749019622802734, -0.5732421875, 0.630859375, -0.5341796875, 
357, 3827389789, 0.6929367780685425, -0.37391236424446106, 0.07304410636425018, -0.6121102571487427, 3.5316288471221924, -5.796853065490723, 6.608296871185303, -5.395360946655273, 21.313377380371094, 18.691373825073242, -0.57275390625, 0.6337890625, -0.537353515625, 
358, 3827398122, 0.6934979557991028, -0.37317487597465515, 0.07473783195018768, -0.6117203235626221, 3.530555486679077, -5.804567337036133, 6.599717140197754, -5.168931007385254, 20.066499710083008, 17.8172607421875, -0.56787109375, 0.638427734375, -0.536865234375, 
359, 3827406455, 0.6940533518791199, -0.3724926710128784, 0.07632355391979218, -0.6113102436065674, 3.537224531173706, -5.734015941619873, 6.559815406799316, -4.824046611785889, 18.492746353149414, 17.356779098510742, -0.56591796875, 0.638916015625, -0.537841796875, 
360, 3827414788, 0.6945785284042358, -0.3718138039112091, 0.07787036895751953, -0.6109318137168884, 3.533020496368408, -5.647274494171143, 6.588010311126709, -4.664636135101318, 18.268402099609375, 16.589847564697266, -0.5625, 0.641845703125, -0.540283203125, 
361, 3827423121, 0.6950242519378662, -0.371092826128006, 0.07940667867660522, -0.6106655597686768, 3.4262728691101074, -5.646344184875488, 6.5106635093688965, -4.446467399597168, 19.19921112060547, 14.850245475769043, -0.56103515625, 0.64111328125, -0.543212890625, 
362, 3827431454, 0.6954602599143982, -0.3704257905483246, 0.08075456321239471, -0.610397458076477, 3.3128445148468018, -5.6052751541137695, 6.473020076751709, -3.443976402282715, 16.928224563598633, 13.75946044921875, -0.55859375, 0.647705078125, -0.54296875, 
363, 3827439787, 0.6958705186843872, -0.36985549330711365, 0.08204282075166702, -0.6101034283638, 3.193894386291504, -5.490956783294678, 6.554007053375244, -4.016070365905762, 15.460811614990234, 13.388054847717285, -0.5537109375, 0.6455078125, -0.546142578125, 
364, 3827448120, 0.69621342420578, -0.36937791109085083, 0.08329436928033829, -0.6098319888114929, 3.0633561611175537, -5.473337173461914, 6.570833683013916, -4.924658298492432, 14.505244255065918, 12.308923721313477, -0.55224609375, 0.646728515625, -0.545654296875, 
365, 3827456453, 0.6964553594589233, -0.3690030872821808, 0.08452236652374268, -0.6096137166023254, 2.9776766300201416, -5.4949164390563965, 6.602775573730469, -6.150580883026123, 13.81998348236084, 10.720378875732422, -0.55126953125, 0.650634765625, -0.546142578125, 
366, 3827464786, 0.6965826153755188, -0.3687313199043274, 0.08567914366722107, -0.6094714403152466, 2.939570665359497, -5.462208271026611, 6.63984489440918, -7.048641681671143, 12.77658748626709, 8.54391098022461, -0.548828125, 0.651123046875, -0.545166015625, 
367, 3827473119, 0.6966254115104675, -0.36853355169296265, 0.08670653402805328, -0.6093968749046326, 2.965259552001953, -5.4676833152771, 6.628713607788086, -7.008146286010742, 11.376617431640625, 6.451920032501221, -0.548828125, 0.652099609375, -0.547119140625, 
368, 3827481452, 0.6966172456741333, -0.36838579177856445, 0.08759889006614685, -0.6093677282333374, 3.012028932571411, -5.550294876098633, 6.598418235778809, -6.571179389953613, 9.937799453735352, 4.837031364440918, -0.54638671875, 0.651611328125, -0.547607421875, 
369, 3827489785, 0.696549654006958, -0.3683170676231384, 0.08841800689697266, -0.6093681454658508, 3.029954195022583, -5.613476753234863, 6.610764026641846, -6.966202259063721, 8.812438011169434, 3.5980193614959717, -0.54541015625, 0.652587890625, -0.548095703125, 
370, 3827498118, 0.6964489817619324, -0.3682808578014374, 0.0891561210155487, -0.6093976497650146, 3.050177574157715, -5.69837760925293, 6.621299743652344, -6.7460856437683105, 7.934932231903076, 2.584656000137329, -0.544921875, 0.656982421875, -0.54931640625, 
371, 3827506451, 0.6963244676589966, -0.36822637915611267, 0.08982051908969879, -0.609475314617157, 3.0497958660125732, -5.780831336975098, 6.6505303382873535, -6.00232458114624, 7.672616481781006, 1.5798346996307373, -0.544921875, 0.655517578125, -0.55078125, 
372, 3827514784, 0.6961804032325745, -0.36813828349113464, 0.0903853327035904, -0.6096094846725464, 3.0451161861419678, -5.86113977432251, 6.697539329528809, -4.887184143066406, 7.29180908203125, 0.4049098789691925, -0.5439453125, 0.656982421875, -0.54931640625, 
373, 3827523117, 0.6960903406143188, -0.3680594861507416, 0.09080132097005844, -0.6096984148025513, 3.0910658836364746, -5.916834831237793, 6.708436489105225, -3.499007225036621, 5.5108137130737305, 0.5355552434921265, -0.54443359375, 0.656005859375, -0.5498046875, 
374, 3827531450, 0.6960415840148926, -0.3679451644420624, 0.09113205224275589, -0.6097733974456787, 3.160161018371582, -5.948950290679932, 6.768947124481201, -2.2635557651519775, 4.854243755340576, 0.6189808249473572, -0.5419921875, 0.656005859375, -0.550537109375, 
375, 3827539783, 0.6959839463233948, -0.3678048551082611, 0.09145735949277878, -0.6098752021789551, 3.1956207752227783, -5.867116928100586, 6.821134090423584, -1.970861792564392, 5.1846160888671875, 0.299596905708313, -0.541015625, 0.657958984375, -0.548828125, 
376, 3827548116, 0.6959130764007568, -0.3677634596824646, 0.09175344556570053, -0.6099366545677185, 3.1812455654144287, -5.842967510223389, 6.8477983474731445, -2.801032066345215, 3.8680057525634766, 0.29505038261413574, -0.5439453125, 0.657958984375, -0.5498046875, 
377, 3827556449, 0.6958137154579163, -0.3678509294986725, 0.09208807349205017, -0.6099467873573303, 3.0910491943359375, -5.89218807220459, 6.836279392242432, -4.5553765296936035, 2.95265531539917, 0.588512659072876, -0.54248046875, 0.657958984375, -0.5498046875, 
378, 3827564782, 0.6956697702407837, -0.3679920732975006, 0.09248234331607819, -0.6099663376808167, 2.957848310470581, -5.908933639526367, 6.804984092712402, -5.794260025024414, 3.1588497161865234, 0.350146621465683, -0.54296875, 0.657958984375, -0.54931640625, 
379, 3827573115, 0.6954982876777649, -0.3682076036930084, 0.09281500428915024, -0.6099812984466553, 2.87760329246521, -5.958470821380615, 6.778454780578613, -6.1205339431762695, 1.9728083610534668, -0.2351258546113968, -0.54150390625, 0.658447265625, -0.54931640625, 
380, 3827581448, 0.6953149437904358, -0.3684590756893158, 0.09310490638017654, -0.6099942922592163, 2.893176555633545, -6.017965316772461, 6.797400951385498, -6.183852195739746, 1.25251042842865, -0.5870398283004761, -0.54345703125, 0.659423828125, -0.55078125, 
381, 3827589781, 0.6951091289520264, -0.36872661113739014, 0.09335841238498688, -0.6100283861160278, 2.8830080032348633, -6.0602312088012695, 6.888791084289551, -6.104692459106445, 0.922022819519043, -1.1733113527297974, -0.54345703125, 0.659423828125, -0.548828125, 
382, 3827598114, 0.6949002742767334, -0.36901751160621643, 0.0935366079211235, -0.6100630760192871, 2.9209930896759033, -6.134377479553223, 6.868924617767334, -5.722681522369385, -0.005225303582847118, -1.6248390674591064, -0.54296875, 0.65869140625, -0.54736328125, 
383, 3827606447, 0.6947228908538818, -0.36930784583091736, 0.09359049797058105, -0.6100812554359436, 3.03804612159729, -6.170743465423584, 6.866707801818848, -4.524665355682373, -1.2947099208831787, -1.8263846635818481, -0.53955078125, 0.662109375, -0.548828125, 
384, 3827614780, 0.6945756673812866, -0.369520366191864, 0.09358811378479004, -0.6101204752922058, 3.1136932373046875, -6.147944450378418, 6.885638236999512, -3.1410093307495117, -1.1286271810531616, -1.9669811725616455, -0.54248046875, 0.658203125, -0.54638671875, 
385, 3827623113, 0.6944525241851807, -0.36961713433265686, 0.09359550476074219, -0.6102008819580078, 3.135173797607422, -6.173463821411133, 6.880632400512695, -1.9295716285705566, 0.13149067759513855, -1.951830506324768, -0.5439453125, 0.659912109375, -0.54833984375, 
386, 3827631446, 0.6943883895874023, -0.3696098029613495, 0.09356686472892761, -0.6102827787399292, 3.132408857345581, -6.225147724151611, 6.898051738739014, -0.34296178817749023, 0.5747065544128418, -1.5280299186706543, -0.5419921875, 0.6591796875, -0.5458984375, 
387, 3827639779, 0.6943913698196411, -0.36950427293777466, 0.0934668555855751, -0.6103585362434387, 3.075669765472412, -6.272127151489258, 6.898387432098389, 1.5397100448608398, 0.6173158884048462, -1.134992241859436, -0.54150390625, 0.659423828125, -0.54931640625, 
388, 3827648112, 0.6944624781608582, -0.3693239390850067, 0.09325428307056427, -0.6104191541671753, 3.0522749423980713, -6.271406173706055, 6.920422077178955, 3.5123393535614014, -0.011219034902751446, -0.9020822048187256, -0.54296875, 0.662109375, -0.548583984375, 
389, 3827656445, 0.694571852684021, -0.36912697553634644, 0.09296587854623795, -0.6104578971862793, 3.012209415435791, -6.23759651184082, 6.9481329917907715, 4.486077308654785, -0.7387785911560059, -0.7280975580215454, -0.54345703125, 0.6591796875, -0.5478515625, 
390, 3827664778, 0.694683313369751, -0.36893048882484436, 0.09264076501131058, -0.6104994416236877, 2.9826347827911377, -6.207560062408447, 6.942351341247559, 4.7917704582214355, -1.1001315116882324, -0.9328704476356506, -0.544921875, 0.656005859375, -0.548828125, 
391, 3827673111, 0.6947473883628845, -0.36876776814460754, 0.09230418503284454, -0.6105756163597107, 2.990135908126831, -6.147100925445557, 6.945379734039307, 4.382083415985107, -1.2387940883636475, -1.7543318271636963, -0.54248046875, 0.66015625, -0.54736328125, 
392, 3827681444, 0.6947459578514099, -0.3686765134334564, 0.0920071229338646, -0.610677182674408, 3.02510666847229, -6.087234973907471, 7.018248558044434, 3.054215431213379, -1.2672770023345947, -2.4452755451202393, -0.54345703125, 0.655517578125, -0.549072265625, 
393, 3827689777, 0.6947084069252014, -0.36872598528862, 0.09169310331344604, -0.6107372641563416, 3.0802159309387207, -6.09301233291626, 7.02498197555542, 1.6293727159500122, -2.7589218616485596, -2.6091811656951904, -0.54248046875, 0.6591796875, -0.54833984375, 
394, 3827698110, 0.6946449279785156, -0.3688209056854248, 0.0914079025387764, -0.6107950210571289, 3.132338047027588, -6.04318904876709, 7.000295162200928, 0.8067843317985535, -2.8610332012176514, -2.7221527099609375, -0.54443359375, 0.653564453125, -0.549072265625, 
395, 3827706443, 0.6945458054542542, -0.3689577281475067, 0.09116452187299728, -0.6108613014221191, 3.1336002349853516, -6.030282497406006, 7.034156322479248, -0.10309729725122452, -2.710216522216797, -2.9365952014923096, -0.54443359375, 0.656005859375, -0.54833984375, 
396, 3827714776, 0.6944214701652527, -0.36911511421203613, 0.0909588485956192, -0.6109383702278137, 3.156477928161621, -6.027764320373535, 7.055822372436523, -0.7430304884910583, -2.4504241943359375, -3.0945708751678467, -0.5458984375, 0.654052734375, -0.547119140625, 
397, 3827723109, 0.6942744851112366, -0.36930033564567566, 0.09082154184579849, -0.6110139489173889, 3.221360683441162, -6.0592451095581055, 7.072630405426025, -1.6883494853973389, -1.9967447519302368, -2.9506447315216064, -0.5439453125, 0.654541015625, -0.549072265625, 
398, 3827731442, 0.6941223740577698, -0.3694698214530945, 0.09076324105262756, -0.6110929846763611, 3.205599546432495, -6.136848449707031, 7.064422130584717, -2.235072612762451, -1.1005412340164185, -2.6116273403167725, -0.54638671875, 0.657470703125, -0.55078125, 
399, 3827739775, 0.6939735412597656, -0.3696041405200958, 0.09075518697500229, -0.6111820340156555, 3.117837429046631, -6.229217529296875, 7.039006233215332, -2.281498670578003, -0.2641212046146393, -2.3745806217193604, -0.54443359375, 0.656982421875, -0.5478515625, 
400, 3827748108, 0.6938580274581909, -0.3696819543838501, 0.0907280296087265, -0.6112701892852783, 2.955737352371216, -6.306008815765381, 7.013113498687744, -1.4230371713638306, -0.03300394117832184, -2.1178488731384277, -0.5478515625, 0.656005859375, -0.5458984375, 
401, 3827756441, 0.6937882304191589, -0.3696988821029663, 0.09062350541353226, -0.6113545298576355, 2.8826608657836914, -6.3114423751831055, 6.975826263427734, 0.04592632129788399, -0.31911492347717285, -2.010141134262085, -0.54541015625, 0.655517578125, -0.546875, 
402, 3827764774, 0.6937394142150879, -0.3696669936180115, 0.09046003222465515, -0.6114534735679626, 2.8744349479675293, -6.291694164276123, 6.949989318847656, 1.1202898025512695, -0.4390920102596283, -2.2164382934570312, -0.5458984375, 0.654541015625, -0.5478515625, 
403, 3827773107, 0.6936805844306946, -0.3696482479572296, 0.09026277810335159, -0.611560583114624, 2.959771156311035, -6.260621547698975, 6.950591087341309, 1.2512298822402954, -0.8046327233314514, -2.561462163925171, -0.54833984375, 0.654052734375, -0.54736328125, 
404, 3827781440, 0.6936309933662415, -0.3696345090866089, 0.09003739804029465, -0.6116582751274109, 3.083878993988037, -6.173460006713867, 6.93823766708374, 1.4621245861053467, -1.1867843866348267, -2.551741123199463, -0.54736328125, 0.655517578125, -0.5498046875, 
405, 3827789773, 0.6935433745384216, -0.36968788504600525, 0.08982466906309128, -0.6117566823959351, 3.112757682800293, -6.157700538635254, 6.965601444244385, 0.5373226404190063, -1.5680010318756104, -2.8887221813201904, -0.54736328125, 0.653076171875, -0.546630859375, 
406, 3827798106, 0.6933899521827698, -0.3698500394821167, 0.08966746181249619, -0.6118555665016174, 3.10976505279541, -6.134887218475342, 6.9599833488464355, -1.3140869140625, -1.881980061531067, -3.3047993183135986, -0.5458984375, 0.653076171875, -0.550048828125, 
407, 3827806439, 0.6931864619255066, -0.370097815990448, 0.08956148475408554, -0.6119520664215088, 3.107557535171509, -6.106545448303223, 6.94476318359375, -2.8072307109832764, -2.051635980606079, -3.54392147064209, -0.54736328125, 0.654052734375, -0.54638671875, 
408, 3827814772, 0.6929759979248047, -0.37039196491241455, 0.08941135555505753, -0.6120344400405884, 3.1196236610412598, -6.071206569671631, 6.93056058883667, -2.9440619945526123, -2.939425468444824, -3.7534971237182617, -0.54736328125, 0.653076171875, -0.546142578125, 
409, 3827823105, 0.6927323937416077, -0.3707062005996704, 0.08925431966781616, -0.61214280128479, 3.1423282623291016, -6.08440637588501, 6.91153621673584, -3.200153350830078, -2.9890151023864746, -4.336477756500244, -0.5517578125, 0.652587890625, -0.544921875, 
410, 3827831438, 0.6924728751182556, -0.37103337049484253, 0.08908680826425552, -0.6122626066207886, 3.1420631408691406, -6.079797267913818, 6.90100622177124, -3.316466808319092, -3.1302003860473633, -4.654221534729004, -0.55224609375, 0.651123046875, -0.5439453125, 
411, 3827839771, 0.6922170519828796, -0.3713669776916504, 0.08894453942775726, -0.6123702526092529, 3.140533447265625, -6.117483615875244, 6.851212024688721, -3.5716614723205566, -2.999465227127075, -4.380174160003662, -0.55224609375, 0.653076171875, -0.5458984375, 
412, 3827848104, 0.6919625997543335, -0.37168630957603455, 0.0888252854347229, -0.6124814748764038, 3.115058183670044, -6.126402854919434, 6.782011985778809, -3.6321628093719482, -2.6573872566223145, -4.272851467132568, -0.55029296875, 0.6533203125, -0.54345703125, 
413, 3827856437, 0.6917425394058228, -0.3719365894794464, 0.0886303037405014, -0.6126062273979187, 3.0745580196380615, -6.101117134094238, 6.778217792510986, -2.131654977798462, -2.754157543182373, -4.411680221557617, -0.55029296875, 0.650390625, -0.542724609375, 
414, 3827864770, 0.6915547847747803, -0.3721292316913605, 0.08833767473697662, -0.6127435564994812, 3.030701160430908, -6.09363317489624, 6.816141605377197, -0.5942246317863464, -3.1872048377990723, -4.691964149475098, -0.5517578125, 0.65234375, -0.54248046875, 
415, 3827873103, 0.6913647055625916, -0.37232744693756104, 0.08796302229166031, -0.6128915548324585, 3.038440704345703, -6.203073978424072, 6.898074626922607, 0.0606929287314415, -3.943695306777954, -5.233986854553223, -0.55224609375, 0.651611328125, -0.54345703125, 
416, 3827881436, 0.6911048293113708, -0.3726786673069, 0.08765269070863724, -0.6130157113075256, 3.125422954559326, -6.323861598968506, 6.840014934539795, -2.337606430053711, -4.672779560089111, -5.457420349121094, -0.55224609375, 0.652587890625, -0.5439453125, 
417, 3827889769, 0.6908057332038879, -0.3731841742992401, 0.08740682899951935, -0.6130802631378174, 3.2060039043426514, -6.336331844329834, 6.813281536102295, -4.6066179275512695, -5.606418132781982, -5.073897838592529, -0.556640625, 0.652099609375, -0.54345703125, 
418, 3827898102, 0.690466582775116, -0.373761385679245, 0.08704688400030136, -0.6131619811058044, 3.223703384399414, -6.170689105987549, 6.760767936706543, -4.523743629455566, -7.168900012969971, -6.248401641845703, -0.55615234375, 0.64892578125, -0.5400390625, 
419, 3827906435, 0.6901504993438721, -0.3742136061191559, 0.08656268566846848, -0.6133103966712952, 3.2334365844726562, -5.970167636871338, 6.743592739105225, -2.077455520629883, -6.970646381378174, -7.174740791320801, -0.556640625, 0.6494140625, -0.5400390625, 
420, 3827914768, 0.6898460388183594, -0.3745341897010803, 0.0859595239162445, -0.6135421395301819, 3.1855063438415527, -5.876137733459473, 6.768021583557129, 0.32070308923721313, -6.583550930023193, -8.323935508728027, -0.55615234375, 0.650146484375, -0.541015625, 
421, 3827923101, 0.6895163059234619, -0.3748514950275421, 0.08523903787136078, -0.6138194799423218, 3.156996011734009, -5.779345512390137, 6.633359432220459, 1.2784448862075806, -7.393728733062744, -9.569734573364258, -0.56005859375, 0.646240234375, -0.5390625, 
422, 3827931434, 0.6891525983810425, -0.37514227628707886, 0.08443864434957504, -0.6141608953475952, 3.077820062637329, -5.6454033851623535, 6.5607523918151855, 2.091261863708496, -7.569007396697998, -10.846453666687012, -0.560546875, 0.646728515625, -0.5400390625, 
423, 3827939767, 0.6887069940567017, -0.37543803453445435, 0.08364419639110565, -0.6145884990692139, 3.105224847793579, -5.555615425109863, 6.508285999298096, 1.6846355199813843, -7.00418758392334, -12.326004981994629, -0.56201171875, 0.646728515625, -0.5380859375, 
424, 3827948100, 0.6881884336471558, -0.3757839798927307, 0.08275585621595383, -0.6150780916213989, 3.2406015396118164, -5.515550136566162, 6.459770202636719, 1.6845717430114746, -7.923803329467773, -14.07501220703125, -0.5615234375, 0.64404296875, -0.5361328125, 
425, 3827956433, 0.6876868009567261, -0.37605103850364685, 0.08157531172037125, -0.6156332492828369, 3.3703677654266357, -5.510289192199707, 6.584958553314209, 5.077959060668945, -9.691506385803223, -15.971709251403809, -0.56396484375, 0.642333984375, -0.537841796875, 
426, 3827964766, 0.6872327327728271, -0.3761017322540283, 0.08000341057777405, -0.6163150668144226, 3.503993272781372, -5.57073974609375, 6.716483116149902, 10.812018394470215, -10.971171379089355, -18.549274444580078, -0.56591796875, 0.640869140625, -0.535888671875, 
427, 3827973099, 0.686748743057251, -0.3760392367839813, 0.07829273492097855, -0.6171119213104248, 3.5516648292541504, -5.697856426239014, 6.776182174682617, 13.041651725769043, -10.683359146118164, -20.480838775634766, -0.5693359375, 0.63671875, -0.537353515625, 
428, 3827981432, 0.6861211061477661, -0.37612688541412354, 0.0767199695110321, -0.6179536581039429, 3.591176748275757, -5.668214797973633, 6.626097679138184, 9.747296333312988, -10.280265808105469, -21.574790954589844, -0.5693359375, 0.63623046875, -0.537841796875, 
429, 3827989765, 0.6853789687156677, -0.37649452686309814, 0.07530315220355988, -0.6187272071838379, 3.574249029159546, -5.462561130523682, 6.544554710388184, 5.127230167388916, -11.406960487365723, -21.388858795166016, -0.572265625, 0.63232421875, -0.536865234375, 
430, 3827998098, 0.6845137476921082, -0.377149760723114, 0.07412783801555634, -0.6194276213645935, 3.4976625442504883, -5.2944440841674805, 6.5575408935546875, -0.3636966943740845, -11.841209411621094, -20.800535202026367, -0.57666015625, 0.62939453125, -0.534423828125, 
431, 3828006431, 0.6835201382637024, -0.3780380189418793, 0.07319100946187973, -0.6200942993164062, 3.46840238571167, -5.264942646026611, 6.604790210723877, -5.2776360511779785, -11.612448692321777, -20.571340560913086, -0.57666015625, 0.62841796875, -0.53369140625, 
432, 3828014764, 0.6824873685836792, -0.3789840638637543, 0.07235786318778992, -0.6207518577575684, 3.4579269886016846, -5.371753692626953, 6.725995063781738, -6.927026748657227, -11.1514310836792, -20.343027114868164, -0.58056640625, 0.6259765625, -0.5341796875, 
433, 3828023097, 0.6814656853675842, -0.3799535930156708, 0.07152688503265381, -0.6213775277137756, 3.438779354095459, -5.649482250213623, 6.738447666168213, -7.129239082336426, -11.496366500854492, -19.95536994934082, -0.58349609375, 0.62451171875, -0.530517578125, 
434, 3828031430, 0.6804604530334473, -0.3809754252433777, 0.07060845196247101, -0.6219584345817566, 3.4925525188446045, -5.940358638763428, 6.643957614898682, -6.843691825866699, -13.02612590789795, -19.910058975219727, -0.584716796875, 0.62451171875, -0.530029296875, 
435, 3828039763, 0.6794664859771729, -0.3821229934692383, 0.06959547102451324, -0.622454822063446, 3.5894527435302734, -6.13783597946167, 6.545923233032227, -7.223309516906738, -15.426580429077148, -19.63510513305664, -0.5859375, 0.62158203125, -0.53076171875, 
436, 3828048096, 0.6785491108894348, -0.3833116590976715, 0.06843883544206619, -0.6228529214859009, 3.7266836166381836, -6.296653747558594, 6.490787982940674, -6.077762603759766, -17.7231502532959, -18.859785079956055, -0.589111328125, 0.62353515625, -0.528076171875, 
437, 3828056429, 0.6777400970458984, -0.38447609543800354, 0.06705126166343689, -0.6231667995452881, 3.80932879447937, -6.420242786407471, 6.490817546844482, -3.3705027103424072, -20.20462417602539, -18.336833953857422, -0.592529296875, 0.618896484375, -0.522705078125, 
438, 3828064762, 0.6770455837249756, -0.3856000602245331, 0.06547178328037262, -0.6233952045440674, 3.835026264190674, -6.453123092651367, 6.509328365325928, -0.8347812294960022, -22.21612548828125, -17.539859771728516, -0.594970703125, 0.61669921875, -0.5234375, 
439, 3828073095, 0.6764594316482544, -0.3867796063423157, 0.06379406899213791, -0.6234748363494873, 3.8156893253326416, -6.40418004989624, 6.644171714782715, -0.05695329234004021, -24.47878646850586, -15.795578956604004, -0.596923828125, 0.616455078125, -0.519775390625, 
440, 3828081428, 0.6759768128395081, -0.388007789850235, 0.06209084391593933, -0.6234071254730225, 3.816301107406616, -6.348441123962402, 6.744541168212891, 0.11869644373655319, -26.022403717041016, -13.71534538269043, -0.599365234375, 0.611083984375, -0.517578125, 
441, 3828089761, 0.6756433844566345, -0.38910287618637085, 0.06032055243849754, -0.6232597231864929, 3.861673593521118, -6.363623142242432, 6.731614589691162, 2.67301344871521, -26.045366287231445, -11.939519882202148, -0.603759765625, 0.613037109375, -0.514892578125, 
442, 3828098094, 0.6754491329193115, -0.38999196887016296, 0.058547135442495346, -0.6230837106704712, 3.954603910446167, -6.477682590484619, 6.723076820373535, 5.32070779800415, -24.590373992919922, -10.328434944152832, -0.603759765625, 0.610595703125, -0.51220703125, 
443, 3828106427, 0.6753120422363281, -0.39092621207237244, 0.05680236965417862, -0.6228082776069641, 4.012668609619141, -6.549119472503662, 6.730588436126709, 4.897854328155518, -25.27556610107422, -8.795639038085938, -0.60888671875, 0.611572265625, -0.511962890625, 
444, 3828114760, 0.6752259135246277, -0.39199554920196533, 0.0550626665353775, -0.6223856806755066, 4.016412734985352, -6.479620933532715, 6.594137191772461, 3.742856979370117, -27.23029327392578, -7.073695659637451, -0.610107421875, 0.6083984375, -0.508056640625, 
445, 3828123093, 0.6751555800437927, -0.39321380853652954, 0.05340638756752014, -0.6218376159667969, 4.000265598297119, -6.41459846496582, 6.502629280090332, 1.6538481712341309, -28.407434463500977, -5.435600757598877, -0.61328125, 0.6083984375, -0.506591796875, 
446, 3828131426, 0.6750396490097046, -0.39472880959510803, 0.051846422255039215, -0.6211351752281189, 4.028289794921875, -6.4545817375183105, 6.401656150817871, -2.302055597305298, -30.86225700378418, -4.0903401374816895, -0.61474609375, 0.6064453125, -0.503662109375, 
447, 3828139759, 0.6749134659767151, -0.3965439796447754, 0.050295040011405945, -0.6202430129051208, 4.03510856628418, -6.517546653747559, 6.372128963470459, -5.333568572998047, -34.356319427490234, -2.5844919681549072, -0.619140625, 0.60595703125, -0.500732421875, 
448, 3828148092, 0.6747843623161316, -0.39855319261550903, 0.04874398186802864, -0.6192188262939453, 4.056720733642578, -6.482672691345215, 6.5288567543029785, -7.264859199523926, -36.74039840698242, -1.514481782913208, -0.6201171875, 0.606689453125, -0.49462890625, 
