sep=,
PacketCounter,SampleTimeFine,Quat_W,Quat_X,Quat_Y,Quat_Z,Acc_X,Acc_Y,Acc_Z,Gyr_X,Gyr_Y,Gyr_Z,Mag_X,Mag_Y,Mag_Z,
0, 4015482265, 0.636588454246521, -0.3038460314273834, -0.28805777430534363, -0.6476457715034485, 0, 0, 0, 0, 0, 0, -0.7265625, 0.10693359375, -0.40966796875, 
1, 4015490598, 0.6345254182815552, -0.30449017882347107, -0.2879003584384918, -0.64943528175354, 7.510892868041992, -0.058641500771045685, 6.384639739990234, -23.179838180541992, -4.74335241317749, -30.896570205688477, -0.7265625, 0.102783203125, -0.40625, 
2, 4015498931, 0.6324801445007324, -0.3051881492137909, -0.2876649498939514, -0.6512045860290527, 7.5629706382751465, -0.24386033415794373, 6.348388671875, -24.225435256958008, -4.484314918518066, -29.982908248901367, -0.7255859375, 0.101806640625, -0.405029296875, 
3, 4015507264, 0.6304567456245422, -0.3059116303920746, -0.28737297654151917, -0.6529538035392761, 7.48973274230957, -0.3710174262523651, 6.38653564453125, -24.747943878173828, -4.2921576499938965, -29.311870574951172, -0.72705078125, 0.099609375, -0.409423828125, 
4, 4015515597, 0.6284472942352295, -0.306636780500412, -0.2871110141277313, -0.6546637415885925, 7.4122138023376465, -0.4371720552444458, 6.425731658935547, -24.309755325317383, -4.604496955871582, -28.926267623901367, -0.728515625, 0.095703125, -0.407958984375, 
5, 4015523930, 0.6265055537223816, -0.3072916567325592, -0.28697994351387024, -0.6562734246253967, 7.375978946685791, -0.5198051333427429, 6.440840721130371, -21.811288833618164, -5.332224369049072, -28.31915855407715, -0.728515625, 0.096435546875, -0.403076171875, 
6, 4015532263, 0.6246442198753357, -0.3078235387802124, -0.2870212495326996, -0.6577786207199097, 7.4003400802612305, -0.5270565748214722, 6.458987236022949, -18.47605323791504, -5.758188247680664, -27.867393493652344, -0.7275390625, 0.09423828125, -0.40478515625, 
7, 4015540596, 0.622913122177124, -0.3082156181335449, -0.28717344999313354, -0.6591687798500061, 7.402322769165039, -0.5009865760803223, 6.439627647399902, -15.235001564025879, -5.492772579193115, -26.763031005859375, -0.726318359375, 0.092529296875, -0.4013671875, 
8, 4015548929, 0.6213381886482239, -0.3084520101547241, -0.2874436378479004, -0.6604254245758057, 7.4179277420043945, -0.5110839605331421, 6.392989635467529, -11.67500114440918, -4.968729019165039, -25.279855728149414, -0.728271484375, 0.0888671875, -0.404541015625, 
9, 4015557262, 0.6199411749839783, -0.3085545301437378, -0.2878066599369049, -0.6615314483642578, 7.436513423919678, -0.5604566931724548, 6.335591793060303, -8.305164337158203, -4.553419589996338, -23.3402156829834, -0.727294921875, 0.0859375, -0.404541015625, 
10, 4015565595, 0.6187373399734497, -0.30851536989212036, -0.28829482197761536, -0.6624636650085449, 7.450201034545898, -0.6239880323410034, 6.2752485275268555, -4.481544494628906, -4.2335734367370605, -21.153316497802734, -0.728271484375, 0.0849609375, -0.401611328125, 
11, 4015573928, 0.6177337765693665, -0.30833834409713745, -0.28888097405433655, -0.6632267832756042, 7.471381664276123, -0.6910763382911682, 6.206186294555664, -0.865761399269104, -3.805713176727295, -18.891143798828125, -0.727294921875, 0.0830078125, -0.40380859375, 
12, 4015582261, 0.6169103384017944, -0.3080824911594391, -0.2895665466785431, -0.6638128757476807, 7.454728126525879, -0.7561413645744324, 6.179234981536865, 2.1483047008514404, -3.8958747386932373, -16.4406795501709, -0.727783203125, 0.0810546875, -0.4013671875, 
13, 4015590594, 0.6162831783294678, -0.30780544877052307, -0.2903088927268982, -0.6641995906829834, 7.471078395843506, -0.774438738822937, 6.167801380157471, 4.50107479095459, -4.3171257972717285, -13.318942070007324, -0.728271484375, 0.0791015625, -0.40283203125, 
14, 4015598927, 0.6158307194709778, -0.3075456917285919, -0.2910585105419159, -0.664411723613739, 7.436305999755859, -0.7308197617530823, 6.15753698348999, 5.832733631134033, -4.508720397949219, -10.169903755187988, -0.729248046875, 0.076904296875, -0.403564453125, 
15, 4015607260, 0.6154958605766296, -0.3073941171169281, -0.2917896509170532, -0.6644713878631592, 7.432455062866211, -0.7050608396530151, 6.179042339324951, 5.880658149719238, -5.585414886474609, -7.330436706542969, -0.729736328125, 0.07763671875, -0.40087890625, 
16, 4015615593, 0.6152340769767761, -0.30738112330436707, -0.29247915744781494, -0.6644165515899658, 7.411106586456299, -0.6355994939804077, 6.173437595367432, 5.070042610168457, -6.618487358093262, -4.927640914916992, -0.72900390625, 0.07373046875, -0.398681640625, 
17, 4015623926, 0.6150495409965515, -0.30747923254966736, -0.29308149218559265, -0.6642765402793884, 7.462375640869141, -0.5923743844032288, 6.164358615875244, 4.027441024780273, -7.017096042633057, -2.7201550006866455, -0.72705078125, 0.074951171875, -0.397216796875, 
18, 4015632259, 0.6149465441703796, -0.30764704942703247, -0.2935859262943268, -0.6640715599060059, 7.4952898025512695, -0.5916635394096375, 6.168447017669678, 3.130892276763916, -6.700479507446289, -0.6956058144569397, -0.728515625, 0.07421875, -0.398193359375, 
19, 4015640592, 0.6149371266365051, -0.3078676760196686, -0.2940244972705841, -0.6637839078903198, 7.545687675476074, -0.6033817529678345, 6.123166084289551, 2.83097505569458, -6.668385028839111, 1.3145610094070435, -0.730712890625, 0.073486328125, -0.395751953125, 
20, 4015648925, 0.61502605676651, -0.3081558346748352, -0.29442715644836426, -0.6633890271186829, 7.568190097808838, -0.6300264596939087, 6.132319450378418, 2.7670161724090576, -6.967865943908691, 3.5780651569366455, -0.72900390625, 0.073486328125, -0.395263671875, 
21, 4015657258, 0.6151961088180542, -0.3085329532623291, -0.29485276341438293, -0.6628668904304504, 7.540977954864502, -0.5827175974845886, 6.140741348266602, 3.098900079727173, -8.25413703918457, 5.62492561340332, -0.7275390625, 0.073486328125, -0.394775390625, 
22, 4015665591, 0.6154390573501587, -0.3089819848537445, -0.2953323721885681, -0.6622183918952942, 7.5693182945251465, -0.5210276246070862, 6.159728050231934, 3.791304349899292, -9.536847114562988, 7.451553821563721, -0.731201171875, 0.073974609375, -0.392822265625, 
23, 4015673924, 0.6157056093215942, -0.30949103832244873, -0.29589009284973145, -0.6614834666252136, 7.534294128417969, -0.4371178150177002, 6.182974338531494, 4.459425926208496, -11.087018966674805, 8.279199600219727, -0.731201171875, 0.074462890625, -0.393798828125, 
24, 4015682257, 0.6159418821334839, -0.3100541830062866, -0.296562522649765, -0.6606982946395874, 7.575396537780762, -0.29994556307792664, 6.213382244110107, 5.107517242431641, -12.816341400146484, 8.189986228942871, -0.732177734375, 0.075927734375, -0.39208984375, 
25, 4015690590, 0.6161355972290039, -0.31062212586402893, -0.2973334491252899, -0.6599039435386658, 7.625641345977783, -0.1389833688735962, 6.215458393096924, 5.829659938812256, -13.975948333740234, 7.450273036956787, -0.732666015625, 0.07666015625, -0.38818359375, 
26, 4015698923, 0.616263747215271, -0.31114521622657776, -0.2981380820274353, -0.6591742634773254, 7.646821975708008, -0.0036912886425852776, 6.235755443572998, 5.961266040802002, -13.777771949768066, 6.010547637939453, -0.733154296875, 0.0791015625, -0.3876953125, 
27, 4015707256, 0.6163447499275208, -0.31163474917411804, -0.29888829588890076, -0.6585271954536438, 7.587985515594482, 0.12926726043224335, 6.322869777679443, 5.221475601196289, -12.922050476074219, 4.947812557220459, -0.733154296875, 0.076904296875, -0.38623046875, 
28, 4015715589, 0.6163977980613708, -0.31206008791923523, -0.2995755076408386, -0.6579638123512268, 7.548881530761719, 0.21845239400863647, 6.3774800300598145, 4.720128059387207, -11.493391990661621, 4.022985458374023, -0.735107421875, 0.07763671875, -0.38623046875, 
29, 4015723922, 0.6164299845695496, -0.3124482333660126, -0.30020827054977417, -0.6574606895446777, 7.53850793838501, 0.26278001070022583, 6.395120620727539, 4.217986583709717, -10.591360092163086, 3.3737411499023438, -0.735107421875, 0.078369140625, -0.38330078125, 
30, 4015732255, 0.6164360642433167, -0.31281140446662903, -0.3007979094982147, -0.657012939453125, 7.588319301605225, 0.27310827374458313, 6.4217047691345215, 3.6855170726776123, -9.80169677734375, 2.7774412631988525, -0.734619140625, 0.077392578125, -0.3818359375, 
31, 4015740588, 0.6164253354072571, -0.31312257051467896, -0.3013712763786316, -0.6566118597984314, 7.681528091430664, 0.2715127468109131, 6.419015884399414, 3.7279083728790283, -9.132551193237305, 2.058091163635254, -0.736083984375, 0.077880859375, -0.380859375, 
32, 4015748921, 0.6164229512214661, -0.31336772441864014, -0.3019331693649292, -0.6562387347221375, 7.75142240524292, 0.27943310141563416, 6.463343143463135, 4.08917236328125, -8.216049194335938, 1.699312686920166, -0.735595703125, 0.07763671875, -0.3798828125, 
33, 4015757254, 0.6164452433586121, -0.31349650025367737, -0.3024621605873108, -0.6559128165245056, 7.817351341247559, 0.29491594433784485, 6.40346622467041, 4.701146602630615, -6.649404048919678, 1.1519874334335327, -0.736572265625, 0.0771484375, -0.37890625, 
34, 4015765587, 0.6164852976799011, -0.31350550055503845, -0.3029354512691498, -0.6556523442268372, 7.870232105255127, 0.3043386936187744, 6.381366729736328, 5.00710916519165, -4.67365026473999, 0.5292797684669495, -0.736572265625, 0.0771484375, -0.37841796875, 
35, 4015773920, 0.6165242791175842, -0.3134424388408661, -0.30332431197166443, -0.655465841293335, 7.933725357055664, 0.31325656175613403, 6.396249294281006, 4.556324481964111, -3.058339834213257, -0.07233460247516632, -0.737060546875, 0.07666015625, -0.376953125, 
36, 4015782253, 0.6165335178375244, -0.31336307525634766, -0.30357474088668823, -0.655379056930542, 7.983992099761963, 0.32563552260398865, 6.414700031280518, 2.8903486728668213, -1.3675696849822998, -0.6297772526741028, -0.7373046875, 0.078125, -0.376708984375, 
37, 4015790586, 0.6164925694465637, -0.3133034110069275, -0.30373188853263855, -0.6553733348846436, 8.02631664276123, 0.30358266830444336, 6.370426654815674, 1.3422755002975464, -0.6804677248001099, -1.3126014471054077, -0.736083984375, 0.07568359375, -0.376953125, 
38, 4015798919, 0.6164290904998779, -0.3132763206958771, -0.30384156107902527, -0.6553951501846313, 8.034523963928223, 0.32025423645973206, 6.340673446655273, 0.41017353534698486, -0.48154759407043457, -1.3795313835144043, -0.736083984375, 0.07763671875, -0.3798828125, 
39, 4015807252, 0.6163603067398071, -0.3132813274860382, -0.30387598276138306, -0.6554415225982666, 8.070402145385742, 0.315569132566452, 6.31196928024292, -0.6524457931518555, -0.11349666863679886, -1.206456184387207, -0.736083984375, 0.07666015625, -0.376953125, 
40, 4015815585, 0.616260290145874, -0.31333401799201965, -0.30382710695266724, -0.6555331349372864, 8.152923583984375, 0.24658174812793732, 6.255184173583984, -2.146268129348755, 0.29065755009651184, -1.2837086915969849, -0.736083984375, 0.076171875, -0.3759765625, 
41, 4015823918, 0.6161518096923828, -0.3133956789970398, -0.3036816716194153, -0.655673086643219, 8.172101020812988, 0.17669333517551422, 6.226860523223877, -3.3143537044525146, 1.1364139318466187, -1.3472574949264526, -0.737060546875, 0.076171875, -0.376953125, 
42, 4015832251, 0.6160185933113098, -0.31347134709358215, -0.30346783995628357, -0.655860960483551, 8.163409233093262, 0.10044758766889572, 6.254525661468506, -4.370134353637695, 1.757905125617981, -1.5912971496582031, -0.735107421875, 0.0771484375, -0.37890625, 
43, 4015840584, 0.6158542633056641, -0.31354957818984985, -0.3032742142677307, -0.6560673713684082, 8.091522216796875, 0.08311488479375839, 6.1969780921936035, -4.4091572761535645, 1.4486002922058105, -2.1363041400909424, -0.736572265625, 0.076171875, -0.376953125, 
44, 4015848917, 0.6157218217849731, -0.3136000633239746, -0.3031519651412964, -0.6562240123748779, 8.075981140136719, 0.12227822840213776, 6.151303768157959, -3.198577404022217, 1.0781927108764648, -1.8220940828323364, -0.735107421875, 0.07568359375, -0.37744140625, 
45, 4015857250, 0.6156516075134277, -0.31356382369995117, -0.3029569685459137, -0.65639728307724, 7.993430137634277, 0.13287107646465302, 6.1727986335754395, -2.907343626022339, 2.742938995361328, -1.477608561515808, -0.736572265625, 0.077392578125, -0.38232421875, 
46, 4015865583, 0.6156084537506104, -0.3134528398513794, -0.30254656076431274, -0.6566801071166992, 7.85809326171875, -0.0034325544256716967, 6.227836608886719, -4.574087619781494, 5.891594886779785, -1.5144929885864258, -0.732666015625, 0.0771484375, -0.37841796875, 
47, 4015873916, 0.6155832409858704, -0.31339624524116516, -0.3020585775375366, -0.6569552421569824, 7.696820259094238, -0.14023733139038086, 6.165454864501953, -5.610132217407227, 6.034675598144531, -0.7557992339134216, -0.735107421875, 0.0751953125, -0.37841796875, 
48, 4015882249, 0.615607738494873, -0.3134821951389313, -0.3017016649246216, -0.6570553183555603, 7.682805061340332, -0.1080489531159401, 6.123174667358398, -4.705309867858887, 3.150999069213867, 1.2316477298736572, -0.735107421875, 0.07763671875, -0.37841796875, 
49, 4015890582, 0.6156589984893799, -0.31373322010040283, -0.30129751563072205, -0.6570730209350586, 7.850396156311035, 0.0744357705116272, 6.191127777099609, -6.058791160583496, 1.7528972625732422, 3.0307657718658447, -0.736083984375, 0.077880859375, -0.38330078125, 
50, 4015898915, 0.6156460642814636, -0.31420356035232544, -0.3005833327770233, -0.6571874618530273, 7.957314968109131, 0.16918052732944489, 6.3729634284973145, -11.407196998596191, 2.611102342605591, 3.9076695442199707, -0.735595703125, 0.077880859375, -0.3818359375, 
51, 4015907248, 0.6155352592468262, -0.31477028131484985, -0.2993905544281006, -0.6575643420219421, 7.913640975952148, 0.12161414325237274, 6.483208179473877, -18.043594360351562, 6.4564924240112305, 3.237550735473633, -0.735107421875, 0.079345703125, -0.382080078125, 
52, 4015915581, 0.6153901219367981, -0.31525033712387085, -0.2981417775154114, -0.6580374836921692, 7.779788970947266, -0.027306489646434784, 6.179275989532471, -18.374300003051758, 8.05377197265625, 2.027790069580078, -0.731689453125, 0.079833984375, -0.38330078125, 
53, 4015923914, 0.6153728365898132, -0.3155182898044586, -0.2972261905670166, -0.658339262008667, 7.663558483123779, -0.2239551842212677, 5.944257736206055, -12.293604850769043, 6.871467590332031, 2.290668487548828, -0.73291015625, 0.083251953125, -0.383544921875, 
54, 4015932247, 0.6154537796974182, -0.3157718777656555, -0.2964070439338684, -0.6585112810134888, 7.709887504577637, -0.37951505184173584, 6.143759250640869, -10.356760025024414, 6.086955547332764, 3.8302643299102783, -0.73291015625, 0.083251953125, -0.385009765625, 
55, 4015940580, 0.6155705451965332, -0.3161911964416504, -0.29538485407829285, -0.6586602330207825, 7.862231731414795, -0.35357776284217834, 6.42413854598999, -13.333440780639648, 6.287360668182373, 5.8779425621032715, -0.73291015625, 0.084228515625, -0.387451171875, 
56, 4015948913, 0.6157418489456177, -0.3166908919811249, -0.29421138763427734, -0.658785343170166, 7.955796718597412, -0.27237457036972046, 6.554525852203369, -15.063015937805176, 7.020312309265137, 7.584901332855225, -0.7333984375, 0.083740234375, -0.384033203125, 
57, 4015957246, 0.616026759147644, -0.3171212077140808, -0.29308322072029114, -0.6588147282600403, 8.027371406555176, -0.36755871772766113, 6.443525791168213, -13.170613288879395, 7.245231628417969, 8.920633316040039, -0.7314453125, 0.087158203125, -0.38525390625, 
58, 4015965579, 0.6164507269859314, -0.3173908293247223, -0.2920352518558502, -0.6587536931037903, 8.118959426879883, -0.6196529269218445, 6.397754192352295, -10.122200012207031, 8.250348091125488, 9.978413581848145, -0.73388671875, 0.090087890625, -0.3876953125, 
59, 4015973912, 0.6170390844345093, -0.31749188899993896, -0.2909175455570221, -0.6586487889289856, 8.018003463745117, -0.8382254838943481, 6.445125579833984, -8.421245574951172, 10.775565147399902, 11.438308715820312, -0.73291015625, 0.090576171875, -0.38720703125, 
60, 4015982245, 0.6178379654884338, -0.3174940347671509, -0.2897326648235321, -0.6584210991859436, 7.8191094398498535, -0.8472611904144287, 6.62061882019043, -6.790233612060547, 12.609289169311523, 14.308487892150879, -0.73095703125, 0.093505859375, -0.387451171875, 
61, 4015990578, 0.6188254952430725, -0.31750956177711487, -0.2884405553340912, -0.6580533385276794, 7.713992118835449, -0.6861976981163025, 6.78562068939209, -6.482863426208496, 13.475616455078125, 17.70393943786621, -0.73046875, 0.093017578125, -0.389892578125, 
62, 4015998911, 0.6199110746383667, -0.31754371523857117, -0.28696349263191223, -0.657660722732544, 7.731375217437744, -0.5223827958106995, 6.8366618156433105, -7.794811725616455, 15.224159240722656, 19.709136962890625, -0.72998046875, 0.097412109375, -0.390380859375, 
63, 4016007244, 0.6210700869560242, -0.3174973726272583, -0.2853338420391083, -0.6572986245155334, 7.712739944458008, -0.5086463689804077, 6.744252681732178, -8.282727241516113, 17.613908767700195, 20.436830520629883, -0.728515625, 0.100341796875, -0.39501953125, 
64, 4016015577, 0.6223387122154236, -0.3173089623451233, -0.2836841642856598, -0.6569035649299622, 7.679007053375244, -0.6573583483695984, 6.600693702697754, -6.646206855773926, 19.415924072265625, 21.262096405029297, -0.728515625, 0.102294921875, -0.3955078125, 
65, 4016023910, 0.6237297654151917, -0.31699106097221375, -0.28209438920021057, -0.6564221382141113, 7.59037971496582, -0.900963306427002, 6.452160835266113, -4.122537612915039, 20.11357879638672, 22.31842803955078, -0.72509765625, 0.106689453125, -0.39697265625, 
66, 4016032243, 0.6252196431159973, -0.31666767597198486, -0.2806626558303833, -0.6557744741439819, 7.5675458908081055, -1.0955491065979004, 6.489963531494141, -1.5742264986038208, 18.5253963470459, 23.94834327697754, -0.72412109375, 0.109130859375, -0.399169921875, 
67, 4016040576, 0.6268561482429504, -0.3163829445838928, -0.27934256196022034, -0.6549127101898193, 7.711325168609619, -1.0722432136535645, 6.575181484222412, 0.5663183927536011, 16.79123306274414, 26.750823974609375, -0.723876953125, 0.11181640625, -0.403564453125, 
68, 4016048909, 0.6286793351173401, -0.31603312492370605, -0.2779698073863983, -0.6539171934127808, 7.854989051818848, -0.8717029690742493, 6.573922157287598, 1.980353832244873, 18.02461814880371, 29.58646011352539, -0.722412109375, 0.11376953125, -0.404052734375, 
69, 4016057242, 0.6306681632995605, -0.31560835242271423, -0.27645188570022583, -0.6528498530387878, 7.9302215576171875, -0.7303699254989624, 6.602181911468506, 2.316208600997925, 20.21645736694336, 32.01835632324219, -0.721923828125, 0.1171875, -0.4072265625, 
70, 4016065575, 0.6327588558197021, -0.3152354657649994, -0.2746560275554657, -0.6517640352249146, 7.889886379241943, -0.6131860613822937, 6.6523518562316895, -0.11454702168703079, 22.527101516723633, 34.52145004272461, -0.721923828125, 0.12109375, -0.408447265625, 
71, 4016073908, 0.6348327994346619, -0.3150493800640106, -0.2724756598472595, -0.6507517695426941, 7.693960189819336, -0.501920759677887, 6.750967502593994, -5.5388312339782715, 24.395845413208008, 36.0803108215332, -0.721435546875, 0.12548828125, -0.409912109375, 
72, 4016082241, 0.6368271708488464, -0.3151111602783203, -0.26981696486473083, -0.6498802900314331, 7.432570934295654, -0.4262591600418091, 6.773766040802002, -12.851507186889648, 26.7225284576416, 37.16141891479492, -0.718994140625, 0.131103515625, -0.41650390625, 
73, 4016090574, 0.6387779116630554, -0.31536591053009033, -0.2666989862918854, -0.6491288542747498, 7.331540584564209, -0.5123046040534973, 6.676320552825928, -19.28413200378418, 29.32067108154297, 38.40457534790039, -0.71826171875, 0.135009765625, -0.417724609375, 
74, 4016098907, 0.6406701803207397, -0.3157845735549927, -0.26314082741737366, -0.6485124826431274, 7.286903381347656, -0.7853090763092041, 6.719931602478027, -25.39827537536621, 32.15306091308594, 39.227169036865234, -0.71533203125, 0.140869140625, -0.419189453125, 
75, 4016107240, 0.6424716114997864, -0.316274493932724, -0.2593879997730255, -0.6480031609535217, 7.104647159576416, -1.0983132123947144, 6.720398426055908, -28.546791076660156, 33.312782287597656, 38.55739212036133, -0.712890625, 0.147216796875, -0.42431640625, 
76, 4016115573, 0.6442568898200989, -0.3167599141597748, -0.2557917833328247, -0.6474227905273438, 6.968444347381592, -1.4317575693130493, 6.636430263519287, -26.924711227416992, 31.65671157836914, 38.36415100097656, -0.7109375, 0.153564453125, -0.427490234375, 
77, 4016123906, 0.6460949182510376, -0.31740209460258484, -0.25253409147262573, -0.6465549468994141, 6.983376979827881, -1.6925746202468872, 6.669467926025391, -24.063278198242188, 26.140457153320312, 40.43490219116211, -0.708740234375, 0.159423828125, -0.4287109375, 
78, 4016132239, 0.6480583548545837, -0.31814664602279663, -0.24952560663223267, -0.6453908681869507, 7.20537805557251, -1.689281940460205, 6.779740810394287, -21.17129135131836, 22.212806701660156, 43.474334716796875, -0.708251953125, 0.16455078125, -0.433349609375, 
79, 4016140572, 0.6501618027687073, -0.31881994009017944, -0.24655768275260925, -0.6440825462341309, 7.339019298553467, -1.4813158512115479, 6.866901397705078, -19.07863426208496, 22.277029037475586, 45.55574035644531, -0.708251953125, 0.17236328125, -0.435546875, 
80, 4016148905, 0.6523728370666504, -0.3192514181137085, -0.24367544054985046, -0.6427285671234131, 7.233299732208252, -1.2667937278747559, 6.732135772705078, -15.52096176147461, 23.872825622558594, 45.74470138549805, -0.704345703125, 0.178466796875, -0.437744140625, 
81, 4016157238, 0.6546756625175476, -0.31939372420310974, -0.2409287542104721, -0.641350269317627, 7.0709919929504395, -1.1806199550628662, 6.563343048095703, -11.254205703735352, 25.360088348388672, 45.18798828125, -0.70068359375, 0.185302734375, -0.440673828125, 
82, 4016165571, 0.6570248603820801, -0.3193419277667999, -0.2383609265089035, -0.6399317979812622, 6.974335670471191, -1.281800389289856, 6.427982330322266, -7.585417747497559, 25.491029739379883, 44.5452766418457, -0.7021484375, 0.191162109375, -0.441650390625, 
83, 4016173904, 0.6593740582466125, -0.31918853521347046, -0.23603194952011108, -0.6384536027908325, 7.034158229827881, -1.5004591941833496, 6.342495441436768, -4.379173278808594, 23.912309646606445, 43.68620681762695, -0.69921875, 0.19384765625, -0.445556640625, 
84, 4016182237, 0.6617293953895569, -0.31903254985809326, -0.23390911519527435, -0.6368739604949951, 7.116420745849609, -1.7275584936141968, 6.322848320007324, -2.169581174850464, 21.69175148010254, 43.77098846435547, -0.69580078125, 0.198974609375, -0.445068359375, 
85, 4016190570, 0.6641126275062561, -0.31892791390419006, -0.23191073536872864, -0.6351742744445801, 7.117000579833984, -1.9398972988128662, 6.348016738891602, -1.0566917657852173, 19.620656967163086, 44.70408630371094, -0.6953125, 0.203369140625, -0.44873046875, 
86, 4016198903, 0.6665380597114563, -0.3189191222190857, -0.23000295460224152, -0.6333290934562683, 7.052052974700928, -1.945512056350708, 6.443872451782227, -0.4671534597873688, 17.505512237548828, 46.33470153808594, -0.695068359375, 0.210693359375, -0.449951171875, 
87, 4016207236, 0.669017493724823, -0.31906789541244507, -0.22811797261238098, -0.6313185691833496, 6.944097995758057, -1.8323043584823608, 6.527983665466309, -0.9771085381507874, 15.318205833435059, 48.69511413574219, -0.691650390625, 0.215087890625, -0.4521484375, 
88, 4016215569, 0.6714826226234436, -0.3194120228290558, -0.22614295780658722, -0.629234254360199, 6.718424320220947, -1.6770343780517578, 6.724837303161621, -3.48295521736145, 14.154268264770508, 50.16471481323242, -0.691162109375, 0.22021484375, -0.456787109375, 
89, 4016223902, 0.6737471222877502, -0.32017046213150024, -0.2241578996181488, -0.6271350979804993, 6.286710262298584, -1.5978724956512451, 6.985683441162109, -8.135918617248535, 9.900936126708984, 49.9902229309082, -0.688720703125, 0.226806640625, -0.454833984375, 
90, 4016232235, 0.6758636832237244, -0.3213113248348236, -0.22233262658119202, -0.6249200701713562, 6.060654163360596, -1.4660807847976685, 7.013051509857178, -10.659618377685547, 4.224040508270264, 50.19874954223633, -0.68896484375, 0.230712890625, -0.45703125, 
91, 4016240568, 0.6778752207756042, -0.3227473795413971, -0.22035743296146393, -0.6226968765258789, 6.151443004608154, -1.3742761611938477, 7.318373203277588, -15.065662384033203, 2.6549603939056396, 51.00260925292969, -0.68505859375, 0.23779296875, -0.455810546875, 
92, 4016248901, 0.6797080636024475, -0.3243345022201538, -0.21789656579494476, -0.6207370758056641, 6.213698863983154, -1.2211637496948242, 7.406149387359619, -22.14932632446289, 6.551767349243164, 49.70018768310547, -0.68505859375, 0.244873046875, -0.45458984375, 
93, 4016257234, 0.6813338994979858, -0.325920969247818, -0.21515674889087677, -0.6190770864486694, 6.072782516479492, -1.21644127368927, 7.181845664978027, -26.42022705078125, 9.84492015838623, 46.301780700683594, -0.684326171875, 0.251220703125, -0.456787109375, 
94, 4016265567, 0.6828482151031494, -0.3273976743221283, -0.2124832570552826, -0.6175510883331299, 5.981704235076904, -1.4451478719711304, 6.890468597412109, -25.83611297607422, 10.507865905761719, 43.365882873535156, -0.683837890625, 0.259521484375, -0.458251953125, 
95, 4016273900, 0.6843358278274536, -0.3286707401275635, -0.21009120345115662, -0.6160447001457214, 6.101385593414307, -1.8192631006240845, 6.712202548980713, -21.598400115966797, 9.526784896850586, 41.202178955078125, -0.681396484375, 0.262939453125, -0.458251953125, 
96, 4016282233, 0.6858775019645691, -0.3296470046043396, -0.20814500749111176, -0.6144673228263855, 6.3621673583984375, -2.142521619796753, 6.546632289886475, -14.59229850769043, 7.731578826904297, 39.44145965576172, -0.6796875, 0.26953125, -0.45849609375, 
97, 4016290566, 0.6875898838043213, -0.33018937706947327, -0.20674994587898254, -0.6127308011054993, 6.565924644470215, -2.3500759601593018, 6.325873374938965, -4.60111665725708, 5.916115760803223, 38.65904235839844, -0.6796875, 0.273681640625, -0.461181640625, 
98, 4016298899, 0.6895332932472229, -0.3302227556705475, -0.20596742630004883, -0.61078941822052, 6.661046981811523, -2.4523932933807373, 6.129227161407471, 6.942605972290039, 4.204261302947998, 38.24933624267578, -0.67626953125, 0.277587890625, -0.456787109375, 
99, 4016307232, 0.6917254328727722, -0.3297409117221832, -0.20583732426166534, -0.6086109280586243, 6.691390037536621, -2.4317946434020996, 6.004591464996338, 19.172426223754883, 1.9073542356491089, 38.2308349609375, -0.67431640625, 0.280517578125, -0.459228515625, 
100, 4016315565, 0.6941879391670227, -0.32877853512763977, -0.20632019639015198, -0.6061592102050781, 6.845949172973633, -2.2732462882995605, 5.929952621459961, 30.55860137939453, -0.23470373451709747, 38.63422393798828, -0.67431640625, 0.281494140625, -0.45947265625, 
101, 4016323898, 0.6968153119087219, -0.3274133503437042, -0.20715567469596863, -0.6035933494567871, 7.050256252288818, -2.0676586627960205, 5.881303310394287, 38.72594451904297, -0.43142169713974, 38.67776870727539, -0.6728515625, 0.285400390625, -0.45947265625, 
102, 4016332231, 0.6992369890213013, -0.3259258568286896, -0.20797212421894073, -0.6013125777244568, 6.977736949920654, -1.9212723970413208, 5.972381591796875, 40.68059539794922, 0.7430068850517273, 36.646244049072266, -0.6708984375, 0.2841796875, -0.46337890625, 
103, 4016340564, 0.701626718044281, -0.3243519365787506, -0.20901203155517578, -0.5990151166915894, 6.619548797607422, -1.8300607204437256, 5.957554817199707, 40.58601760864258, -0.13685718178749084, 32.624507904052734, -0.6689453125, 0.286865234375, -0.46240234375, 
104, 4016348897, 0.7037630081176758, -0.32276204228401184, -0.2103511542081833, -0.5968952178955078, 6.334649085998535, -1.4708682298660278, 6.022699356079102, 42.82883071899414, -3.1343445777893066, 28.70400619506836, -0.66748046875, 0.286865234375, -0.46337890625, 
105, 4016357230, 0.7057713866233826, -0.32126495242118835, -0.21187500655651093, -0.5947889089584351, 6.261472225189209, -0.6999973654747009, 6.3543782234191895, 41.57589340209961, -5.688266754150391, 25.71055793762207, -0.66552734375, 0.287353515625, -0.46240234375, 
106, 4016365563, 0.7074586153030396, -0.3200550675392151, -0.21329064667224884, -0.5929280519485474, 6.181069374084473, 0.1983931064605713, 6.453324794769287, 35.610206604003906, -6.738219261169434, 21.850370407104492, -0.66796875, 0.285400390625, -0.46337890625, 
107, 4016373896, 0.7087666988372803, -0.3190714120864868, -0.2146330028772354, -0.5914096832275391, 6.133176803588867, 0.9617705345153809, 6.2441558837890625, 30.297151565551758, -7.57442045211792, 16.57856559753418, -0.66943359375, 0.28515625, -0.46484375, 
108, 4016382229, 0.7096859216690063, -0.318225622177124, -0.21603628993034363, -0.5902508497238159, 6.260191440582275, 1.4802982807159424, 5.9424519538879395, 26.647008895874023, -8.796626091003418, 10.021308898925781, -0.66845703125, 0.2841796875, -0.464111328125, 
109, 4016390562, 0.7101381421089172, -0.3175297677516937, -0.2174593210220337, -0.589558482170105, 6.569907188415527, 1.6555399894714355, 5.838625907897949, 21.94980812072754, -9.614973068237305, 2.0667238235473633, -0.66552734375, 0.285400390625, -0.461669921875, 
110, 4016398895, 0.7100410461425781, -0.31713220477104187, -0.21874666213989258, -0.5894134044647217, 6.878698348999023, 1.5152333974838257, 5.802095890045166, 13.77407169342041, -9.87429141998291, -6.355586051940918, -0.6689453125, 0.28564453125, -0.4638671875, 
111, 4016407228, 0.7093928456306458, -0.31717589497566223, -0.21971862018108368, -0.5898087620735168, 7.083427429199219, 0.900474488735199, 5.820122241973877, 3.0060741901397705, -9.75894832611084, -13.287487030029297, -0.66796875, 0.283447265625, -0.463134765625, 
112, 4016415561, 0.7083554863929749, -0.3177046775817871, -0.22044870257377625, -0.5904979705810547, 7.2853779792785645, 0.044732801616191864, 5.8756914138793945, -6.165476322174072, -11.20382308959961, -16.65238380432129, -0.667724609375, 0.279541015625, -0.461669921875, 
113, 4016423894, 0.7071930170059204, -0.3184456527233124, -0.22112992405891418, -0.5912372469902039, 7.510249614715576, -0.7429496645927429, 6.079416275024414, -9.436595916748047, -12.635916709899902, -17.43904685974121, -0.668212890625, 0.278564453125, -0.46044921875, 
114, 4016432227, 0.7060428857803345, -0.3192366659641266, -0.22195447981357574, -0.5918757319450378, 7.64767599105835, -1.3161073923110962, 6.338508605957031, -8.709228515625, -14.702680587768555, -17.10304069519043, -0.668212890625, 0.276611328125, -0.46044921875, 
115, 4016440560, 0.7048819065093994, -0.3200530409812927, -0.2230648696422577, -0.5924010276794434, 7.73336124420166, -1.5420775413513184, 6.399688720703125, -6.0169148445129395, -18.353710174560547, -16.99733543395996, -0.6728515625, 0.275146484375, -0.45654296875, 
116, 4016448893, 0.7037854790687561, -0.3207327425479889, -0.224457785487175, -0.5928108096122742, 7.840394496917725, -1.3349237442016602, 6.392745018005371, -2.1831793785095215, -20.11983871459961, -17.396379470825195, -0.671630859375, 0.2734375, -0.45263671875, 
117, 4016457226, 0.7027194499969482, -0.32121506333351135, -0.2258700430393219, -0.593277633190155, 7.8803324699401855, -1.0073479413986206, 6.419834136962891, 0.2727532982826233, -18.521148681640625, -18.015295028686523, -0.673095703125, 0.270751953125, -0.45361328125, 
118, 4016465559, 0.7016435861587524, -0.32154881954193115, -0.22705356776714325, -0.5939181447029114, 7.805809020996094, -0.7230045795440674, 6.50864315032959, -0.25063538551330566, -14.422383308410645, -18.711233139038086, -0.6748046875, 0.2705078125, -0.44970703125, 
119, 4016473892, 0.700598418712616, -0.32181844115257263, -0.22796079516410828, -0.5946578979492188, 7.630905628204346, -0.619012176990509, 6.617137432098389, -2.5525875091552734, -10.637415885925293, -18.9101505279541, -0.674072265625, 0.2685546875, -0.450439453125, 
120, 4016482225, 0.6995531916618347, -0.322145938873291, -0.22865158319473267, -0.5954452753067017, 7.495863437652588, -0.7581509947776794, 6.686023712158203, -4.781564712524414, -8.81186294555664, -17.94597816467285, -0.677001953125, 0.265625, -0.447509765625, 
121, 4016490558, 0.6985654830932617, -0.3225027918815613, -0.22923989593982697, -0.5961849093437195, 7.401769638061523, -1.143375277519226, 6.711368560791016, -5.746248245239258, -8.099531173706055, -16.753433227539062, -0.677490234375, 0.26318359375, -0.445068359375, 
122, 4016498891, 0.6977158784866333, -0.32285746932029724, -0.2298288494348526, -0.5967610478401184, 7.413201808929443, -1.6276386976242065, 6.8222737312316895, -5.545661926269531, -8.087312698364258, -14.913277626037598, -0.675537109375, 0.263671875, -0.448974609375, 
123, 4016507224, 0.6969194412231445, -0.32322970032691956, -0.23039326071739197, -0.5972722172737122, 7.510863780975342, -2.0836148262023926, 6.974865913391113, -4.520144939422607, -8.406746864318848, -12.83655071258545, -0.676025390625, 0.2607421875, -0.4482421875, 
124, 4016515557, 0.6961731910705566, -0.3236440122127533, -0.23087970912456512, -0.5977299213409424, 7.626052379608154, -2.3624424934387207, 7.152502059936523, -4.457338809967041, -8.188641548156738, -10.706367492675781, -0.678955078125, 0.26025390625, -0.44677734375, 
125, 4016523890, 0.6955417990684509, -0.3240833878517151, -0.2312743067741394, -0.5980744361877441, 7.727362632751465, -2.4020345211029053, 7.302778244018555, -5.295104026794434, -7.55202579498291, -8.915958404541016, -0.679931640625, 0.2607421875, -0.444580078125, 
126, 4016532223, 0.6949266195297241, -0.32459625601768494, -0.23146523535251617, -0.5984375476837158, 7.748107433319092, -2.3117103576660156, 7.404790878295898, -7.615804672241211, -6.017296314239502, -7.724664211273193, -0.680908203125, 0.259765625, -0.443115234375, 
127, 4016540556, 0.6943256258964539, -0.32516947388648987, -0.2314462512731552, -0.5988312363624573, 7.687650203704834, -2.2521066665649414, 7.390829086303711, -9.998645782470703, -4.380828857421875, -6.8659987449646, -0.679931640625, 0.2578125, -0.44189453125, 
128, 4016548889, 0.693727970123291, -0.32579612731933594, -0.23124299943447113, -0.5992614030838013, 7.602570533752441, -2.24245285987854, 7.393857955932617, -11.920148849487305, -2.8720476627349854, -5.9495463371276855, -0.678466796875, 0.258056640625, -0.4404296875, 
129, 4016557222, 0.6932106614112854, -0.3263883590698242, -0.23088307678699493, -0.5996764302253723, 7.473095893859863, -2.3230767250061035, 7.385540008544922, -12.681660652160645, -0.9234188795089722, -4.791630268096924, -0.682373046875, 0.258544921875, -0.439208984375, 
130, 4016565555, 0.6927624344825745, -0.32690930366516113, -0.23040315508842468, -0.6000952124595642, 7.337948322296143, -2.4706459045410156, 7.310754776000977, -12.206901550292969, 0.9949212074279785, -3.4469854831695557, -0.678955078125, 0.259765625, -0.4423828125, 
131, 4016573888, 0.6924721002578735, -0.32730770111083984, -0.22992122173309326, -0.6003978252410889, 7.207801342010498, -2.6350455284118652, 7.233637809753418, -10.465312004089355, 2.0541977882385254, -1.9154326915740967, -0.681884765625, 0.26025390625, -0.441162109375, 
132, 4016582221, 0.6923217177391052, -0.32757997512817383, -0.22952687740325928, -0.6005736589431763, 7.063373565673828, -2.747058391571045, 7.121150016784668, -7.392397403717041, 2.168386220932007, -0.19249100983142853, -0.681396484375, 0.259521484375, -0.440185546875, 
133, 4016590554, 0.692323625087738, -0.32771703600883484, -0.22929421067237854, -0.6005855202674866, 6.937878608703613, -2.808593273162842, 7.009095668792725, -3.6826608180999756, 1.4524167776107788, 1.316840648651123, -0.677490234375, 0.259033203125, -0.4404296875, 
134, 4016598887, 0.6924517154693604, -0.3277514576911926, -0.22923557460308075, -0.6004415154457092, 6.863280296325684, -2.7843618392944336, 6.945129871368408, -0.2847278416156769, 0.41895923018455505, 2.703416109085083, -0.680419921875, 0.262451171875, -0.440185546875, 
135, 4016607220, 0.6926595568656921, -0.32771700620651245, -0.2293308973312378, -0.6001842021942139, 6.809828758239746, -2.616466760635376, 6.882358074188232, 2.4336471557617188, -0.817324697971344, 3.562082290649414, -0.681640625, 0.261962890625, -0.440673828125, 
136, 4016615553, 0.6928879618644714, -0.3276570737361908, -0.22951318323612213, -0.5998834371566772, 6.781112194061279, -2.408557653427124, 6.852687835693359, 3.7272939682006836, -1.5300663709640503, 3.8041110038757324, -0.680419921875, 0.262451171875, -0.438720703125, 
137, 4016623886, 0.6931302547454834, -0.3275720477104187, -0.2297513484954834, -0.5995588302612305, 6.805910110473633, -2.1928622722625732, 6.804265022277832, 4.462295055389404, -1.955339789390564, 3.6844675540924072, -0.679931640625, 0.262939453125, -0.442626953125, 
138, 4016632219, 0.693359911441803, -0.32750383019447327, -0.23002678155899048, -0.5992246866226196, 6.790156364440918, -1.9534271955490112, 6.773154258728027, 4.3805084228515625, -2.4226715564727783, 3.398689031600952, -0.679931640625, 0.261474609375, -0.439697265625, 
139, 4016640552, 0.6935257911682129, -0.32747387886047363, -0.2302788496017456, -0.5989521741867065, 6.804203510284424, -1.7219363451004028, 6.734752655029297, 3.5441009998321533, -2.5489237308502197, 2.669400691986084, -0.680908203125, 0.261962890625, -0.439697265625, 
140, 4016648885, 0.6936437487602234, -0.3274664282798767, -0.23053310811519623, -0.5987218618392944, 6.811501979827881, -1.5513572692871094, 6.688336372375488, 2.874185800552368, -2.6278412342071533, 1.851204752922058, -0.679931640625, 0.262451171875, -0.441162109375, 
141, 4016657218, 0.6937260627746582, -0.3274343013763428, -0.23074358701705933, -0.598563015460968, 6.84418249130249, -1.4843803644180298, 6.633496284484863, 2.484363079071045, -1.8860018253326416, 1.0768095254898071, -0.679931640625, 0.261962890625, -0.438720703125, 
142, 4016665551, 0.6937915682792664, -0.32739177346229553, -0.23093044757843018, -0.5984380841255188, 6.870894432067871, -1.4886589050292969, 6.6293158531188965, 2.106271505355835, -1.393491268157959, 0.6268187761306763, -0.68310546875, 0.262451171875, -0.441162109375, 
143, 4016673884, 0.6938421130180359, -0.3273363709449768, -0.23112255334854126, -0.5983356833457947, 6.922844886779785, -1.5006260871887207, 6.618929862976074, 2.2334461212158203, -1.3667500019073486, 0.2873789370059967, -0.681640625, 0.261474609375, -0.438720703125, 
144, 4016682217, 0.6939015984535217, -0.3272306025028229, -0.2313423454761505, -0.5982398986816406, 6.96390962600708, -1.499634027481079, 6.608719825744629, 2.684333324432373, -1.0345077514648438, -0.2126493602991104, -0.68017578125, 0.262939453125, -0.438720703125, 
145, 4016690550, 0.6939622759819031, -0.32705411314964294, -0.23158252239227295, -0.5981731414794922, 6.937882900238037, -1.4647964239120483, 6.601052761077881, 3.717022657394409, -0.6368723511695862, -0.5726318359375, -0.678955078125, 0.260498046875, -0.4384765625, 
146, 4016698883, 0.6940315961837769, -0.32682228088378906, -0.23185138404369354, -0.5981150269508362, 6.997559547424316, -1.4361279010772705, 6.601041316986084, 4.6373677253723145, -0.36420881748199463, -0.7205796837806702, -0.680908203125, 0.260009765625, -0.439697265625, 
147, 4016707216, 0.6941206455230713, -0.32655438780784607, -0.23213301599025726, -0.5980490446090698, 7.030084133148193, -1.4649463891983032, 6.595317840576172, 5.0543413162231445, -0.18764987587928772, -0.8242148160934448, -0.680419921875, 0.259033203125, -0.4384765625, 
148, 4016715549, 0.6941975355148315, -0.32628610730171204, -0.23242461681365967, -0.5979925394058228, 7.104640960693359, -1.4775186777114868, 6.577892780303955, 4.993635654449463, -0.20160962641239166, -1.083943247795105, -0.680908203125, 0.25927734375, -0.44287109375, 
149, 4016723882, 0.6942613124847412, -0.3260399103164673, -0.23270535469055176, -0.5979437232017517, 7.122592449188232, -1.4925581216812134, 6.564797878265381, 4.672459602355957, -0.35985440015792847, -1.1209558248519897, -0.681884765625, 0.259521484375, -0.439697265625, 
150, 4016732215, 0.6943103075027466, -0.3258286118507385, -0.23300063610076904, -0.5978870391845703, 7.162570953369141, -1.5217257738113403, 6.550343036651611, 4.44974422454834, -0.8178113102912903, -1.0568946599960327, -0.681396484375, 0.258544921875, -0.44091796875, 
151, 4016740548, 0.6943493485450745, -0.3256465196609497, -0.23329246044158936, -0.597827136516571, 7.191015243530273, -1.5568701028823853, 6.569675445556641, 4.074981689453125, -1.1214168071746826, -1.063733696937561, -0.679931640625, 0.259765625, -0.4423828125, 
152, 4016748881, 0.6944261193275452, -0.3254701495170593, -0.23359234631061554, -0.5977169275283813, 7.2310004234313965, -1.5569716691970825, 6.573964595794678, 3.572762966156006, -1.0955207347869873, -1.0412698984146118, -0.680908203125, 0.258056640625, -0.4384765625, 
153, 4016757214, 0.6944403052330017, -0.3253457844257355, -0.233831986784935, -0.5976744294166565, 7.269557476043701, -1.5319916009902954, 6.58211088180542, 2.9272329807281494, -1.098799467086792, -1.0173461437225342, -0.682861328125, 0.257080078125, -0.439453125, 
154, 4016765547, 0.6944196224212646, -0.32527220249176025, -0.23403900861740112, -0.5976573824882507, 7.233136177062988, -1.5160315036773682, 6.600409984588623, 2.1531198024749756, -1.1961334943771362, -1.0001078844070435, -0.678955078125, 0.257080078125, -0.44091796875, 
155, 4016773880, 0.694385826587677, -0.32523348927497864, -0.23422418534755707, -0.5976452827453613, 7.205616474151611, -1.5056507587432861, 6.599258899688721, 1.3492426872253418, -1.3018434047698975, -1.1823530197143555, -0.680419921875, 0.256591796875, -0.439453125, 
156, 4016782213, 0.6943303346633911, -0.32526177167892456, -0.234380841255188, -0.5976329445838928, 7.212657928466797, -1.541013240814209, 6.6045942306518555, 0.36263352632522583, -1.5885180234909058, -0.9909891486167908, -0.682861328125, 0.25732421875, -0.43994140625, 
157, 4016790546, 0.6942408680915833, -0.3253755271434784, -0.23447683453559875, -0.5976373553276062, 7.1979241371154785, -1.572251558303833, 6.629510402679443, -1.13996160030365, -1.809952974319458, -0.9069232940673828, -0.684814453125, 0.257568359375, -0.438720703125, 
158, 4016798879, 0.6941389441490173, -0.32556506991386414, -0.23451699316501617, -0.5976366996765137, 7.152978420257568, -1.6113625764846802, 6.617255687713623, -2.731041431427002, -1.8166897296905518, -0.7701689004898071, -0.681884765625, 0.256103515625, -0.439453125, 
159, 4016807212, 0.6939905285835266, -0.3258303999900818, -0.23444664478302002, -0.59769207239151, 7.12730598449707, -1.6634535789489746, 6.641315937042236, -4.382928848266602, -1.4304269552230835, -0.6439162492752075, -0.681884765625, 0.257080078125, -0.43994140625, 
160, 4016815545, 0.6937938332557678, -0.32620686292648315, -0.2342981994152069, -0.5977732539176941, 7.113043785095215, -1.6727685928344727, 6.658882141113281, -6.389009475708008, -1.5759670734405518, -0.5443024039268494, -0.679931640625, 0.258544921875, -0.439453125, 
161, 4016823878, 0.6935867071151733, -0.3266572058200836, -0.234113410115242, -0.5978401303291321, 7.0494794845581055, -1.674979567527771, 6.620839595794678, -7.388299465179443, -1.9962198734283447, -0.12602205574512482, -0.682861328125, 0.258056640625, -0.4375, 
162, 4016832211, 0.6933825016021729, -0.32713422179222107, -0.23390308022499084, -0.597898542881012, 7.091793537139893, -1.671965479850769, 6.612485408782959, -7.82586669921875, -1.9380245208740234, 0.2039789855480194, -0.681396484375, 0.256591796875, -0.43798828125, 
163, 4016840544, 0.6931776404380798, -0.32764339447021484, -0.23363134264945984, -0.5979634523391724, 7.076175689697266, -1.6659579277038574, 6.6317949295043945, -8.649747848510742, -1.6517341136932373, 0.4917292892932892, -0.681884765625, 0.260498046875, -0.438720703125, 
164, 4016848877, 0.692927360534668, -0.3281784653663635, -0.23329371213912964, -0.5980920791625977, 7.059027671813965, -1.6302947998046875, 6.655338764190674, -9.198380470275879, -1.186374545097351, 0.5231836438179016, -0.6845703125, 0.258544921875, -0.438720703125, 
165, 4016857210, 0.6927058100700378, -0.3286958634853363, -0.2329557240009308, -0.5981965065002441, 7.043815612792969, -1.6876299381256104, 6.634415149688721, -9.474809646606445, -0.964068591594696, 0.30208152532577515, -0.68310546875, 0.262451171875, -0.437744140625, 
166, 4016865543, 0.6924892067909241, -0.3291739225387573, -0.23265308141708374, -0.598301887512207, 6.986844539642334, -1.768479585647583, 6.637967586517334, -8.790217399597168, -0.8976765275001526, 0.08338714390993118, -0.68408203125, 0.26171875, -0.435302734375, 
167, 4016873876, 0.6922941207885742, -0.3295827805995941, -0.23242652416229248, -0.5983905792236328, 6.958709716796875, -1.8602584600448608, 6.63098669052124, -7.3540520668029785, -1.1176517009735107, -0.1823989897966385, -0.68359375, 0.260009765625, -0.437744140625, 
168, 4016882209, 0.6921656131744385, -0.3299046456813812, -0.23230542242527008, -0.5984089970588684, 6.960237979888916, -1.9143799543380737, 6.609640598297119, -5.611208438873291, -1.340111255645752, -0.12410097569227219, -0.6826171875, 0.261962890625, -0.436279296875, 
169, 4016890542, 0.6920505166053772, -0.33014777302742004, -0.23225629329681396, -0.5984272360801697, 6.962461471557617, -1.9133226871490479, 6.625543117523193, -3.7278695106506348, -1.50788414478302, -0.18683019280433655, -0.682373046875, 0.260009765625, -0.436279296875, 
170, 4016898875, 0.6919753551483154, -0.3303154706954956, -0.23226937651634216, -0.5984164476394653, 6.966928958892822, -1.8972560167312622, 6.648162841796875, -1.976189374923706, -1.4837044477462769, 0.15761718153953552, -0.68408203125, 0.2626953125, -0.434814453125, 
171, 4016907208, 0.6919543147087097, -0.33042702078819275, -0.2322939932346344, -0.5983695387840271, 6.972433567047119, -1.8540794849395752, 6.677098751068115, -1.2323776483535767, -1.1213399171829224, 0.45148926973342896, -0.68359375, 0.262451171875, -0.436767578125, 
172, 4016915541, 0.6919571757316589, -0.33049651980400085, -0.23235079646110535, -0.598305881023407, 7.005644798278809, -1.7812868356704712, 6.695940971374512, -0.530573308467865, -0.9944471716880798, 0.44961950182914734, -0.6845703125, 0.262939453125, -0.4365234375, 
173, 4016923874, 0.6919941902160645, -0.33050939440727234, -0.23243223130702972, -0.5982243418693542, 7.084532260894775, -1.696669101715088, 6.63541316986084, 0.5482854843139648, -0.823011040687561, 0.6848093271255493, -0.6826171875, 0.26220703125, -0.435302734375, 
174, 4016932207, 0.692060112953186, -0.3304789066314697, -0.23255091905593872, -0.5981187224388123, 7.168443202972412, -1.5945546627044678, 6.560708999633789, 1.3052372932434082, -0.7387657761573792, 0.7264068722724915, -0.6845703125, 0.26220703125, -0.434326171875, 
175, 4016940540, 0.6921150088310242, -0.3304688036441803, -0.23262810707092285, -0.5980308651924133, 7.302258491516113, -1.501839280128479, 6.599327564239502, 0.8324755430221558, -0.5653830766677856, 0.8367530703544617, -0.68212890625, 0.2626953125, -0.433837890625, 
176, 4016948873, 0.6921049952507019, -0.3305336833000183, -0.23264293372631073, -0.5980008244514465, 7.401597023010254, -1.4209411144256592, 6.655999660491943, -0.4273734986782074, -0.5807514786720276, 0.7254847884178162, -0.68115234375, 0.2626953125, -0.436767578125, 
177, 4016957206, 0.6921013593673706, -0.3306291103363037, -0.2326471358537674, -0.5979505777359009, 7.50475549697876, -1.3616223335266113, 6.534865856170654, -1.1574817895889282, -0.7545185089111328, 0.6689542531967163, -0.68212890625, 0.26220703125, -0.433837890625, 
178, 4016965539, 0.692122757434845, -0.3306829035282135, -0.2326643466949463, -0.5978896021842957, 7.708168983459473, -1.4163988828659058, 6.401808738708496, -0.4351345896720886, -0.46310535073280334, 0.8899281620979309, -0.68505859375, 0.26318359375, -0.4345703125, 
179, 4016973872, 0.6921932101249695, -0.330699622631073, -0.23263877630233765, -0.5978087782859802, 7.892519474029541, -1.403473973274231, 6.321417808532715, -0.2189248502254486, 0.2738801836967468, 1.4530057907104492, -0.68408203125, 0.26318359375, -0.43505859375, 
180, 4016982205, 0.6922723054885864, -0.33074304461479187, -0.23253056406974792, -0.5977350473403931, 7.9969258308410645, -1.3031851053237915, 6.34720516204834, -1.1652685403823853, 0.9683590531349182, 1.9309676885604858, -0.6845703125, 0.262451171875, -0.436279296875, 
181, 4016990538, 0.692348062992096, -0.33071938157081604, -0.23231403529644012, -0.5977446436882019, 7.873011589050293, -1.2191482782363892, 6.280172824859619, -1.669663906097412, 2.8531055450439453, 1.3736273050308228, -0.68408203125, 0.263916015625, -0.4365234375, 
182, 4016998871, 0.6923379302024841, -0.330595999956131, -0.2320626676082611, -0.597922146320343, 7.611019134521484, -1.40034019947052, 6.272389888763428, -1.8368481397628784, 4.531965255737305, -0.9588689208030701, -0.68310546875, 0.2646484375, -0.43603515625, 
183, 4017007204, 0.6922715306282043, -0.33039185404777527, -0.231953963637352, -0.5981541275978088, 7.44167423248291, -1.5319677591323853, 6.417737007141113, -0.4207906424999237, 3.865995168685913, -2.9778597354888916, -0.68359375, 0.26318359375, -0.43603515625, 
184, 4017015537, 0.6922193169593811, -0.3300135135650635, -0.23215486109256744, -0.5983453392982483, 7.524141788482666, -1.2983263731002808, 6.515774726867676, 3.991914749145508, 2.2728662490844727, -4.379342555999756, -0.68359375, 0.263916015625, -0.43701171875, 
185, 4017023870, 0.6920682191848755, -0.3295089304447174, -0.23266011476516724, -0.5986018180847168, 7.527097702026367, -0.8682214617729187, 6.505340576171875, 7.026638984680176, 0.33430424332618713, -7.654788494110107, -0.68408203125, 0.262451171875, -0.436767578125, 
186, 4017032203, 0.6916632652282715, -0.3290758430957794, -0.2333812266588211, -0.5990272760391235, 7.428257465362549, -0.5696807503700256, 6.576478481292725, 6.623393535614014, -2.3357880115509033, -11.880165100097656, -0.68505859375, 0.259521484375, -0.437255859375, 
187, 4017040536, 0.6909223794937134, -0.3286888003349304, -0.23428736627101898, -0.5997406244277954, 7.334722518920898, -0.2797602713108063, 6.846497535705566, 5.0754241943359375, -4.269049644470215, -18.29561424255371, -0.68701171875, 0.259033203125, -0.435791015625, 
188, 4017048869, 0.6900164484977722, -0.3281724750995636, -0.23514637351036072, -0.6007293462753296, 7.145535945892334, 0.06517615914344788, 7.074149131774902, 4.2182698249816895, -1.9660727977752686, -22.485443115234375, -0.68505859375, 0.258056640625, -0.435302734375, 
189, 4017057202, 0.6889504194259644, -0.32768550515174866, -0.23579545319080353, -0.6019630432128906, 6.768235683441162, 0.2869494557380676, 7.170390605926514, 0.7523800134658813, 0.2967025935649872, -25.083005905151367, -0.688720703125, 0.251708984375, -0.43408203125, 
190, 4017065535, 0.6876729130744934, -0.3273000717163086, -0.23616474866867065, -0.6034868955612183, 6.530394077301025, 0.28379935026168823, 7.0627851486206055, -4.31123685836792, 2.762817144393921, -27.8356990814209, -0.687255859375, 0.252197265625, -0.43505859375, 
191, 4017073868, 0.6861766576766968, -0.32699528336524963, -0.2363545000553131, -0.6052780151367188, 6.560644149780273, -0.019438285380601883, 6.968777656555176, -8.524785041809082, 4.249110698699951, -31.267763137817383, -0.688720703125, 0.24951171875, -0.43701171875, 
192, 4017082201, 0.6844955086708069, -0.32665765285491943, -0.23649893701076508, -0.6073042154312134, 6.669387340545654, -0.511699914932251, 6.895142555236816, -11.110851287841797, 5.659074306488037, -35.7000846862793, -0.687255859375, 0.24560546875, -0.436279296875, 
193, 4017090534, 0.6825567483901978, -0.3263068199157715, -0.2365109622478485, -0.6096655130386353, 6.716307163238525, -0.8240642547607422, 6.880596160888672, -13.41473388671875, 7.429535865783691, -39.680484771728516, -0.688232421875, 0.240966796875, -0.4384765625, 
194, 4017098867, 0.6804505586624146, -0.3259122371673584, -0.23657187819480896, -0.6122020483016968, 6.704950332641602, -1.1034588813781738, 6.904775142669678, -13.736963272094727, 7.59751558303833, -42.853126525878906, -0.689697265625, 0.2392578125, -0.4365234375, 
195, 4017107200, 0.6782677173614502, -0.3253800868988037, -0.2368195503950119, -0.614806056022644, 6.667085647583008, -1.4980207681655884, 6.964275360107422, -11.619280815124512, 7.043787956237793, -45.65193557739258, -0.6875, 0.234619140625, -0.440185546875, 
196, 4017115533, 0.6759838461875916, -0.32475414872169495, -0.2373361885547638, -0.6174474954605103, 6.730074405670166, -1.801792860031128, 7.05621337890625, -8.315242767333984, 5.076969623565674, -47.622703552246094, -0.6884765625, 0.228759765625, -0.43896484375, 
197, 4017123866, 0.6737179160118103, -0.3240201473236084, -0.23812532424926758, -0.6200008988380432, 6.924489498138428, -1.8699126243591309, 7.018129825592041, -5.358765125274658, 3.215322971343994, -48.96229934692383, -0.689208984375, 0.22509765625, -0.441162109375, 
198, 4017132199, 0.6714751720428467, -0.32313209772109985, -0.23906473815441132, -0.6225304007530212, 6.969054222106934, -1.8688380718231201, 7.00540018081665, -2.8583245277404785, 3.227234125137329, -50.001197814941406, -0.689208984375, 0.22119140625, -0.437744140625, 
199, 4017140532, 0.6693183779716492, -0.3219761252403259, -0.2400004118680954, -0.6250867247581482, 6.844110488891602, -1.8305341005325317, 7.056426525115967, 0.26704177260398865, 5.836305618286133, -50.09360885620117, -0.690673828125, 0.215087890625, -0.439453125, 
200, 4017148865, 0.6672984957695007, -0.32057827711105347, -0.24090100824832916, -0.6276131868362427, 6.653542995452881, -1.7484323978424072, 7.069766044616699, 2.8212993144989014, 8.619349479675293, -49.28272247314453, -0.690185546875, 0.209716796875, -0.442626953125, 
201, 4017157198, 0.6653167009353638, -0.31920325756073, -0.2417035698890686, -0.6301046013832092, 6.579841613769531, -1.6098716259002686, 6.977560997009277, 2.126152276992798, 9.231657981872559, -48.126197814941406, -0.69091796875, 0.20654296875, -0.443359375, 
202, 4017165531, 0.6632351875305176, -0.3180163502693176, -0.24236267805099487, -0.6326407790184021, 6.622319221496582, -1.5529268980026245, 6.952255725860596, -1.3438278436660767, 8.815425872802734, -48.00250244140625, -0.6904296875, 0.19921875, -0.443115234375, 
203, 4017173864, 0.6610145568847656, -0.31710806488990784, -0.24273736774921417, -0.6352716684341431, 6.767923355102539, -1.4740475416183472, 6.9539475440979, -7.364723205566406, 8.898622512817383, -48.044368743896484, -0.6904296875, 0.196044921875, -0.44580078125, 
204, 4017182197, 0.6585819125175476, -0.31658902764320374, -0.24274630844593048, -0.6380475759506226, 6.937921047210693, -1.4750648736953735, 6.962092399597168, -15.515908241271973, 8.795703887939453, -48.264190673828125, -0.690185546875, 0.190185546875, -0.447021484375, 
205, 4017190530, 0.6558982133865356, -0.3165060877799988, -0.24232403934001923, -0.6410068273544312, 7.078024864196777, -1.5870230197906494, 6.977591514587402, -24.945568084716797, 8.788844108581543, -48.852317810058594, -0.690185546875, 0.18505859375, -0.44775390625, 
206, 4017198863, 0.6529968976974487, -0.31687286496162415, -0.2413889765739441, -0.6441330313682556, 7.14028263092041, -1.7293094396591187, 6.962985515594482, -35.082828521728516, 9.501694679260254, -48.53203582763672, -0.690673828125, 0.18212890625, -0.44580078125, 
207, 4017207196, 0.649912416934967, -0.31773924827575684, -0.23990273475646973, -0.647372841835022, 7.127111911773682, -1.886169672012329, 6.946362018585205, -45.5706672668457, 9.861786842346191, -47.1292724609375, -0.689453125, 0.180419921875, -0.449951171875, 
208, 4017215529, 0.6467283368110657, -0.31914860010147095, -0.23781396448612213, -0.6506308317184448, 7.09840726852417, -1.9889247417449951, 6.939183712005615, -56.315128326416016, 10.210662841796875, -43.7216796875, -0.68994140625, 0.177978515625, -0.448974609375, 
209, 4017223862, 0.6434645652770996, -0.321176141500473, -0.23502308130264282, -0.6538752317428589, 7.0695929527282715, -2.115649938583374, 6.991061687469482, -68.36671447753906, 10.557387351989746, -39.2422981262207, -0.6884765625, 0.177734375, -0.447509765625, 
210, 4017232195, 0.6401386857032776, -0.32385459542274475, -0.23153232038021088, -0.6570562720298767, 7.134649276733398, -2.2379915714263916, 6.98358154296875, -80.52367401123047, 10.460347175598145, -34.01603317260742, -0.6875, 0.178466796875, -0.452392578125, 
211, 4017240528, 0.6368433237075806, -0.32711511850357056, -0.22740288078784943, -0.6600785255432129, 7.231079578399658, -2.528071403503418, 6.8466620445251465, -90.74324798583984, 10.169123649597168, -27.674734115600586, -0.68701171875, 0.179443359375, -0.452392578125, 
212, 4017248861, 0.6336328387260437, -0.3308343291282654, -0.22281420230865479, -0.6628735065460205, 7.318819522857666, -2.9467804431915283, 6.777579307556152, -97.86235809326172, 9.314173698425293, -21.380517959594727, -0.687744140625, 0.185546875, -0.451171875, 
213, 4017257194, 0.6305727958679199, -0.33483994007110596, -0.2179243117570877, -0.6654011607170105, 7.322104454040527, -3.413109302520752, 6.7432074546813965, -101.5748519897461, 8.529030799865723, -15.46592903137207, -0.685546875, 0.186279296875, -0.45458984375, 
214, 4017265527, 0.6276622414588928, -0.3390311002731323, -0.21288558840751648, -0.6676579117774963, 7.38450288772583, -3.7941184043884277, 6.778427600860596, -103.06746673583984, 7.365314960479736, -10.477766990661621, -0.685791015625, 0.19287109375, -0.451904296875, 
215, 4017273860, 0.6249476671218872, -0.3433786928653717, -0.2077280879020691, -0.6696043014526367, 7.406439781188965, -4.02154016494751, 6.815844535827637, -103.66390228271484, 6.037038326263428, -5.015135288238525, -0.685302734375, 0.197265625, -0.45361328125, 
216, 4017282193, 0.6224902868270874, -0.34781157970428467, -0.20247867703437805, -0.6712113618850708, 7.384932041168213, -4.163573265075684, 6.883199214935303, -103.0730972290039, 5.216528415679932, 0.9741055965423584, -0.68505859375, 0.202392578125, -0.452392578125, 
217, 4017290526, 0.6203869581222534, -0.35223379731178284, -0.19709952175617218, -0.6724526286125183, 7.344289779663086, -4.282721042633057, 6.917405605316162, -101.45260620117188, 5.620083332061768, 7.93614387512207, -0.68408203125, 0.210693359375, -0.451171875, 
218, 4017298859, 0.6187105774879456, -0.35663729906082153, -0.1915961652994156, -0.6732661724090576, 7.237271785736084, -4.2888593673706055, 6.931560039520264, -99.21990203857422, 5.97768497467041, 16.11135482788086, -0.6826171875, 0.21630859375, -0.450927734375, 
219, 4017307192, 0.6175359487533569, -0.3609869182109833, -0.18594050407409668, -0.6736121773719788, 7.12290096282959, -4.429666042327881, 6.86039400100708, -96.47371673583984, 6.762641429901123, 25.311481475830078, -0.682861328125, 0.223876953125, -0.44970703125, 
220, 4017315525, 0.616902768611908, -0.36517098546028137, -0.1803945004940033, -0.673444926738739, 6.979650974273682, -4.636608123779297, 6.6690993309021, -90.0502700805664, 6.239230155944824, 33.74327850341797, -0.680908203125, 0.231689453125, -0.450927734375, 
221, 4017323858, 0.6168485283851624, -0.3690390884876251, -0.17515742778778076, -0.6727682948112488, 6.8585968017578125, -4.804115295410156, 6.524475574493408, -80.33821105957031, 5.383471965789795, 41.06814956665039, -0.6806640625, 0.2412109375, -0.446533203125, 
222, 4017332191, 0.6173837780952454, -0.37238404154777527, -0.1701941192150116, -0.6717073917388916, 6.681967735290527, -4.791714668273926, 6.504955291748047, -69.43968963623047, 7.408822536468506, 47.153446197509766, -0.679931640625, 0.251953125, -0.449462890625, 
223, 4017340524, 0.6185113191604614, -0.3751674294471741, -0.16550232470035553, -0.6702920198440552, 6.441185474395752, -4.632709980010986, 6.459506034851074, -58.312171936035156, 9.825456619262695, 52.90650939941406, -0.678466796875, 0.2578125, -0.44580078125, 
224, 4017348857, 0.6202300190925598, -0.37747159600257874, -0.16120018064975739, -0.6684563159942627, 6.328970909118652, -4.508279800415039, 6.27339506149292, -46.6201171875, 10.140509605407715, 58.849300384521484, -0.675048828125, 0.26904296875, -0.44873046875, 
225, 4017357190, 0.6225320100784302, -0.3794005811214447, -0.15732789039611816, -0.6661428809165955, 6.299860000610352, -4.501211643218994, 6.051353931427002, -35.3999137878418, 8.700493812561035, 65.2029800415039, -0.67431640625, 0.278564453125, -0.446533203125, 
226, 4017365523, 0.6253083944320679, -0.3811684846878052, -0.15375250577926636, -0.6633622050285339, 6.366827964782715, -4.482472896575928, 6.06168794631958, -27.788488388061523, 6.255246639251709, 71.66885375976562, -0.67041015625, 0.2861328125, -0.44775390625, 
227, 4017373856, 0.628391444683075, -0.3829326033592224, -0.15014080703258514, -0.6602528095245361, 6.392148017883301, -4.300206184387207, 6.149113178253174, -25.812664031982422, 5.495758056640625, 77.45668029785156, -0.668212890625, 0.296875, -0.44873046875, 
228, 4017382189, 0.6316630244255066, -0.3847103416919708, -0.14628815650939941, -0.6569541692733765, 6.3765082359313965, -4.079351902008057, 6.217151641845703, -26.699560165405273, 6.876098155975342, 82.11884307861328, -0.667236328125, 0.303955078125, -0.445068359375, 
229, 4017390522, 0.6350986957550049, -0.3864125609397888, -0.14215482771396637, -0.6535413861274719, 6.315258502960205, -3.99361252784729, 6.147100448608398, -27.515905380249023, 9.693380355834961, 85.90850067138672, -0.6640625, 0.31494140625, -0.445556640625, 
230, 4017398855, 0.6386803388595581, -0.38801246881484985, -0.13787275552749634, -0.6500110030174255, 6.304704666137695, -4.158886432647705, 6.02886438369751, -26.91493034362793, 11.600943565368652, 88.8541488647461, -0.6591796875, 0.327880859375, -0.44921875, 
231, 4017407188, 0.6423552632331848, -0.3894886374473572, -0.13362887501716614, -0.6463831067085266, 6.215002536773682, -4.451664924621582, 5.916254997253418, -24.843286514282227, 12.000784873962402, 90.08966827392578, -0.655029296875, 0.33740234375, -0.4482421875, 
232, 4017415521, 0.6461370587348938, -0.3907378911972046, -0.12968599796295166, -0.642652153968811, 6.198155879974365, -4.735232830047607, 5.757453918457031, -19.357515335083008, 11.02763843536377, 89.93426513671875, -0.653564453125, 0.34619140625, -0.450439453125, 
233, 4017423854, 0.6501115560531616, -0.3917234241962433, -0.12624436616897583, -0.6387171745300293, 6.129356384277344, -4.919866561889648, 5.527918338775635, -11.228388786315918, 8.125931739807129, 90.27584838867188, -0.64794921875, 0.355712890625, -0.45068359375, 
234, 4017432187, 0.6543225646018982, -0.39237064123153687, -0.12336110323667526, -0.6345697045326233, 6.053274631500244, -5.0553693771362305, 5.33568000793457, -1.6079450845718384, 5.398072242736816, 90.6680908203125, -0.64404296875, 0.36767578125, -0.4521484375, 
235, 4017440520, 0.6587569713592529, -0.3927319049835205, -0.12115837633609772, -0.6301674246788025, 6.052502632141113, -5.148777484893799, 5.264561653137207, 8.493497848510742, 0.74754399061203, 90.7399673461914, -0.64208984375, 0.374267578125, -0.449951171875, 
236, 4017448853, 0.6633555889129639, -0.3929360806941986, -0.11960306018590927, -0.6254957914352417, 6.029843330383301, -5.069357395172119, 5.290657997131348, 16.919111251831055, -4.913026332855225, 90.85521697998047, -0.635009765625, 0.382568359375, -0.451904296875, 
237, 4017457186, 0.6680563688278198, -0.3930547535419464, -0.11852750927209854, -0.6206040978431702, 6.022510528564453, -4.737590312957764, 5.406142711639404, 22.68267250061035, -9.598651885986328, 90.99927520751953, -0.634033203125, 0.3876953125, -0.45166015625, 
238, 4017465519, 0.6728098392486572, -0.39306455850601196, -0.11782733350992203, -0.6155754327774048, 6.078518867492676, -4.276222229003906, 5.449088096618652, 27.45805549621582, -12.750587463378906, 90.5105972290039, -0.629638671875, 0.398681640625, -0.45068359375, 
239, 4017473852, 0.6776189804077148, -0.3929480016231537, -0.11740682274103165, -0.6104336977005005, 6.209565162658691, -3.896233081817627, 5.3865509033203125, 31.415386199951172, -14.812192916870117, 90.2999496459961, -0.62841796875, 0.403076171875, -0.44970703125, 
240, 4017482185, 0.682410478591919, -0.3927566409111023, -0.11712092906236649, -0.6052521467208862, 6.4402289390563965, -3.7473864555358887, 5.28959846496582, 33.27717208862305, -15.659392356872559, 89.6860122680664, -0.62353515625, 0.408935546875, -0.453857421875, 
241, 4017490518, 0.6871154308319092, -0.3926438093185425, -0.11686147749423981, -0.6000300645828247, 6.659934043884277, -3.7428934574127197, 5.3761420249938965, 32.29314041137695, -16.94185447692871, 89.31956481933594, -0.623046875, 0.416015625, -0.45263671875, 
242, 4017498851, 0.6915910840034485, -0.3928486704826355, -0.11652353405952454, -0.594796895980835, 6.7779340744018555, -3.7149503231048584, 5.552667140960693, 27.491321563720703, -19.227014541625977, 88.47814178466797, -0.6181640625, 0.420654296875, -0.4501953125, 
243, 4017507184, 0.6958037614822388, -0.3934115469455719, -0.11601661890745163, -0.589587926864624, 6.839247703552246, -3.619098663330078, 5.57366943359375, 21.176301956176758, -20.86156463623047, 87.57240295410156, -0.61767578125, 0.428466796875, -0.4521484375, 
244, 4017515517, 0.6997711658477783, -0.39422017335891724, -0.11535023152828217, -0.5844607353210449, 6.823812961578369, -3.6537253856658936, 5.532237529754639, 16.143909454345703, -21.253637313842773, 86.06449127197266, -0.613037109375, 0.4345703125, -0.44970703125, 
245, 4017523850, 0.7035161256790161, -0.3952922821044922, -0.11461810767650604, -0.5793628096580505, 6.8085479736328125, -3.7940621376037598, 5.612436771392822, 11.758872032165527, -22.957427978515625, 84.76110076904297, -0.613525390625, 0.441650390625, -0.448486328125, 
246, 4017532183, 0.7070909142494202, -0.3966161608695984, -0.11390578746795654, -0.5742236375808716, 6.8483991622924805, -3.928471803665161, 5.626524925231934, 8.692852020263672, -25.622220993041992, 84.10894775390625, -0.609619140625, 0.4482421875, -0.4482421875, 
247, 4017540516, 0.7105839252471924, -0.39810481667518616, -0.11332236975431442, -0.5689731240272522, 6.887986183166504, -3.971113920211792, 5.707798957824707, 7.763843536376953, -28.936779022216797, 84.0833969116211, -0.607421875, 0.454833984375, -0.444580078125, 
248, 4017548849, 0.7139210104942322, -0.3998700678348541, -0.11278045177459717, -0.5636404156684875, 6.926271915435791, -3.9500105381011963, 5.856635570526123, 4.73301887512207, -32.17329406738281, 83.88676452636719, -0.607421875, 0.460693359375, -0.4453125, 
249, 4017557182, 0.7170548439025879, -0.4019738435745239, -0.11217553913593292, -0.5582611560821533, 6.986745834350586, -4.010171890258789, 5.898379802703857, -0.19697487354278564, -34.77653884887695, 83.62491607666016, -0.60546875, 0.465576171875, -0.440185546875, 
250, 4017565515, 0.7200700044631958, -0.404257208108902, -0.11157746613025665, -0.5528247356414795, 7.093506813049316, -4.230800151824951, 5.90443229675293, -2.4079349040985107, -36.69550323486328, 83.53353881835938, -0.601318359375, 0.474609375, -0.43701171875, 
251, 4017573848, 0.7230304479598999, -0.40658116340637207, -0.11106789857149124, -0.5473318099975586, 7.203906059265137, -4.57307243347168, 6.0064778327941895, -2.428605794906616, -38.305091857910156, 83.23091125488281, -0.601318359375, 0.481689453125, -0.432861328125, 
252, 4017582181, 0.7259464263916016, -0.40885379910469055, -0.11064353585243225, -0.5418375134468079, 7.190552711486816, -4.736236095428467, 6.102067947387695, -1.4481112957000732, -38.81291961669922, 82.37329864501953, -0.59765625, 0.488037109375, -0.4287109375, 
253, 4017590514, 0.7288810610771179, -0.41089487075805664, -0.11038237065076828, -0.5363797545433044, 7.112509250640869, -4.697271823883057, 6.15058708190918, 2.0516252517700195, -38.510589599609375, 80.85897064208984, -0.6005859375, 0.496337890625, -0.42822265625, 
254, 4017598847, 0.7318711280822754, -0.4126581847667694, -0.11042299121618271, -0.5309181213378906, 7.035873889923096, -4.565536975860596, 6.122513294219971, 7.457391738891602, -39.39665222167969, 79.19745635986328, -0.595458984375, 0.503173828125, -0.422607421875, 
255, 4017607180, 0.734862208366394, -0.4142540991306305, -0.11075389385223389, -0.5254465341567993, 7.014832019805908, -4.371493816375732, 6.150570392608643, 11.207804679870605, -41.18003463745117, 77.38788604736328, -0.596435546875, 0.5068359375, -0.420654296875, 
256, 4017615513, 0.7377778887748718, -0.4158245921134949, -0.11127722263336182, -0.5199812650680542, 7.028191089630127, -4.1975321769714355, 6.1373610496521, 12.48965072631836, -42.988792419433594, 75.65933227539062, -0.594970703125, 0.51318359375, -0.419921875, 
257, 4017623846, 0.7406606674194336, -0.4173280596733093, -0.11193190515041351, -0.5145092010498047, 7.105347633361816, -4.080529689788818, 6.029056549072266, 13.857406616210938, -43.962032318115234, 74.62364959716797, -0.59375, 0.52001953125, -0.411865234375, 
258, 4017632179, 0.7435582280158997, -0.4186786413192749, -0.11262649297714233, -0.5090519189834595, 7.207037448883057, -4.128629684448242, 5.874448776245117, 15.833942413330078, -43.147010803222656, 74.13301849365234, -0.59423828125, 0.524169921875, -0.41162109375, 
259, 4017640512, 0.746471107006073, -0.4198879301548004, -0.1133960708975792, -0.5035929679870605, 7.262159824371338, -4.268731117248535, 5.840155124664307, 17.8183650970459, -42.942779541015625, 73.58576202392578, -0.5927734375, 0.52978515625, -0.408935546875, 
260, 4017648845, 0.7493650317192078, -0.42104652523994446, -0.11423749476671219, -0.49810755252838135, 7.1873250007629395, -4.354145526885986, 5.897006034851074, 18.8433780670166, -43.47863006591797, 73.25301361083984, -0.593017578125, 0.535400390625, -0.40478515625, 
261, 4017657178, 0.7522387504577637, -0.42217105627059937, -0.11515235900878906, -0.49258294701576233, 7.091842174530029, -4.27097225189209, 6.009387016296387, 19.5670108795166, -44.292842864990234, 73.01988983154297, -0.593505859375, 0.54052734375, -0.400634765625, 
262, 4017665511, 0.755122721195221, -0.42316100001335144, -0.11617621779441833, -0.48704901337623596, 7.105157375335693, -4.170670032501221, 6.052398204803467, 21.845054626464844, -44.51225280761719, 72.3639907836914, -0.5927734375, 0.5458984375, -0.39990234375, 
263, 4017673844, 0.7580513954162598, -0.4238460958003998, -0.11729244887828827, -0.4816058576107025, 7.101025581359863, -4.044185161590576, 6.0094122886657715, 25.671716690063477, -42.8656005859375, 70.67018127441406, -0.58984375, 0.552490234375, -0.397705078125, 
264, 4017682177, 0.7610081434249878, -0.4242384731769562, -0.11851392686367035, -0.4762691259384155, 7.023468017578125, -3.846362590789795, 6.110640048980713, 29.482542037963867, -41.319786071777344, 68.68763732910156, -0.5888671875, 0.556640625, -0.39599609375, 
265, 4017690510, 0.763999879360199, -0.42428216338157654, -0.11976917088031769, -0.471098393201828, 7.044961929321289, -3.4924888610839844, 6.086598873138428, 33.216400146484375, -38.40204620361328, 66.38946533203125, -0.58984375, 0.559814453125, -0.3935546875, 
266, 4017698843, 0.7669500112533569, -0.42403677105903625, -0.12103129178285599, -0.4661775231361389, 7.097218036651611, -3.1142756938934326, 5.952381610870361, 35.7100830078125, -35.17283630371094, 63.00508117675781, -0.590087890625, 0.564208984375, -0.392333984375, 
267, 4017707176, 0.769833505153656, -0.4236213266849518, -0.12248670309782028, -0.4613977074623108, 7.102599620819092, -2.9072320461273193, 5.8394246101379395, 38.051856994628906, -35.44919967651367, 59.65303039550781, -0.587646484375, 0.568359375, -0.39111328125, 
268, 4017715509, 0.7726385593414307, -0.42312443256378174, -0.12427327036857605, -0.4566628336906433, 7.237996578216553, -2.8682749271392822, 5.903878211975098, 40.54431915283203, -38.26470184326172, 56.6420783996582, -0.591552734375, 0.5712890625, -0.39111328125, 
269, 4017723842, 0.7753283381462097, -0.42263901233673096, -0.12635987997055054, -0.45195671916007996, 7.394379138946533, -2.939709186553955, 6.12093448638916, 41.5255012512207, -41.59782028198242, 53.85682678222656, -0.586669921875, 0.574951171875, -0.387939453125, 
270, 4017732175, 0.7778177261352539, -0.4222172498703003, -0.12868475914001465, -0.44739437103271484, 7.250396728515625, -3.0550804138183594, 6.305966377258301, 40.968048095703125, -43.99824523925781, 49.83833694458008, -0.587890625, 0.576416015625, -0.388916015625, 
271, 4017740508, 0.7802201509475708, -0.4215514659881592, -0.1312219351530075, -0.44308140873908997, 7.134873390197754, -3.1089630126953125, 6.293229579925537, 43.88359451293945, -43.52264404296875, 44.9381103515625, -0.58935546875, 0.5791015625, -0.3828125, 
272, 4017748841, 0.7826680541038513, -0.4203897714614868, -0.13387294113636017, -0.4390565752983093, 7.092846393585205, -3.08489990234375, 6.253755569458008, 49.68903732299805, -39.916656494140625, 40.60221481323242, -0.5869140625, 0.5810546875, -0.38525390625, 
273, 4017757174, 0.785197913646698, -0.41876283288002014, -0.1364036351442337, -0.4352991282939911, 6.880478382110596, -2.9554553031921387, 6.299161911010742, 53.904579162597656, -34.1688346862793, 38.02480697631836, -0.591796875, 0.582763671875, -0.385498046875, 
274, 4017765507, 0.7878109216690063, -0.4167470335960388, -0.13882994651794434, -0.4317309558391571, 6.565329074859619, -2.4835457801818848, 6.301234722137451, 57.6430549621582, -29.411457061767578, 36.38720703125, -0.5888671875, 0.58203125, -0.3837890625, 
275, 4017773840, 0.7904254794120789, -0.41442736983299255, -0.14123088121414185, -0.42839330434799194, 6.283973217010498, -1.900885820388794, 6.1557698249816895, 60.31170654296875, -26.065093994140625, 33.42764663696289, -0.587890625, 0.581787109375, -0.3876953125, 
276, 4017782173, 0.7928261160850525, -0.41215869784355164, -0.14362047612667084, -0.42534029483795166, 6.157145023345947, -1.5746378898620605, 6.150956153869629, 57.95130920410156, -24.973064422607422, 29.274980545043945, -0.5888671875, 0.58544921875, -0.385986328125, 
277, 4017790506, 0.7948476672172546, -0.41018733382225037, -0.14604558050632477, -0.42263898253440857, 6.166702747344971, -1.662983775138855, 6.217469692230225, 52.041358947753906, -25.917430877685547, 23.570350646972656, -0.5869140625, 0.584716796875, -0.3896484375, 
278, 4017798839, 0.7965415716171265, -0.40844255685806274, -0.1484725922346115, -0.4202875792980194, 6.321138381958008, -1.9728950262069702, 6.244022846221924, 47.04706573486328, -25.872987747192383, 18.325439453125, -0.58984375, 0.583251953125, -0.39013671875, 
279, 4017807172, 0.7979384660720825, -0.40686407685279846, -0.1507733315229416, -0.41834545135498047, 6.514806747436523, -2.2989280223846436, 6.419247627258301, 41.970333099365234, -23.825029373168945, 13.1360445022583, -0.59130859375, 0.582275390625, -0.388671875, 
280, 4017815505, 0.7990837097167969, -0.4054279923439026, -0.15304596722126007, -0.41672495007514954, 6.575516700744629, -2.6371569633483887, 6.54825496673584, 38.18427276611328, -22.987537384033203, 8.651031494140625, -0.5908203125, 0.5810546875, -0.390625, 
281, 4017823838, 0.8000866174697876, -0.40391725301742554, -0.15541847050189972, -0.41538745164871216, 6.518591403961182, -2.902613639831543, 6.63039493560791, 38.174354553222656, -22.448843002319336, 3.9712510108947754, -0.591796875, 0.58251953125, -0.3916015625, 
282, 4017832171, 0.800934374332428, -0.4023667275905609, -0.15776601433753967, -0.4143723249435425, 6.357517719268799, -3.016913890838623, 6.70255708694458, 36.92493438720703, -20.414857864379883, -0.36372271180152893, -0.591796875, 0.581787109375, -0.39013671875, 
283, 4017840504, 0.8015702366828918, -0.40085768699645996, -0.16006021201610565, -0.41372495889663696, 6.147042274475098, -3.1395511627197266, 6.658518314361572, 34.1877326965332, -18.56145668029785, -5.281482696533203, -0.59423828125, 0.57861328125, -0.38916015625, 
284, 4017848837, 0.8020738363265991, -0.3992762565612793, -0.1623881459236145, -0.41337063908576965, 6.075173377990723, -3.2694897651672363, 6.455612659454346, 33.80262756347656, -17.1221923828125, -9.563421249389648, -0.595703125, 0.57421875, -0.390869140625, 
285, 4017857170, 0.8024731874465942, -0.3975624740123749, -0.16470254957675934, -0.4133317470550537, 6.141902923583984, -3.356541156768799, 6.4380598068237305, 33.90882110595703, -14.797340393066406, -13.902249336242676, -0.59716796875, 0.574951171875, -0.3916015625, 
286, 4017865503, 0.802686333656311, -0.39579105377197266, -0.16707566380500793, -0.4136652946472168, 6.329399108886719, -3.3836681842803955, 6.570899963378906, 33.01022720336914, -13.424413681030273, -19.477502822875977, -0.59912109375, 0.570068359375, -0.390869140625, 
287, 4017873836, 0.8026386499404907, -0.3940979540348053, -0.169612854719162, -0.41434141993522644, 6.674513816833496, -3.449003219604492, 6.810805320739746, 30.879350662231445, -14.493914604187012, -25.501419067382812, -0.59912109375, 0.56689453125, -0.393798828125, 
288, 4017882169, 0.8023473620414734, -0.39248910546302795, -0.1723065823316574, -0.41532012820243835, 7.136995315551758, -3.528582811355591, 6.999791145324707, 28.802631378173828, -15.55014705657959, -30.834726333618164, -0.601318359375, 0.5634765625, -0.3935546875, 
289, 4017890502, 0.801872193813324, -0.3908926248550415, -0.17489038407802582, -0.4166613221168518, 7.419332027435303, -3.542724132537842, 7.206151485443115, 26.20050048828125, -12.966666221618652, -35.30659484863281, -0.604736328125, 0.560302734375, -0.39501953125, 
290, 4017898835, 0.8012810349464417, -0.3892020583152771, -0.17734362185001373, -0.418340802192688, 7.307097911834717, -3.3741462230682373, 7.28139591217041, 25.03218650817871, -9.366579055786133, -39.18103790283203, -0.605712890625, 0.552978515625, -0.394287109375, 
291, 4017907168, 0.8006296157836914, -0.38736140727996826, -0.17994214594364166, -0.4201827645301819, 7.135015487670898, -3.157069683074951, 7.2101359367370605, 26.82255744934082, -9.463663101196289, -42.50809860229492, -0.610595703125, 0.5478515625, -0.39453125, 
292, 4017915501, 0.7998896837234497, -0.3853854537010193, -0.1827123463153839, -0.42220860719680786, 7.116279602050781, -2.981043577194214, 7.291471481323242, 28.351255416870117, -9.728107452392578, -46.245113372802734, -0.611083984375, 0.54296875, -0.39599609375, 
293, 4017923834, 0.7990758419036865, -0.38321614265441895, -0.18529042601585388, -0.42459404468536377, 6.920010089874268, -2.974187135696411, 7.46267557144165, 28.094709396362305, -4.854654788970947, -50.145263671875, -0.614990234375, 0.537841796875, -0.395263671875, 
294, 4017932167, 0.7982861399650574, -0.3806833028793335, -0.18764758110046387, -0.42731407284736633, 6.477277755737305, -3.193272113800049, 7.641138076782227, 30.037208557128906, 1.6055183410644531, -53.39425277709961, -0.61767578125, 0.53125, -0.3974609375, 
295, 4017940500, 0.7976204752922058, -0.37756893038749695, -0.19007912278175354, -0.43023523688316345, 6.277315139770508, -3.4647297859191895, 7.712227821350098, 37.02564239501953, 5.493648529052734, -56.81158447265625, -0.6171875, 0.525146484375, -0.401123046875, 
296, 4017948833, 0.7971851229667664, -0.3736138939857483, -0.1927083134651184, -0.4333144426345825, 6.8286519050598145, -3.8090624809265137, 7.859642028808594, 48.153751373291016, 9.80711555480957, -60.36052703857422, -0.620849609375, 0.5166015625, -0.40234375, 
297, 4017957166, 0.7969891428947449, -0.36881357431411743, -0.19525574147701263, -0.4366341829299927, 7.303886890411377, -4.1554155349731445, 7.996725082397461, 57.57146072387695, 17.525184631347656, -63.4360466003418, -0.624267578125, 0.50927734375, -0.406982421875, 
298, 4017965499, 0.7970507740974426, -0.3631340563297272, -0.19780419766902924, -0.4401211440563202, 7.482983112335205, -4.31038761138916, 7.874110698699951, 68.01966857910156, 24.417190551757812, -66.04562377929688, -0.6220703125, 0.501708984375, -0.414794921875, 
299, 4017973832, 0.7974472045898438, -0.3564305007457733, -0.20068533718585968, -0.4435652792453766, 7.385437965393066, -4.248077869415283, 7.748842239379883, 83.09844970703125, 27.581077575683594, -68.04002380371094, -0.623779296875, 0.489013671875, -0.419677734375, 
300, 4017982165, 0.7982579469680786, -0.34843793511390686, -0.20374566316604614, -0.4470485746860504, 7.270610809326172, -4.088475227355957, 7.793832778930664, 100.19772338867188, 34.89888000488281, -70.33338165283203, -0.626220703125, 0.477783203125, -0.42626953125, 
301, 4017990498, 0.799373984336853, -0.3393527567386627, -0.20691309869289398, -0.45057469606399536, 6.968262195587158, -3.877007246017456, 7.944535732269287, 114.24571990966797, 41.41571044921875, -72.54710388183594, -0.6259765625, 0.46630859375, -0.437255859375, 
302, 4017998831, 0.8004569411277771, -0.32965087890625, -0.21032974123954773, -0.4542575478553772, 6.689746379852295, -3.4621756076812744, 7.734712600708008, 121.91116333007812, 43.21977615356445, -77.35226440429688, -0.625244140625, 0.453369140625, -0.446533203125, 
303, 4018007164, 0.8013039231300354, -0.3198779821395874, -0.21400047838687897, -0.4580211043357849, 6.532177925109863, -2.8895256519317627, 7.397800922393799, 123.03414916992188, 40.466468811035156, -81.11346435546875, -0.62646484375, 0.43994140625, -0.456298828125, 
304, 4018015497, 0.8017597198486328, -0.3104247748851776, -0.21808376908302307, -0.46178629994392395, 6.364418029785156, -2.2581753730773926, 7.193313121795654, 120.3258056640625, 32.84511184692383, -84.43199920654297, -0.625, 0.423828125, -0.4658203125, 
305, 4018023830, 0.8016743063926697, -0.3017135262489319, -0.22231483459472656, -0.4656744599342346, 6.4190874099731445, -1.7224087715148926, 7.34289026260376, 110.46153259277344, 25.32244300842285, -87.66726684570312, -0.62744140625, 0.4111328125, -0.4697265625, 
306, 4018032163, 0.8009964227676392, -0.2938791811466217, -0.22634385526180267, -0.4698908030986786, 6.564457893371582, -1.2532744407653809, 7.412116527557373, 95.9758529663086, 21.56746482849121, -91.52555084228516, -0.627685546875, 0.395751953125, -0.478759765625, 
307, 4018040496, 0.7997572422027588, -0.28697311878204346, -0.22982479631900787, -0.4745573103427887, 6.691257476806641, -1.072871208190918, 7.511441230773926, 78.60144805908203, 21.59549331665039, -95.04082489013672, -0.6298828125, 0.38232421875, -0.481689453125, 
308, 4018048829, 0.7979159355163574, -0.2810991108417511, -0.23270662128925323, -0.479739785194397, 6.763848304748535, -1.3003178834915161, 7.553596019744873, 59.26340866088867, 21.664077758789062, -98.98639678955078, -0.629150390625, 0.3671875, -0.48779296875, 
309, 4018057162, 0.7956016063690186, -0.27597934007644653, -0.23514091968536377, -0.48533639311790466, 6.821507453918457, -1.6928828954696655, 7.456658363342285, 44.95263671875, 21.60392189025879, -102.53941345214844, -0.63037109375, 0.35400390625, -0.4912109375, 
310, 4018065495, 0.7930437326431274, -0.27111363410949707, -0.23723278939723969, -0.49121183156967163, 6.846360683441162, -1.9101392030715942, 7.360789775848389, 37.98241424560547, 24.006641387939453, -105.06575012207031, -0.629638671875, 0.34326171875, -0.496826171875, 
311, 4018073828, 0.7903174757957458, -0.26635053753852844, -0.23902291059494019, -0.4973059296607971, 6.8352484703063965, -1.8778537511825562, 7.320962905883789, 33.5633544921875, 26.789104461669922, -107.15611267089844, -0.63134765625, 0.330322265625, -0.499755859375, 
312, 4018082161, 0.7874286770820618, -0.26161494851112366, -0.2407228946685791, -0.5035430788993835, 6.656632423400879, -1.7906594276428223, 7.122365951538086, 31.50160026550293, 27.650888442993164, -109.37351989746094, -0.631103515625, 0.317138671875, -0.503662109375, 
313, 4018090494, 0.7843753695487976, -0.25687170028686523, -0.24248330295085907, -0.5098661184310913, 6.469187259674072, -1.7376841306686401, 7.018333435058594, 31.20694351196289, 26.733999252319336, -111.7142562866211, -0.6298828125, 0.30517578125, -0.508544921875, 
314, 4018098827, 0.7810160517692566, -0.25229373574256897, -0.24453765153884888, -0.5162872076034546, 6.248355388641357, -1.70098876953125, 7.103720188140869, 29.99464225769043, 21.807483673095703, -115.37676239013672, -0.63232421875, 0.294677734375, -0.509521484375, 
315, 4018107160, 0.7773815393447876, -0.24809671938419342, -0.2469426542520523, -0.52262282371521, 6.5776214599609375, -1.3350130319595337, 7.162226676940918, 27.8087215423584, 14.038074493408203, -116.37528991699219, -0.632568359375, 0.2822265625, -0.509521484375, 
316, 4018115493, 0.7736049890518188, -0.24427878856658936, -0.24930699169635773, -0.5288653373718262, 6.5856499671936035, -1.0647650957107544, 7.179957389831543, 23.21014976501465, 11.021697044372559, -114.9489974975586, -0.6337890625, 0.26708984375, -0.51513671875, 
317, 4018123826, 0.7696325182914734, -0.2407342493534088, -0.25141364336013794, -0.5352505445480347, 6.697560787200928, -0.8497087359428406, 7.287740707397461, 17.36470603942871, 11.509628295898438, -116.11576080322266, -0.635009765625, 0.257568359375, -0.513427734375, 
318, 4018132159, 0.7655614018440247, -0.2372099757194519, -0.2531842291355133, -0.5417881011962891, 6.615623950958252, -0.6517462134361267, 7.114218711853027, 13.736382484436035, 15.152813911437988, -117.24508666992188, -0.634765625, 0.2431640625, -0.5185546875, 
319, 4018140492, 0.761329710483551, -0.23370636999607086, -0.2549908459186554, -0.5483865737915039, 6.4410223960876465, -0.6254224181175232, 6.943639278411865, 13.137236595153809, 14.18594741821289, -119.15525817871094, -0.6376953125, 0.2333984375, -0.520751953125, 
320, 4018148825, 0.7568700313568115, -0.23043330013751984, -0.2568294107913971, -0.5550463199615479, 6.361356258392334, -0.5999274849891663, 7.020677089691162, 9.927861213684082, 11.580205917358398, -120.78518676757812, -0.6337890625, 0.220703125, -0.52197265625, 
321, 4018157158, 0.7521889209747314, -0.22745127975940704, -0.25853291153907776, -0.5618079304695129, 6.387635707855225, -0.5760476589202881, 7.0240797996521, 4.896315574645996, 10.235570907592773, -122.10403442382812, -0.6357421875, 0.20849609375, -0.5234375, 
322, 4018165491, 0.7472834587097168, -0.2247553914785385, -0.26031169295310974, -0.5685769319534302, 6.431201457977295, -0.5172963738441467, 7.024722576141357, 1.69808030128479, 6.540464878082275, -123.10513305664062, -0.636474609375, 0.197265625, -0.5224609375, 
323, 4018173824, 0.7421908974647522, -0.22243422269821167, -0.26221054792404175, -0.5752483010292053, 6.5878190994262695, -0.5014764666557312, 6.941505432128906, -1.3499904870986938, 1.3358384370803833, -122.62189483642578, -0.63720703125, 0.18408203125, -0.52587890625, 
324, 4018182157, 0.7369916439056396, -0.22042401134967804, -0.26417848467826843, -0.581769585609436, 6.830155372619629, -0.4517824649810791, 6.908265113830566, -3.856170654296875, -2.6066410541534424, -120.9996337890625, -0.636474609375, 0.17236328125, -0.5224609375, 
325, 4018190490, 0.7317296862602234, -0.21845479309558868, -0.2660823166370392, -0.5882508754730225, 7.064907073974609, -0.3114294111728668, 6.996456146240234, -4.736056327819824, -2.7001593112945557, -120.7757797241211, -0.6376953125, 0.161376953125, -0.52587890625, 
326, 4018198823, 0.7263925671577454, -0.21640938520431519, -0.26797056198120117, -0.5947283506393433, 7.158336639404297, -0.22718478739261627, 6.995258331298828, -4.402683258056641, -2.1479098796844482, -121.55300903320312, -0.63818359375, 0.151611328125, -0.52392578125, 
327, 4018207156, 0.7209804058074951, -0.21424973011016846, -0.26980656385421753, -0.6012303829193115, 7.137858867645264, -0.20689548552036285, 6.944113254547119, -3.908245801925659, -0.9600598216056824, -122.7026596069336, -0.638427734375, 0.13916015625, -0.52490234375, 
328, 4018215489, 0.7154144644737244, -0.21211281418800354, -0.271586149930954, -0.6077998876571655, 7.04880952835083, -0.08838582783937454, 6.9571967124938965, -5.396505832672119, -0.8967408537864685, -124.36685943603516, -0.638671875, 0.128662109375, -0.52490234375, 
329, 4018223822, 0.7096231579780579, -0.21017082035541534, -0.27316173911094666, -0.6145201921463013, 6.81669282913208, 0.11520051211118698, 6.932741641998291, -10.146376609802246, -0.9838822484016418, -126.43698120117188, -0.639404296875, 0.114501953125, -0.522705078125, 
330, 4018232155, 0.7034755349159241, -0.20878829061985016, -0.2748429477214813, -0.6212730407714844, 6.587202072143555, 0.42602163553237915, 6.995863914489746, -15.9610013961792, -7.926056385040283, -127.94295501708984, -0.640869140625, 0.10400390625, -0.5244140625, 
331, 4018240488, 0.6968773603439331, -0.208139568567276, -0.27649176120758057, -0.6281571388244629, 6.224186420440674, 0.9770535230636597, 7.201966285705566, -25.032054901123047, -15.270009994506836, -130.22323608398438, -0.6396484375, 0.09130859375, -0.521240234375, 
332, 4018248821, 0.6897214651107788, -0.208244189620018, -0.27773767709732056, -0.6354290246963501, 6.095620632171631, 1.665980577468872, 7.260498523712158, -38.90025329589844, -18.867420196533203, -134.70973205566406, -0.638916015625, 0.080810546875, -0.519775390625, 
333, 4018257154, 0.6820433139801025, -0.20908203721046448, -0.2781998813152313, -0.643191933631897, 6.131447792053223, 1.927951693534851, 7.156069278717041, -55.97549819946289, -18.489032745361328, -138.91575622558594, -0.637939453125, 0.074462890625, -0.51904296875, 
334, 4018265487, 0.6739857196807861, -0.21040205657482147, -0.277759313583374, -0.6513935327529907, 6.413818359375, 1.6761916875839233, 7.173224449157715, -71.35714721679688, -14.422981262207031, -141.9167022705078, -0.63916015625, 0.0634765625, -0.52099609375, 
335, 4018273820, 0.6658188700675964, -0.21170306205749512, -0.27671927213668823, -0.6597598791122437, 6.782978057861328, 1.0597087144851685, 7.0510430335998535, -77.39257049560547, -8.6913423538208, -142.79151916503906, -0.638916015625, 0.0537109375, -0.518798828125, 
336, 4018282153, 0.6577328443527222, -0.21278151869773865, -0.2755328416824341, -0.6679691076278687, 6.949716091156006, 0.24656105041503906, 6.99322509765625, -75.95860290527344, -5.431672096252441, -141.00537109375, -0.638427734375, 0.045654296875, -0.519287109375, 
337, 4018290486, 0.6497660875320435, -0.21373748779296875, -0.2746333181858063, -0.6757856607437134, 7.174779891967773, -0.5549134612083435, 7.081976413726807, -70.26824188232422, -7.647932052612305, -137.69361877441406, -0.6376953125, 0.037109375, -0.522705078125, 
338, 4018298819, 0.6420684456825256, -0.21435439586639404, -0.2741145193576813, -0.6831185817718506, 7.437474727630615, -1.129414439201355, 7.313093662261963, -61.190311431884766, -8.25726318359375, -133.24095153808594, -0.635986328125, 0.02783203125, -0.51904296875, 
339, 4018307152, 0.6347829103469849, -0.21451662480831146, -0.27412140369415283, -0.6898407340049744, 7.609389781951904, -1.426992416381836, 7.587217330932617, -48.613258361816406, -8.921173095703125, -127.27022552490234, -0.634521484375, 0.0166015625, -0.518798828125, 
340, 4018315485, 0.6279155611991882, -0.21407420933246613, -0.2747073173522949, -0.6960026621818542, 7.441994667053223, -1.2971272468566895, 7.72055196762085, -34.59397506713867, -8.27000617980957, -122.36688232421875, -0.63330078125, 0.00830078125, -0.51806640625, 
341, 4018323818, 0.6214328408241272, -0.21300221979618073, -0.27565798163414, -0.7017503380775452, 7.088259696960449, -0.8335579633712769, 7.900429725646973, -22.870986938476562, -5.207491874694824, -118.59484100341797, -0.632080078125, -0.000732421875, -0.5205078125, 
342, 4018332151, 0.6151990294456482, -0.2115020453929901, -0.2768316864967346, -0.7072131633758545, 6.6125311851501465, -0.25346022844314575, 8.00466537475586, -15.341880798339844, -2.8267953395843506, -116.00053405761719, -0.62890625, -0.01171875, -0.521484375, 
343, 4018340484, 0.6090904474258423, -0.20983919501304626, -0.2780207395553589, -0.7125098705291748, 6.36976957321167, 0.3066323697566986, 8.018362998962402, -12.728322982788086, -1.4253720045089722, -114.07542419433594, -0.629638671875, -0.021728515625, -0.5224609375, 
344, 4018348817, 0.6029872298240662, -0.2083580493927002, -0.27911511063575745, -0.7176889777183533, 6.4654693603515625, 0.751870334148407, 8.077446937561035, -14.802606582641602, -2.6897807121276855, -112.03914642333984, -0.628173828125, -0.032470703125, -0.52197265625, 
345, 4018357150, 0.5968962907791138, -0.20712003111839294, -0.27986305952072144, -0.722829282283783, 6.639970779418945, 1.1600735187530518, 8.054559707641602, -19.96392822265625, -2.323108434677124, -109.6994400024414, -0.62451171875, -0.04296875, -0.5234375, 
346, 4018365483, 0.5908533334732056, -0.20609033107757568, -0.2799943685531616, -0.7280188798904419, 6.8989176750183105, 1.355175495147705, 8.107471466064453, -27.942766189575195, 1.0323032140731812, -107.03938293457031, -0.623291015625, -0.05224609375, -0.52294921875, 
347, 4018373816, 0.5848885774612427, -0.2052651345729828, -0.2793438732624054, -0.7332994937896729, 6.972686290740967, 1.2048587799072266, 8.058061599731445, -37.47531509399414, 5.8560285568237305, -104.02445983886719, -0.62060546875, -0.060791015625, -0.52294921875, 
348, 4018382149, 0.578976035118103, -0.20464923977851868, -0.2780165672302246, -0.7386486530303955, 6.925317764282227, 0.795313835144043, 8.044817924499512, -46.18502426147461, 9.620466232299805, -101.30280303955078, -0.6181640625, -0.06494140625, -0.527587890625, 
349, 4018390482, 0.5731320381164551, -0.2041926085948944, -0.27618408203125, -0.7440006732940674, 6.813131809234619, 0.37826111912727356, 8.054134368896484, -52.31626510620117, 12.259965896606445, -98.62774658203125, -0.613037109375, -0.0751953125, -0.530517578125, 
350, 4018398815, 0.5674505233764648, -0.20373374223709106, -0.27402669191360474, -0.7492604851722717, 6.640159606933594, 0.08304238319396973, 7.966483116149902, -54.89935302734375, 15.23414134979248, -95.3065185546875, -0.6083984375, -0.081298828125, -0.533935546875, 
351, 4018407148, 0.5620065927505493, -0.2032347321510315, -0.27174028754234314, -0.7543149590492249, 6.369560718536377, -0.11295920610427856, 7.778256416320801, -54.39368438720703, 16.94202995300293, -91.07564544677734, -0.60791015625, -0.08349609375, -0.53662109375, 
352, 4018415481, 0.5568121671676636, -0.20279233157634735, -0.26946237683296204, -0.7590882778167725, 6.094906330108643, -0.33972829580307007, 7.672079086303711, -53.07270050048828, 16.467199325561523, -86.09638977050781, -0.600830078125, -0.09130859375, -0.54052734375, 
353, 4018423814, 0.5518923997879028, -0.2023882269859314, -0.26734769344329834, -0.7635236978530884, 5.852664947509766, -0.46778759360313416, 7.58119535446167, -49.566043853759766, 14.860589981079102, -80.98738098144531, -0.599609375, -0.094970703125, -0.544677734375, 
354, 4018432147, 0.5472764372825623, -0.20197118818759918, -0.2654919922351837, -0.7675933837890625, 5.596584796905518, -0.48994123935699463, 7.412605285644531, -44.62963104248047, 13.16185188293457, -75.76103210449219, -0.595703125, -0.09814453125, -0.546875, 
355, 4018440480, 0.5429697036743164, -0.2016386240720749, -0.2638748586177826, -0.7712880969047546, 5.503698825836182, -0.5209680199623108, 7.205089569091797, -40.4480094909668, 10.529702186584473, -70.05631256103516, -0.593994140625, -0.1025390625, -0.548583984375, 
356, 4018448813, 0.5389820337295532, -0.20152141153812408, -0.2624605894088745, -0.7745909690856934, 5.516465663909912, -0.47854650020599365, 7.051187992095947, -37.66224670410156, 6.832411289215088, -63.501705169677734, -0.590087890625, -0.106201171875, -0.55224609375, 
357, 4018457146, 0.5353106260299683, -0.20163315534591675, -0.26110967993736267, -0.7775587439537048, 5.649432182312012, -0.5191040635108948, 6.888472557067871, -36.53388214111328, 4.107476234436035, -57.024993896484375, -0.590087890625, -0.108154296875, -0.5546875, 
358, 4018465479, 0.5319654941558838, -0.2020234316587448, -0.2597688138484955, -0.7801979184150696, 5.750924587249756, -0.6363843083381653, 6.7925333976745605, -36.44932556152344, 1.344687581062317, -50.11984634399414, -0.58642578125, -0.111083984375, -0.552490234375, 
359, 4018473812, 0.5289955139160156, -0.20274321734905243, -0.2583693265914917, -0.7824919819831848, 5.793042182922363, -0.7746692895889282, 6.698046684265137, -37.156982421875, -1.4097089767456055, -42.252464294433594, -0.580810546875, -0.114013671875, -0.556640625, 
360, 4018482145, 0.5264471769332886, -0.20382434129714966, -0.25674527883529663, -0.7844616174697876, 5.843548774719238, -0.8578145503997803, 6.696144104003906, -39.92264938354492, -3.0396742820739746, -33.424861907958984, -0.5830078125, -0.11474609375, -0.5576171875, 
361, 4018490478, 0.5242782831192017, -0.20531372725963593, -0.2549554407596588, -0.7861078977584839, 5.633282661437988, -1.0405519008636475, 6.627096176147461, -42.41265869140625, -5.84041690826416, -25.10538673400879, -0.582763671875, -0.1162109375, -0.55908203125, 
362, 4018498811, 0.5224384069442749, -0.20724931359291077, -0.2531503736972809, -0.7874072790145874, 5.761622428894043, -1.0291355848312378, 6.691379070281982, -43.69121170043945, -10.348274230957031, -17.420839309692383, -0.5830078125, -0.11474609375, -0.56005859375, 
363, 4018507144, 0.5211120843887329, -0.209573432803154, -0.2511894702911377, -0.7882985472679138, 5.786654949188232, -0.906001627445221, 6.685274600982666, -45.242435455322266, -12.844489097595215, -7.151432037353516, -0.5810546875, -0.11279296875, -0.55908203125, 
364, 4018515477, 0.5202251076698303, -0.2121005803346634, -0.24898892641067505, -0.7889062166213989, 5.695321083068848, -0.8586922287940979, 6.808170318603516, -47.08333969116211, -12.591240882873535, 1.05575692653656, -0.5849609375, -0.1103515625, -0.561279296875, 
365, 4018523810, 0.5197356343269348, -0.21495912969112396, -0.24628102779388428, -0.7893050312995911, 5.637020111083984, -0.6793215870857239, 7.0771942138671875, -53.050010681152344, -11.841747283935547, 9.45576286315918, -0.5849609375, -0.10302734375, -0.5615234375, 
366, 4018532143, 0.5195767879486084, -0.21836885809898376, -0.24284684658050537, -0.7895376682281494, 5.45696496963501, -0.4626781940460205, 7.239413261413574, -63.35793685913086, -11.966609001159668, 18.267799377441406, -0.583251953125, -0.09912109375, -0.561279296875, 
367, 4018540476, 0.5196919441223145, -0.22240705788135529, -0.2386721819639206, -0.7896077036857605, 5.261675834655762, -0.23990915715694427, 7.184747219085693, -74.49661254882812, -13.110440254211426, 26.705875396728516, -0.586181640625, -0.091796875, -0.5625, 
368, 4018548809, 0.5200545787811279, -0.2269970178604126, -0.2337007075548172, -0.7895498275756836, 5.284421443939209, -0.14460118114948273, 7.200369834899902, -85.9350357055664, -12.949530601501465, 34.57503890991211, -0.5869140625, -0.083984375, -0.56591796875, 
369, 4018557142, 0.5206177234649658, -0.23219528794288635, -0.22781291604042053, -0.7893877029418945, 5.576546669006348, -0.1353226900100708, 7.325850009918213, -99.25537872314453, -12.718188285827637, 42.29362487792969, -0.590576171875, -0.07373046875, -0.56591796875, 
370, 4018565475, 0.5212908387184143, -0.23793789744377136, -0.22105197608470917, -0.7891556620597839, 5.96399450302124, -0.3164067268371582, 7.278890132904053, -112.07437896728516, -12.21973991394043, 48.49903106689453, -0.5927734375, -0.05908203125, -0.569580078125, 
371, 4018573808, 0.5220121741294861, -0.2440348118543625, -0.21365080773830414, -0.7888554930686951, 6.299192428588867, -0.7267985343933105, 7.096971035003662, -121.18364715576172, -11.587060928344727, 52.66487503051758, -0.593017578125, -0.044677734375, -0.56982421875, 
372, 4018582141, 0.5227270722389221, -0.25044649839401245, -0.20610244572162628, -0.7883806824684143, 6.309990882873535, -1.3123250007629395, 6.98786735534668, -124.55784606933594, -14.513545989990234, 55.285789489746094, -0.595703125, -0.0302734375, -0.5712890625, 
373, 4018590474, 0.5234941244125366, -0.25717440247535706, -0.19869893789291382, -0.7876061797142029, 6.105625152587891, -1.861346960067749, 6.994129657745361, -124.22274017333984, -19.9051570892334, 58.385597229003906, -0.597412109375, -0.017578125, -0.571533203125, 
374, 4018598807, 0.5244117975234985, -0.26424551010131836, -0.19152933359146118, -0.786430299282074, 5.9992756843566895, -2.3660504817962646, 7.071597576141357, -122.53072357177734, -26.273897171020508, 63.0366096496582, -0.6025390625, -0.000732421875, -0.5693359375, 
375, 4018607140, 0.5255840420722961, -0.27165552973747253, -0.18460723757743835, -0.7847766280174255, 6.094247341156006, -2.7671473026275635, 7.235353469848633, -120.11515045166016, -32.82950210571289, 69.20862579345703, -0.604248046875, 0.01318359375, -0.571533203125, 
376, 4018615473, 0.5271487832069397, -0.2793300747871399, -0.1780015230178833, -0.782555878162384, 6.217935085296631, -3.0223488807678223, 7.489496231079102, -115.6948013305664, -39.05330276489258, 77.05067443847656, -0.607177734375, 0.031005859375, -0.568603515625, 
377, 4018623806, 0.5292408466339111, -0.2870873510837555, -0.1717371642589569, -0.7797312140464783, 6.262482643127441, -3.0537703037261963, 7.554572105407715, -109.1293716430664, -43.48773956298828, 85.97628784179688, -0.611328125, 0.0478515625, -0.56640625, 
378, 4018632139, 0.5319481492042542, -0.2948141098022461, -0.16576218605041504, -0.7762911319732666, 6.38720703125, -2.9879088401794434, 7.556568622589111, -101.90052795410156, -46.20279312133789, 95.85736083984375, -0.6142578125, 0.062744140625, -0.563720703125, 
379, 4018640472, 0.5352233052253723, -0.3024354577064514, -0.15998119115829468, -0.7723109126091003, 6.723337173461914, -2.8952128887176514, 7.480823516845703, -95.54615020751953, -47.43185806274414, 104.82353973388672, -0.62060546875, 0.082763671875, -0.55810546875, 
380, 4018648805, 0.538981556892395, -0.3096088469028473, -0.15417665243148804, -0.768023669719696, 7.025506019592285, -2.7691404819488525, 7.340278625488281, -89.78394317626953, -42.67771530151367, 111.34490966796875, -0.623291015625, 0.099853515625, -0.554443359375, 
381, 4018657138, 0.5429930686950684, -0.3162779211997986, -0.14843019843101501, -0.7635998129844666, 7.051040172576904, -2.665163040161133, 7.304337024688721, -84.09478759765625, -37.86272430419922, 113.69962310791016, -0.62255859375, 0.117919921875, -0.54931640625, 
382, 4018665471, 0.5471116900444031, -0.3225717842578888, -0.14301148056983948, -0.7590477466583252, 6.884007930755615, -2.6340720653533936, 7.227693557739258, -77.0850830078125, -36.67073440551758, 113.60466003417969, -0.626953125, 0.13623046875, -0.54736328125, 
383, 4018673804, 0.5514088869094849, -0.3285845220088959, -0.1379760354757309, -0.7542762160301208, 6.789538860321045, -2.688795328140259, 7.143155574798584, -69.78376770019531, -37.28177261352539, 114.85314178466797, -0.629150390625, 0.15283203125, -0.541748046875, 
384, 4018682137, 0.5559099316596985, -0.3343265950679779, -0.133334219455719, -0.7492671608924866, 6.764847278594971, -2.921344518661499, 7.050914287567139, -62.23240280151367, -38.107051849365234, 116.49091339111328, -0.6298828125, 0.16943359375, -0.537109375, 
385, 4018690470, 0.5606842637062073, -0.33975428342819214, -0.1291051208972931, -0.7439902424812317, 6.793646335601807, -3.1218042373657227, 6.969725608825684, -53.8731689453125, -38.79172134399414, 118.86455535888672, -0.630859375, 0.184814453125, -0.535888671875, 
386, 4018698803, 0.5656959414482117, -0.3449254333972931, -0.12519806623458862, -0.7384642958641052, 6.793253421783447, -3.3155128955841064, 6.969008922576904, -46.99955749511719, -39.354915618896484, 121.269287109375, -0.631591796875, 0.201416015625, -0.52880859375, 
387, 4018707136, 0.5708827376365662, -0.3501048684120178, -0.12161237001419067, -0.732611358165741, 6.86529016494751, -3.4274778366088867, 7.045136451721191, -42.456417083740234, -43.22447204589844, 124.06525421142578, -0.63330078125, 0.215087890625, -0.522705078125, 
388, 4018715469, 0.5761714577674866, -0.3554016947746277, -0.1182360053062439, -0.7264474630355835, 7.069578170776367, -3.5443227291107178, 7.0949273109436035, -40.201480865478516, -47.34239196777344, 126.73532104492188, -0.633544921875, 0.229248046875, -0.517333984375, 
389, 4018723802, 0.5816083550453186, -0.36049431562423706, -0.11491934210062027, -0.7201101183891296, 7.395548343658447, -3.7404420375823975, 6.985870361328125, -37.038177490234375, -46.41804504394531, 128.95272827148438, -0.636474609375, 0.249267578125, -0.510498046875, 
390, 4018732135, 0.5872389078140259, -0.3651730418205261, -0.11175382882356644, -0.7136521935462952, 7.737559795379639, -4.003822326660156, 6.941351413726807, -31.01709747314453, -43.785709381103516, 130.44635009765625, -0.633544921875, 0.261962890625, -0.505615234375, 
391, 4018740468, 0.5929988026618958, -0.3694787323474884, -0.10877600312232971, -0.7071033120155334, 7.840932846069336, -4.187572479248047, 6.975705146789551, -25.435577392578125, -41.93293762207031, 130.91912841796875, -0.6337890625, 0.276123046875, -0.50244140625, 
392, 4018748801, 0.5988516211509705, -0.37336188554763794, -0.10602659732103348, -0.7005178928375244, 7.6980485916137695, -4.195749759674072, 6.901048183441162, -19.172908782958984, -39.69904327392578, 130.34141540527344, -0.634765625, 0.290771484375, -0.497802734375, 
393, 4018757134, 0.6048107147216797, -0.37688061594963074, -0.10362544655799866, -0.6938415765762329, 7.498830318450928, -4.007259368896484, 6.797172546386719, -12.207635879516602, -39.40324783325195, 129.78262329101562, -0.6318359375, 0.303955078125, -0.492431640625, 
394, 4018765467, 0.6108492016792297, -0.3802603483200073, -0.10152804851531982, -0.6869838833808899, 7.371371269226074, -3.7015626430511475, 6.780624866485596, -7.409886360168457, -41.397029876708984, 130.28799438476562, -0.631103515625, 0.318359375, -0.488037109375, 
395, 4018773800, 0.6169525384902954, -0.38348305225372314, -0.09958916157484055, -0.6799867153167725, 7.401350975036621, -3.4078826904296875, 6.737961769104004, -4.133284091949463, -41.91583251953125, 131.01046752929688, -0.6279296875, 0.330078125, -0.485595703125, 
396, 4018782133, 0.6230987906455994, -0.38643980026245117, -0.097781702876091, -0.6729340553283691, 7.424985408782959, -3.249603033065796, 6.641640663146973, -0.2687745988368988, -40.746334075927734, 130.83859252929688, -0.626708984375, 0.34326171875, -0.478759765625, 
397, 4018790466, 0.6292688846588135, -0.38919970393180847, -0.09609947353601456, -0.6658066511154175, 7.428127765655518, -3.2562313079833984, 6.612833499908447, 2.728870391845703, -40.39451599121094, 130.75941467285156, -0.62548828125, 0.35400390625, -0.473388671875, 
398, 4018798799, 0.6353944540023804, -0.39187636971473694, -0.09430098533630371, -0.6586375832557678, 7.400571823120117, -3.390622138977051, 6.608762264251709, 2.277796506881714, -38.876930236816406, 131.23680114746094, -0.6240234375, 0.367431640625, -0.472412109375, 
399, 4018807132, 0.6414405107498169, -0.39446520805358887, -0.09221773594617844, -0.6514879465103149, 7.449591159820557, -3.705714702606201, 6.446344375610352, -0.06570158898830414, -35.62294006347656, 131.7516632080078, -0.621826171875, 0.381103515625, -0.468994140625, 
400, 4018815465, 0.6474344730377197, -0.3969835937023163, -0.09004046022891998, -0.644294023513794, 7.405924320220947, -4.173994541168213, 6.30764627456665, -0.4343220889568329, -34.43718719482422, 132.1119384765625, -0.6181640625, 0.390625, -0.464111328125, 
401, 4018823798, 0.6533100605010986, -0.39952516555786133, -0.08792635798454285, -0.637043297290802, 7.1489386558532715, -4.654523849487305, 6.306302070617676, -0.7344745397567749, -35.694297790527344, 131.23922729492188, -0.61572265625, 0.4033203125, -0.461181640625, 
402, 4018832131, 0.6591193675994873, -0.4019719362258911, -0.08600855618715286, -0.6297398805618286, 6.94085693359375, -4.766585826873779, 6.271336078643799, 1.6173728704452515, -36.96529006958008, 129.9508514404297, -0.612060546875, 0.415283203125, -0.459228515625, 
403, 4018840464, 0.6649929881095886, -0.40406665205955505, -0.08438655734062195, -0.6224009990692139, 6.840981960296631, -4.734604358673096, 6.147131443023682, 7.685633659362793, -36.74829864501953, 128.7643280029297, -0.609375, 0.426025390625, -0.45361328125, 
404, 4018848797, 0.6709011793136597, -0.40579062700271606, -0.08312930166721344, -0.6150646805763245, 6.7522172927856445, -4.700376510620117, 6.139111042022705, 14.474175453186035, -36.829383850097656, 126.59613800048828, -0.60791015625, 0.4375, -0.453125, 
405, 4018857130, 0.6767820715904236, -0.40733787417411804, -0.08223573863506317, -0.6076746582984924, 6.652565002441406, -4.513120174407959, 6.223154544830322, 19.003864288330078, -39.04766082763672, 124.61325073242188, -0.603759765625, 0.4482421875, -0.447265625, 
406, 4018865463, 0.6825931668281555, -0.40877145528793335, -0.08160709589719772, -0.6002516746520996, 6.671633243560791, -4.208810806274414, 6.133118629455566, 22.010581970214844, -40.80104446411133, 122.73832702636719, -0.601318359375, 0.457763671875, -0.445068359375, 
407, 4018873796, 0.6883069276809692, -0.41010087728500366, -0.08113317936658859, -0.5928385853767395, 6.777121067047119, -3.9994301795959473, 5.913307189941406, 23.617788314819336, -41.474266052246094, 120.84129333496094, -0.599609375, 0.46630859375, -0.4453125, 
408, 4018882129, 0.6937813758850098, -0.41152843832969666, -0.08059044182300568, -0.5854966044425964, 6.77861213684082, -4.032776355743408, 5.832494258880615, 20.78754234313965, -41.461509704589844, 118.73075103759766, -0.59521484375, 0.4755859375, -0.44091796875, 
409, 4018890462, 0.6988763213157654, -0.4133661687374115, -0.08006636053323746, -0.5781689286231995, 6.646966934204102, -4.292519569396973, 5.8274641036987305, 14.773430824279785, -45.30923080444336, 115.87144470214844, -0.594482421875, 0.485107421875, -0.440673828125, 
410, 4018898795, 0.7036828994750977, -0.4153926968574524, -0.07973219454288483, -0.5708866119384766, 6.348552227020264, -4.582806587219238, 5.611838340759277, 12.869133949279785, -48.66872024536133, 112.28687286376953, -0.588623046875, 0.49365234375, -0.43701171875, 
411, 4018907128, 0.7084231376647949, -0.4172098934650421, -0.07977093756198883, -0.5636478066444397, 6.237744331359863, -4.834395408630371, 5.60645055770874, 17.305036544799805, -50.48369598388672, 108.96984100341797, -0.58984375, 0.501953125, -0.4296875, 
412, 4018915461, 0.7130935788154602, -0.41892537474632263, -0.08015907555818558, -0.5563839077949524, 6.361484527587891, -4.823049068450928, 5.970935344696045, 20.723655700683594, -53.296077728271484, 106.57178497314453, -0.58642578125, 0.510009765625, -0.427490234375, 
413, 4018923794, 0.7176204919815063, -0.42060258984565735, -0.08060312271118164, -0.5491876006126404, 6.484161376953125, -4.587165832519531, 6.089847087860107, 20.533687591552734, -53.34371566772461, 104.43162536621094, -0.584228515625, 0.518798828125, -0.42333984375, 
414, 4018932127, 0.7220504879951477, -0.42219263315200806, -0.08095204830169678, -0.5420635342597961, 6.6587324142456055, -4.356363296508789, 5.932037353515625, 20.12774085998535, -51.412410736083984, 103.4581069946289, -0.581787109375, 0.52587890625, -0.421630859375, 
415, 4018940460, 0.7264776825904846, -0.42369118332862854, -0.08126699924468994, -0.5348843336105347, 6.888381004333496, -4.3862128257751465, 5.598982810974121, 20.73514175415039, -50.741851806640625, 104.06085968017578, -0.5791015625, 0.533447265625, -0.41845703125, 
416, 4018948793, 0.730802595615387, -0.4252831041812897, -0.08159142732620239, -0.527630627155304, 7.018657207489014, -4.623007774353027, 5.544305324554443, 19.450702667236328, -52.04512405395508, 104.12109375, -0.57861328125, 0.54150390625, -0.41357421875, 
417, 4018957126, 0.7349565029144287, -0.4270014762878418, -0.08199601620435715, -0.5203603506088257, 7.014904975891113, -4.744170665740967, 5.693927764892578, 17.68951988220215, -54.08339309692383, 102.70211029052734, -0.575439453125, 0.54931640625, -0.409423828125, 
418, 4018965459, 0.738926112651825, -0.42870715260505676, -0.08253521472215652, -0.5132014155387878, 6.8104166984558105, -4.587173938751221, 5.733158588409424, 17.66486930847168, -54.879981994628906, 99.47228240966797, -0.573486328125, 0.558349609375, -0.40673828125, 
419, 4018973792, 0.7427622079849243, -0.43032047152519226, -0.08337097615003586, -0.5061297416687012, 6.709478855133057, -4.359530448913574, 5.770040035247803, 19.71843147277832, -56.90447235107422, 95.77178955078125, -0.572998046875, 0.56298828125, -0.403564453125, 
420, 4018982125, 0.7464573979377747, -0.43183931708335876, -0.08445677161216736, -0.4991721212863922, 6.678916931152344, -4.195479393005371, 5.972578048706055, 21.5493221282959, -58.26153564453125, 92.05626678466797, -0.5703125, 0.572265625, -0.39990234375, 
421, 4018990458, 0.7500072121620178, -0.4331909716129303, -0.08572686463594437, -0.4924177825450897, 6.689230442047119, -3.8901731967926025, 6.201348781585693, 23.340225219726562, -57.992881774902344, 87.66427612304688, -0.56982421875, 0.57568359375, -0.398193359375, 
422, 4018998791, 0.753386914730072, -0.43431586027145386, -0.08705243468284607, -0.4859929382801056, 6.720531940460205, -3.5669302940368652, 6.1588850021362305, 24.741413116455078, -55.2409553527832, 82.53775024414062, -0.569580078125, 0.584228515625, -0.39404296875, 
423, 4019007124, 0.7565476894378662, -0.435312956571579, -0.08842619508504868, -0.4799046218395233, 6.772975921630859, -3.3435370922088623, 6.035244464874268, 24.587629318237305, -53.16478729248047, 77.12513732910156, -0.568603515625, 0.590576171875, -0.388916015625, 
424, 4019015457, 0.7595261335372925, -0.43624362349510193, -0.0898933857679367, -0.4740464687347412, 6.795001983642578, -3.3324649333953857, 5.912808418273926, 24.60769271850586, -52.51191329956055, 72.90995025634766, -0.567626953125, 0.59326171875, -0.38623046875, 
425, 4019023790, 0.7623056173324585, -0.43716564774513245, -0.09143602102994919, -0.4684070646762848, 6.7328996658325195, -3.428544759750366, 5.875129699707031, 23.641582489013672, -52.207637786865234, 68.84066009521484, -0.56787109375, 0.600341796875, -0.382080078125, 
426, 4019032123, 0.7648203372955322, -0.43813222646713257, -0.09298129379749298, -0.4630700945854187, 6.796148777008057, -3.3708338737487793, 5.804817199707031, 21.298410415649414, -51.00315475463867, 64.03369140625, -0.56689453125, 0.60205078125, -0.379638671875, 
427, 4019040456, 0.7671672701835632, -0.43904760479927063, -0.09470345824956894, -0.45794349908828735, 6.837818622589111, -3.216327428817749, 5.7164201736450195, 21.605926513671875, -51.519371032714844, 59.593292236328125, -0.568115234375, 0.60791015625, -0.376953125, 
428, 4019048789, 0.7693789601325989, -0.43987274169921875, -0.09650782495737076, -0.4530382752418518, 6.8993425369262695, -3.0886623859405518, 5.777065753936768, 22.04136085510254, -50.61945724487305, 55.82172775268555, -0.565185546875, 0.609375, -0.37255859375, 
429, 4019057122, 0.7714262008666992, -0.4406704306602478, -0.09832169115543365, -0.44836777448654175, 6.760987281799316, -3.0354437828063965, 5.936279773712158, 21.013702392578125, -49.38515090942383, 52.18983840942383, -0.566162109375, 0.615234375, -0.37353515625, 
430, 4019065455, 0.7733674645423889, -0.4413990080356598, -0.10012459754943848, -0.44388511776924133, 6.620571136474609, -3.055266857147217, 5.966449737548828, 20.846431732177734, -47.80367660522461, 49.5512580871582, -0.569091796875, 0.618408203125, -0.36669921875, 
431, 4019073788, 0.7753120064735413, -0.4418116807937622, -0.10196612030267715, -0.43964290618896484, 6.656130313873291, -3.1808719635009766, 5.938180446624756, 24.069067001342773, -44.86631393432617, 46.310279846191406, -0.5673828125, 0.62158203125, -0.365478515625, 
432, 4019082121, 0.7772982716560364, -0.4417714476585388, -0.1038803905248642, -0.4357103407382965, 6.721899509429932, -3.4134178161621094, 5.918652057647705, 29.21242904663086, -40.916038513183594, 42.220333099365234, -0.56884765625, 0.625, -0.36181640625, 
433, 4019090454, 0.7793636322021484, -0.4412457346916199, -0.10588842630386353, -0.43205526471138, 6.652721881866455, -3.6225080490112305, 5.88548469543457, 34.989627838134766, -37.25776672363281, 38.427513122558594, -0.5654296875, 0.62548828125, -0.364501953125, 
434, 4019098787, 0.7815141081809998, -0.44029539823532104, -0.10810653865337372, -0.4285769462585449, 6.348985195159912, -3.6754658222198486, 5.790616512298584, 41.099769592285156, -35.739234924316406, 35.188079833984375, -0.56689453125, 0.628173828125, -0.3603515625, 
435, 4019107120, 0.7837440967559814, -0.4388915002346039, -0.11059491336345673, -0.42529743909835815, 6.0802202224731445, -3.5285398960113525, 5.697508335113525, 47.70146179199219, -34.698974609375, 31.16722869873047, -0.5693359375, 0.630615234375, -0.362548828125, 
436, 4019115453, 0.7859597206115723, -0.4370898902416229, -0.11331596970558167, -0.42233705520629883, 5.8831939697265625, -3.372663736343384, 5.793179512023926, 52.8240966796875, -32.92179489135742, 25.677051544189453, -0.56640625, 0.630126953125, -0.3603515625, 
437, 4019123786, 0.78806471824646, -0.43504974246025085, -0.1161976084113121, -0.4197300374507904, 5.640017032623291, -3.155327558517456, 6.081517219543457, 55.07282638549805, -31.37586784362793, 19.83634376525879, -0.5693359375, 0.62890625, -0.36376953125, 
438, 4019132119, 0.7900229096412659, -0.4329305589199066, -0.11925885826349258, -0.41737449169158936, 5.53988790512085, -2.9612839221954346, 6.324774742126465, 55.72352981567383, -31.53636360168457, 15.104500770568848, -0.56884765625, 0.6279296875, -0.36572265625, 
439, 4019140452, 0.7917980551719666, -0.4308224320411682, -0.12232442945241928, -0.4152999818325043, 5.633347511291504, -2.898265838623047, 6.518022060394287, 54.039161682128906, -30.332714080810547, 10.95215892791748, -0.572265625, 0.62744140625, -0.3642578125, 
440, 4019148785, 0.7933757305145264, -0.4287447929382324, -0.12536264955997467, -0.41352924704551697, 5.653410911560059, -3.0681917667388916, 6.594760417938232, 51.899375915527344, -28.68057632446289, 6.772052764892578, -0.5732421875, 0.626220703125, -0.3662109375, 
441, 4019157118, 0.7948155999183655, -0.4265561103820801, -0.12839262187480927, -0.41209572553634644, 5.749822616577148, -3.1912171840667725, 6.649878978729248, 51.64117431640625, -26.2692928314209, 2.123823404312134, -0.572265625, 0.623291015625, -0.36767578125, 
442, 4019165451, 0.7960953116416931, -0.4242634177207947, -0.1313478797674179, -0.4110596776008606, 5.901642799377441, -3.374732494354248, 6.664040565490723, 50.73380661010742, -22.750778198242188, -2.8301501274108887, -0.57373046875, 0.624267578125, -0.3671875, 
443, 4019173784, 0.7972127199172974, -0.4219820201396942, -0.13428398966789246, -0.4102928042411804, 5.9743852615356445, -3.6523873805999756, 6.647764682769775, 49.04884719848633, -21.39240264892578, -6.605007171630859, -0.576171875, 0.6181640625, -0.369873046875, 
444, 4019182117, 0.7981957197189331, -0.41975629329681396, -0.13724616169929504, -0.4096842110157013, 6.005495548248291, -3.856358289718628, 6.6604180335998535, 47.525211334228516, -21.253564834594727, -9.104730606079102, -0.57666015625, 0.615966796875, -0.373291015625, 
445, 4019190450, 0.7990217804908752, -0.41759946942329407, -0.14011894166469574, -0.4093056917190552, 6.019315242767334, -3.9233386516571045, 6.8095011711120605, 44.91190719604492, -19.696212768554688, -11.910364151000977, -0.577880859375, 0.61181640625, -0.3759765625, 
446, 4019198783, 0.79959636926651, -0.41564586758613586, -0.14279323816299438, -0.40924811363220215, 6.145524978637695, -4.000419616699219, 6.974455833435059, 39.505279541015625, -17.231264114379883, -15.278226852416992, -0.579833984375, 0.60888671875, -0.37451171875, 
447, 4019207116, 0.7999470829963684, -0.41385653614997864, -0.1453113555908203, -0.40948954224586487, 6.2714667320251465, -4.362265586853027, 7.129005432128906, 34.948204040527344, -15.239494323730469, -18.654132843017578, -0.581298828125, 0.60498046875, -0.375244140625, 
