sep=,
PacketCounter,SampleTimeFine,Quat_W,Quat_X,Quat_Y,Quat_Z,Acc_X,Acc_Y,Acc_Z,Gyr_X,Gyr_Y,Gyr_Z,Mag_X,Mag_Y,Mag_Z,
0, 3678112427, 0.4117247760295868, -0.5437801480293274, -0.344486802816391, -0.6450563669204712, 0, 0, 0, 0, 0, 0, -0.82177734375, -0.092529296875, 0.08837890625, 
1, 3678120760, 0.41189366579055786, -0.5437524318695068, -0.3444773554801941, -0.6449769735336304, 10.070426940917969, -0.08446542918682098, 1.9231454133987427, 1.2680583000183105, 0.8019304275512695, 1.8162283897399902, -0.82080078125, -0.090576171875, 0.08642578125, 
2, 3678129093, 0.4120175838470459, -0.5436773896217346, -0.3444409668445587, -0.6449806690216064, 10.091217994689941, -0.11721622943878174, 1.8726078271865845, 0.9189363121986389, 1.758058786392212, 0.9896060824394226, -0.8193359375, -0.092041015625, 0.084228515625, 
3, 3678137426, 0.4121251702308655, -0.5435441732406616, -0.34444618225097656, -0.645021378993988, 10.097396850585938, -0.14308950304985046, 1.811996579170227, 0.9688072800636292, 2.2623517513275146, -0.018608741462230682, -0.8193359375, -0.094970703125, 0.084228515625, 
4, 3678145759, 0.4121970534324646, -0.5433567762374878, -0.3445027470588684, -0.6451031565666199, 10.085229873657227, -0.16686736047267914, 1.755290150642395, 1.6015043258666992, 2.5659828186035156, -1.1440470218658447, -0.82080078125, -0.091064453125, 0.08447265625, 
5, 3678154092, 0.41228923201560974, -0.5431222915649414, -0.34463921189308167, -0.6451689004898071, 10.017300605773926, -0.2168464958667755, 1.7610955238342285, 2.4727213382720947, 2.5292775630950928, -1.756585717201233, -0.82080078125, -0.091064453125, 0.0849609375, 
6, 3678162425, 0.41237449645996094, -0.5428599715232849, -0.3448542654514313, -0.645220160484314, 9.979308128356934, -0.2424994856119156, 1.7378052473068237, 3.345245122909546, 2.1914005279541016, -2.455573081970215, -0.8203125, -0.092529296875, 0.085205078125, 
7, 3678170758, 0.41243407130241394, -0.5425789952278137, -0.3451347351074219, -0.6452682614326477, 9.89309310913086, -0.22317156195640564, 1.7180145978927612, 4.204986572265625, 1.8159980773925781, -3.175640106201172, -0.82177734375, -0.095947265625, 0.085693359375, 
8, 3678179091, 0.41249603033065796, -0.5422959923744202, -0.34548842906951904, -0.6452773809432983, 9.851336479187012, -0.2020389288663864, 1.6738011837005615, 5.087346076965332, 1.1398590803146362, -3.4880313873291016, -0.8203125, -0.092041015625, 0.083740234375, 
9, 3678187424, 0.4125923216342926, -0.5419766306877136, -0.34593820571899414, -0.6452433466911316, 9.901043891906738, -0.17170383036136627, 1.5951789617538452, 6.240063190460205, 0.7807731032371521, -3.89542555809021, -0.82080078125, -0.092041015625, 0.08447265625, 
10, 3678195757, 0.4127369523048401, -0.5416063666343689, -0.3464329242706299, -0.6451961994171143, 9.96291732788086, -0.15656162798404694, 1.492570400238037, 7.686293601989746, 1.0894502401351929, -3.9076437950134277, -0.818359375, -0.093505859375, 0.084228515625, 
11, 3678204090, 0.41295313835144043, -0.5411427021026611, -0.3469521105289459, -0.645167887210846, 9.995043754577637, -0.14619819819927216, 1.3948372602462769, 8.539196968078613, 2.28102445602417, -4.068578243255615, -0.82080078125, -0.09423828125, 0.081298828125, 
12, 3678212423, 0.4131646156311035, -0.5406256914138794, -0.3474552035331726, -0.6451952457427979, 9.867254257202148, -0.152788907289505, 1.3431988954544067, 8.735633850097656, 3.2202987670898438, -4.501613140106201, -0.82177734375, -0.09521484375, 0.083251953125, 
13, 3678220756, 0.4133587181568146, -0.5401146411895752, -0.34794673323631287, -0.6452339887619019, 9.766879081726074, -0.10851825028657913, 1.3514935970306396, 8.077346801757812, 3.251727342605591, -4.665006160736084, -0.8212890625, -0.094970703125, 0.084228515625, 
14, 3678229089, 0.4134604036808014, -0.5396835207939148, -0.34836438298225403, -0.645304262638092, 9.731088638305664, -0.06074947863817215, 1.4204751253128052, 6.478224277496338, 2.741645336151123, -4.673406600952148, -0.8212890625, -0.095947265625, 0.085205078125, 
15, 3678237422, 0.41346845030784607, -0.5393577218055725, -0.3487381637096405, -0.6453696489334106, 9.725271224975586, 0.020089689642190933, 1.4799619913101196, 4.471989154815674, 1.585239291191101, -4.707089424133301, -0.8212890625, -0.093017578125, 0.084716796875, 
16, 3678245755, 0.41333794593811035, -0.5391726493835449, -0.3490579128265381, -0.6454348564147949, 9.73165225982666, 0.09172838181257248, 1.532764196395874, 2.4867069721221924, -0.03559098392724991, -4.803194522857666, -0.81884765625, -0.096435546875, 0.085693359375, 
17, 3678254088, 0.41313275694847107, -0.5390623807907104, -0.34937548637390137, -0.6454866528511047, 9.786962509155273, 0.11114485561847687, 1.5290956497192383, 1.2313787937164307, -1.1301640272140503, -5.072041034698486, -0.818359375, -0.09765625, 0.08251953125, 
18, 3678262421, 0.4128418564796448, -0.5390308499336243, -0.3496549427509308, -0.64554762840271, 9.844317436218262, 0.1264650821685791, 1.536224126815796, 0.11129385977983475, -1.9678009748458862, -5.162434101104736, -0.818603515625, -0.0986328125, 0.083984375, 
19, 3678270754, 0.4125225245952606, -0.5390334725379944, -0.3499038815498352, -0.6456148624420166, 9.852529525756836, 0.11072473227977753, 1.5515551567077637, -0.9395173192024231, -2.1779654026031494, -5.120913028717041, -0.8203125, -0.097900390625, 0.0849609375, 
20, 3678279087, 0.41215068101882935, -0.5390783548355103, -0.3500857353210449, -0.6457162499427795, 9.819988250732422, 0.11951298266649246, 1.5321743488311768, -2.006068706512451, -2.180757761001587, -5.023502826690674, -0.82080078125, -0.099609375, 0.083984375, 
21, 3678287420, 0.411792129278183, -0.5391521453857422, -0.35024067759513855, -0.6457993984222412, 9.817681312561035, 0.1441594958305359, 1.5270906686782837, -2.544991970062256, -2.350067377090454, -4.519439220428467, -0.8193359375, -0.098876953125, 0.08544921875, 
22, 3678295753, 0.41143715381622314, -0.5392481684684753, -0.35034602880477905, -0.6458882093429565, 9.766833305358887, 0.1395362913608551, 1.5372077226638794, -2.774393320083618, -2.209599018096924, -3.9855363368988037, -0.817138671875, -0.099365234375, 0.08447265625, 
23, 3678304086, 0.4111574590206146, -0.5393362045288086, -0.35045236349105835, -0.6459351778030396, 9.730191230773926, 0.1328885555267334, 1.6033964157104492, -2.2960729598999023, -2.088085412979126, -3.1861677169799805, -0.819091796875, -0.101318359375, 0.08740234375, 
24, 3678312419, 0.41096368432044983, -0.539415180683136, -0.35055455565452576, -0.6459370255470276, 9.731518745422363, 0.07747547328472137, 1.6757419109344482, -1.0841097831726074, -1.9090163707733154, -2.118899345397949, -0.818115234375, -0.101318359375, 0.08642578125, 
25, 3678320752, 0.41091227531433105, -0.539448618888855, -0.35072270035743713, -0.6458505392074585, 9.7940034866333, 0.019734086468815804, 1.7299045324325562, 0.8958322405815125, -1.8413689136505127, -1.1250156164169312, -0.817626953125, -0.10205078125, 0.084228515625, 
26, 3678329085, 0.41098013520240784, -0.5394312739372253, -0.3509184420108795, -0.645715594291687, 9.89851188659668, 0.018968569114804268, 1.7513821125030518, 2.8529133796691895, -1.3364099264144897, -0.18799567222595215, -0.817138671875, -0.102294921875, 0.087158203125, 
27, 3678337418, 0.41116195917129517, -0.5393581986427307, -0.35114723443984985, -0.6455365419387817, 10.008177757263184, 0.0515296496450901, 1.6900043487548828, 4.215129852294922, -0.7994331121444702, 0.5048053860664368, -0.820068359375, -0.102294921875, 0.08935546875, 
28, 3678345751, 0.4113733172416687, -0.5392781496047974, -0.35135820508003235, -0.6453537344932556, 10.024637222290039, 0.14549407362937927, 1.6521193981170654, 4.718142509460449, -0.5253351926803589, 0.953976571559906, -0.817138671875, -0.101318359375, 0.085693359375, 
29, 3678354084, 0.41158631443977356, -0.5391847491264343, -0.35154467821121216, -0.6451944708824158, 10.043048858642578, 0.186754509806633, 1.628261923789978, 4.089261054992676, -0.08167099207639694, 0.8848950266838074, -0.819580078125, -0.102294921875, 0.0869140625, 
30, 3678362417, 0.41173282265663147, -0.5391245484352112, -0.3516532778739929, -0.6450921297073364, 9.97144603729248, 0.2494032382965088, 1.6334680318832397, 2.797100067138672, 0.1625223159790039, 0.7730631828308105, -0.816650390625, -0.10107421875, 0.090087890625, 
31, 3678370750, 0.4118618965148926, -0.5390793085098267, -0.351689875125885, -0.6450275778770447, 9.89794635772705, 0.2545861303806305, 1.649405837059021, 1.4055042266845703, 0.6341315507888794, 0.9498526453971863, -0.819091796875, -0.1015625, 0.0908203125, 
32, 3678379083, 0.4119657874107361, -0.5390645861625671, -0.3516383171081543, -0.6450015902519226, 9.819287300109863, 0.2425958216190338, 1.677985429763794, 0.07771358639001846, 1.0273869037628174, 1.308298110961914, -0.81787109375, -0.097900390625, 0.08544921875, 
33, 3678387416, 0.4120558798313141, -0.5390720367431641, -0.35149282217025757, -0.6450172662734985, 9.794855117797852, 0.22194084525108337, 1.7336317300796509, -0.8841649293899536, 1.6017861366271973, 1.80680251121521, -0.819091796875, -0.100341796875, 0.08984375, 
34, 3678395749, 0.41214707493782043, -0.5390954613685608, -0.3513018488883972, -0.6450434327125549, 9.773124694824219, 0.2162809520959854, 1.7369585037231445, -1.3459383249282837, 1.8033447265625, 2.185175895690918, -0.817138671875, -0.099853515625, 0.0888671875, 
35, 3678404082, 0.4123024046421051, -0.5390960574150085, -0.3511042594909668, -0.6450512409210205, 9.798842430114746, 0.2094070464372635, 1.7169088125228882, -1.0875420570373535, 2.217808485031128, 2.730067729949951, -0.817626953125, -0.101318359375, 0.087646484375, 
36, 3678412415, 0.41251474618911743, -0.5390678644180298, -0.3508983850479126, -0.6450510025024414, 9.825803756713867, 0.15851785242557526, 1.6485811471939087, -0.5343514084815979, 2.7354466915130615, 3.202650547027588, -0.8212890625, -0.099365234375, 0.08544921875, 
37, 3678420748, 0.4127696752548218, -0.539017379283905, -0.35065796971321106, -0.6450608372688293, 9.80666732788086, 0.1738009750843048, 1.6070345640182495, -0.13528157770633698, 3.406078338623047, 3.7326343059539795, -0.817626953125, -0.098876953125, 0.08740234375, 
38, 3678429081, 0.4130461812019348, -0.5389499664306641, -0.35038408637046814, -0.6450889110565186, 9.832525253295898, 0.14239460229873657, 1.6386841535568237, -0.25633445382118225, 3.986778497695923, 3.9863431453704834, -0.8173828125, -0.096923828125, 0.0849609375, 
39, 3678437414, 0.41332191228866577, -0.538855254650116, -0.3500792384147644, -0.6451570391654968, 9.811234474182129, 0.17053751647472382, 1.6377513408660889, -0.8950768113136292, 4.700058937072754, 3.7902159690856934, -0.818359375, -0.093994140625, 0.086181640625, 
40, 3678445747, 0.41356053948402405, -0.5387372374534607, -0.34972038865089417, -0.6452972888946533, 9.769990921020508, 0.16013121604919434, 1.6874901056289673, -1.5675526857376099, 5.568124294281006, 3.3962931632995605, -0.818359375, -0.096435546875, 0.08642578125, 
41, 3678454080, 0.4137897193431854, -0.5385993719100952, -0.3493439853191376, -0.6454691886901855, 9.708450317382812, 0.16054131090641022, 1.706764578819275, -2.127531051635742, 6.034047603607178, 3.1101057529449463, -0.817626953125, -0.09765625, 0.08349609375, 
42, 3678462413, 0.4140123724937439, -0.5384519100189209, -0.34897929430007935, -0.6456468105316162, 9.637131690979004, 0.1583676040172577, 1.706702709197998, -2.0454118251800537, 6.064758777618408, 2.8872876167297363, -0.81982421875, -0.095947265625, 0.084228515625, 
43, 3678470746, 0.4142211675643921, -0.5382941365242004, -0.3486371636390686, -0.6458292007446289, 9.594481468200684, 0.1542814075946808, 1.7124786376953125, -1.5698322057724, 5.992321491241455, 2.586935043334961, -0.8193359375, -0.096435546875, 0.084228515625, 
44, 3678479079, 0.4144183397293091, -0.53812575340271, -0.3482992351055145, -0.6460253596305847, 9.533332824707031, 0.14898741245269775, 1.7233141660690308, -1.644882082939148, 6.110685348510742, 2.322007179260254, -0.81884765625, -0.09521484375, 0.082275390625, 
45, 3678487412, 0.41460129618644714, -0.5379694700241089, -0.3479692339897156, -0.6462159752845764, 9.464813232421875, 0.18147993087768555, 1.7381848096847534, -2.043337106704712, 5.852238178253174, 2.160355806350708, -0.8203125, -0.095703125, 0.079833984375, 
46, 3678495745, 0.4147321581840515, -0.5378310680389404, -0.3476221561431885, -0.6464341282844543, 9.419530868530273, 0.22721388936042786, 1.720069408416748, -2.8151707649230957, 5.743377208709717, 1.7531150579452515, -0.8193359375, -0.0947265625, 0.081787109375, 
47, 3678504078, 0.41477328538894653, -0.5377380847930908, -0.34723353385925293, -0.646694004535675, 9.367989540100098, 0.21577809751033783, 1.7180694341659546, -4.001084327697754, 5.453885078430176, 1.303585171699524, -0.8203125, -0.09619140625, 0.079833984375, 
48, 3678512411, 0.4147205650806427, -0.537686824798584, -0.346812903881073, -0.6469959020614624, 9.34542179107666, 0.17982816696166992, 1.7194558382034302, -5.372291564941406, 5.128609657287598, 0.6769841909408569, -0.82080078125, -0.0947265625, 0.078857421875, 
49, 3678520744, 0.4146164655685425, -0.5376726984977722, -0.34639036655426025, -0.6473007202148438, 9.343375205993652, 0.12278382480144501, 1.7455366849899292, -6.344966888427734, 4.587228775024414, 0.32020360231399536, -0.8203125, -0.097412109375, 0.0791015625, 
50, 3678529077, 0.41445574164390564, -0.5377064347267151, -0.34598657488822937, -0.6475914716720581, 9.406475067138672, 0.08891220390796661, 1.7208096981048584, -6.432797908782959, 3.6782302856445312, 0.06465033441781998, -0.8193359375, -0.09326171875, 0.077880859375, 
51, 3678537410, 0.4142859876155853, -0.5377570390701294, -0.3456389009952545, -0.647843599319458, 9.433171272277832, 0.06598659604787827, 1.6884328126907349, -6.282749176025391, 2.882293224334717, -0.20843583345413208, -0.82177734375, -0.092529296875, 0.077392578125, 
52, 3678545743, 0.41409265995025635, -0.5378202199935913, -0.3453448414802551, -0.6480717062950134, 9.465388298034668, 0.017677990719676018, 1.6731464862823486, -5.6464924812316895, 2.171959161758423, -0.5546891689300537, -0.82080078125, -0.094970703125, 0.078369140625, 
53, 3678554076, 0.4138989746570587, -0.5378805994987488, -0.3451281487941742, -0.648260772228241, 9.482396125793457, 0.01654798910021782, 1.6821720600128174, -5.050013065338135, 1.4702059030532837, -0.9848290085792542, -0.8203125, -0.095458984375, 0.075927734375, 
54, 3678562409, 0.41366899013519287, -0.5379646420478821, -0.3449333608150482, -0.6484411358833313, 9.514642715454102, 0.04971379041671753, 1.704909086227417, -4.849428176879883, 0.8943721652030945, -1.23085355758667, -0.8212890625, -0.095458984375, 0.076904296875, 
55, 3678570742, 0.4134244918823242, -0.5380909442901611, -0.3447643220424652, -0.6485820412635803, 9.603254318237305, 0.08514831215143204, 1.6944429874420166, -5.146450042724609, 0.013626772910356522, -1.2037537097930908, -0.82373046875, -0.093505859375, 0.07763671875, 
56, 3678579075, 0.4131266474723816, -0.5382722616195679, -0.3445781171321869, -0.6487207412719727, 9.64723014831543, 0.09068144112825394, 1.6713505983352661, -5.714292049407959, -0.6533295512199402, -1.2160999774932861, -0.82080078125, -0.095458984375, 0.075927734375, 
57, 3678587408, 0.4128112494945526, -0.5384394526481628, -0.3443652391433716, -0.6488956212997437, 9.664034843444824, 0.0114470599219203, 1.6463481187820435, -6.456080436706543, -0.18674057722091675, -1.510637879371643, -0.8212890625, -0.091064453125, 0.0771484375, 
58, 3678595741, 0.4125043451786041, -0.5385599136352539, -0.3441435992717743, -0.6491084694862366, 9.608720779418945, -0.035165924578905106, 1.650957465171814, -6.122916221618652, 0.5997316241264343, -1.7487221956253052, -0.8212890625, -0.095458984375, 0.076904296875, 
59, 3678604074, 0.41220706701278687, -0.5386698246002197, -0.3439149558544159, -0.6493272185325623, 9.616128921508789, -0.07661554962396622, 1.7486227750778198, -6.347066402435303, 0.8240867257118225, -1.751386046409607, -0.82080078125, -0.096923828125, 0.077880859375, 
60, 3678612407, 0.41188064217567444, -0.5388193726539612, -0.3436063528060913, -0.6495736241340637, 9.718603134155273, -0.058773431926965714, 1.8472956418991089, -7.287160396575928, 0.9896829128265381, -1.3167126178741455, -0.8212890625, -0.097412109375, 0.079345703125, 
61, 3678620740, 0.4115608334541321, -0.5389876961708069, -0.3432210683822632, -0.6498402953147888, 9.880170822143555, -0.05249391496181488, 1.9218605756759644, -8.469487190246582, 1.4390075206756592, -0.7884189486503601, -0.81884765625, -0.095458984375, 0.073974609375, 
62, 3678629073, 0.41122710704803467, -0.5391362905502319, -0.342777281999588, -0.6501625776290894, 9.978078842163086, -0.11437536776065826, 1.9990978240966797, -8.912179946899414, 2.2907581329345703, -0.8170557618141174, -0.8212890625, -0.095703125, 0.073974609375, 
63, 3678637406, 0.41091451048851013, -0.5392554998397827, -0.3423266112804413, -0.650498628616333, 9.955526351928711, -0.13758738338947296, 2.023529052734375, -9.049395561218262, 2.796255111694336, -0.8631615042686462, -0.8212890625, -0.09765625, 0.073486328125, 
64, 3678645739, 0.4106011986732483, -0.5393564701080322, -0.3418805003166199, -0.6508472561836243, 10.003908157348633, -0.16998568177223206, 2.0788023471832275, -8.61705207824707, 3.021045684814453, -0.987544059753418, -0.82421875, -0.09716796875, 0.071533203125, 
65, 3678654072, 0.41035565733909607, -0.5393985509872437, -0.34147384762763977, -0.6511806845664978, 10.03730583190918, -0.21329860389232635, 2.0499062538146973, -7.709256649017334, 3.535276412963867, -0.9386976957321167, -0.8212890625, -0.095458984375, 0.074462890625, 
66, 3678662405, 0.4101473391056061, -0.5393880009651184, -0.3410915434360504, -0.6515207290649414, 10.0103759765625, -0.30071380734443665, 2.021923780441284, -6.648214817047119, 4.087136268615723, -1.0063706636428833, -0.8212890625, -0.0966796875, 0.070068359375, 
67, 3678670738, 0.4099912643432617, -0.5392937064170837, -0.34075284004211426, -0.6518743634223938, 9.899530410766602, -0.36731642484664917, 2.0293850898742676, -5.761499881744385, 4.941549777984619, -1.3945286273956299, -0.81982421875, -0.09423828125, 0.071533203125, 
68, 3678679071, 0.4098566174507141, -0.5391560792922974, -0.34042689204216003, -0.6522429585456848, 9.880476951599121, -0.33298084139823914, 2.0730502605438232, -5.005213737487793, 5.46484899520874, -1.5211399793624878, -0.81982421875, -0.09716796875, 0.07177734375, 
69, 3678687404, 0.4097561836242676, -0.5389971137046814, -0.3400896191596985, -0.6526132822036743, 9.893386840820312, -0.2845604717731476, 2.1040356159210205, -5.04986047744751, 5.89760160446167, -1.3027018308639526, -0.820068359375, -0.097412109375, 0.0673828125, 
70, 3678695737, 0.4096461236476898, -0.5388544201850891, -0.3396961987018585, -0.653005063533783, 9.97928237915039, -0.21759359538555145, 2.133410930633545, -5.47128963470459, 6.174976825714111, -0.9507362842559814, -0.821044921875, -0.097900390625, 0.068359375, 
71, 3678704070, 0.4095899760723114, -0.5386772155761719, -0.33925795555114746, -0.653414249420166, 10.018837928771973, -0.20500782132148743, 2.140960931777954, -5.709016799926758, 7.125675678253174, -0.4614020586013794, -0.8212890625, -0.097412109375, 0.068115234375, 
72, 3678712403, 0.40958482027053833, -0.5384602546691895, -0.33879390358924866, -0.6538368463516235, 10.041460990905762, -0.19242288172245026, 2.150984525680542, -5.401671886444092, 7.964849948883057, -0.07255233079195023, -0.821533203125, -0.099365234375, 0.06640625, 
73, 3678720736, 0.40961140394210815, -0.5382344126701355, -0.3382991850376129, -0.6542620062828064, 10.002935409545898, -0.16191083192825317, 2.1656203269958496, -5.123013973236084, 8.377058982849121, 0.4383620619773865, -0.822509765625, -0.098876953125, 0.06640625, 
74, 3678729069, 0.40969353914260864, -0.53800368309021, -0.33779406547546387, -0.6546612977981567, 9.97846508026123, -0.14316409826278687, 2.1279640197753906, -4.625405788421631, 8.54572868347168, 1.1426254510879517, -0.821533203125, -0.09912109375, 0.0625, 
75, 3678737402, 0.4098437428474426, -0.5377455353736877, -0.3372870683670044, -0.6550406813621521, 9.956857681274414, -0.09453755617141724, 2.117387533187866, -4.2046403884887695, 8.97863483428955, 1.6958671808242798, -0.820068359375, -0.09716796875, 0.0634765625, 
76, 3678745735, 0.4100199341773987, -0.5374773144721985, -0.3367484509944916, -0.6554276943206787, 9.902225494384766, -0.05862824246287346, 2.11667799949646, -3.9713213443756104, 9.417279243469238, 2.1302595138549805, -0.820556640625, -0.09912109375, 0.06103515625, 
77, 3678754068, 0.4102364480495453, -0.537183403968811, -0.336181640625, -0.6558238863945007, 9.798190116882324, -0.021685056388378143, 2.0968446731567383, -4.130923748016357, 10.071415901184082, 2.4745917320251465, -0.8212890625, -0.095703125, 0.061279296875, 
78, 3678762401, 0.4104759097099304, -0.5368708372116089, -0.33556634187698364, -0.6562449932098389, 9.692733764648438, -0.015488501638174057, 2.1116256713867188, -4.08945369720459, 10.79140567779541, 2.8731486797332764, -0.821044921875, -0.09619140625, 0.059326171875, 
79, 3678770734, 0.41075399518013, -0.5365381240844727, -0.33490291237831116, -0.6566819548606873, 9.633983612060547, -0.022447580471634865, 2.1066062450408936, -4.516239166259766, 11.551971435546875, 3.3353326320648193, -0.82373046875, -0.095947265625, 0.057373046875, 
80, 3678779067, 0.4110460877418518, -0.5361818671226501, -0.3341844975948334, -0.6571558713912964, 9.523025512695312, -0.06918736547231674, 2.1026198863983154, -4.578327178955078, 12.400543212890625, 3.6209564208984375, -0.822265625, -0.0947265625, 0.053466796875, 
81, 3678787400, 0.4113975167274475, -0.5358044505119324, -0.33344197273254395, -0.6576208472251892, 9.531301498413086, -0.09093380719423294, 2.154038667678833, -4.566262722015381, 12.946562767028809, 4.216513156890869, -0.8232421875, -0.095947265625, 0.055419921875, 
82, 3678795733, 0.411808580160141, -0.5354191660881042, -0.3326602876186371, -0.6580732464790344, 9.584747314453125, -0.14592678844928741, 2.1683316230773926, -4.378204345703125, 13.419967651367188, 5.079432487487793, -0.82421875, -0.09423828125, 0.051513671875, 
83, 3678804066, 0.41227850317955017, -0.5350258350372314, -0.33185213804244995, -0.6585066914558411, 9.676407814025879, -0.15770815312862396, 2.151132583618164, -3.714589834213257, 13.756204605102539, 5.945961952209473, -0.8232421875, -0.0927734375, 0.05126953125, 
84, 3678812399, 0.4128232002258301, -0.5346078872680664, -0.3310684263706207, -0.658899188041687, 9.676109313964844, -0.15058580040931702, 2.150643825531006, -2.6596932411193848, 13.881484985351562, 6.552148342132568, -0.8251953125, -0.092041015625, 0.04833984375, 
85, 3678820732, 0.41345134377479553, -0.5341726541519165, -0.33032679557800293, -0.6592305898666382, 9.668431282043457, -0.1529204547405243, 2.1525473594665527, -1.5821021795272827, 13.745550155639648, 7.2096147537231445, -0.8271484375, -0.092041015625, 0.04638671875, 
86, 3678829065, 0.4141247272491455, -0.5337306261062622, -0.32960742712020874, -0.6595258116722107, 9.65073013305664, -0.15288865566253662, 2.111440896987915, -0.5284858345985413, 13.602980613708496, 7.695004940032959, -0.82568359375, -0.092041015625, 0.04736328125, 
87, 3678837398, 0.41487571597099304, -0.5332530736923218, -0.32896801829338074, -0.6597592830657959, 9.65056324005127, -0.19240456819534302, 2.093360662460327, 0.9308471083641052, 13.385027885437012, 7.938826084136963, -0.822265625, -0.085693359375, 0.041748046875, 
88, 3678845731, 0.4156685173511505, -0.5327660441398621, -0.32837027311325073, -0.6599515676498413, 9.630718231201172, -0.18393011391162872, 2.0275800228118896, 2.129209518432617, 13.104963302612305, 8.258621215820312, -0.82861328125, -0.08642578125, 0.041259765625, 
89, 3678854064, 0.416511595249176, -0.5322662591934204, -0.32782554626464844, -0.6600939631462097, 9.564230918884277, -0.15736901760101318, 1.9870065450668335, 3.002681016921997, 12.794187545776367, 8.49972915649414, -0.826904296875, -0.082275390625, 0.04296875, 
90, 3678862397, 0.41735416650772095, -0.5317740440368652, -0.327339768409729, -0.660199761390686, 9.51388931274414, -0.126877561211586, 1.9597657918930054, 3.851895570755005, 12.103394508361816, 8.344941139221191, -0.82666015625, -0.08642578125, 0.038330078125, 
91, 3678870730, 0.41819334030151367, -0.5313000679016113, -0.32691797614097595, -0.6602593660354614, 9.536218643188477, -0.07341177016496658, 1.919621229171753, 4.316690444946289, 11.233839988708496, 8.154548645019531, -0.826171875, -0.0830078125, 0.03857421875, 
92, 3678879063, 0.41899237036705017, -0.530859649181366, -0.32652485370635986, -0.6603016257286072, 9.605348587036133, -0.06709703803062439, 1.8985679149627686, 4.463742733001709, 10.439313888549805, 7.895538330078125, -0.8271484375, -0.084716796875, 0.036376953125, 
93, 3678887396, 0.4197700023651123, -0.5304489135742188, -0.3261822760105133, -0.660306990146637, 9.658079147338867, -0.07883001863956451, 1.854897379875183, 4.467045783996582, 9.531057357788086, 7.613422393798828, -0.82763671875, -0.083740234375, 0.03515625, 
94, 3678895729, 0.4204604923725128, -0.5301061272621155, -0.32587435841560364, -0.6602948904037476, 9.672784805297852, -0.04379966855049133, 1.860666275024414, 4.172764301300049, 8.17788314819336, 7.050138473510742, -0.830810546875, -0.079345703125, 0.033447265625, 
95, 3678904062, 0.4210912585258484, -0.5298036932945251, -0.32563316822052, -0.6602548956871033, 9.65869140625, -0.03343760222196579, 1.9021937847137451, 3.8924169540405273, 6.971940040588379, 6.29034423828125, -0.828857421875, -0.079833984375, 0.0322265625, 
96, 3678912395, 0.42167040705680847, -0.5295277833938599, -0.325484037399292, -0.6601799130439758, 9.637506484985352, 0.029033292084932327, 1.9047569036483765, 4.674111843109131, 5.69775915145874, 5.541589260101318, -0.827880859375, -0.078369140625, 0.033447265625, 
97, 3678920728, 0.4222443103790283, -0.5292589664459229, -0.3254639506340027, -0.6600386500358582, 9.5753812789917, 0.08715972304344177, 1.8822747468948364, 5.746092796325684, 4.391739845275879, 4.90205192565918, -0.827880859375, -0.074462890625, 0.029541015625, 
98, 3678929061, 0.42277345061302185, -0.5290329456329346, -0.3255610167980194, -0.6598332524299622, 9.510515213012695, 0.14113518595695496, 1.8801531791687012, 6.771430015563965, 2.647512912750244, 4.262208938598633, -0.827880859375, -0.076416015625, 0.033447265625, 
99, 3678937394, 0.4232734143733978, -0.5288329720497131, -0.32578402757644653, -0.6595627069473267, 9.479641914367676, 0.17708809673786163, 1.8872720003128052, 7.5909833908081055, 1.0821244716644287, 3.5199334621429443, -0.828857421875, -0.074951171875, 0.030517578125, 
100, 3678945727, 0.42372462153434753, -0.5286785960197449, -0.32609662413597107, -0.6592422723770142, 9.506814956665039, 0.20194585621356964, 1.9154894351959229, 8.248116493225098, -0.4395531117916107, 2.9767329692840576, -0.830810546875, -0.076416015625, 0.032958984375, 
101, 3678954060, 0.42411914467811584, -0.5285598039627075, -0.32646727561950684, -0.6589003801345825, 9.626669883728027, 0.22427311539649963, 1.904297947883606, 8.009315490722656, -1.5046443939208984, 2.2696261405944824, -0.829833984375, -0.076416015625, 0.032958984375, 
102, 3678962393, 0.4244510531425476, -0.5284765362739563, -0.32685449719429016, -0.6585612297058105, 9.735441207885742, 0.15785448253154755, 1.8597466945648193, 7.745129585266113, -2.189005136489868, 1.787310004234314, -0.828857421875, -0.075439453125, 0.031494140625, 
103, 3678970726, 0.4247932434082031, -0.5284021496772766, -0.32730939984321594, -0.6581743955612183, 9.817883491516113, 0.08376786857843399, 1.8519439697265625, 8.335794448852539, -2.9590461254119873, 1.6442034244537354, -0.829345703125, -0.075439453125, 0.034423828125, 
104, 3678979059, 0.4251135289669037, -0.5283675789833069, -0.32780689001083374, -0.6577475666999817, 9.82843017578125, 0.03186676651239395, 1.8771436214447021, 8.8007173538208, -3.96120285987854, 1.6218165159225464, -0.831298828125, -0.074462890625, 0.03564453125, 
105, 3678987392, 0.4254266321659088, -0.528343677520752, -0.32840436697006226, -0.6572662591934204, 9.789322853088379, 0.002737389411777258, 1.9294382333755493, 9.544838905334473, -5.066252708435059, 1.12523353099823, -0.830322265625, -0.07373046875, 0.0361328125, 
106, 3678995725, 0.4256838858127594, -0.5283597707748413, -0.329022616147995, -0.6567772626876831, 9.740187644958496, 0.06991901993751526, 2.0091757774353027, 9.368741035461426, -5.859142303466797, 0.7564653158187866, -0.828857421875, -0.07275390625, 0.03564453125, 
107, 3679004058, 0.4258764684200287, -0.5283985137939453, -0.329654723405838, -0.6563042402267456, 9.685737609863281, 0.13546040654182434, 2.038980007171631, 8.579437255859375, -6.319045543670654, 0.01905699260532856, -0.831298828125, -0.07470703125, 0.03759765625, 
108, 3679012391, 0.4259548485279083, -0.5284870862960815, -0.33020201325416565, -0.655906617641449, 9.600915908813477, 0.19334529340267181, 2.060344934463501, 6.605988502502441, -6.241383075714111, -0.5443153977394104, -0.830810546875, -0.0732421875, 0.03955078125, 
109, 3679020724, 0.42592939734458923, -0.5286303162574768, -0.33066412806510925, -0.6555748581886292, 9.597373008728027, 0.16042280197143555, 2.0835025310516357, 4.206881999969482, -6.231060028076172, -1.0656675100326538, -0.83349609375, -0.074951171875, 0.04296875, 
110, 3679029057, 0.4257947504520416, -0.5288444757461548, -0.33101192116737366, -0.6553139686584473, 9.534514427185059, 0.13393402099609375, 2.1200168132781982, 1.8719652891159058, -6.178268909454346, -1.251217007637024, -0.830078125, -0.071533203125, 0.04345703125, 
111, 3679037390, 0.4255771040916443, -0.5291107296943665, -0.3312951624393463, -0.6550973653793335, 9.555293083190918, 0.05283459648489952, 2.1362197399139404, -0.04629772901535034, -6.328804016113281, -1.6127105951309204, -0.828369140625, -0.074462890625, 0.040771484375, 
112, 3679045723, 0.4252685010433197, -0.5294243693351746, -0.33149805665016174, -0.6549416184425354, 9.524312019348145, -0.03507367521524429, 2.1985411643981934, -1.7481074333190918, -6.253267288208008, -1.9221047163009644, -0.829345703125, -0.074462890625, 0.042724609375, 
113, 3679054056, 0.42495793104171753, -0.529714822769165, -0.3316933512687683, -0.6548095345497131, 9.542038917541504, -0.07518360763788223, 2.199954032897949, -2.041902542114258, -5.839007377624512, -2.194819688796997, -0.827880859375, -0.075927734375, 0.042236328125, 
114, 3679062389, 0.4246317148208618, -0.5299854278564453, -0.33189278841018677, -0.6547011137008667, 9.535335540771484, -0.10552674531936646, 2.2342777252197266, -1.823951244354248, -5.580996036529541, -2.518378734588623, -0.829833984375, -0.076416015625, 0.044189453125, 
115, 3679070722, 0.42432159185409546, -0.5302186012268066, -0.33210334181785583, -0.6546067595481873, 9.558791160583496, -0.10355154424905777, 2.2942397594451904, -1.7396295070648193, -5.137434959411621, -2.783716917037964, -0.828857421875, -0.075439453125, 0.043701171875, 
116, 3679079055, 0.42399948835372925, -0.5304273962974548, -0.33230510354042053, -0.654543936252594, 9.565179824829102, -0.09060978889465332, 2.299194574356079, -1.6590467691421509, -4.687596797943115, -3.0541772842407227, -0.827880859375, -0.074951171875, 0.043212890625, 
117, 3679087388, 0.4237070381641388, -0.5305909514427185, -0.33254414796829224, -0.6544793844223022, 9.570611000061035, -0.14837731420993805, 2.278740882873535, -1.0830084085464478, -4.379278182983398, -3.3233063220977783, -0.828857421875, -0.07421875, 0.048583984375, 
118, 3679095721, 0.42342448234558105, -0.5307075381278992, -0.33279505372047424, -0.6544399261474609, 9.53538703918457, -0.2005975842475891, 2.283867120742798, -0.5867068767547607, -3.793455123901367, -3.635133981704712, -0.828857421875, -0.0771484375, 0.047119140625, 
119, 3679104054, 0.4231584966182709, -0.5307847261428833, -0.33307594060897827, -0.6544066071510315, 9.541011810302734, -0.2405138909816742, 2.263833999633789, -0.15454347431659698, -3.494025230407715, -3.968451738357544, -0.828857421875, -0.076416015625, 0.045166015625, 
120, 3679112387, 0.4228886663913727, -0.5308437943458557, -0.3333759903907776, -0.6543803215026855, 9.581865310668945, -0.30428260564804077, 2.252902030944824, 0.33987531065940857, -3.410266637802124, -4.194984436035156, -0.829833984375, -0.07763671875, 0.047119140625, 
121, 3679120720, 0.4226421117782593, -0.5308704376220703, -0.33371391892433167, -0.6543458700180054, 9.611509323120117, -0.36016422510147095, 2.2540528774261475, 0.8008034825325012, -3.292184829711914, -4.43373441696167, -0.826416015625, -0.07861328125, 0.04541015625, 
122, 3679129053, 0.4223845601081848, -0.5308849811553955, -0.3340550661087036, -0.654326319694519, 9.66090202331543, -0.31302422285079956, 2.2689716815948486, 0.7515472769737244, -3.1434175968170166, -4.699508190155029, -0.829345703125, -0.080078125, 0.05126953125, 
123, 3679137386, 0.42210859060287476, -0.5308985710144043, -0.33439841866493225, -0.6543178558349609, 9.7388334274292, -0.2690821588039398, 2.2617104053497314, 0.8484970927238464, -3.1511270999908447, -4.882623672485352, -0.827880859375, -0.07958984375, 0.0498046875, 
124, 3679145719, 0.42183545231819153, -0.5308981537818909, -0.3347451388835907, -0.6543172597885132, 9.75839614868164, -0.2276129573583603, 2.226374864578247, 0.9375321865081787, -2.9769246578216553, -4.995582580566406, -0.825439453125, -0.07861328125, 0.04736328125, 
125, 3679154052, 0.42158716917037964, -0.5308767557144165, -0.33510735630989075, -0.6543089747428894, 9.761370658874512, -0.17004169523715973, 2.2312979698181152, 1.1651402711868286, -2.815631866455078, -5.000807762145996, -0.825439453125, -0.08056640625, 0.0498046875, 
126, 3679162385, 0.42135027050971985, -0.5308390855789185, -0.33546891808509827, -0.6543068885803223, 9.751038551330566, -0.17146490514278412, 2.2195944786071777, 1.5730981826782227, -2.5706064701080322, -4.939001083374023, -0.824462890625, -0.081787109375, 0.05126953125, 
127, 3679170718, 0.4211367964744568, -0.5308030247688293, -0.3358401358127594, -0.6542832255363464, 9.722983360290527, -0.15613974630832672, 2.1792216300964355, 1.657446026802063, -2.6895077228546143, -4.7319865226745605, -0.824951171875, -0.078857421875, 0.05078125, 
128, 3679179051, 0.42092764377593994, -0.5307870507240295, -0.3361871540546417, -0.6542524099349976, 9.683906555175781, -0.11968778818845749, 2.1460201740264893, 1.552196979522705, -2.7620468139648438, -4.3386030197143555, -0.8251953125, -0.084228515625, 0.052001953125, 
129, 3679187384, 0.42073506116867065, -0.5307825803756714, -0.3365199863910675, -0.6542088389396667, 9.684639930725098, -0.08424756675958633, 2.12153697013855, 1.3724106550216675, -2.799520492553711, -4.0025954246521, -0.825927734375, -0.08251953125, 0.04931640625, 
130, 3679195717, 0.42054471373558044, -0.5307902693748474, -0.33681005239486694, -0.6541755795478821, 9.628702163696289, -0.035328805446624756, 2.0528526306152344, 1.0994142293930054, -2.5771892070770264, -3.620918035507202, -0.826416015625, -0.080322265625, 0.05224609375, 
131, 3679204050, 0.42037802934646606, -0.5308101177215576, -0.3370918035507202, -0.6541215777397156, 9.596778869628906, -0.02284514717757702, 2.040194511413574, 1.010199785232544, -2.6788008213043213, -3.2231032848358154, -0.825927734375, -0.084228515625, 0.053466796875, 
132, 3679212383, 0.4202178716659546, -0.5308554172515869, -0.33732691407203674, -0.6540663838386536, 9.603178024291992, -0.018038900569081306, 2.060303211212158, 0.4966599941253662, -2.6166858673095703, -2.6998298168182373, -0.826416015625, -0.082763671875, 0.052734375, 
133, 3679220716, 0.4200567901134491, -0.5309339165687561, -0.33752694725990295, -0.6540032029151917, 9.617593765258789, -0.023576073348522186, 2.051856756210327, 0.26147010922431946, -2.775827407836914, -2.1926424503326416, -0.82568359375, -0.085205078125, 0.054931640625, 
134, 3679229049, 0.4199035167694092, -0.5310388207435608, -0.33769768476486206, -0.6539282202720642, 9.642678260803223, -0.009775211103260517, 2.0227808952331543, -0.05802905559539795, -2.894857168197632, -1.7199833393096924, -0.827392578125, -0.083740234375, 0.0537109375, 
135, 3679237382, 0.4197758734226227, -0.5311455726623535, -0.337858647108078, -0.6538403630256653, 9.66190242767334, -0.03965787962079048, 1.9760833978652954, -0.13671599328517914, -2.8289260864257812, -1.3920953273773193, -0.82470703125, -0.086181640625, 0.053466796875, 
136, 3679245715, 0.41962701082229614, -0.531293511390686, -0.3379654586315155, -0.6537606120109558, 9.656341552734375, 0.03682316467165947, 1.9757381677627563, -0.740545928478241, -2.9265928268432617, -0.9696397185325623, -0.8251953125, -0.085693359375, 0.055908203125, 
137, 3679254048, 0.4194936156272888, -0.5314526557922363, -0.3380531370639801, -0.6536715030670166, 9.678752899169922, 0.06454799324274063, 1.9958654642105103, -1.1338013410568237, -2.9115829467773438, -0.6575814485549927, -0.8251953125, -0.085205078125, 0.054443359375, 
138, 3679262381, 0.419342577457428, -0.5316408276557922, -0.3380727171897888, -0.6536053419113159, 9.669475555419922, 0.0166313499212265, 1.987817645072937, -1.8850924968719482, -2.6960647106170654, -0.25195443630218506, -0.8232421875, -0.086669921875, 0.055419921875, 
139, 3679270714, 0.4192030727863312, -0.5318388342857361, -0.33806952834129333, -0.6535353064537048, 9.685247421264648, 0.030502373352646828, 2.015021562576294, -2.307138442993164, -2.62583065032959, 0.022335615009069443, -0.826171875, -0.085693359375, 0.056396484375, 
140, 3679279047, 0.41904985904693604, -0.5320650339126587, -0.33802297711372375, -0.6534733176231384, 9.696480751037598, 0.02799222432076931, 1.9987127780914307, -2.7525691986083984, -2.634385108947754, 0.36023855209350586, -0.82470703125, -0.084716796875, 0.056396484375, 
141, 3679287380, 0.4189096987247467, -0.5322922468185425, -0.33798274397850037, -0.6533991098403931, 9.727368354797363, 0.009835178963840008, 1.989263892173767, -2.793680429458618, -2.7105367183685303, 0.44742944836616516, -0.826171875, -0.0869140625, 0.058837890625, 
142, 3679295713, 0.41877293586730957, -0.5325228571891785, -0.33791932463645935, -0.6533317565917969, 9.723472595214844, -0.015256540849804878, 1.9915088415145874, -2.7635068893432617, -2.540560722351074, 0.6883313059806824, -0.82568359375, -0.0859375, 0.057861328125, 
143, 3679304046, 0.4186367988586426, -0.5327664613723755, -0.33784618973731995, -0.6532580852508545, 9.740850448608398, -0.034736327826976776, 1.9922410249710083, -3.157454013824463, -2.6453230381011963, 0.7971662282943726, -0.82373046875, -0.087158203125, 0.053466796875, 
144, 3679312379, 0.418477863073349, -0.5330293774604797, -0.3377457559108734, -0.6531974077224731, 9.761443138122559, -0.06140267848968506, 2.024563789367676, -3.4433603286743164, -2.6707065105438232, 0.8786706328392029, -0.823974609375, -0.082763671875, 0.062255859375, 
145, 3679320712, 0.4183422923088074, -0.5332846641540527, -0.33764225244522095, -0.653129518032074, 9.770339012145996, -0.07500775158405304, 2.0125391483306885, -3.520510196685791, -2.5301873683929443, 1.0457524061203003, -0.82763671875, -0.087158203125, 0.056396484375, 
146, 3679329045, 0.4181945323944092, -0.5335379242897034, -0.33753207325935364, -0.6530740261077881, 9.776674270629883, -0.09384496510028839, 2.0281002521514893, -3.445511817932129, -2.4377455711364746, 0.9699598550796509, -0.82470703125, -0.0859375, 0.057861328125, 
147, 3679337378, 0.41808852553367615, -0.5337552428245544, -0.33745357394218445, -0.6530050039291382, 9.76037883758545, -0.10951841622591019, 2.0501370429992676, -2.854949712753296, -2.203246831893921, 0.9586383104324341, -0.8232421875, -0.0859375, 0.059814453125, 
148, 3679345711, 0.41797178983688354, -0.533967912197113, -0.3373790979385376, -0.6529444456100464, 9.789777755737305, -0.10323847830295563, 2.050985813140869, -2.63592267036438, -2.172945261001587, 0.826494574546814, -0.826171875, -0.085693359375, 0.056396484375, 
149, 3679354044, 0.4179024398326874, -0.5341381430625916, -0.33732423186302185, -0.6528779864311218, 9.788094520568848, -0.08684353530406952, 2.0509145259857178, -2.1167733669281006, -1.729332447052002, 0.8813090324401855, -0.8251953125, -0.085205078125, 0.056884765625, 
150, 3679362377, 0.41782480478286743, -0.5342952013015747, -0.3372863233089447, -0.6528186202049255, 9.760251998901367, -0.0986240804195404, 2.0735161304473877, -1.7251057624816895, -1.6916024684906006, 0.6399717330932617, -0.82421875, -0.0869140625, 0.057861328125, 
151, 3679370710, 0.41778630018234253, -0.534422755241394, -0.3372812271118164, -0.6527414321899414, 9.794669151306152, -0.08824305236339569, 2.059018611907959, -1.1457887887954712, -1.5677064657211304, 0.6560574173927307, -0.82275390625, -0.08349609375, 0.058349609375, 
152, 3679379043, 0.41777029633522034, -0.5345195531845093, -0.33727750182151794, -0.6526742577552795, 9.764166831970215, -0.08469681441783905, 2.0588386058807373, -0.5782285332679749, -1.1204050779342651, 0.7079005837440491, -0.825927734375, -0.08447265625, 0.058837890625, 
153, 3679387376, 0.4177928864955902, -0.5345907807350159, -0.33731788396835327, -0.652580738067627, 9.757086753845215, -0.07771553099155426, 2.0547685623168945, 0.10901418328285217, -1.1588776111602783, 0.7018555998802185, -0.82373046875, -0.08349609375, 0.058837890625, 
154, 3679395709, 0.4178251028060913, -0.5346481800079346, -0.33735859394073486, -0.6524919867515564, 9.756113052368164, -0.08684266358613968, 2.062758207321167, 0.5075972080230713, -0.9569350481033325, 0.7570030093193054, -0.825927734375, -0.0849609375, 0.059326171875, 
155, 3679404042, 0.4178810119628906, -0.5346810817718506, -0.33741456270217896, -0.6524003148078918, 9.7767915725708, -0.047080013900995255, 2.062429189682007, 0.7067223787307739, -0.7376514673233032, 0.6982439756393433, -0.82470703125, -0.08544921875, 0.057373046875, 
156, 3679412375, 0.41793346405029297, -0.5346989035606384, -0.3374732732772827, -0.6523218154907227, 9.767149925231934, -0.03625815361738205, 2.055913209915161, 0.9642221927642822, -0.5393460988998413, 0.5578011274337769, -0.826904296875, -0.083251953125, 0.0625, 
157, 3679420708, 0.4180092513561249, -0.5346885323524475, -0.33753257989883423, -0.6522510647773743, 9.770525932312012, -0.0317586213350296, 2.040348529815674, 1.0338417291641235, -0.11873479932546616, 0.5301122069358826, -0.823974609375, -0.083984375, 0.060302734375, 
158, 3679429041, 0.4180736243724823, -0.5346797704696655, -0.33755606412887573, -0.6522046327590942, 9.790876388549805, -0.02937660925090313, 2.0537102222442627, 0.7452206015586853, 0.19384855031967163, 0.6157662868499756, -0.823486328125, -0.0830078125, 0.059814453125, 
159, 3679437374, 0.4181506633758545, -0.5346447229385376, -0.33755815029144287, -0.6521829962730408, 9.77822208404541, -0.014834996312856674, 2.041457176208496, 0.44461190700531006, 0.7951939702033997, 0.5662539005279541, -0.82373046875, -0.0859375, 0.059814453125, 
160, 3679445707, 0.4181983172893524, -0.5346097350120544, -0.3375385105609894, -0.6521913409233093, 9.755733489990234, -0.03588581457734108, 2.001422643661499, 0.253478467464447, 1.0028486251831055, 0.3711758852005005, -0.82470703125, -0.08447265625, 0.058837890625, 
161, 3679454040, 0.4182569682598114, -0.5345711708068848, -0.33752039074897766, -0.652194619178772, 9.751120567321777, -0.051843807101249695, 2.0378663539886475, 0.030173568055033684, 1.040347695350647, 0.39028409123420715, -0.824951171875, -0.0849609375, 0.060791015625, 
162, 3679462373, 0.41830286383628845, -0.5345357656478882, -0.33746337890625, -0.6522236466407776, 9.78154182434082, -0.08931040018796921, 2.0276594161987305, -0.5472609400749207, 1.3672109842300415, 0.42765530943870544, -0.825927734375, -0.08251953125, 0.06103515625, 
163, 3679470706, 0.41832348704338074, -0.534511387348175, -0.3373990058898926, -0.652263879776001, 9.807621002197266, -0.10121987760066986, 2.0085039138793945, -0.644287645816803, 1.2714649438858032, 0.3070378303527832, -0.824951171875, -0.08349609375, 0.058837890625, 
164, 3679479039, 0.41833874583244324, -0.5344846248626709, -0.3373504877090454, -0.6523009538650513, 9.801247596740723, -0.09612705558538437, 2.024068593978882, -0.5510262250900269, 1.1559447050094604, 0.1394951194524765, -0.825439453125, -0.08349609375, 0.059326171875, 
165, 3679487372, 0.4183524549007416, -0.5344476103782654, -0.33731433749198914, -0.6523411870002747, 9.7845458984375, -0.08049093931913376, 2.021665334701538, -0.6392415761947632, 1.194366216659546, -0.08594855666160583, -0.824462890625, -0.0830078125, 0.057373046875, 
166, 3679495705, 0.41834720969200134, -0.5343999862670898, -0.33728349208831787, -0.6523995995521545, 9.749911308288574, -0.07303052395582199, 2.015249013900757, -0.5025897026062012, 1.3025094270706177, -0.38932356238365173, -0.823486328125, -0.08349609375, 0.059814453125, 
167, 3679504038, 0.4183429479598999, -0.5343432426452637, -0.3372771441936493, -0.6524520516395569, 9.739137649536133, -0.08484011143445969, 2.002523899078369, -0.44718605279922485, 1.2057900428771973, -0.6279969811439514, -0.826904296875, -0.0849609375, 0.058349609375, 
168, 3679512371, 0.41834399104118347, -0.5342766046524048, -0.33726462721824646, -0.6525124907493591, 9.703960418701172, -0.07074889540672302, 1.9898061752319336, -0.15976880490779877, 1.4113444089889526, -0.5600681304931641, -0.825439453125, -0.08447265625, 0.059814453125, 
169, 3679520704, 0.41837596893310547, -0.5341835618019104, -0.33728381991386414, -0.6525583267211914, 9.64270305633545, -0.059418585151433945, 1.9797850847244263, 0.2872380316257477, 1.5053995847702026, -0.6212604641914368, -0.82373046875, -0.083984375, 0.060302734375, 
170, 3679529037, 0.41841423511505127, -0.5340887904167175, -0.3372952938079834, -0.6526052951812744, 9.632713317871094, -0.04330556094646454, 1.9990856647491455, 0.5098256468772888, 1.6003261804580688, -0.4647318422794342, -0.823486328125, -0.0810546875, 0.05908203125, 
171, 3679537370, 0.41847139596939087, -0.5339853167533875, -0.33729565143585205, -0.652653157711029, 9.64539623260498, -0.04517083615064621, 2.0192129611968994, 0.35398873686790466, 1.8378212451934814, -0.31650227308273315, -0.825927734375, -0.08349609375, 0.0595703125, 
172, 3679545703, 0.4185248017311096, -0.5338864922523499, -0.33726054430007935, -0.6527180075645447, 9.697720527648926, -0.05855294689536095, 2.030001163482666, -0.09729566425085068, 2.1077442169189453, -0.16573689877986908, -0.825439453125, -0.08447265625, 0.059326171875, 
173, 3679554036, 0.4185624122619629, -0.5338046550750732, -0.33719342947006226, -0.6527954339981079, 9.718884468078613, -0.06182956323027611, 2.0247583389282227, -0.4228014051914215, 2.156001567840576, -0.009592531248927116, -0.825927734375, -0.08251953125, 0.05908203125, 
174, 3679562369, 0.418608695268631, -0.5337220430374146, -0.33710843324661255, -0.652877151966095, 9.732149124145508, -0.043723903596401215, 2.0060923099517822, -0.5672144293785095, 2.339962959289551, 0.16298338770866394, -0.825927734375, -0.08203125, 0.0576171875, 
175, 3679570702, 0.41865983605384827, -0.5336513519287109, -0.3370330035686493, -0.652941107749939, 9.765475273132324, -0.019787348806858063, 2.0099477767944336, -0.6342724561691284, 2.0696301460266113, 0.24574294686317444, -0.823486328125, -0.0830078125, 0.057373046875, 
176, 3679579035, 0.4186779856681824, -0.5336083769798279, -0.33693212270736694, -0.6530166864395142, 9.737189292907715, -0.015959810465574265, 2.051618814468384, -1.0491206645965576, 1.8998335599899292, 0.26072731614112854, -0.825927734375, -0.083984375, 0.057861328125, 
177, 3679587368, 0.41866493225097656, -0.5335800051689148, -0.33679211139678955, -0.6531205177307129, 9.692069053649902, 0.027421582490205765, 2.0969200134277344, -2.114365577697754, 2.0557985305786133, 0.1097826212644577, -0.825927734375, -0.08056640625, 0.06103515625, 
178, 3679595701, 0.4186043441295624, -0.5335732698440552, -0.3366173207759857, -0.6532548069953918, 9.642027854919434, 0.026824960485100746, 2.076916456222534, -2.9021573066711426, 2.0632009506225586, -0.099729023873806, -0.82470703125, -0.08447265625, 0.057861328125, 
179, 3679604034, 0.41851454973220825, -0.5335675477981567, -0.33642688393592834, -0.6534150838851929, 9.60847282409668, -0.0008998869452625513, 2.062148094177246, -3.5215089321136475, 2.2046425342559814, -0.42984527349472046, -0.826904296875, -0.08349609375, 0.0576171875, 
180, 3679612367, 0.418393611907959, -0.5335748195648193, -0.33621132373809814, -0.6535975933074951, 9.56503677368164, -0.08253274857997894, 2.089488983154297, -3.880082845687866, 2.2459330558776855, -0.5268720388412476, -0.826416015625, -0.08349609375, 0.05859375, 
181, 3679620700, 0.41829735040664673, -0.533574640750885, -0.3360450565814972, -0.6537448763847351, 9.513615608215332, -0.11291609704494476, 2.0720975399017334, -3.322768211364746, 1.8903816938400269, -0.5660873651504517, -0.828369140625, -0.083740234375, 0.056640625, 
182, 3679629033, 0.4182502329349518, -0.5335630774497986, -0.33591172099113464, -0.6538527607917786, 9.549683570861816, -0.1281532347202301, 2.0539357662200928, -2.2004804611206055, 1.7353899478912354, -0.13653667271137238, -0.823974609375, -0.0810546875, 0.05615234375, 
183, 3679637366, 0.4182904362678528, -0.5335053205490112, -0.33580824732780457, -0.6539274454116821, 9.556600570678711, -0.08385220915079117, 2.004067897796631, -1.0903851985931396, 2.1431431770324707, 0.35357892513275146, -0.82373046875, -0.083251953125, 0.053466796875, 
184, 3679645699, 0.4183618128299713, -0.5334333777427673, -0.3356896638870239, -0.6540012955665588, 9.603121757507324, -0.024525050073862076, 2.042710542678833, -0.6621151566505432, 2.4913430213928223, 0.745092511177063, -0.826416015625, -0.083251953125, 0.05517578125, 
185, 3679654032, 0.41845425963401794, -0.5333572626113892, -0.33550992608070374, -0.6540963649749756, 9.683735847473145, -0.017022592946887016, 2.105343818664551, -1.3812861442565918, 3.1390504837036133, 1.1793051958084106, -0.827392578125, -0.082763671875, 0.05517578125, 
186, 3679662365, 0.41853946447372437, -0.5332700610160828, -0.3352544605731964, -0.6542442440986633, 9.72929859161377, 0.0004718498676083982, 2.1317267417907715, -2.0744330883026123, 4.022433757781982, 1.3711557388305664, -0.827880859375, -0.083251953125, 0.0556640625, 
187, 3679670698, 0.41862428188323975, -0.5331948399543762, -0.33494848012924194, -0.6544080376625061, 9.776012420654297, -0.005265745799988508, 2.1377367973327637, -2.8961374759674072, 4.324681758880615, 1.6459451913833618, -0.824951171875, -0.081298828125, 0.05419921875, 
188, 3679679031, 0.4186660945415497, -0.5331435203552246, -0.33459463715553284, -0.6546040177345276, 9.802973747253418, -0.016231385990977287, 2.1345417499542236, -3.717125177383423, 4.419428825378418, 1.5884156227111816, -0.826904296875, -0.083251953125, 0.05419921875, 
189, 3679687364, 0.41867566108703613, -0.533111035823822, -0.33419448137283325, -0.6548287272453308, 9.835362434387207, -0.04726630821824074, 2.1715087890625, -4.823378086090088, 4.581823348999023, 1.5059120655059814, -0.824951171875, -0.082763671875, 0.05322265625, 
190, 3679695697, 0.41861864924430847, -0.5331056714057922, -0.3337516784667969, -0.6550951600074768, 9.845081329345703, -0.03491669148206711, 2.1585240364074707, -5.778763294219971, 4.578083515167236, 1.1695971488952637, -0.825927734375, -0.082275390625, 0.0517578125, 
191, 3679704030, 0.41854846477508545, -0.5330995917320251, -0.333330899477005, -0.6553592085838318, 9.81959056854248, -0.03004443272948265, 2.178180694580078, -5.925149440765381, 4.3858232498168945, 0.832462728023529, -0.826904296875, -0.078857421875, 0.05322265625, 
192, 3679712363, 0.41845235228538513, -0.5330857038497925, -0.332902729511261, -0.6556494235992432, 9.811738014221191, -0.07365140318870544, 2.195971727371216, -6.1218671798706055, 4.566045761108398, 0.5051895976066589, -0.824951171875, -0.08203125, 0.05078125, 
193, 3679720696, 0.41836321353912354, -0.5330508351325989, -0.33250027894973755, -0.6559387445449829, 9.802188873291016, -0.07204694300889969, 2.1712496280670166, -5.850278854370117, 4.638686656951904, 0.2503535747528076, -0.826904296875, -0.0830078125, 0.048828125, 
194, 3679729029, 0.41826513409614563, -0.5329997539520264, -0.3321212828159332, -0.6562348008155823, 9.789593696594238, -0.12501317262649536, 2.158665657043457, -5.46358060836792, 4.651980876922607, -0.06673789024353027, -0.826416015625, -0.08251953125, 0.05029296875, 
195, 3679737362, 0.4181903004646301, -0.5329224467277527, -0.33178606629371643, -0.6565148830413818, 9.784893989562988, -0.1719985455274582, 2.139376640319824, -4.8523736000061035, 4.631796836853027, -0.2539779543876648, -0.826416015625, -0.08056640625, 0.0478515625, 
196, 3679745695, 0.4181446135044098, -0.5328186750411987, -0.3314943313598633, -0.6567754149436951, 9.756402969360352, -0.2182038575410843, 2.107947587966919, -3.819223165512085, 4.604722023010254, -0.26921841502189636, -0.825927734375, -0.08056640625, 0.05029296875, 
197, 3679754028, 0.4181711971759796, -0.5326656699180603, -0.331280916929245, -0.6569902896881104, 9.713675498962402, -0.2551702857017517, 2.074117660522461, -2.2746849060058594, 4.6002397537231445, -0.20108455419540405, -0.826416015625, -0.0830078125, 0.048828125, 
198, 3679762361, 0.41823533177375793, -0.5324842929840088, -0.3311293125152588, -0.6571728587150574, 9.654545783996582, -0.21448318660259247, 2.1028685569763184, -0.8189511895179749, 4.426703929901123, -0.18069563806056976, -0.827880859375, -0.07958984375, 0.0478515625, 
199, 3679770694, 0.41834479570388794, -0.5322679877281189, -0.33108577132225037, -0.6573005318641663, 9.658331871032715, -0.11801104247570038, 2.0728259086608887, 0.6265752911567688, 3.9336800575256348, -0.4815859794616699, -0.825439453125, -0.08154296875, 0.0478515625, 
200, 3679779027, 0.4184632897377014, -0.5320279002189636, -0.33106693625450134, -0.6574289202690125, 9.669758796691895, -0.12041851878166199, 2.04606556892395, 1.263627052307129, 4.047689914703369, -0.6398563981056213, -0.828857421875, -0.082275390625, 0.04541015625, 
201, 3679787360, 0.4185961186885834, -0.5317655205726624, -0.3310734033584595, -0.6575532555580139, 9.663241386413574, -0.12325546890497208, 2.0491783618927, 1.5323461294174194, 4.143435478210449, -0.8276343941688538, -0.826416015625, -0.07958984375, 0.04638671875, 
202, 3679795693, 0.41869521141052246, -0.5315213203430176, -0.331100732088089, -0.6576738357543945, 9.672699928283691, -0.06516099721193314, 2.0442583560943604, 1.5263265371322632, 3.673029899597168, -1.1424075365066528, -0.826416015625, -0.082275390625, 0.044921875, 
203, 3679804026, 0.41877689957618713, -0.5312948822975159, -0.33114707469940186, -0.6577814221382141, 9.676271438598633, -0.08044751733541489, 2.047694206237793, 1.3877278566360474, 3.234539747238159, -1.321886420249939, -0.826416015625, -0.082763671875, 0.04443359375, 
204, 3679812359, 0.418790340423584, -0.5311145782470703, -0.3311663866043091, -0.6579086184501648, 9.671042442321777, -0.048122797161340714, 2.0319626331329346, 0.6009611487388611, 2.798483371734619, -1.5668867826461792, -0.825439453125, -0.08154296875, 0.0478515625, 
205, 3679820692, 0.4187644422054291, -0.5309714674949646, -0.3311978876590729, -0.6580249667167664, 9.663773536682129, 0.02679547108709812, 2.0420398712158203, -0.053008656948804855, 2.1422464847564697, -1.8579670190811157, -0.828857421875, -0.081787109375, 0.04345703125, 
206, 3679829025, 0.4187021553516388, -0.5308563113212585, -0.3312007784843445, -0.6581558585166931, 9.669753074645996, 0.026943597942590714, 2.074937105178833, -0.5935714840888977, 1.988484263420105, -1.8795855045318604, -0.826171875, -0.083251953125, 0.04296875, 
207, 3679837358, 0.41862282156944275, -0.530759334564209, -0.33121371269226074, -0.6582781672477722, 9.628217697143555, 0.011713358573615551, 2.0360107421875, -0.9033755660057068, 1.629731297492981, -2.029428482055664, -0.826416015625, -0.082275390625, 0.044921875, 
208, 3679845691, 0.4185616970062256, -0.530672550201416, -0.33124178647994995, -0.6583728194236755, 9.597455978393555, 0.005820113699883223, 2.0345489978790283, -0.5663691163063049, 1.3303008079528809, -1.7692135572433472, -0.82666015625, -0.08447265625, 0.041259765625, 
209, 3679854024, 0.418504536151886, -0.5305901169776917, -0.33128252625465393, -0.6584552526473999, 9.555723190307617, -0.0015500830486416817, 2.0199086666107178, -0.20446562767028809, 1.1456990242004395, -1.6862235069274902, -0.82470703125, -0.082763671875, 0.043701171875, 
210, 3679862357, 0.41844165325164795, -0.5305192470550537, -0.3313317894935608, -0.6585274338722229, 9.543777465820312, -0.03501502051949501, 2.02921724319458, -0.15154661238193512, 0.890171468257904, -1.679333209991455, -0.826416015625, -0.081298828125, 0.04345703125, 
211, 3679870690, 0.4184139668941498, -0.5304355621337891, -0.3314017057418823, -0.6585771441459656, 9.518744468688965, -0.05295819416642189, 1.9864568710327148, 0.24241310358047485, 0.8874819874763489, -1.498983383178711, -0.82763671875, -0.083984375, 0.0419921875, 
212, 3679879023, 0.4184144139289856, -0.5303243398666382, -0.33150288462638855, -0.6586155295372009, 9.48353385925293, -0.09032955765724182, 1.9790525436401367, 0.9419634342193604, 1.0023106336593628, -1.5333577394485474, -0.826171875, -0.086669921875, 0.044677734375, 
213, 3679887356, 0.41845598816871643, -0.5301770567893982, -0.3316453695297241, -0.6586359739303589, 9.455411911010742, -0.08801020681858063, 1.9494370222091675, 2.099240303039551, 1.1464420557022095, -1.4706029891967773, -0.82666015625, -0.083251953125, 0.04248046875, 
214, 3679895689, 0.418540358543396, -0.5300166010856628, -0.3318442702293396, -0.6586113572120667, 9.410425186157227, -0.03962304815649986, 1.9298474788665771, 3.198603391647339, 0.8070277571678162, -1.2951453924179077, -0.826904296875, -0.083251953125, 0.04345703125, 
215, 3679904022, 0.4186553657054901, -0.529857873916626, -0.3320789039134979, -0.6585478186607361, 9.431327819824219, -0.024812012910842896, 1.9500819444656372, 3.7257440090179443, 0.4451753795146942, -1.098351240158081, -0.826904296875, -0.081298828125, 0.0458984375, 
216, 3679912355, 0.41879186034202576, -0.5297223329544067, -0.33231329917907715, -0.6584516167640686, 9.457632064819336, 0.026868628337979317, 1.9129595756530762, 4.004964351654053, 0.09607898443937302, -0.5738227963447571, -0.8251953125, -0.082763671875, 0.044677734375, 
217, 3679920688, 0.4189881980419159, -0.5295714139938354, -0.332607626914978, -0.658299446105957, 9.492828369140625, 0.06512108445167542, 1.8710129261016846, 5.217491626739502, -0.2449873387813568, -0.2508274018764496, -0.82666015625, -0.083740234375, 0.044677734375, 
218, 3679929021, 0.41920995712280273, -0.5294392108917236, -0.3329193592071533, -0.6581070423126221, 9.551668167114258, 0.16806192696094513, 1.7687931060791016, 5.8185296058654785, -0.6900091171264648, 0.22105087339878082, -0.826904296875, -0.083251953125, 0.04443359375, 
219, 3679937354, 0.41945064067840576, -0.5293193459510803, -0.33320680260658264, -0.6579048037528992, 9.550047874450684, 0.15536068379878998, 1.7023180723190308, 5.527859210968018, -0.6477711200714111, 0.6306224465370178, -0.82666015625, -0.084228515625, 0.046142578125, 
220, 3679945687, 0.41963866353034973, -0.5292701721191406, -0.33337515592575073, -0.6577388048171997, 9.514068603515625, 0.1588628888130188, 1.6876423358917236, 3.6850686073303223, -0.5749755501747131, 1.1903446912765503, -0.826904296875, -0.080322265625, 0.0439453125, 
221, 3679954020, 0.41976404190063477, -0.529292106628418, -0.33338597416877747, -0.6576358079910278, 9.484322547912598, 0.16980628669261932, 1.7678464651107788, 0.9126095175743103, -0.13963600993156433, 1.679499626159668, -0.825927734375, -0.082275390625, 0.0419921875, 
222, 3679962353, 0.4197786748409271, -0.5294338464736938, -0.333201140165329, -0.6576060056686401, 9.504209518432617, 0.217502161860466, 1.8404349088668823, -2.690916061401367, -0.07083616405725479, 2.228182077407837, -0.82470703125, -0.082763671875, 0.042724609375, 
223, 3679970686, 0.4196453094482422, -0.529699444770813, -0.33281758427619934, -0.6576714515686035, 9.429688453674316, 0.2320658266544342, 1.8285186290740967, -6.558281898498535, -0.020171213895082474, 2.4012324810028076, -0.826416015625, -0.079833984375, 0.044921875, 
224, 3679979019, 0.41937437653541565, -0.5301187038421631, -0.3322492837905884, -0.6577939391136169, 9.412708282470703, 0.23248344659805298, 1.8648005723953247, -10.46155834197998, -0.5568150877952576, 2.8607258796691895, -0.825439453125, -0.080322265625, 0.04443359375, 
225, 3679987352, 0.41899335384368896, -0.5307291746139526, -0.331533819437027, -0.6579055190086365, 9.56125545501709, 0.2337227165699005, 1.8608980178833008, -13.721841812133789, -2.0269954204559326, 3.844210147857666, -0.828369140625, -0.080322265625, 0.04345703125, 
226, 3679995685, 0.41853195428848267, -0.5314421057701111, -0.3306411802768707, -0.6580728888511658, 9.836871147155762, 0.2733798921108246, 1.7929940223693848, -16.587385177612305, -1.8859124183654785, 4.609231472015381, -0.826416015625, -0.081787109375, 0.04541015625, 
227, 3680004018, 0.4178817868232727, -0.532273530960083, -0.3294574022293091, -0.6584078073501587, 9.931675910949707, 0.12105333805084229, 1.893059492111206, -22.21427345275879, -0.9236881136894226, 4.549166679382324, -0.827392578125, -0.080322265625, 0.044921875, 
228, 3680012351, 0.41699352860450745, -0.5332477688789368, -0.3280772566795349, -0.6588714122772217, 9.876290321350098, -0.03885874152183533, 1.9166656732559204, -26.99786949157715, -1.215537190437317, 3.7881429195404053, -0.827880859375, -0.079833984375, 0.04296875, 
229, 3680020684, 0.41593071818351746, -0.5343734622001648, -0.3266057074069977, -0.6593621969223022, 9.906707763671875, -0.10341416299343109, 2.0052313804626465, -30.238819122314453, -2.661283016204834, 3.3537256717681885, -0.826904296875, -0.080810546875, 0.0419921875, 
230, 3680029017, 0.4147357940673828, -0.5356608629226685, -0.32504692673683167, -0.6598402857780457, 9.994488716125488, -0.05599360913038254, 2.071769952774048, -32.64031219482422, -4.306230545043945, 3.6652982234954834, -0.828369140625, -0.074462890625, 0.040771484375, 
231, 3680037350, 0.41348904371261597, -0.5370110273361206, -0.3233771324157715, -0.6603456735610962, 10.025447845458984, -0.029944133013486862, 2.119290828704834, -34.738101959228516, -4.282819747924805, 4.069644927978516, -0.827392578125, -0.078857421875, 0.0419921875, 
232, 3680045683, 0.4122124910354614, -0.5383960008621216, -0.32159367203712463, -0.6608867645263672, 9.902974128723145, 0.011188151314854622, 2.166569232940674, -36.16169357299805, -3.811671257019043, 4.64896297454834, -0.827392578125, -0.0810546875, 0.0390625, 
233, 3680054016, 0.41090261936187744, -0.5398311018943787, -0.3197005093097687, -0.6614500880241394, 9.759864807128906, 0.0003575999289751053, 2.2999680042266846, -37.97321319580078, -3.635676383972168, 5.19447135925293, -0.828369140625, -0.08056640625, 0.0400390625, 
234, 3680062349, 0.409531831741333, -0.5413352251052856, -0.31764084100723267, -0.6620627641677856, 9.755645751953125, -0.018723655492067337, 2.3629820346832275, -40.315189361572266, -3.2188048362731934, 5.9711222648620605, -0.829345703125, -0.078857421875, 0.041748046875, 
235, 3680070682, 0.4081512689590454, -0.5428633689880371, -0.3153902590274811, -0.6627397537231445, 9.818093299865723, -0.07185427844524384, 2.3120291233062744, -42.773746490478516, -1.9345051050186157, 6.976892471313477, -0.828369140625, -0.07861328125, 0.040283203125, 
236, 3680079015, 0.40673360228538513, -0.5443863272666931, -0.3129124641418457, -0.6635361909866333, 9.78962516784668, -0.13493601977825165, 2.304628372192383, -45.37312698364258, 0.12771281599998474, 7.714330673217773, -0.828857421875, -0.078857421875, 0.034912109375, 
237, 3680087348, 0.4052385985851288, -0.5459322333335876, -0.3102879524230957, -0.6644127368927002, 9.697206497192383, -0.15272048115730286, 2.404093027114868, -48.00197982788086, 0.9953969120979309, 7.684209823608398, -0.829833984375, -0.077880859375, 0.035888671875, 
238, 3680095681, 0.40360572934150696, -0.5475513935089111, -0.3075215220451355, -0.665359616279602, 9.678008079528809, -0.1531151831150055, 2.4596002101898193, -50.730735778808594, 1.0605342388153076, 7.500787258148193, -0.828369140625, -0.076416015625, 0.034423828125, 
239, 3680104014, 0.4018801748752594, -0.5492174625396729, -0.30464574694633484, -0.666353166103363, 9.749566078186035, -0.18383516371250153, 2.419708013534546, -53.198299407958984, 1.1936264038085938, 7.325535774230957, -0.829345703125, -0.076416015625, 0.031005859375, 
240, 3680112347, 0.40006300806999207, -0.5508957505226135, -0.301655650138855, -0.6674208045005798, 9.886194229125977, -0.27276864647865295, 2.403989791870117, -54.98109436035156, 1.887108325958252, 7.087606906890869, -0.830322265625, -0.07666015625, 0.031005859375, 
241, 3680120680, 0.39819300174713135, -0.5525113344192505, -0.29857978224754333, -0.6685856580734253, 9.919485092163086, -0.3906353712081909, 2.370877504348755, -56.56065368652344, 3.4567019939422607, 6.360109329223633, -0.829345703125, -0.07470703125, 0.028076171875, 
242, 3680129013, 0.3962498605251312, -0.5540615320205688, -0.2954356372356415, -0.6698526740074158, 9.813522338867188, -0.4586324691772461, 2.328115940093994, -57.53966522216797, 4.902579307556152, 5.459152698516846, -0.831298828125, -0.07666015625, 0.027099609375, 
243, 3680137346, 0.3943144679069519, -0.5555329322814941, -0.2922714948654175, -0.671163022518158, 9.688040733337402, -0.5423672795295715, 2.2703206539154053, -57.677833557128906, 6.103249549865723, 5.04788875579834, -0.829345703125, -0.074951171875, 0.024658203125, 
244, 3680145679, 0.39235004782676697, -0.5569954514503479, -0.2890740931034088, -0.6724855899810791, 9.58964729309082, -0.6559777855873108, 2.200723886489868, -57.923500061035156, 6.332498550415039, 5.016204357147217, -0.832275390625, -0.0703125, 0.01904296875, 
245, 3680154012, 0.3904125392436981, -0.558448314666748, -0.28586962819099426, -0.6737769246101379, 9.523533821105957, -0.7183343768119812, 2.0783143043518066, -57.889747619628906, 6.337928771972656, 5.364328384399414, -0.831298828125, -0.07568359375, 0.016845703125, 
246, 3680162345, 0.388451486825943, -0.5599848031997681, -0.2826458513736725, -0.6749941110610962, 9.528347969055176, -0.7128950953483582, 2.0119469165802, -58.11940383911133, 4.991846084594727, 6.10591459274292, -0.831787109375, -0.074951171875, 0.01513671875, 
247, 3680170678, 0.3864290118217468, -0.5616280436515808, -0.2793532907962799, -0.6761593818664551, 9.66965389251709, -0.6242666244506836, 2.014594554901123, -59.88677215576172, 3.744428873062134, 6.67278528213501, -0.831298828125, -0.07275390625, 0.01611328125, 
248, 3680179011, 0.38429367542266846, -0.5633026957511902, -0.27594321966171265, -0.6773825287818909, 9.776718139648438, -0.5325029492378235, 1.9622323513031006, -62.243125915527344, 4.087328910827637, 6.344206809997559, -0.831787109375, -0.072998046875, 0.0107421875, 
249, 3680187344, 0.38197818398475647, -0.564982533454895, -0.27244576811790466, -0.6787073612213135, 9.763986587524414, -0.5374056696891785, 1.9448354244232178, -64.60417175292969, 4.595185279846191, 4.903069496154785, -0.831298828125, -0.072265625, 0.005859375, 
250, 3680195677, 0.3795206546783447, -0.5666184425354004, -0.2688053846359253, -0.680172324180603, 9.79712963104248, -0.5669308304786682, 1.984208583831787, -67.60431671142578, 6.326793670654297, 3.730062484741211, -0.832275390625, -0.06982421875, 0.0068359375, 
251, 3680204010, 0.3769022822380066, -0.5684676170349121, -0.2650855481624603, -0.68154376745224, 9.693748474121094, -0.6682822704315186, 1.9646388292312622, -70.3587646484375, 3.4216668605804443, 4.099396705627441, -0.831298828125, -0.070556640625, 0.0009765625, 
252, 3680212343, 0.37418150901794434, -0.5704012513160706, -0.2613436281681061, -0.6828712224960327, 9.666568756103516, -0.6985071897506714, 1.915974736213684, -71.64813232421875, 2.02980899810791, 3.8696112632751465, -0.832275390625, -0.072021484375, 0, 
253, 3680220676, 0.37139803171157837, -0.5723279714584351, -0.25749894976615906, -0.6842378973960876, 9.703821182250977, -0.7350327372550964, 1.9776099920272827, -73.20801544189453, 2.7003931999206543, 3.839771032333374, -0.833740234375, -0.07177734375, -0.00390625, 
254, 3680229009, 0.3685184419155121, -0.57432621717453, -0.25354787707328796, -0.6855946183204651, 9.689154624938965, -0.7445124983787537, 1.9857202768325806, -75.30010986328125, 2.1586503982543945, 4.0970940589904785, -0.831787109375, -0.072265625, -0.0048828125, 
255, 3680237342, 0.3655126690864563, -0.5764047503471375, -0.24950608611106873, -0.6869409084320068, 9.699892044067383, -0.8162195086479187, 2.0538952350616455, -77.51728057861328, 1.3332536220550537, 3.9362881183624268, -0.834228515625, -0.072509765625, -0.005859375, 
256, 3680245675, 0.36239293217658997, -0.5785015821456909, -0.24537156522274017, -0.6883190274238586, 9.82949161529541, -0.908563494682312, 1.9716852903366089, -79.50086975097656, 1.494394063949585, 3.5179553031921387, -0.831787109375, -0.07275390625, -0.01171875, 
257, 3680254008, 0.35931313037872314, -0.5805301666259766, -0.24115632474422455, -0.6897141337394714, 9.923996925354004, -1.0088118314743042, 1.97632896900177, -79.6610336303711, 2.806746244430542, 4.202396869659424, -0.832763671875, -0.07177734375, -0.0126953125, 
258, 3680262341, 0.356227308511734, -0.5825309157371521, -0.23703022301197052, -0.6910569071769714, 9.818124771118164, -1.0398035049438477, 2.1260175704956055, -78.55722045898438, 2.198122978210449, 3.6201305389404297, -0.832275390625, -0.071044921875, -0.01611328125, 
259, 3680270674, 0.3532038927078247, -0.5844346880912781, -0.23298335075378418, -0.6923762559890747, 9.865434646606445, -0.9516234397888184, 2.2347800731658936, -76.7473373413086, 2.7409420013427734, 3.3577871322631836, -0.831787109375, -0.070556640625, -0.02099609375, 
260, 3680279007, 0.3502179980278015, -0.5862299203872681, -0.2290627807378769, -0.6936822533607483, 9.884830474853516, -0.8609298467636108, 2.2150931358337402, -74.67948913574219, 3.18094539642334, 2.4356441497802734, -0.832763671875, -0.0693359375, -0.02197265625, 
261, 3680287340, 0.34730851650238037, -0.587822675704956, -0.22526760399341583, -0.6950387358665466, 9.811016082763672, -0.7622649073600769, 2.270272970199585, -72.04608917236328, 5.148407459259033, 1.2538480758666992, -0.832275390625, -0.07080078125, -0.02294921875, 
262, 3680295673, 0.34443199634552, -0.5892350673675537, -0.22153759002685547, -0.6964716911315918, 9.68449592590332, -0.7202263474464417, 2.4495978355407715, -70.536376953125, 7.285771369934082, 0.13678061962127686, -0.835205078125, -0.071533203125, -0.0263671875, 
263, 3680304006, 0.3415215313434601, -0.5905086994171143, -0.21785880625247955, -0.6979851126670837, 9.578359603881836, -0.6343317627906799, 2.4693949222564697, -69.9040756225586, 8.920145034790039, -1.4260914325714111, -0.833251953125, -0.071533203125, -0.0302734375, 
264, 3680312339, 0.33861157298088074, -0.5916330218315125, -0.21421875059604645, -0.6995754837989807, 9.546735763549805, -0.6612063646316528, 2.3696250915527344, -69.0634536743164, 10.796036720275879, -2.523435354232788, -0.832763671875, -0.07080078125, -0.033203125, 
265, 3680320672, 0.33573058247566223, -0.5926411151885986, -0.21061725914478302, -0.7012025117874146, 9.541668891906738, -0.8176969289779663, 2.345993995666504, -68.01781463623047, 12.11673641204834, -3.0924572944641113, -0.832275390625, -0.06640625, -0.035400390625, 
266, 3680329005, 0.3328995108604431, -0.5935781598091125, -0.20704105496406555, -0.7028229236602783, 9.526127815246582, -0.8719015717506409, 2.343799352645874, -67.0251693725586, 12.775970458984375, -2.9708659648895264, -0.834228515625, -0.06982421875, -0.0419921875, 
267, 3680337338, 0.330073744058609, -0.5944904088973999, -0.20347511768341064, -0.7044242024421692, 9.596380233764648, -0.8366827964782715, 2.3643245697021484, -66.70861053466797, 12.829839706420898, -3.008263349533081, -0.833740234375, -0.0703125, -0.044921875, 
268, 3680345671, 0.32724109292030334, -0.5953155159950256, -0.1999068409204483, -0.7060686349868774, 9.705109596252441, -0.7892792224884033, 2.3650739192962646, -66.51946258544922, 14.01417064666748, -3.472446918487549, -0.83251953125, -0.071044921875, -0.04833984375, 
269, 3680354004, 0.32439619302749634, -0.5960500836372375, -0.19629879295825958, -0.7077721357345581, 9.773540496826172, -0.789326012134552, 2.348220109939575, -66.75516510009766, 15.52301025390625, -3.803410053253174, -0.83349609375, -0.07080078125, -0.0556640625, 
270, 3680362337, 0.32156693935394287, -0.596692681312561, -0.1926916539669037, -0.709510862827301, 9.715404510498047, -0.8264573216438293, 2.3198082447052, -66.30962371826172, 16.741531372070312, -4.039804458618164, -0.83349609375, -0.069091796875, -0.05859375, 
271, 3680370670, 0.31876614689826965, -0.5972960591316223, -0.18910129368305206, -0.7112309336662292, 9.704950332641602, -0.9114848971366882, 2.3527770042419434, -65.68219757080078, 16.977209091186523, -3.9454147815704346, -0.83203125, -0.0712890625, -0.0634765625, 
272, 3680379003, 0.31603825092315674, -0.5978511571884155, -0.18553617596626282, -0.712918758392334, 9.69839096069336, -0.9553771018981934, 2.2947778701782227, -64.54814147949219, 17.25755500793457, -3.398676872253418, -0.83154296875, -0.070068359375, -0.06884765625, 
273, 3680387336, 0.31338465213775635, -0.5983644127845764, -0.1819707304239273, -0.7145767211914062, 9.783170700073242, -0.9745372533798218, 2.246685028076172, -63.675960540771484, 17.61886978149414, -2.669179916381836, -0.833984375, -0.0703125, -0.0712890625, 
274, 3680395669, 0.3107876777648926, -0.5988247394561768, -0.17840443551540375, -0.7162225842475891, 9.762821197509766, -1.0972769260406494, 2.1449198722839355, -62.966983795166016, 18.17618751525879, -2.160632848739624, -0.833984375, -0.072021484375, -0.07568359375, 
275, 3680404002, 0.30828338861465454, -0.5992211699485779, -0.17483684420585632, -0.7178512215614319, 9.675698280334473, -1.1968311071395874, 2.05228853225708, -61.89501953125, 18.90752601623535, -1.3461482524871826, -0.830078125, -0.070556640625, -0.08154296875, 
276, 3680412335, 0.30587729811668396, -0.5996161103248596, -0.17130118608474731, -0.7194014191627502, 9.5228910446167, -1.362896203994751, 1.9946515560150146, -60.58064270019531, 18.36476707458496, -0.2846519649028778, -0.8330078125, -0.07177734375, -0.0849609375, 
277, 3680420668, 0.303607702255249, -0.6000250577926636, -0.1677902191877365, -0.7208478450775146, 9.462381362915039, -1.4856797456741333, 1.9236582517623901, -59.018707275390625, 17.599239349365234, 1.3045116662979126, -0.83154296875, -0.070068359375, -0.08984375, 
278, 3680429001, 0.30141595005989075, -0.6004883050918579, -0.16425269842147827, -0.7221953868865967, 9.433320999145508, -1.4263511896133423, 1.9483474493026733, -58.6456184387207, 16.527971267700195, 2.858532667160034, -0.8330078125, -0.0693359375, -0.09375, 
279, 3680437334, 0.2992381155490875, -0.6010606288909912, -0.16068626940250397, -0.7234264612197876, 9.504476547241211, -1.3261609077453613, 1.9795680046081543, -58.99998092651367, 14.64229679107666, 3.9400453567504883, -0.8310546875, -0.068603515625, -0.0986328125, 
280, 3680445667, 0.29707494378089905, -0.6016713976860046, -0.15712867677211761, -0.7245906591415405, 9.606207847595215, -1.2506769895553589, 1.907636284828186, -58.806175231933594, 13.69564151763916, 4.3953399658203125, -0.834716796875, -0.060546875, -0.0986328125, 
281, 3680454000, 0.2949066758155823, -0.6023001074790955, -0.15350228548049927, -0.7257304787635803, 9.605149269104004, -1.263014316558838, 1.9617109298706055, -59.549434661865234, 13.59006118774414, 5.030755043029785, -0.83349609375, -0.0673828125, -0.105712890625, 
282, 3680462333, 0.29268112778663635, -0.6029828786849976, -0.1497938483953476, -0.7268386483192444, 9.451190948486328, -1.4104104042053223, 2.03595232963562, -61.00065231323242, 12.997578620910645, 5.403725624084473, -0.83154296875, -0.066162109375, -0.110595703125, 
283, 3680470666, 0.29041120409965515, -0.6037562489509583, -0.14609068632125854, -0.7278602123260498, 9.407212257385254, -1.5974456071853638, 2.0612144470214844, -61.49726104736328, 11.264718055725098, 5.427931308746338, -0.83251953125, -0.063720703125, -0.112060546875, 
284, 3680478999, 0.2881764769554138, -0.6045989394187927, -0.14246459305286407, -0.7287669777870178, 9.49147891998291, -1.7533040046691895, 2.032052516937256, -60.48553466796875, 9.378196716308594, 5.7597126960754395, -0.83251953125, -0.06201171875, -0.115966796875, 
285, 3680487332, 0.2860262393951416, -0.6054473519325256, -0.13893823325634003, -0.7295902967453003, 9.578418731689453, -1.7731152772903442, 2.0490634441375732, -58.636131286621094, 8.400369644165039, 6.098026752471924, -0.8330078125, -0.05908203125, -0.119140625, 
286, 3680495665, 0.2839938700199127, -0.6062512397766113, -0.13552504777908325, -0.7303581833839417, 9.554521560668945, -1.7592103481292725, 2.212510585784912, -56.24404525756836, 8.161870002746582, 6.4909987449646, -0.83251953125, -0.058837890625, -0.12109375, 
287, 3680503998, 0.28204578161239624, -0.6070498824119568, -0.13224783539772034, -0.7310500144958496, 9.606879234313965, -1.6723524332046509, 2.266714096069336, -54.0088996887207, 7.209146022796631, 6.471043586730957, -0.834716796875, -0.056396484375, -0.122802734375, 
288, 3680512331, 0.2801938056945801, -0.6077430248260498, -0.12910142540931702, -0.7317484021186829, 9.729047775268555, -1.5701888799667358, 2.3282928466796875, -51.497886657714844, 7.990482330322266, 6.146175861358643, -0.833740234375, -0.053466796875, -0.125244140625, 
289, 3680520664, 0.27843576669692993, -0.6082723140716553, -0.12608465552330017, -0.732505202293396, 9.705318450927734, -1.505435824394226, 2.412844657897949, -48.876304626464844, 9.795058250427246, 5.473927974700928, -0.8310546875, -0.052734375, -0.131103515625, 
290, 3680528997, 0.27672043442726135, -0.608653724193573, -0.12320070713758469, -0.7333288788795471, 9.589570045471191, -1.4985160827636719, 2.5735666751861572, -46.7342529296875, 11.40888500213623, 4.298717498779297, -0.831787109375, -0.05126953125, -0.131103515625, 
291, 3680537330, 0.27501600980758667, -0.6088969111442566, -0.12044443190097809, -0.7342255711555481, 9.582574844360352, -1.4616692066192627, 2.6221065521240234, -44.95082473754883, 12.94863510131836, 2.809887170791626, -0.834228515625, -0.051025390625, -0.134521484375, 
292, 3680545663, 0.27338334918022156, -0.6090106964111328, -0.11790476739406586, -0.7351524233818054, 9.626805305480957, -1.2535450458526611, 2.6477513313293457, -41.72697448730469, 13.802227020263672, 1.4107316732406616, -0.832763671875, -0.049560546875, -0.1376953125, 
293, 3680553996, 0.27176567912101746, -0.6090471148490906, -0.11559253185987473, -0.7360886335372925, 9.702924728393555, -1.074558973312378, 2.697509765625, -39.022178649902344, 13.83677864074707, -0.5213144421577454, -0.832763671875, -0.045654296875, -0.13916015625, 
294, 3680562329, 0.2699972987174988, -0.6089969277381897, -0.1133710965514183, -0.7371258735656738, 9.796714782714844, -0.9017516374588013, 2.6346635818481445, -39.20774841308594, 14.975512504577637, -3.3022046089172363, -0.835693359375, -0.047607421875, -0.14599609375, 
295, 3680570662, 0.26799508929252625, -0.6088970303535461, -0.11109299957752228, -0.7382849454879761, 9.695047378540039, -0.852691650390625, 2.601917266845703, -41.73929977416992, 16.35256576538086, -5.748754024505615, -0.834228515625, -0.049072265625, -0.14501953125, 
296, 3680578995, 0.2657841444015503, -0.6088515520095825, -0.1088329404592514, -0.7394572496414185, 9.549088478088379, -0.7986571192741394, 2.597154378890991, -43.533203125, 15.513367652893066, -7.960035800933838, -0.834228515625, -0.04931640625, -0.15185546875, 
297, 3680587328, 0.2633902430534363, -0.6088316440582275, -0.10660487413406372, -0.7406538128852844, 9.625051498413086, -0.7439080476760864, 2.580097198486328, -44.86205291748047, 15.077670097351074, -10.163018226623535, -0.83203125, -0.050537109375, -0.156005859375, 
298, 3680595661, 0.260852575302124, -0.6088249087333679, -0.10438002645969391, -0.7418734431266785, 9.846796989440918, -0.5843757390975952, 2.5963172912597656, -46.122535705566406, 14.902751922607422, -11.688862800598145, -0.83056640625, -0.0498046875, -0.159912109375, 
299, 3680603994, 0.2581844925880432, -0.6087387204170227, -0.10206332802772522, -0.7431987524032593, 10.017663955688477, -0.5141124725341797, 2.6814024448394775, -48.00902557373047, 16.750728607177734, -12.772942543029785, -0.830078125, -0.049560546875, -0.158447265625, 
300, 3680612327, 0.25529488921165466, -0.6085291504859924, -0.09955461323261261, -0.7447071075439453, 9.922578811645508, -0.5335667133331299, 2.7325875759124756, -51.65623092651367, 19.9038028717041, -14.218411445617676, -0.82958984375, -0.052978515625, -0.166015625, 
301, 3680620660, 0.25217533111572266, -0.6082677841186523, -0.09687727689743042, -0.7463350892066956, 9.685345649719238, -0.7092904448509216, 2.6775014400482178, -55.27912902832031, 21.724607467651367, -15.686914443969727, -0.83056640625, -0.05224609375, -0.170654296875, 
302, 3680628993, 0.24897101521492004, -0.6079798340797424, -0.09416449815034866, -0.747990608215332, 9.494953155517578, -0.9825387001037598, 2.5687620639801025, -56.3082389831543, 22.221731185913086, -16.35171127319336, -0.828125, -0.05322265625, -0.1728515625, 
303, 3680637326, 0.2458081841468811, -0.6077250242233276, -0.09155146777629852, -0.7495666742324829, 9.43588638305664, -1.2265245914459229, 2.443575620651245, -54.93315124511719, 20.945343017578125, -16.483980178833008, -0.828369140625, -0.052734375, -0.18017578125, 
304, 3680645659, 0.24269680678844452, -0.6074427366256714, -0.089137002825737, -0.7510986328125, 9.466896057128906, -1.3930326700210571, 2.2601966857910156, -52.32024383544922, 20.236228942871094, -17.455961227416992, -0.825927734375, -0.05419921875, -0.18408203125, 
305, 3680653992, 0.23964782059192657, -0.607100784778595, -0.08688031136989594, -0.7526171207427979, 9.42658805847168, -1.5873942375183105, 2.2011356353759766, -49.94176483154297, 20.30632972717285, -18.200490951538086, -0.825927734375, -0.056396484375, -0.188232421875, 
306, 3680662325, 0.23665805160999298, -0.6067628860473633, -0.08473895490169525, -0.7540783882141113, 9.32341194152832, -1.811903476715088, 2.1613378524780273, -48.212608337402344, 19.461774826049805, -18.314367294311523, -0.824462890625, -0.05712890625, -0.190673828125, 
307, 3680670658, 0.23373490571975708, -0.6064000725746155, -0.08269099146127701, -0.7555081248283386, 9.227198600769043, -1.951355218887329, 1.9803768396377563, -46.55720138549805, 19.24607276916504, -18.371179580688477, -0.824951171875, -0.058837890625, -0.197021484375, 
308, 3680678991, 0.2309325784444809, -0.60600745677948, -0.08070865273475647, -0.756898045539856, 9.160985946655273, -2.0517544746398926, 1.8987655639648438, -44.738094329833984, 19.136516571044922, -17.529386520385742, -0.82177734375, -0.061279296875, -0.19970703125, 
309, 3680687324, 0.22827082872390747, -0.6056916117668152, -0.07882079482078552, -0.7581560611724854, 9.205636024475098, -2.0364081859588623, 1.9481549263000488, -42.66887283325195, 17.107908248901367, -16.389848709106445, -0.8212890625, -0.06005859375, -0.20458984375, 
310, 3680695657, 0.2256697118282318, -0.6054695844650269, -0.07693556696176529, -0.7593047618865967, 9.261773109436035, -2.03757643699646, 2.0278799533843994, -42.32333755493164, 15.265421867370605, -15.298298835754395, -0.8193359375, -0.0634765625, -0.203857421875, 
311, 3680703990, 0.2231011986732483, -0.6052972078323364, -0.07500395178794861, -0.7603937983512878, 9.178180694580078, -2.0430941581726074, 2.1161293983459473, -42.614891052246094, 14.440413475036621, -14.369935989379883, -0.82080078125, -0.06298828125, -0.21142578125, 
312, 3680712323, 0.22055765986442566, -0.6051753759384155, -0.07299328595399857, -0.761427640914917, 9.028802871704102, -1.999800443649292, 2.2319021224975586, -43.34392166137695, 13.708099365234375, -13.196263313293457, -0.81982421875, -0.06298828125, -0.214599609375, 
313, 3680720656, 0.21801282465457916, -0.60512775182724, -0.07087956368923187, -0.7623974680900574, 9.077326774597168, -1.9615343809127808, 2.228750467300415, -44.583038330078125, 12.722745895385742, -12.11703109741211, -0.818359375, -0.064208984375, -0.216552734375, 
314, 3680728989, 0.21548791229724884, -0.6051166653633118, -0.06865061819553375, -0.7633276581764221, 9.194323539733887, -2.0093698501586914, 2.3064849376678467, -45.705299377441406, 12.364375114440918, -10.763750076293945, -0.81884765625, -0.063720703125, -0.219970703125, 
315, 3680737322, 0.2129756510257721, -0.6051941514015198, -0.06629414111375809, -0.7641791105270386, 9.24931812286377, -2.192843437194824, 2.4212114810943604, -47.11882781982422, 11.178587913513184, -9.283963203430176, -0.816162109375, -0.06298828125, -0.225341796875, 
316, 3680745655, 0.21053166687488556, -0.605364978313446, -0.06387172639369965, -0.7649268507957458, 9.27243423461914, -2.349698781967163, 2.4312541484832764, -47.42922592163086, 9.583715438842773, -7.601745128631592, -0.818603515625, -0.065673828125, -0.225341796875, 
317, 3680753988, 0.2082405984401703, -0.6056257486343384, -0.06150871515274048, -0.7655409574508667, 9.333632469177246, -2.475847005844116, 2.4898064136505127, -45.66741180419922, 7.492946624755859, -6.0484161376953125, -0.815673828125, -0.064208984375, -0.228759765625, 
318, 3680762321, 0.20620138943195343, -0.6058781147003174, -0.05931936576962471, -0.7660658359527588, 9.45555591583252, -2.5163450241088867, 2.6320340633392334, -41.648311614990234, 6.545907974243164, -4.573441982269287, -0.817626953125, -0.061767578125, -0.231201171875, 
319, 3680770654, 0.2044202834367752, -0.6060830950737, -0.057353511452674866, -0.7665306925773621, 9.588807106018066, -2.4776217937469482, 2.7406139373779297, -36.9532585144043, 6.1294169425964355, -3.6071672439575195, -0.816162109375, -0.06298828125, -0.233154296875, 
320, 3680778987, 0.20293959975242615, -0.6062033772468567, -0.05572226643562317, -0.7669493556022644, 9.758749961853027, -2.337646961212158, 2.737562894821167, -30.654029846191406, 5.923681259155273, -3.1495418548583984, -0.815185546875, -0.06201171875, -0.234130859375, 
321, 3680787320, 0.2017824649810791, -0.6061786413192749, -0.0545085072517395, -0.7673612833023071, 9.874664306640625, -2.2035622596740723, 2.6538565158843994, -23.13722038269043, 6.4915852546691895, -3.3256514072418213, -0.814208984375, -0.063232421875, -0.239013671875, 
322, 3680795653, 0.20087501406669617, -0.6059137582778931, -0.053713470697402954, -0.767864465713501, 9.78824520111084, -2.125180244445801, 2.557720184326172, -16.043621063232422, 8.803589820861816, -4.602072715759277, -0.814208984375, -0.062255859375, -0.238525390625, 
323, 3680803986, 0.2001686692237854, -0.6054897308349609, -0.053258880972862244, -0.7684149146080017, 9.509998321533203, -2.074953556060791, 2.503669261932373, -10.363482475280762, 10.093266487121582, -5.576360702514648, -0.814208984375, -0.060302734375, -0.241455078125, 
324, 3680812319, 0.1996215581893921, -0.6050091981887817, -0.053120896220207214, -0.768945038318634, 9.33545207977295, -1.9947453737258911, 2.5623109340667725, -5.526745796203613, 9.758026123046875, -6.505030632019043, -0.812744140625, -0.061767578125, -0.240966796875, 
325, 3680820652, 0.19918665289878845, -0.6045078635215759, -0.05326578766107559, -0.7694419622421265, 9.27054500579834, -1.972867727279663, 2.556256055831909, -1.5149669647216797, 9.014547348022461, -7.606417179107666, -0.81640625, -0.057861328125, -0.240234375, 
326, 3680828985, 0.1989039182662964, -0.6039695739746094, -0.05374276638031006, -0.769904375076294, 9.259322166442871, -1.9874680042266846, 2.441953420639038, 3.3855366706848145, 8.312845230102539, -8.68195915222168, -0.816650390625, -0.06201171875, -0.243408203125, 
327, 3680837318, 0.19884949922561646, -0.6033400297164917, -0.054570864886045456, -0.7703538537025452, 9.215475082397461, -2.0837061405181885, 2.2373905181884766, 9.262031555175781, 8.387356758117676, -9.219781875610352, -0.811767578125, -0.06494140625, -0.244140625, 
328, 3680845651, 0.199069082736969, -0.6026021242141724, -0.05573364347219467, -0.7707911133766174, 9.142866134643555, -2.1814613342285156, 1.9899815320968628, 15.384810447692871, 8.717986106872559, -9.137996673583984, -0.811279296875, -0.06640625, -0.24365234375, 
329, 3680853984, 0.19963718950748444, -0.6018301844596863, -0.057236120104789734, -0.7711372375488281, 9.012594223022461, -2.2771081924438477, 1.9172139167785645, 22.03826904296875, 7.669290065765381, -8.039453506469727, -0.8115234375, -0.0673828125, -0.244140625, 
330, 3680862317, 0.2005571573972702, -0.6011637449264526, -0.05903834104537964, -0.7712824940681458, 8.944266319274902, -2.3565757274627686, 1.9462276697158813, 27.998916625976562, 4.336698055267334, -6.154324054718018, -0.81103515625, -0.0703125, -0.243896484375, 
331, 3680870650, 0.20180916786193848, -0.6006507277488708, -0.061115704476833344, -0.7711938619613647, 8.99612808227539, -2.4079999923706055, 2.0136845111846924, 33.42720031738281, 0.2900815010070801, -4.1381754875183105, -0.81201171875, -0.0732421875, -0.243408203125, 
332, 3680878983, 0.20341140031814575, -0.6002610325813293, -0.06355293840169907, -0.7708789110183716, 9.12106704711914, -2.3470377922058105, 2.1061313152313232, 39.98621368408203, -3.5908780097961426, -2.6693532466888428, -0.810546875, -0.06982421875, -0.243408203125, 
333, 3680887316, 0.20537501573562622, -0.5999890565872192, -0.0663921982049942, -0.7703306078910828, 9.310608863830566, -2.2130868434906006, 2.30080246925354, 47.1064338684082, -7.573439121246338, -1.3957862854003906, -0.810546875, -0.0732421875, -0.2421875, 
334, 3680895649, 0.20769385993480682, -0.5998185873031616, -0.06969665735960007, -0.769549548625946, 9.47481632232666, -1.9985721111297607, 2.304795026779175, 54.893428802490234, -11.557291030883789, -0.7313780784606934, -0.8115234375, -0.075927734375, -0.23828125, 
335, 3680903982, 0.21032777428627014, -0.599665105342865, -0.07342738658189774, -0.7686063051223755, 9.637693405151367, -1.7387518882751465, 2.234043598175049, 62.10636520385742, -13.993349075317383, -0.4243909418582916, -0.81005859375, -0.078125, -0.23388671875, 
336, 3680912315, 0.21322689950466156, -0.5994529128074646, -0.0774780809879303, -0.7675746083259583, 9.643420219421387, -1.5909065008163452, 2.2032663822174072, 67.93932342529297, -14.752745628356934, -0.07572879642248154, -0.81201171875, -0.07958984375, -0.231689453125, 
337, 3680920648, 0.21629734337329865, -0.5991271138191223, -0.08170947432518005, -0.766530454158783, 9.512681007385254, -1.5527453422546387, 2.008115530014038, 71.60026550292969, -14.010218620300293, 0.17212846875190735, -0.810546875, -0.081298828125, -0.225341796875, 
338, 3680928981, 0.21956327557563782, -0.5987187027931213, -0.08602382242679596, -0.7654480338096619, 9.242655754089355, -1.7169749736785889, 1.5958220958709717, 74.38003540039062, -13.474422454833984, 1.5558676719665527, -0.814453125, -0.08544921875, -0.219970703125, 
339, 3680937314, 0.22307135164737701, -0.5983421802520752, -0.09034304320812225, -0.7642295956611633, 8.881000518798828, -2.0472939014434814, 1.4540342092514038, 76.48474884033203, -14.665520668029785, 4.527698516845703, -0.81298828125, -0.083740234375, -0.216064453125, 
340, 3680945647, 0.22684992849826813, -0.5981552004814148, -0.09465008974075317, -0.7627410292625427, 8.722565650939941, -2.422574996948242, 1.4968268871307373, 78.34217834472656, -18.49526023864746, 8.51655101776123, -0.8125, -0.087890625, -0.2099609375, 
341, 3680953980, 0.23096799850463867, -0.5981477499008179, -0.09906253963708878, -0.7609485387802124, 8.824085235595703, -2.606022834777832, 1.5687185525894165, 82.07149505615234, -22.777002334594727, 12.409870147705078, -0.81396484375, -0.08740234375, -0.20556640625, 
342, 3680962313, 0.23546399176120758, -0.5982478260993958, -0.1036975160241127, -0.7588715553283691, 9.080554962158203, -2.430091619491577, 1.7492930889129639, 87.56124114990234, -26.417070388793945, 15.558436393737793, -0.8154296875, -0.088134765625, -0.20166015625, 
343, 3680970646, 0.24018824100494385, -0.5983611345291138, -0.1086806207895279, -0.7566009163856506, 9.346991539001465, -2.043520212173462, 2.114170789718628, 93.29911804199219, -28.966350555419922, 15.748587608337402, -0.8154296875, -0.083740234375, -0.190673828125, 
344, 3680978979, 0.2449582815170288, -0.5984770655632019, -0.1139398142695427, -0.7542024850845337, 9.568021774291992, -1.537245750427246, 2.596285581588745, 96.74115753173828, -30.870702743530273, 14.347894668579102, -0.81640625, -0.08740234375, -0.185791015625, 
345, 3680987312, 0.24965205788612366, -0.5984748601913452, -0.11932495981454849, -0.7518284916877747, 9.769864082336426, -1.0468697547912598, 2.9376025199890137, 97.76829528808594, -30.00406837463379, 12.283523559570312, -0.819091796875, -0.087158203125, -0.177978515625, 
346, 3680995645, 0.2540389895439148, -0.5983873605728149, -0.12455987930297852, -0.7495764493942261, 9.870616912841797, -0.6862866878509521, 3.000178813934326, 93.7916259765625, -28.094152450561523, 9.75731372833252, -0.818603515625, -0.086669921875, -0.170654296875, 
347, 3681003978, 0.25804460048675537, -0.5981994867324829, -0.12950196862220764, -0.7475177645683289, 9.924388885498047, -0.6000902652740479, 2.8789193630218506, 87.64488220214844, -25.113086700439453, 7.42044734954834, -0.820068359375, -0.08984375, -0.161376953125, 
348, 3681012311, 0.26180997490882874, -0.5977410078048706, -0.13410231471061707, -0.7457619309425354, 9.8755521774292, -0.7327004671096802, 2.703996419906616, 82.58718872070312, -19.039579391479492, 6.17624568939209, -0.819580078125, -0.0888671875, -0.156494140625, 
349, 3681020644, 0.2655256986618042, -0.5970776677131653, -0.13852113485336304, -0.7441703081130981, 9.65565013885498, -1.0906431674957275, 2.4109745025634766, 80.74201202392578, -15.041909217834473, 6.219865322113037, -0.821533203125, -0.0888671875, -0.152587890625, 
350, 3681028977, 0.2693718373775482, -0.59628826379776, -0.1428946852684021, -0.7425922751426697, 9.331048011779785, -1.6252800226211548, 2.1667912006378174, 81.79210662841797, -13.21480941772461, 7.607371807098389, -0.821533203125, -0.091552734375, -0.145751953125, 
351, 3681037310, 0.273532509803772, -0.5954595804214478, -0.14746885001659393, -0.740839958190918, 9.053964614868164, -2.107343912124634, 2.241053819656372, 86.89795684814453, -14.379814147949219, 9.772051811218262, -0.821533203125, -0.09130859375, -0.144287109375, 
352, 3681045643, 0.27809977531433105, -0.5946577787399292, -0.15242798626422882, -0.7387769222259521, 9.032939910888672, -2.3351540565490723, 2.4254543781280518, 94.69029998779297, -17.808073043823242, 11.952109336853027, -0.822998046875, -0.089599609375, -0.136474609375, 
353, 3681053976, 0.2830517888069153, -0.593815267086029, -0.1578364372253418, -0.7364345788955688, 9.217691421508789, -2.2140538692474365, 2.610283613204956, 103.13300323486328, -20.603612899780273, 13.202397346496582, -0.821044921875, -0.087158203125, -0.13037109375, 
354, 3681062309, 0.28836551308631897, -0.5927122235298157, -0.1636774241924286, -0.7339824438095093, 9.477137565612793, -1.712615728378296, 2.773979902267456, 111.73096466064453, -19.750041961669922, 13.154159545898438, -0.822998046875, -0.092041015625, -0.124755859375, 
355, 3681070642, 0.29391834139823914, -0.5912923216819763, -0.16980671882629395, -0.7315285801887512, 9.65868091583252, -1.1451257467269897, 2.965813636779785, 117.83963012695312, -17.182462692260742, 12.553003311157227, -0.826171875, -0.089599609375, -0.11767578125, 
356, 3681078975, 0.2995479106903076, -0.589530885219574, -0.17598557472229004, -0.7292026877403259, 9.766158103942871, -0.7510427832603455, 2.952609062194824, 120.05465698242188, -12.720795631408691, 11.56469440460205, -0.82421875, -0.0908203125, -0.110107421875, 
357, 3681087308, 0.30511945486068726, -0.5875049233436584, -0.1820898801088333, -0.7270258069038391, 9.738043785095215, -0.6256237626075745, 2.7678325176239014, 119.55416107177734, -8.700126647949219, 10.375102043151855, -0.8232421875, -0.090576171875, -0.104736328125, 
358, 3681095641, 0.3106216788291931, -0.5853260159492493, -0.18807865679264069, -0.7249255180358887, 9.620555877685547, -0.6846939325332642, 2.3676578998565674, 118.30011749267578, -6.236029148101807, 9.87031078338623, -0.82763671875, -0.08935546875, -0.0986328125, 
359, 3681103974, 0.3160073161125183, -0.5831871032714844, -0.19402500987052917, -0.7227513790130615, 9.463351249694824, -0.9248727560043335, 1.9629411697387695, 116.94854736328125, -7.353974342346191, 9.508631706237793, -0.8291015625, -0.089599609375, -0.09521484375, 
360, 3681112307, 0.32128340005874634, -0.5812028050422668, -0.20003144443035126, -0.7203823924064636, 9.42074203491211, -1.1771281957626343, 1.670517086982727, 116.52488708496094, -11.00412368774414, 9.15776252746582, -0.82861328125, -0.08984375, -0.08740234375, 
361, 3681120640, 0.3266136944293976, -0.5794521570205688, -0.20601922273635864, -0.7177031636238098, 9.346283912658691, -1.2990423440933228, 1.564002513885498, 116.58447265625, -15.567179679870605, 11.897805213928223, -0.8271484375, -0.088134765625, -0.083984375, 
362, 3681128973, 0.33194127678871155, -0.5779675841331482, -0.2120181918144226, -0.7147026658058167, 9.367465019226074, -1.2911556959152222, 1.7965879440307617, 116.40011596679688, -20.80707550048828, 13.93478012084961, -0.82666015625, -0.088623046875, -0.07763671875, 
363, 3681137306, 0.3371763825416565, -0.5766549706459045, -0.2180255800485611, -0.7114977836608887, 9.5498628616333, -1.0922105312347412, 2.1778576374053955, 115.54535675048828, -24.43657875061035, 14.437769889831543, -0.827880859375, -0.0830078125, -0.070556640625, 
364, 3681145639, 0.34224674105644226, -0.5753981471061707, -0.22400006651878357, -0.7082310318946838, 9.820558547973633, -0.7990935444831848, 2.558563709259033, 113.85721588134766, -25.806921005249023, 13.493485450744629, -0.826904296875, -0.08447265625, -0.061279296875, 
365, 3681153972, 0.3471508026123047, -0.5740590691566467, -0.22980010509490967, -0.7050656080245972, 10.042932510375977, -0.3772752285003662, 2.818053960800171, 110.90494537353516, -23.902259826660156, 12.571097373962402, -0.829833984375, -0.084716796875, -0.053466796875, 
366, 3681162305, 0.3518856465816498, -0.5726213455200195, -0.23527008295059204, -0.7020772695541382, 10.099959373474121, 0.008464617654681206, 2.927846670150757, 106.291259765625, -20.502832412719727, 12.334202766418457, -0.830810546875, -0.084228515625, -0.0458984375, 
367, 3681170638, 0.35643839836120605, -0.5710265040397644, -0.24036632478237152, -0.6993480324745178, 10.084321022033691, 0.21959973871707916, 2.7467994689941406, 101.15953826904297, -15.730628967285156, 11.800484657287598, -0.830078125, -0.08203125, -0.0400390625, 
368, 3681178971, 0.360872358083725, -0.5691713690757751, -0.24514491856098175, -0.6969234943389893, 9.974895477294922, 0.13079474866390228, 2.44732666015625, 97.45050048828125, -9.668931007385254, 10.759915351867676, -0.83056640625, -0.081787109375, -0.03662109375, 
369, 3681187304, 0.3651696741580963, -0.5672208070755005, -0.24970218539237976, -0.6946536302566528, 9.67777156829834, -0.149216890335083, 2.2130579948425293, 94.20085906982422, -6.906972408294678, 10.133047103881836, -0.8310546875, -0.078125, -0.029052734375, 
370, 3681195637, 0.3693636357784271, -0.5653013586997986, -0.2541385591030121, -0.6923882365226746, 9.371175765991211, -0.3914134204387665, 2.028777837753296, 92.07928466796875, -6.91949462890625, 10.137499809265137, -0.82958984375, -0.077880859375, -0.025634765625, 
371, 3681203970, 0.3735087215900421, -0.563538134098053, -0.2585824728012085, -0.6899524331092834, 9.256540298461914, -0.5400134921073914, 1.9524973630905151, 91.56311798095703, -9.937026977539062, 11.06128215789795, -0.83251953125, -0.07568359375, -0.021240234375, 
372, 3681212303, 0.37764692306518555, -0.5619057416915894, -0.26310187578201294, -0.687317430973053, 9.344144821166992, -0.6821744441986084, 1.9852460622787476, 92.2703628540039, -13.137373924255371, 11.864273071289062, -0.830810546875, -0.073974609375, -0.016357421875, 
373, 3681220636, 0.38178783655166626, -0.5603084564208984, -0.2677188813686371, -0.6845453381538391, 9.545343399047852, -0.7088809609413147, 2.199376344680786, 93.51914978027344, -15.021934509277344, 12.00822925567627, -0.833251953125, -0.065185546875, -0.011962890625, 
374, 3681228969, 0.3858834207057953, -0.5586807131767273, -0.2723730504512787, -0.6817373633384705, 9.728374481201172, -0.6777393817901611, 2.4877469539642334, 93.82051849365234, -15.377001762390137, 11.337616920471191, -0.831298828125, -0.071533203125, -0.00732421875, 
375, 3681237302, 0.3898760974407196, -0.5569779872894287, -0.27696168422698975, -0.6790047883987427, 9.911745071411133, -0.5893158912658691, 2.7317678928375244, 92.5235595703125, -14.129754066467285, 10.228919982910156, -0.833740234375, -0.06640625, -0.002197265625, 
376, 3681245635, 0.3937860131263733, -0.5551390051841736, -0.28143906593322754, -0.6764083504676819, 10.0183687210083, -0.503852903842926, 2.8112878799438477, 91.0683822631836, -11.537494659423828, 9.026652336120605, -0.832763671875, -0.0673828125, 0.004150390625, 
377, 3681253968, 0.39768075942993164, -0.5531366467475891, -0.28583604097366333, -0.6739219427108765, 10.012639999389648, -0.395412802696228, 2.7891767024993896, 90.65800476074219, -8.798490524291992, 8.303863525390625, -0.83056640625, -0.065185546875, 0.008056640625, 
378, 3681262301, 0.40155932307243347, -0.5510124564170837, -0.29005321860313416, -0.6715561747550964, 9.9283447265625, -0.23161031305789948, 2.7669005393981934, 89.06009674072266, -5.831442356109619, 8.383726119995117, -0.83203125, -0.061767578125, 0.0087890625, 
379, 3681270634, 0.4054039418697357, -0.5488125681877136, -0.2940542995929718, -0.6693039536476135, 9.80067253112793, -0.12124939262866974, 2.7115728855133057, 87.04545593261719, -3.2368032932281494, 8.808666229248047, -0.83251953125, -0.06103515625, 0.013671875, 
380, 3681278967, 0.40924856066703796, -0.5465049743652344, -0.29789552092552185, -0.6671501398086548, 9.745314598083496, -0.10196242481470108, 2.613135576248169, 85.7268295288086, -0.6088671088218689, 9.019471168518066, -0.83349609375, -0.059326171875, 0.017333984375, 
381, 3681287300, 0.4132348895072937, -0.5440309047698975, -0.3016904592514038, -0.665006160736084, 9.733699798583984, -0.1754285842180252, 2.456662893295288, 87.03983306884766, 1.8535609245300293, 9.911981582641602, -0.8349609375, -0.057861328125, 0.021240234375, 
382, 3681295633, 0.41737961769104004, -0.5413895845413208, -0.30546388030052185, -0.6628473997116089, 9.69992733001709, -0.3407913148403168, 2.338308334350586, 89.223876953125, 4.028532981872559, 10.925189971923828, -0.833984375, -0.056640625, 0.022216796875, 
383, 3681303966, 0.4217410385608673, -0.5385585427284241, -0.3092891573905945, -0.6606153845787048, 9.601442337036133, -0.4698641002178192, 2.1294643878936768, 92.52252960205078, 5.851437568664551, 12.12392520904541, -0.834228515625, -0.052001953125, 0.02685546875, 
384, 3681312299, 0.4263787567615509, -0.535578727722168, -0.3132835030555725, -0.6581740379333496, 9.488736152648926, -0.6520335078239441, 1.990279197692871, 97.9061050415039, 5.828492164611816, 13.945277214050293, -0.834228515625, -0.051513671875, 0.02880859375, 
385, 3681320632, 0.43131768703460693, -0.53249192237854, -0.3174873888492584, -0.6554406881332397, 9.471540451049805, -0.8068264126777649, 1.9545294046401978, 103.85912322998047, 4.729867935180664, 16.39857292175293, -0.836181640625, -0.046875, 0.030029296875, 
386, 3681328965, 0.4365786015987396, -0.5292929410934448, -0.32193824648857117, -0.652370274066925, 9.556617736816406, -0.8916928172111511, 1.9708755016326904, 110.55755615234375, 3.204913854598999, 18.965192794799805, -0.8369140625, -0.0439453125, 0.033203125, 
387, 3681337298, 0.4419557750225067, -0.5260661244392395, -0.3265008330345154, -0.6490839123725891, 9.708964347839355, -0.8523417115211487, 2.075756311416626, 113.5521011352539, 1.7347444295883179, 20.40333366394043, -0.8349609375, -0.042236328125, 0.03564453125, 
388, 3681345631, 0.44735512137413025, -0.5228046774864197, -0.3310878872871399, -0.6456876993179321, 9.901283264160156, -0.6375405788421631, 2.16441011428833, 114.63326263427734, 1.2016551494598389, 20.937532424926758, -0.83544921875, -0.037353515625, 0.042236328125, 
389, 3681353964, 0.45271560549736023, -0.519515872001648, -0.33559203147888184, -0.6422717571258545, 10.020254135131836, -0.46796557307243347, 2.184359550476074, 113.84786987304688, 1.6246788501739502, 21.143980026245117, -0.836669921875, -0.031982421875, 0.04248046875, 
390, 3681362297, 0.45796188712120056, -0.5161870718002319, -0.3399116098880768, -0.6389561295509338, 10.025225639343262, -0.2658384442329407, 2.2125535011291504, 110.98939514160156, 3.3255841732025146, 20.598630905151367, -0.837646484375, -0.0283203125, 0.046142578125, 
391, 3681370630, 0.4629806876182556, -0.5129411220550537, -0.34395965933799744, -0.6357792615890503, 9.884087562561035, -0.04097208380699158, 2.3486855030059814, 106.04710388183594, 4.231361389160156, 20.128154754638672, -0.839111328125, -0.02490234375, 0.048583984375, 
392, 3681378963, 0.4676887094974518, -0.5099395513534546, -0.3476593494415283, -0.6327281594276428, 9.69534969329834, 0.18279999494552612, 2.429354429244995, 98.39046478271484, 3.728722333908081, 20.126537322998047, -0.83740234375, -0.014404296875, 0.049560546875, 
393, 3681387296, 0.4721786677837372, -0.5070638656616211, -0.3510536849498749, -0.6298236846923828, 9.489189147949219, 0.31364622712135315, 2.2976067066192627, 92.95915222167969, 4.584805488586426, 20.125497817993164, -0.84228515625, -0.015625, 0.05322265625, 
394, 3681395629, 0.4766227900981903, -0.5041633248329163, -0.35415753722190857, -0.6270610094070435, 9.388339042663574, 0.28795677423477173, 2.16206955909729, 89.25180053710938, 7.453003406524658, 20.598939895629883, -0.8408203125, -0.013671875, 0.0537109375, 
395, 3681403962, 0.48105722665786743, -0.5011795163154602, -0.35693690180778503, -0.6244856119155884, 9.322303771972656, 0.13138189911842346, 2.092938184738159, 86.37001037597656, 11.548975944519043, 21.24725914001465, -0.838623046875, -0.009033203125, 0.0556640625, 
396, 3681412295, 0.48548027873039246, -0.4981011152267456, -0.3595591187477112, -0.6220166087150574, 9.272187232971191, -0.0966336727142334, 2.1269047260284424, 84.675048828125, 14.081853866577148, 20.94805335998535, -0.841064453125, -0.003173828125, 0.05712890625, 
397, 3681420628, 0.4898066520690918, -0.4950375556945801, -0.3621644675731659, -0.6195540428161621, 9.321934700012207, -0.24509142339229584, 2.2105257511138916, 84.10725402832031, 13.630526542663574, 20.381332397460938, -0.843994140625, -0.000732421875, 0.0556640625, 
398, 3681428961, 0.4940493702888489, -0.4920438528060913, -0.3648183047771454, -0.6170079112052917, 9.523503303527832, -0.3416770398616791, 2.4629573822021484, 83.56876373291016, 11.723944664001465, 20.144807815551758, -0.84326171875, 0.002685546875, 0.056884765625, 
399, 3681437294, 0.49808362126350403, -0.48909324407577515, -0.3675060272216797, -0.6145104169845581, 9.699164390563965, -0.4252183139324188, 2.6024489402770996, 82.23695373535156, 10.410818099975586, 18.13837432861328, -0.84375, 0.009033203125, 0.0546875, 
400, 3681445627, 0.5020788311958313, -0.48622047901153564, -0.3700544238090515, -0.6120042204856873, 10.106356620788574, -0.30624645948410034, 2.694995880126953, 79.98114776611328, 10.450798988342285, 19.0913028717041, -0.84521484375, 0.009765625, 0.05712890625, 
401, 3681453960, 0.5059754252433777, -0.4832340180873871, -0.3724692463874817, -0.6096912622451782, 10.11038875579834, -0.4554452896118164, 2.752326250076294, 78.32760620117188, 13.119892120361328, 17.349594116210938, -0.84228515625, 0.015625, 0.056396484375, 
402, 3681462293, 0.5098345875740051, -0.4801708459854126, -0.3746792674064636, -0.6075385808944702, 10.048800468444824, -0.44525930285453796, 2.8483726978302, 75.74032592773438, 16.060392379760742, 16.777544021606445, -0.845458984375, 0.0205078125, 0.05712890625, 
403, 3681470626, 0.5136221051216125, -0.476947546005249, -0.376832515001297, -0.6055524349212646, 9.818459510803223, -0.46111804246902466, 2.8878393173217773, 75.38935089111328, 18.529644012451172, 14.672119140625, -0.845458984375, 0.026611328125, 0.057861328125, 
404, 3681478959, 0.5174574255943298, -0.4735875427722931, -0.3789832592010498, -0.6035787463188171, 9.672459602355957, -0.38833460211753845, 2.9138572216033936, 76.31040954589844, 20.008441925048828, 14.19331169128418, -0.844970703125, 0.025390625, 0.054931640625, 
405, 3681487292, 0.5213961005210876, -0.4700452387332916, -0.3811171054840088, -0.6016114950180054, 9.440670013427734, -0.27863162755966187, 2.8049561977386475, 78.38099670410156, 22.227296829223633, 14.261631965637207, -0.8466796875, 0.02783203125, 0.0556640625, 
406, 3681495625, 0.5255882143974304, -0.46615734696388245, -0.38334181904792786, -0.5995720028877258, 9.2000150680542, -0.2456115335226059, 2.721975326538086, 83.33500671386719, 25.289875030517578, 14.374959945678711, -0.84375, 0.03076171875, 0.0517578125, 
407, 3681503958, 0.529878556728363, -0.46210405230522156, -0.38563424348831177, -0.5974596738815308, 9.067228317260742, -0.12162530422210693, 2.7546744346618652, 86.39375305175781, 26.222789764404297, 14.5077543258667, -0.8486328125, 0.03369140625, 0.051513671875, 
408, 3681512291, 0.5341770052909851, -0.45805251598358154, -0.38804078102111816, -0.5951892137527466, 9.138785362243652, -0.053261350840330124, 2.76918625831604, 87.89230346679688, 24.405221939086914, 14.900094032287598, -0.84716796875, 0.037109375, 0.0498046875, 
409, 3681520624, 0.5383853912353516, -0.4540967643260956, -0.3904871940612793, -0.5928239226341248, 9.463488578796387, -0.05596137419342995, 2.8380682468414307, 87.7703857421875, 22.259502410888672, 15.230236053466797, -0.848388671875, 0.04345703125, 0.047119140625, 
410, 3681528957, 0.5422711372375488, -0.4502047300338745, -0.39300358295440674, -0.5905835032463074, 9.883488655090332, -0.12829910218715668, 3.0627870559692383, 85.18695068359375, 20.250675201416016, 11.5640869140625, -0.848388671875, 0.0439453125, 0.046630859375, 
411, 3681537290, 0.5460897088050842, -0.44647300243377686, -0.3951697051525116, -0.5884488821029663, 10.082365036010742, -0.07425235211849213, 3.0913171768188477, 80.15522003173828, 21.87051773071289, 13.281011581420898, -0.849365234375, 0.047607421875, 0.0458984375, 
412, 3681545623, 0.5496878027915955, -0.44280683994293213, -0.39705851674079895, -0.5865944027900696, 10.267330169677734, -0.0937124714255333, 3.1651391983032227, 74.54774475097656, 23.923519134521484, 11.435845375061035, -0.850830078125, 0.047607421875, 0.04345703125, 
413, 3681553956, 0.5531379580497742, -0.4392131567001343, -0.3986368477344513, -0.5849804878234863, 10.170736312866211, -0.08453016728162766, 3.171525478363037, 69.27677154541016, 26.36505699157715, 10.72751235961914, -0.850341796875, 0.05224609375, 0.039306640625, 
414, 3681562289, 0.5564742088317871, -0.4355354607105255, -0.40005192160606384, -0.5835984349250793, 10.096733093261719, -0.13362433016300201, 3.1423051357269287, 66.6468505859375, 29.038593292236328, 8.557384490966797, -0.8525390625, 0.053466796875, 0.040771484375, 
415, 3681570622, 0.5598019957542419, -0.43177175521850586, -0.40142691135406494, -0.5822667479515076, 9.962594032287598, -0.06435195356607437, 3.1578469276428223, 66.65042877197266, 30.309480667114258, 7.885673999786377, -0.849365234375, 0.0556640625, 0.034912109375, 
416, 3681578955, 0.5630348324775696, -0.4279388189315796, -0.40274494886398315, -0.581067681312561, 9.790507316589355, 0.030441373586654663, 3.16983699798584, 65.4363784790039, 31.547523498535156, 6.047587871551514, -0.8515625, 0.056884765625, 0.032958984375, 
417, 3681587288, 0.5663070678710938, -0.4239846169948578, -0.40416380763053894, -0.5797999501228333, 9.646897315979004, 0.2399768978357315, 3.16445255279541, 67.7896957397461, 31.568021774291992, 5.641754627227783, -0.8525390625, 0.05908203125, 0.02783203125, 
418, 3681595621, 0.5695222616195679, -0.42003923654556274, -0.40562933683395386, -0.5784978270530701, 9.478132247924805, 0.3329600989818573, 3.1719818115234375, 67.95574951171875, 30.5982608795166, 5.221884250640869, -0.8525390625, 0.06103515625, 0.02587890625, 
419, 3681603954, 0.5726132988929749, -0.4162382185459137, -0.40712931752204895, -0.5771384239196777, 9.38812255859375, 0.4230150878429413, 3.1552507877349854, 66.6978988647461, 28.175804138183594, 5.298495769500732, -0.85107421875, 0.062255859375, 0.021484375, 
420, 3681612287, 0.5754987001419067, -0.4125918745994568, -0.4085826277732849, -0.5758581161499023, 9.336224555969238, 0.41845643520355225, 3.197127342224121, 63.491546630859375, 26.597915649414062, 4.168772220611572, -0.85400390625, 0.063720703125, 0.021240234375, 
421, 3681620620, 0.5782015919685364, -0.40905433893203735, -0.4099019765853882, -0.5747356414794922, 9.344318389892578, 0.40741193294525146, 3.1974644660949707, 59.64258575439453, 26.686124801635742, 2.853013753890991, -0.8515625, 0.064697265625, 0.016845703125, 
422, 3681628953, 0.5807391405105591, -0.40556228160858154, -0.4111531376838684, -0.5737574100494385, 9.339786529541016, 0.32667332887649536, 3.088933229446411, 57.003517150878906, 26.72728157043457, 1.0356510877609253, -0.85498046875, 0.064453125, 0.016357421875, 
423, 3681637286, 0.5831857919692993, -0.4020005464553833, -0.4123289883136749, -0.5729377865791321, 9.264719009399414, 0.1815004050731659, 3.0330381393432617, 55.558170318603516, 28.269569396972656, -0.9167109727859497, -0.85546875, 0.065185546875, 0.011962890625, 
424, 3681645619, 0.5855044722557068, -0.3984188139438629, -0.413486510515213, -0.5722402930259705, 9.192123413085938, -0.021736472845077515, 3.05294132232666, 54.1771240234375, 28.5047550201416, -2.920954465866089, -0.853515625, 0.068603515625, 0.00927734375, 
425, 3681653952, 0.5877283811569214, -0.39489826560020447, -0.4147227704524994, -0.5715058445930481, 9.202827453613281, -0.0874166265130043, 3.053934335708618, 53.9940185546875, 26.667743682861328, -3.44832706451416, -0.85400390625, 0.0673828125, 0.005126953125, 
426, 3681662285, 0.5899224281311035, -0.39141935110092163, -0.41608503460884094, -0.5706478953361511, 9.284002304077148, -0.06313532590866089, 3.0832483768463135, 55.191612243652344, 24.463655471801758, -3.135089635848999, -0.8544921875, 0.066650390625, 0.000244140625, 
427, 3681670618, 0.5920814871788025, -0.3879897892475128, -0.4175655245780945, -0.5696715712547302, 9.347434043884277, 0.04406796395778656, 3.130375385284424, 56.20421600341797, 22.297863006591797, -2.801079034805298, -0.85546875, 0.065185546875, 0.000244140625, 
428, 3681678951, 0.5942099690437317, -0.3846048414707184, -0.41910508275032043, -0.5686191916465759, 9.36658000946045, 0.20168641209602356, 3.1683268547058105, 56.57945251464844, 20.869354248046875, -2.4838459491729736, -0.85595703125, 0.065673828125, -0.001220703125, 
429, 3681687284, 0.5962941646575928, -0.3812757432460785, -0.4205976128578186, -0.5675764679908752, 9.377227783203125, 0.3181495666503906, 3.1850616931915283, 55.466392517089844, 20.62696075439453, -2.3345139026641846, -0.853515625, 0.066162109375, -0.002197265625, 
430, 3681695617, 0.59835284948349, -0.37804314494132996, -0.4219908118247986, -0.5665369033813477, 9.298935890197754, 0.35623472929000854, 3.1350228786468506, 53.7487678527832, 20.5454044342041, -1.484605312347412, -0.85400390625, 0.06494140625, -0.007568359375, 
431, 3681703950, 0.6003524661064148, -0.3748573064804077, -0.4233035743236542, -0.5655583143234253, 9.13005542755127, 0.4470768868923187, 3.0995986461639404, 52.07310485839844, 20.83056640625, -1.7520698308944702, -0.85302734375, 0.06689453125, -0.008544921875, 
432, 3681712283, 0.6022840142250061, -0.3716510236263275, -0.42458346486091614, -0.5646606087684631, 8.940357208251953, 0.567055881023407, 2.9836275577545166, 51.16407775878906, 21.26938819885254, -2.903125286102295, -0.8525390625, 0.068115234375, -0.010986328125, 
433, 3681720616, 0.6040849685668945, -0.36857277154922485, -0.4257905185222626, -0.5638448596000671, 8.754227638244629, 0.6477384567260742, 2.9853107929229736, 48.39443588256836, 20.54741859436035, -3.472351312637329, -0.85400390625, 0.066162109375, -0.011962890625, 
434, 3681728949, 0.6056484580039978, -0.36577311158180237, -0.42690563201904297, -0.5631473064422607, 8.758210182189941, 0.7841796278953552, 3.0054242610931396, 43.47030258178711, 18.350576400756836, -4.200666427612305, -0.8544921875, 0.06689453125, -0.014892578125, 
435, 3681737282, 0.6069444417953491, -0.363333523273468, -0.4279119670391083, -0.5625672340393066, 8.855813980102539, 0.8993395566940308, 3.0091819763183594, 37.59259796142578, 15.496903419494629, -4.587491035461426, -0.85400390625, 0.0654296875, -0.013916015625, 
436, 3681745615, 0.608009934425354, -0.36124980449676514, -0.42878541350364685, -0.5620934963226318, 9.003087997436523, 0.8688550591468811, 3.037126064300537, 31.816974639892578, 13.022201538085938, -4.498505115509033, -0.85546875, 0.064453125, -0.016357421875, 
437, 3681753948, 0.6088254451751709, -0.3595374524593353, -0.4295109808444977, -0.5617547631263733, 9.089284896850586, 0.8231236338615417, 3.171525478363037, 25.530967712402344, 10.59145450592041, -4.636512756347656, -0.85498046875, 0.0654296875, -0.018310546875, 
438, 3681762281, 0.6094070672988892, -0.35824334621429443, -0.4300536811351776, -0.5615354776382446, 9.145581245422363, 0.8790324926376343, 3.2825562953948975, 18.754966735839844, 8.095037460327148, -4.065159797668457, -0.85498046875, 0.064453125, -0.017822265625, 
439, 3681770614, 0.6097826361656189, -0.357305109500885, -0.43041932582855225, -0.5614453554153442, 9.216861724853516, 0.9198586940765381, 3.2911720275878906, 12.625372886657715, 6.253626346588135, -3.7662150859832764, -0.85400390625, 0.065185546875, -0.019287109375, 
440, 3681778947, 0.6099898815155029, -0.3566933870315552, -0.4305587410926819, -0.5615025758743286, 9.330970764160156, 0.8963673710823059, 3.2493462562561035, 6.440072059631348, 5.355924129486084, -3.251112461090088, -0.853271484375, 0.064697265625, -0.021728515625, 
441, 3681787280, 0.6100671887397766, -0.35630348324775696, -0.4305278956890106, -0.5616896748542786, 9.381340026855469, 0.901070773601532, 3.2071073055267334, 1.8606308698654175, 4.939743995666504, -3.2003962993621826, -0.853759765625, 0.062744140625, -0.020263671875, 
442, 3681795613, 0.6100296378135681, -0.35610243678092957, -0.4304026961326599, -0.5619536638259888, 9.34769344329834, 0.8716374039649963, 3.1490278244018555, -1.4726648330688477, 3.97129487991333, -3.1440958976745605, -0.854248046875, 0.062255859375, -0.021728515625, 
443, 3681803946, 0.6098897457122803, -0.3561059236526489, -0.43023476004600525, -0.5622317790985107, 9.230058670043945, 0.7785167694091797, 3.1379778385162354, -4.100864410400391, 2.2102138996124268, -2.6430816650390625, -0.853759765625, 0.062255859375, -0.01904296875, 
444, 3681812279, 0.6096658706665039, -0.35629037022590637, -0.4301117956638336, -0.5624517202377319, 9.09398365020752, 0.6706786751747131, 3.1129605770111084, -5.343615531921387, -0.3412584364414215, -1.9426859617233276, -0.854248046875, 0.06201171875, -0.0244140625, 
445, 3681820612, 0.609355628490448, -0.35662323236465454, -0.43008092045783997, -0.5626006722450256, 9.033600807189941, 0.6125180721282959, 3.073446273803711, -5.872857093811035, -3.125858783721924, -1.6008127927780151, -0.855224609375, 0.060302734375, -0.02099609375, 
446, 3681828945, 0.6089581251144409, -0.35709139704704285, -0.43013596534729004, -0.5626919865608215, 8.970019340515137, 0.6130143404006958, 3.0710086822509766, -6.434040546417236, -5.683440208435059, -1.4019695520401, -0.853271484375, 0.060791015625, -0.0205078125, 
