sep=,
PacketCounter,SampleTimeFine,Quat_W,Quat_X,Quat_Y,Quat_Z,Acc_X,Acc_Y,Acc_Z,Gyr_X,Gyr_Y,Gyr_Z,Mag_X,Mag_Y,Mag_Z,
0, 3433347218, 0.47708427906036377, -0.489459753036499, -0.42331355810165405, -0.5946486592292786, 0, 0, 0, 0, 0, 0, -0.789794921875, -0.088623046875, 0.115966796875, 
1, 3433355551, 0.47715646028518677, -0.48923805356025696, -0.4229123890399933, -0.5950585007667542, 9.534006118774414, 0.673451840877533, 1.3411059379577637, -3.9319896697998047, 7.951464653015137, -0.7135100364685059, -0.788330078125, -0.088134765625, 0.114013671875, 
2, 3433363884, 0.47707703709602356, -0.4890901446342468, -0.42249149084091187, -0.5955426096916199, 9.561872482299805, 0.7897654175758362, 1.259542465209961, -6.281507968902588, 7.058042049407959, -1.9315698146820068, -0.789794921875, -0.086181640625, 0.114990234375, 
3, 3433372217, 0.4767753481864929, -0.4890933036804199, -0.4220191240310669, -0.5961162447929382, 9.606968879699707, 0.9158696532249451, 1.281449556350708, -10.151742935180664, 5.478257656097412, -3.1784708499908447, -0.788330078125, -0.088134765625, 0.111083984375, 
4, 3433380550, 0.4760779142379761, -0.4894355535507202, -0.42125996947288513, -0.5969292521476746, 9.75020980834961, 0.9329214096069336, 1.4823336601257324, -18.332857131958008, 3.8833370208740234, -4.033398151397705, -0.790283203125, -0.087646484375, 0.111572265625, 
5, 3433388883, 0.4750012755393982, -0.49016812443733215, -0.42011067271232605, -0.5979947447776794, 9.9109525680542, 0.8419865369796753, 1.6397708654403687, -28.234743118286133, 2.758463144302368, -3.9177772998809814, -0.7890625, -0.0908203125, 0.1083984375, 
6, 3433397216, 0.4737359583377838, -0.4911322295665741, -0.4187189042568207, -0.5991824865341187, 9.966646194458008, 0.6315582990646362, 1.6117286682128906, -33.590797424316406, 2.150022268295288, -3.2911250591278076, -0.78955078125, -0.09033203125, 0.10888671875, 
7, 3433405549, 0.4724695086479187, -0.49212646484375, -0.41724321246147156, -0.6003949046134949, 9.920967102050781, 0.4503932297229767, 1.5782597064971924, -34.56411361694336, 2.6389477252960205, -2.6924688816070557, -0.7890625, -0.0927734375, 0.10791015625, 
8, 3433413882, 0.47132211923599243, -0.4930263161659241, -0.4158884584903717, -0.60149747133255, 9.896951675415039, 0.3287676274776459, 1.5179147720336914, -31.582046508789062, 2.5413057804107666, -2.3835604190826416, -0.7890625, -0.092041015625, 0.10498046875, 
9, 3433422215, 0.47032368183135986, -0.4938448667526245, -0.4147133231163025, -0.602418065071106, 9.935980796813965, 0.3036528527736664, 1.6589818000793457, -27.742950439453125, 1.6865320205688477, -1.6783994436264038, -0.79052734375, -0.093017578125, 0.10595703125, 
10, 3433430548, 0.46939408779144287, -0.4946887493133545, -0.41349756717681885, -0.6032857894897461, 9.98022174835205, 0.3058094084262848, 1.882375955581665, -27.248031616210938, 1.7538464069366455, -0.32056236267089844, -0.79052734375, -0.093017578125, 0.10400390625, 
11, 3433438881, 0.46852314472198486, -0.4955542981624603, -0.41216719150543213, -0.6041620969772339, 9.99910831451416, 0.31179821491241455, 1.9916666746139526, -27.987390518188477, 2.735666513442993, 1.0292704105377197, -0.7890625, -0.096435546875, 0.104248046875, 
12, 3433447214, 0.46769723296165466, -0.4964549243450165, -0.41073933243751526, -0.605034351348877, 9.982518196105957, 0.24685335159301758, 2.05672287940979, -28.69533920288086, 3.2697489261627197, 2.275301218032837, -0.7880859375, -0.09521484375, 0.101806640625, 
13, 3433455547, 0.46694448590278625, -0.4973510503768921, -0.4092165231704712, -0.6059110760688782, 10.005536079406738, 0.09527876228094101, 2.091104030609131, -28.95565414428711, 4.390679836273193, 3.499124526977539, -0.791015625, -0.094970703125, 0.0966796875, 
14, 3433463880, 0.4663386940956116, -0.4981422424316406, -0.4076053500175476, -0.6068130135536194, 10.029801368713379, -0.06560443341732025, 2.0593347549438477, -28.181724548339844, 6.8035430908203125, 4.5548930168151855, -0.79052734375, -0.095947265625, 0.097900390625, 
15, 3433472213, 0.46590656042099, -0.49881091713905334, -0.4059142470359802, -0.6077286601066589, 9.943028450012207, -0.22587773203849792, 1.9975695610046387, -26.950237274169922, 9.431563377380371, 5.793059825897217, -0.7919921875, -0.096435546875, 0.0947265625, 
16, 3433480546, 0.46561917662620544, -0.49940815567970276, -0.40424248576164246, -0.6085721254348755, 9.816672325134277, -0.3720974624156952, 1.9552346467971802, -24.934858322143555, 10.19156551361084, 6.9180121421813965, -0.79150390625, -0.09521484375, 0.09228515625, 
17, 3433488879, 0.4654659628868103, -0.4999758303165436, -0.40273234248161316, -0.6092240214347839, 9.753714561462402, -0.389437735080719, 1.9908558130264282, -21.37132453918457, 8.860800743103027, 8.012969970703125, -0.79248046875, -0.09423828125, 0.09130859375, 
18, 3433497212, 0.4653800129890442, -0.5005356669425964, -0.40123575925827026, -0.6098172664642334, 9.775721549987793, -0.34684500098228455, 2.1143293380737305, -20.455768585205078, 8.78249740600586, 8.795022964477539, -0.79052734375, -0.095703125, 0.089599609375, 
19, 3433505545, 0.46537303924560547, -0.5010413527488708, -0.39971044659614563, -0.6104088425636292, 9.821503639221191, -0.2460375279188156, 2.09844708442688, -19.814464569091797, 9.869002342224121, 9.37690258026123, -0.79052734375, -0.09228515625, 0.09033203125, 
20, 3433513878, 0.46545547246932983, -0.5014809966087341, -0.39816802740097046, -0.6109926700592041, 9.795601844787598, -0.23230551183223724, 2.0386011600494385, -18.85835838317871, 10.94656753540039, 9.922125816345215, -0.79248046875, -0.091552734375, 0.0849609375, 
21, 3433522211, 0.46560797095298767, -0.5018832087516785, -0.3966003656387329, -0.6115654706954956, 9.833333969116211, -0.250559538602829, 2.0157248973846436, -18.290925979614258, 11.754415512084961, 10.561328887939453, -0.7919921875, -0.090576171875, 0.084228515625, 
22, 3433530544, 0.4658321738243103, -0.5022519826889038, -0.39501243829727173, -0.6121193766593933, 9.881148338317871, -0.32796555757522583, 2.033104181289673, -17.647754669189453, 12.402251243591309, 11.232501029968262, -0.7939453125, -0.090087890625, 0.082763671875, 
23, 3433538877, 0.46612948179244995, -0.5025826096534729, -0.3934533894062042, -0.6126255393028259, 9.919018745422363, -0.3590122163295746, 2.0566399097442627, -16.383512496948242, 12.628528594970703, 11.758591651916504, -0.797119140625, -0.08740234375, 0.080078125, 
24, 3433547210, 0.4665051996707916, -0.5028700232505798, -0.3919464647769928, -0.613069474697113, 9.94804859161377, -0.3335907459259033, 2.053812265396118, -14.80016803741455, 12.629091262817383, 12.21216869354248, -0.795654296875, -0.0849609375, 0.07861328125, 
25, 3433555543, 0.46694207191467285, -0.5030990242958069, -0.39051494002342224, -0.6134624481201172, 9.932973861694336, -0.28425171971321106, 2.0616953372955322, -13.058987617492676, 12.638543128967285, 12.233222961425781, -0.796142578125, -0.08544921875, 0.0771484375, 
26, 3433563876, 0.46744048595428467, -0.5032722353935242, -0.3891395330429077, -0.613814651966095, 9.89346981048584, -0.26379629969596863, 2.077678680419922, -11.61644458770752, 12.775347709655762, 12.312420845031738, -0.796142578125, -0.080810546875, 0.073974609375, 
27, 3433572209, 0.46799808740615845, -0.5033836364746094, -0.3877924382686615, -0.614150881767273, 9.856660842895508, -0.2587229907512665, 2.0686867237091064, -10.480477333068848, 13.34298324584961, 12.39512825012207, -0.797607421875, -0.082275390625, 0.073974609375, 
28, 3433580542, 0.4686207175254822, -0.5034332871437073, -0.38645049929618835, -0.6144812107086182, 9.82646369934082, -0.26276135444641113, 2.069319248199463, -9.561644554138184, 14.115691184997559, 12.608421325683594, -0.798583984375, -0.07958984375, 0.070556640625, 
29, 3433588875, 0.4693174660205841, -0.5034130811691284, -0.3851538896560669, -0.6147798299789429, 9.74890422821045, -0.27889636158943176, 2.0362913608551025, -8.032037734985352, 14.60832691192627, 12.764845848083496, -0.798583984375, -0.078125, 0.068115234375, 
30, 3433597208, 0.4700886905193329, -0.5033138394355774, -0.3839682340621948, -0.6150136590003967, 9.716415405273438, -0.2897787392139435, 2.0114309787750244, -5.739870548248291, 14.484918594360352, 12.61728286743164, -0.798583984375, -0.07568359375, 0.06494140625, 
31, 3433605541, 0.4709003269672394, -0.5031515955924988, -0.3828904330730438, -0.615197479724884, 9.667153358459473, -0.23054035007953644, 1.9707897901535034, -3.870234966278076, 14.210410118103027, 12.208221435546875, -0.79931640625, -0.074951171875, 0.064453125, 
32, 3433613874, 0.4717303216457367, -0.5029342174530029, -0.38189518451690674, -0.6153580546379089, 9.607053756713867, -0.19545947015285492, 1.9682490825653076, -2.5721819400787354, 14.05600643157959, 11.648164749145508, -0.80029296875, -0.07177734375, 0.064697265625, 
33, 3433622207, 0.4725634753704071, -0.5026816129684448, -0.3809874653816223, -0.6154876351356506, 9.590154647827148, -0.16988469660282135, 1.9528456926345825, -1.4066059589385986, 13.607731819152832, 11.091208457946777, -0.8017578125, -0.070068359375, 0.060791015625, 
34, 3433630540, 0.4734017848968506, -0.5023952126502991, -0.3801863491535187, -0.6155726909637451, 9.579996109008789, -0.17956684529781342, 1.9330270290374756, -0.027381625026464462, 12.902112007141113, 10.501750946044922, -0.80126953125, -0.071044921875, 0.061279296875, 
35, 3433638873, 0.47424253821372986, -0.5020725727081299, -0.37949979305267334, -0.6156121492385864, 9.594908714294434, -0.17802080512046814, 1.9056295156478882, 1.4384829998016357, 12.179661750793457, 9.846691131591797, -0.80029296875, -0.06884765625, 0.057861328125, 
36, 3433647206, 0.4750990569591522, -0.5017046332359314, -0.37891891598701477, -0.6156097650527954, 9.626138687133789, -0.15475167334079742, 1.8837835788726807, 2.951695203781128, 11.647574424743652, 9.278130531311035, -0.80224609375, -0.06689453125, 0.0576171875, 
37, 3433655539, 0.47596198320388794, -0.5012884736061096, -0.37846431136131287, -0.6155619025230408, 9.604331970214844, -0.14694702625274658, 1.846046805381775, 4.620334625244141, 10.97069263458252, 8.515568733215332, -0.8046875, -0.06787109375, 0.0556640625, 
38, 3433663872, 0.4768435060977936, -0.5008324980735779, -0.37812134623527527, -0.6154617071151733, 9.599542617797852, -0.14594367146492004, 1.796347975730896, 6.2214035987854, 10.292786598205566, 8.031177520751953, -0.802734375, -0.0654296875, 0.05419921875, 
39, 3433672205, 0.47772616147994995, -0.5003554821014404, -0.377920925617218, -0.6152880787849426, 9.56493091583252, -0.1647588014602661, 1.7513631582260132, 7.961840629577637, 9.056772232055664, 7.437491416931152, -0.802734375, -0.0634765625, 0.0546875, 
40, 3433680538, 0.47860845923423767, -0.49986276030540466, -0.37785980105400085, -0.6150406002998352, 9.543423652648926, -0.18671129643917084, 1.7180341482162476, 9.617724418640137, 7.743915557861328, 6.871826648712158, -0.805419921875, -0.062744140625, 0.052978515625, 
41, 3433688871, 0.4794880449771881, -0.49937793612480164, -0.3779356777667999, -0.6147024035453796, 9.535004615783691, -0.2041303962469101, 1.684263825416565, 11.186980247497559, 6.160953998565674, 6.552186012268066, -0.803955078125, -0.060302734375, 0.050537109375, 
42, 3433697204, 0.4803619384765625, -0.4988911747932434, -0.3781350553035736, -0.6142926216125488, 9.499932289123535, -0.19388814270496368, 1.6934123039245605, 12.568868637084961, 4.819203853607178, 6.112722873687744, -0.804931640625, -0.05908203125, 0.052734375, 
43, 3433705537, 0.481227308511734, -0.4984200596809387, -0.37840762734413147, -0.6138297319412231, 9.469156265258789, -0.1714664101600647, 1.6830854415893555, 13.308761596679688, 3.8165090084075928, 5.975149154663086, -0.804931640625, -0.05859375, 0.052734375, 
44, 3433713870, 0.48205694556236267, -0.49800246953964233, -0.3787407875061035, -0.6133119463920593, 9.468958854675293, -0.17050078511238098, 1.6843467950820923, 13.500486373901367, 2.379114866256714, 5.896488189697266, -0.803955078125, -0.057861328125, 0.05126953125, 
45, 3433722203, 0.48285165429115295, -0.4976353049278259, -0.37914666533470154, -0.6127338409423828, 9.482994079589844, -0.17327344417572021, 1.6883833408355713, 13.862618446350098, 0.9008655548095703, 5.772438049316406, -0.803955078125, -0.056640625, 0.0537109375, 
46, 3433730536, 0.4836326837539673, -0.4973163306713104, -0.37959790229797363, -0.6120973229408264, 9.49563980102539, -0.16177862882614136, 1.703047513961792, 14.127034187316895, -0.30270910263061523, 5.978581428527832, -0.802490234375, -0.0546875, 0.0517578125, 
47, 3433738869, 0.4843805134296417, -0.4970426857471466, -0.38007113337516785, -0.6114340424537659, 9.491411209106445, -0.15062610805034637, 1.736375093460083, 13.929651260375977, -1.1608116626739502, 5.970486640930176, -0.804931640625, -0.054931640625, 0.0556640625, 
48, 3433747202, 0.4851144850254059, -0.496796190738678, -0.38056132197380066, -0.6107473373413086, 9.529205322265625, -0.1621379256248474, 1.7497528791427612, 13.913667678833008, -1.760236144065857, 6.029118061065674, -0.804443359375, -0.05419921875, 0.052734375, 
49, 3433755535, 0.4858487844467163, -0.49655091762542725, -0.3810686767101288, -0.6100462675094604, 9.50749683380127, -0.20638331770896912, 1.7882739305496216, 14.130748748779297, -1.954315185546875, 6.019256591796875, -0.803466796875, -0.0546875, 0.0517578125, 
50, 3433763868, 0.4866068661212921, -0.4963180124759674, -0.3816206157207489, -0.6092860102653503, 9.47874927520752, -0.2198207676410675, 1.8195523023605347, 14.890775680541992, -2.661831855773926, 6.373707294464111, -0.805419921875, -0.052490234375, 0.055908203125, 
51, 3433772201, 0.487358421087265, -0.4961077868938446, -0.3822099268436432, -0.6084868311882019, 9.478799819946289, -0.23700577020645142, 1.87285315990448, 15.222681999206543, -3.3751370906829834, 6.448422908782959, -0.805419921875, -0.052001953125, 0.055419921875, 
52, 3433780534, 0.4881107211112976, -0.4959052801132202, -0.38281843066215515, -0.6076657176017761, 9.511495590209961, -0.2628864645957947, 1.886162519454956, 15.441431045532227, -3.7408318519592285, 6.504826545715332, -0.804931640625, -0.051513671875, 0.056396484375, 
53, 3433788867, 0.48886051774024963, -0.49568605422973633, -0.3834916651248932, -0.6068164706230164, 9.513616561889648, -0.32157590985298157, 1.8755244016647339, 16.231630325317383, -4.21367073059082, 6.147687911987305, -0.80517578125, -0.049560546875, 0.058349609375, 
54, 3433797200, 0.4896370470523834, -0.4954458475112915, -0.38421010971069336, -0.6059314012527466, 9.51412582397461, -0.33464470505714417, 1.827782154083252, 17.11404037475586, -4.472938537597656, 6.188567161560059, -0.80712890625, -0.048095703125, 0.05908203125, 
55, 3433805533, 0.49043118953704834, -0.4951503872871399, -0.384979784488678, -0.6050416231155396, 9.519543647766113, -0.3160099983215332, 1.8334784507751465, 18.06529998779297, -4.2681779861450195, 5.730431079864502, -0.80712890625, -0.04638671875, 0.06005859375, 
56, 3433813866, 0.49122220277786255, -0.49483346939086914, -0.3858051598072052, -0.6041325330734253, 9.495792388916016, -0.3024015426635742, 1.8324925899505615, 18.74664306640625, -4.640481472015381, 5.337585926055908, -0.8056640625, -0.04443359375, 0.0625, 
57, 3433822199, 0.4920038878917694, -0.49453094601631165, -0.38669857382774353, -0.6031724214553833, 9.509749412536621, -0.32082271575927734, 1.8580724000930786, 19.444631576538086, -5.588183879852295, 5.223936557769775, -0.80419921875, -0.044921875, 0.060546875, 
58, 3433830532, 0.4927845299243927, -0.494246244430542, -0.38766971230506897, -0.602144181728363, 9.5493803024292, -0.3639684319496155, 1.8613951206207275, 20.302221298217773, -6.760290145874023, 5.236947059631348, -0.80517578125, -0.044189453125, 0.0634765625, 
59, 3433838865, 0.4936023950576782, -0.4939403831958771, -0.3886795938014984, -0.6010733842849731, 9.5569429397583, -0.39513465762138367, 1.8483259677886963, 21.251873016357422, -6.908597469329834, 5.459382057189941, -0.80712890625, -0.042724609375, 0.064697265625, 
60, 3433847198, 0.49447426199913025, -0.49355384707450867, -0.3897317945957184, -0.599992036819458, 9.488799095153809, -0.37284404039382935, 1.8346375226974487, 22.56539535522461, -6.342010498046875, 5.256798267364502, -0.8056640625, -0.040771484375, 0.066162109375, 
61, 3433855531, 0.49541857838630676, -0.49306562542915344, -0.39093974232673645, -0.5988273024559021, 9.439420700073242, -0.2733653783798218, 1.721946358680725, 25.49492645263672, -6.710472583770752, 4.822971343994141, -0.8046875, -0.0419921875, 0.069580078125, 
62, 3433863864, 0.49634501338005066, -0.49258169531822205, -0.3923215866088867, -0.5975533723831177, 9.459409713745117, -0.11652199178934097, 1.6871966123580933, 27.34996223449707, -8.797087669372559, 4.259535312652588, -0.806884765625, -0.039794921875, 0.072998046875, 
63, 3433872197, 0.4971201717853546, -0.4921882748603821, -0.39373889565467834, -0.5962998270988464, 9.476057052612305, 0.1386576145887375, 1.78702974319458, 25.860774993896484, -10.428202629089355, 3.119572639465332, -0.806396484375, -0.040771484375, 0.074951171875, 
64, 3433880530, 0.49770301580429077, -0.49185118079185486, -0.395114004611969, -0.5951812267303467, 9.496060371398926, 0.45612192153930664, 1.8516451120376587, 23.125581741333008, -10.761545181274414, 1.217381238937378, -0.806396484375, -0.040283203125, 0.074951171875, 
65, 3433888863, 0.49809589982032776, -0.49154365062713623, -0.3964675962924957, -0.5942054390907288, 9.522740364074707, 0.6520350575447083, 1.8297154903411865, 20.745376586914062, -10.892638206481934, -0.9959075450897217, -0.804443359375, -0.0390625, 0.076416015625, 
66, 3433897196, 0.49827343225479126, -0.491282194852829, -0.3977922201156616, -0.5933868885040283, 9.563019752502441, 0.7394979000091553, 1.8666865825653076, 17.821277618408203, -11.21153450012207, -3.399650812149048, -0.805419921875, -0.03857421875, 0.080810546875, 
67, 3433905529, 0.49818000197410583, -0.4911327362060547, -0.3990161716938019, -0.5927671194076538, 9.648857116699219, 0.7748174071311951, 1.984540581703186, 13.532426834106445, -11.54561996459961, -5.628934383392334, -0.805908203125, -0.0400390625, 0.081787109375, 
68, 3433913862, 0.49787211418151855, -0.4910813271999359, -0.40016046166419983, -0.592296838760376, 9.708924293518066, 0.7082985639572144, 2.0147972106933594, 9.725817680358887, -11.995636940002441, -7.376645565032959, -0.804443359375, -0.039794921875, 0.083251953125, 
69, 3433922195, 0.4974280595779419, -0.49107813835144043, -0.40130752325057983, -0.5918962955474854, 9.78542423248291, 0.5861039757728577, 1.9806255102157593, 8.112275123596191, -12.653640747070312, -8.711071014404297, -0.802734375, -0.043212890625, 0.0849609375, 
70, 3433930528, 0.4969325661659241, -0.4910486042499542, -0.40252870321273804, -0.5915078520774841, 9.856520652770996, 0.5026077628135681, 1.9752088785171509, 8.481732368469238, -13.18136978149414, -9.862456321716309, -0.80322265625, -0.04248046875, 0.08740234375, 
71, 3433938861, 0.496412992477417, -0.4909287393093109, -0.4038294851779938, -0.5911567807197571, 9.8781099319458, 0.4743746519088745, 1.992458701133728, 9.241811752319336, -12.839986801147461, -11.372621536254883, -0.8017578125, -0.04443359375, 0.09033203125, 
72, 3433947194, 0.49586576223373413, -0.4907461404800415, -0.4051785171031952, -0.5908445119857788, 9.860090255737305, 0.5566845536231995, 1.9890013933181763, 9.796488761901855, -12.580768585205078, -12.514095306396484, -0.8037109375, -0.04443359375, 0.0908203125, 
73, 3433955527, 0.49526649713516235, -0.49050331115722656, -0.406607061624527, -0.5905671119689941, 9.880416870117188, 0.6192208528518677, 1.9357110261917114, 10.461304664611816, -12.6593017578125, -14.009684562683105, -0.80126953125, -0.046142578125, 0.0927734375, 
74, 3433963860, 0.4946293532848358, -0.4902225732803345, -0.40807685256004333, -0.5903204083442688, 9.8920316696167, 0.6153228878974915, 1.8898297548294067, 10.473164558410645, -12.666475296020508, -15.054718971252441, -0.80126953125, -0.046142578125, 0.09521484375, 
75, 3433972193, 0.4939776659011841, -0.4899093806743622, -0.40959203243255615, -0.5900766849517822, 9.939545631408691, 0.6028281450271606, 1.8429338932037354, 10.201757431030273, -12.746803283691406, -15.814058303833008, -0.80322265625, -0.049560546875, 0.096923828125, 
76, 3433980526, 0.493242084980011, -0.4896259307861328, -0.41107821464538574, -0.5898936986923218, 9.962468147277832, 0.5215674042701721, 1.8207528591156006, 9.601435661315918, -12.881072998046875, -16.412839889526367, -0.7998046875, -0.052734375, 0.1005859375, 
77, 3433988859, 0.4924852252006531, -0.4893482029438019, -0.4125581681728363, -0.5897234082221985, 9.97780704498291, 0.4734615981578827, 1.7984167337417603, 8.105973243713379, -12.901665687561035, -16.807811737060547, -0.799072265625, -0.055419921875, 0.09912109375, 
78, 3433997192, 0.49161240458488464, -0.48916491866111755, -0.41390109062194824, -0.5896626114845276, 10.004495620727539, 0.43612098693847656, 1.8238848447799683, 6.147585868835449, -12.680231094360352, -16.820621490478516, -0.798095703125, -0.056640625, 0.102783203125, 
79, 3434005525, 0.4906787574291229, -0.48905253410339355, -0.4151250422000885, -0.5896729230880737, 10.015179634094238, 0.43767452239990234, 1.824344515800476, 3.614720106124878, -12.293069839477539, -16.62664031982422, -0.798095703125, -0.05615234375, 0.102294921875, 
80, 3434013858, 0.48969194293022156, -0.48902085423469543, -0.416212260723114, -0.589753270149231, 9.985798835754395, 0.43847182393074036, 1.8031902313232422, 1.4770326614379883, -11.881193161010742, -16.114614486694336, -0.797119140625, -0.058837890625, 0.107177734375, 
81, 3434022191, 0.48872053623199463, -0.489007830619812, -0.41722193360328674, -0.5898564457893372, 9.962499618530273, 0.39944711327552795, 1.7865570783615112, -0.49678826332092285, -11.263376235961914, -15.71631145477295, -0.798095703125, -0.06201171875, 0.10595703125, 
82, 3434030524, 0.48768866062164307, -0.48907798528671265, -0.41808807849884033, -0.5900391340255737, 9.916786193847656, 0.31413960456848145, 1.7645448446273804, -1.890254259109497, -10.792534828186035, -15.096495628356934, -0.795166015625, -0.063232421875, 0.10693359375, 
83, 3434038857, 0.4866628646850586, -0.489198237657547, -0.4188459515571594, -0.5902486443519592, 9.914576530456543, 0.2706107497215271, 1.7428447008132935, -3.2400991916656494, -10.228330612182617, -14.201355934143066, -0.794677734375, -0.0654296875, 0.111083984375, 
84, 3434047190, 0.4856305718421936, -0.4893947243690491, -0.4194547235965729, -0.5905037522315979, 9.882092475891113, 0.24983003735542297, 1.7625099420547485, -5.244771480560303, -9.60779857635498, -13.127784729003906, -0.7939453125, -0.068115234375, 0.108642578125, 
85, 3434055523, 0.48463091254234314, -0.48963192105293274, -0.41998744010925293, -0.5907496809959412, 9.877561569213867, 0.2354416698217392, 1.7389544248580933, -6.608270168304443, -9.295716285705566, -12.169659614562988, -0.791015625, -0.07080078125, 0.111328125, 
86, 3434063856, 0.483626127243042, -0.48990702629089355, -0.42038610577583313, -0.5910614728927612, 9.844108581542969, 0.12196425348520279, 1.6980608701705933, -7.6177520751953125, -8.30490493774414, -11.4122953414917, -0.7919921875, -0.072021484375, 0.11181640625, 
87, 3434072189, 0.48267221450805664, -0.49017298221588135, -0.4207000732421875, -0.591397225856781, 9.833221435546875, 0.041122447699308395, 1.6779671907424927, -8.228830337524414, -7.189174652099609, -10.659697532653809, -0.791015625, -0.07568359375, 0.114990234375, 
88, 3434080522, 0.48172131180763245, -0.49047544598579407, -0.42089781165122986, -0.5917809009552002, 9.808560371398926, 0.17490538954734802, 1.7333637475967407, -9.486924171447754, -6.395721912384033, -9.94155216217041, -0.791015625, -0.076171875, 0.115966796875, 
89, 3434088855, 0.4808233082294464, -0.4907742738723755, -0.4210415482521057, -0.5921611785888672, 9.789273262023926, 0.2315647304058075, 1.7617944478988647, -10.002948760986328, -5.71445894241333, -9.209829330444336, -0.790283203125, -0.07763671875, 0.115478515625, 
90, 3434097188, 0.4799977242946625, -0.4909955561161041, -0.42114782333374023, -0.5925715565681458, 9.760027885437012, 0.1623220592737198, 1.6819086074829102, -9.004096984863281, -4.223455429077148, -8.950894355773926, -0.790283203125, -0.07861328125, 0.116455078125, 
91, 3434105521, 0.47923797369003296, -0.491133451461792, -0.421245813369751, -0.5930024981498718, 9.702605247497559, 0.18220490217208862, 1.6241897344589233, -7.0473737716674805, -2.901247978210449, -8.769418716430664, -0.791015625, -0.07763671875, 0.115478515625, 
92, 3434113854, 0.4785865545272827, -0.49117693305015564, -0.42142850160598755, -0.5933628082275391, 9.673005104064941, 0.273349791765213, 1.7144935131072998, -5.742380142211914, -2.607503890991211, -8.745649337768555, -0.789794921875, -0.083984375, 0.11572265625, 
93, 3434122187, 0.4779307246208191, -0.4912116825580597, -0.4216108024120331, -0.5937328338623047, 9.72589111328125, 0.32011500000953674, 1.80771005153656, -6.24085807800293, -2.483018636703491, -8.958758354187012, -0.789794921875, -0.0830078125, 0.11572265625, 
94, 3434130520, 0.47725966572761536, -0.49123936891555786, -0.42174845933914185, -0.5941518545150757, 9.833001136779785, 0.31109100580215454, 1.7849864959716797, -6.478430271148682, -1.8998591899871826, -9.080042839050293, -0.791259765625, -0.08642578125, 0.117431640625, 
95, 3434138853, 0.47672879695892334, -0.49114489555358887, -0.42199137806892395, -0.5944836139678955, 9.851959228515625, 0.31605738401412964, 1.7487003803253174, -6.154256820678711, -1.4527883529663086, -9.230782508850098, -0.790283203125, -0.084716796875, 0.114501953125, 
96, 3434147186, 0.4760877788066864, -0.4911251664161682, -0.422135591506958, -0.5949109792709351, 9.867697715759277, 0.3836055397987366, 1.7460460662841797, -5.959536075592041, -1.3270224332809448, -9.208829879760742, -0.789794921875, -0.088134765625, 0.115966796875, 
97, 3434155519, 0.47544389963150024, -0.491141676902771, -0.4222525358200073, -0.5953288674354553, 9.893843650817871, 0.42409151792526245, 1.7636054754257202, -5.773449897766113, -1.4727164506912231, -8.660327911376953, -0.789306640625, -0.089111328125, 0.115478515625, 
98, 3434163852, 0.474874347448349, -0.49109864234924316, -0.4223787486553192, -0.5957295298576355, 9.90899658203125, 0.3051069676876068, 1.7279472351074219, -5.315952777862549, -0.783027172088623, -8.462789535522461, -0.790283203125, -0.08837890625, 0.116455078125, 
99, 3434172185, 0.47437554597854614, -0.49101167917251587, -0.4225480854511261, -0.5960786938667297, 9.87924861907959, 0.21190689504146576, 1.6965266466140747, -3.97994065284729, -0.6186094284057617, -8.092281341552734, -0.789794921875, -0.0888671875, 0.116455078125, 
100, 3434180518, 0.47394126653671265, -0.49087199568748474, -0.42275649309158325, -0.5963913202285767, 9.883625984191895, 0.1920425295829773, 1.689199686050415, -2.587293863296509, -0.336314857006073, -7.896535396575928, -0.78857421875, -0.0908203125, 0.1171875, 
101, 3434188851, 0.47353214025497437, -0.4907224476337433, -0.42295965552330017, -0.5966950058937073, 9.891897201538086, 0.3357663154602051, 1.6318758726119995, -2.477332353591919, -0.11528968811035156, -7.6616291999816895, -0.78955078125, -0.093017578125, 0.115234375, 
102, 3434197184, 0.4731122553348541, -0.4906321167945862, -0.42312344908714294, -0.5969865322113037, 9.843427658081055, 0.4527134597301483, 1.6094835996627808, -3.0538065433502197, -0.5109528303146362, -7.050652503967285, -0.78857421875, -0.092529296875, 0.11669921875, 
103, 3434205517, 0.47267770767211914, -0.49058064818382263, -0.4232633709907532, -0.5972736477851868, 9.845513343811035, 0.3543241024017334, 1.54787015914917, -3.5909368991851807, -0.7628176212310791, -6.746867656707764, -0.78662109375, -0.093994140625, 0.114990234375, 
104, 3434213850, 0.47227007150650024, -0.49052685499191284, -0.42336276173591614, -0.5975698828697205, 9.816030502319336, 0.2535858452320099, 1.5014342069625854, -3.765984058380127, -0.28677695989608765, -6.334195137023926, -0.7890625, -0.096435546875, 0.115966796875, 
105, 3434222183, 0.47188588976860046, -0.49049586057662964, -0.42345762252807617, -0.5978313088417053, 9.768243789672852, 0.26921701431274414, 1.4891029596328735, -4.351013660430908, -0.5558545589447021, -5.863969802856445, -0.78662109375, -0.095947265625, 0.116943359375, 
106, 3434230516, 0.4714055061340332, -0.49061650037765503, -0.42343100905418396, -0.5981300473213196, 9.762682914733887, 0.3523405194282532, 1.5521882772445679, -6.438777923583984, -1.3107316493988037, -5.083657264709473, -0.78759765625, -0.097412109375, 0.116455078125, 
107, 3434238849, 0.4708997309207916, -0.4908249080181122, -0.4233053922653198, -0.5984463095664978, 9.761998176574707, 0.29266858100891113, 1.5547744035720825, -8.001837730407715, -1.3890089988708496, -4.197738170623779, -0.78662109375, -0.096923828125, 0.114990234375, 
108, 3434247182, 0.47043871879577637, -0.4910455644130707, -0.4230973422527313, -0.5987749099731445, 9.733702659606934, 0.19048039615154266, 1.4467089176177979, -8.622264862060547, -0.6444286108016968, -3.310896396636963, -0.787109375, -0.099853515625, 0.11474609375, 
109, 3434255515, 0.4700290262699127, -0.49128058552742004, -0.42283156514167786, -0.5990915298461914, 9.745375633239746, 0.19464513659477234, 1.470671534538269, -9.571784019470215, -0.1850372552871704, -2.4557905197143555, -0.78466796875, -0.097900390625, 0.1162109375, 
110, 3434263848, 0.46959108114242554, -0.4915991425514221, -0.42249640822410583, -0.5994100570678711, 9.709304809570312, 0.21251197159290314, 1.4798920154571533, -10.088448524475098, -0.5612079501152039, -1.6284763813018799, -0.78564453125, -0.098876953125, 0.11376953125, 
111, 3434272181, 0.4691571295261383, -0.49198177456855774, -0.42205917835235596, -0.5997440218925476, 9.688036918640137, 0.21833829581737518, 1.5107500553131104, -11.168755531311035, -0.26544034481048584, -0.5804442167282104, -0.78515625, -0.098876953125, 0.11328125, 
112, 3434280514, 0.4687644839286804, -0.49239346385002136, -0.4215400218963623, -0.6000782251358032, 9.689165115356445, 0.2142108678817749, 1.5014351606369019, -11.991817474365234, 0.22744165360927582, 0.4307161867618561, -0.783447265625, -0.10009765625, 0.1123046875, 
113, 3434288847, 0.4684123396873474, -0.4928217828273773, -0.42099428176879883, -0.6003842949867249, 9.685312271118164, 0.2049550563097, 1.489828109741211, -11.799787521362305, 0.3356105387210846, 1.2457613945007324, -0.784423828125, -0.10107421875, 0.111328125, 
114, 3434297180, 0.46810367703437805, -0.49324965476989746, -0.4204547107219696, -0.6006519198417664, 9.646177291870117, 0.19271320104599, 1.52232825756073, -11.310121536254883, 0.26135489344596863, 1.7837371826171875, -0.78662109375, -0.100341796875, 0.11376953125, 
115, 3434305513, 0.46781688928604126, -0.49367812275886536, -0.4199874699115753, -0.6008502840995789, 9.667829513549805, 0.19654886424541473, 1.5259194374084473, -10.298101425170898, -0.5336213707923889, 1.9150100946426392, -0.7861328125, -0.10009765625, 0.11083984375, 
116, 3434313846, 0.46753591299057007, -0.49414145946502686, -0.41952311992645264, -0.6010122895240784, 9.721567153930664, 0.15090975165367126, 1.5761618614196777, -10.11921215057373, -1.0718533992767334, 2.3857738971710205, -0.78759765625, -0.1005859375, 0.11279296875, 
117, 3434322179, 0.4673176407814026, -0.49457550048828125, -0.4190613627433777, -0.6011472940444946, 9.746293067932129, 0.05160725489258766, 1.617134928703308, -9.411335945129395, -0.6487573385238647, 2.888965606689453, -0.7861328125, -0.100341796875, 0.115234375, 
118, 3434330512, 0.46718552708625793, -0.4949597418308258, -0.41866907477378845, -0.6012071967124939, 9.75711727142334, 0.013606290332973003, 1.6093732118606567, -7.413143157958984, -0.7190683484077454, 3.3280959129333496, -0.7861328125, -0.0986328125, 0.111572265625, 
119, 3434338845, 0.4671624004840851, -0.495275616645813, -0.41837090253829956, -0.6011722087860107, 9.753508567810059, 0.04973917081952095, 1.5664085149765015, -5.018136501312256, -0.7554406523704529, 3.7948386669158936, -0.787109375, -0.10009765625, 0.11328125, 
120, 3434347178, 0.4672169089317322, -0.49552837014198303, -0.4181617200374603, -0.6010671854019165, 9.8003511428833, 0.10372526198625565, 1.5700932741165161, -2.834599256515503, -0.8578206896781921, 3.927495002746582, -0.78955078125, -0.10009765625, 0.113525390625, 
121, 3434355511, 0.46736398339271545, -0.49570831656455994, -0.4180309772491455, -0.6008952856063843, 9.827505111694336, 0.13664568960666656, 1.5620911121368408, -0.7434532046318054, -0.6579272747039795, 4.169011116027832, -0.7861328125, -0.09765625, 0.111083984375, 
122, 3434363844, 0.46758243441581726, -0.49582424759864807, -0.4179549515247345, -0.6006828546524048, 9.81311321258545, 0.17074421048164368, 1.5612154006958008, 0.8794264197349548, -0.3717906177043915, 4.279460430145264, -0.78759765625, -0.0966796875, 0.112060546875, 
123, 3434372177, 0.4678395390510559, -0.49591678380966187, -0.41791588068008423, -0.6004332304000854, 9.779073715209961, 0.20295450091362, 1.5692206621170044, 1.9198253154754639, -0.41584712266921997, 4.47425651550293, -0.787109375, -0.09716796875, 0.112060546875, 
124, 3434380510, 0.4681251645088196, -0.49598199129104614, -0.41791728138923645, -0.600155770778656, 9.774169921875, 0.24928151071071625, 1.5902866125106812, 2.6779298782348633, -0.5083656311035156, 4.4322991371154785, -0.78662109375, -0.095947265625, 0.113037109375, 
125, 3434388843, 0.46843358874320984, -0.496021568775177, -0.4179532825946808, -0.5998571515083313, 9.75910472869873, 0.249663308262825, 1.5648785829544067, 3.531217098236084, -0.49993863701820374, 4.398950099945068, -0.787109375, -0.097412109375, 0.114013671875, 
126, 3434397176, 0.46878504753112793, -0.4960249662399292, -0.41805148124694824, -0.5995113253593445, 9.767967224121094, 0.25770774483680725, 1.5385431051254272, 4.715773105621338, -0.709667980670929, 4.399693012237549, -0.7880859375, -0.096923828125, 0.113525390625, 
127, 3434405509, 0.46912842988967896, -0.4960266947746277, -0.4181439280509949, -0.5991767048835754, 9.763513565063477, 0.27816042304039, 1.5372158288955688, 4.712417125701904, -0.5937379598617554, 4.321415901184082, -0.7890625, -0.093017578125, 0.11474609375, 
128, 3434413842, 0.46947962045669556, -0.49601998925209045, -0.41823676228523254, -0.5988423824310303, 9.75693130493164, 0.3212122321128845, 1.511942982673645, 4.669589996337891, -0.5140008330345154, 4.301667213439941, -0.787109375, -0.093017578125, 0.1142578125, 
129, 3434422175, 0.4698229730129242, -0.49601519107818604, -0.418322890996933, -0.5985168218612671, 9.729909896850586, 0.3462315499782562, 1.4952867031097412, 4.470798492431641, -0.44742947816848755, 4.239706993103027, -0.787109375, -0.093994140625, 0.114013671875, 
130, 3434430508, 0.47014307975769043, -0.49603599309921265, -0.4183826744556427, -0.5982064008712769, 9.774965286254883, 0.3481517434120178, 1.475122094154358, 3.869119882583618, -0.542253315448761, 4.2751312255859375, -0.787109375, -0.090576171875, 0.1142578125, 
131, 3434438841, 0.47042062878608704, -0.4961013197898865, -0.41840481758117676, -0.5979184508323669, 9.810568809509277, 0.31947070360183716, 1.4724817276000977, 2.6813619136810303, -0.7379205226898193, 4.271237373352051, -0.7861328125, -0.09228515625, 0.1162109375, 
132, 3434447174, 0.47067564725875854, -0.4961893558502197, -0.418414831161499, -0.5976375341415405, 9.836163520812988, 0.3144509196281433, 1.5050338506698608, 2.411951780319214, -0.9467790722846985, 4.27492618560791, -0.7880859375, -0.092529296875, 0.1162109375, 
133, 3434455507, 0.4708899259567261, -0.49630361795425415, -0.41841813921928406, -0.5973713994026184, 9.863303184509277, 0.2993353307247162, 1.4996987581253052, 2.410209894180298, -1.2037410736083984, 4.14168119430542, -0.78662109375, -0.0888671875, 0.1171875, 
134, 3434463840, 0.4711335003376007, -0.4963838458061218, -0.4184516668319702, -0.5970892310142517, 9.845586776733398, 0.3294253349304199, 1.4926942586898804, 2.5840282440185547, -1.1094551086425781, 3.983538866043091, -0.790283203125, -0.08935546875, 0.117431640625, 
135, 3434472173, 0.47132936120033264, -0.4964942932128906, -0.41846898198127747, -0.5968306064605713, 9.846634864807129, 0.3189083933830261, 1.511763334274292, 2.1828579902648926, -1.3251268863677979, 3.7945051193237305, -0.787109375, -0.08935546875, 0.11572265625, 
136, 3434480506, 0.4715394973754883, -0.49660107493400574, -0.41849321126937866, -0.5965588688850403, 9.818587303161621, 0.32494884729385376, 1.5507771968841553, 2.0469489097595215, -1.3906993865966797, 3.856159210205078, -0.789794921875, -0.087646484375, 0.114501953125, 
137, 3434488839, 0.47170019149780273, -0.49673691391944885, -0.41849765181541443, -0.5963156819343567, 9.79826545715332, 0.3290974497795105, 1.534263014793396, 1.803921103477478, -1.5400558710098267, 3.673196792602539, -0.789306640625, -0.08984375, 0.1171875, 
138, 3434497172, 0.4718863368034363, -0.4968341290950775, -0.41854602098464966, -0.5960533022880554, 9.781990051269531, 0.33284372091293335, 1.5102286338806152, 2.0905444622039795, -1.5400303602218628, 3.380272388458252, -0.787353515625, -0.08837890625, 0.117919921875, 
139, 3434505505, 0.47209835052490234, -0.4968922734260559, -0.41863495111465454, -0.5957742929458618, 9.770447731018066, 0.31161361932754517, 1.5314642190933228, 2.8300271034240723, -1.4276862144470215, 3.1858601570129395, -0.788330078125, -0.087890625, 0.117431640625, 
140, 3434513838, 0.47231751680374146, -0.49692216515541077, -0.4187440872192383, -0.5954989790916443, 9.749334335327148, 0.2953837513923645, 1.5215872526168823, 3.326251745223999, -1.2827609777450562, 2.9319205284118652, -0.790283203125, -0.0859375, 0.116943359375, 
141, 3434522171, 0.4725774824619293, -0.4968988597393036, -0.41889119148254395, -0.5952087044715881, 9.762321472167969, 0.3308820128440857, 1.5390819311141968, 3.9103333950042725, -0.9498526453971863, 2.7349472045898438, -0.790771484375, -0.08642578125, 0.117919921875, 
142, 3434530504, 0.4728412926197052, -0.4968506991863251, -0.4190361499786377, -0.5949371457099915, 9.73803997039795, 0.3326205313205719, 1.5258417129516602, 4.409733772277832, -0.59248286485672, 2.5788538455963135, -0.791259765625, -0.08642578125, 0.120849609375, 
143, 3434538837, 0.4731229841709137, -0.49676910042762756, -0.4192284941673279, -0.5946458578109741, 9.739063262939453, 0.3368367552757263, 1.5241014957427979, 4.828578472137451, -0.6477072238922119, 2.2764010429382324, -0.790283203125, -0.083740234375, 0.12060546875, 
144, 3434547170, 0.47338345646858215, -0.49668821692466736, -0.41940635442733765, -0.5943806767463684, 9.74169635772705, 0.35033246874809265, 1.4977072477340698, 4.82996129989624, -0.5149998068809509, 2.095871925354004, -0.787841796875, -0.083984375, 0.118896484375, 
145, 3434555503, 0.4736119210720062, -0.49660778045654297, -0.41958335041999817, -0.5941407084465027, 9.75922679901123, 0.34275099635124207, 1.5178275108337402, 4.667924880981445, -0.4925617575645447, 1.7187793254852295, -0.788818359375, -0.084228515625, 0.119873046875, 
146, 3434563836, 0.4738195538520813, -0.4965223968029022, -0.4197557866573334, -0.5939247608184814, 9.776918411254883, 0.34538525342941284, 1.5387237071990967, 4.171034812927246, -0.41144147515296936, 1.3559792041778564, -0.789794921875, -0.0849609375, 0.117919921875, 
147, 3434572169, 0.47401201725006104, -0.49643415212631226, -0.419933944940567, -0.5937190055847168, 9.795622825622559, 0.34839609265327454, 1.5086833238601685, 3.8995237350463867, -0.4242485463619232, 1.0893605947494507, -0.790771484375, -0.0849609375, 0.11865234375, 
148, 3434580502, 0.47418487071990967, -0.4963533282279968, -0.4200960695743561, -0.5935338735580444, 9.826172828674316, 0.3262439966201782, 1.5188068151474, 3.6416397094726562, -0.37040743231773376, 0.9668988585472107, -0.788818359375, -0.08251953125, 0.1181640625, 
149, 3434588835, 0.47429159283638, -0.49630701541900635, -0.4202229380607605, -0.5933976173400879, 9.834549903869629, 0.3081476390361786, 1.5391759872436523, 3.2195687294006348, -0.41866469383239746, 0.6853729486465454, -0.791748046875, -0.082275390625, 0.12060546875, 
150, 3434597168, 0.4744117558002472, -0.49622291326522827, -0.4203775227069855, -0.5932623744010925, 9.848907470703125, 0.30739688873291016, 1.5089513063430786, 2.954179525375366, -0.25885748863220215, 0.24485929310321808, -0.789306640625, -0.081787109375, 0.1201171875, 
151, 3434605501, 0.4745241105556488, -0.49613890051841736, -0.4205247759819031, -0.5931382179260254, 9.862719535827637, 0.3593433201313019, 1.4930704832077026, 2.763481616973877, -0.15716895461082458, 0.16215091943740845, -0.791259765625, -0.082763671875, 0.12158203125, 
152, 3434613834, 0.4746286869049072, -0.49605458974838257, -0.4206554889678955, -0.5930324196815491, 9.832327842712402, 0.38121864199638367, 1.4818120002746582, 2.4845166206359863, 0.0092083178460598, 0.08810016512870789, -0.788330078125, -0.082763671875, 0.12158203125, 
153, 3434622167, 0.4747146964073181, -0.4959791600704193, -0.42078787088394165, -0.5929327011108398, 9.827425003051758, 0.3993034064769745, 1.4998208284378052, 2.1909518241882324, -0.1182609274983406, -0.07161738723516464, -0.787841796875, -0.083251953125, 0.12158203125, 
154, 3434630500, 0.4747786819934845, -0.49591565132141113, -0.4209025502204895, -0.5928531289100647, 9.825757026672363, 0.3977632522583008, 1.513586163520813, 1.7885522842407227, -0.11080717295408249, -0.1863691657781601, -0.789306640625, -0.083251953125, 0.1240234375, 
155, 3434638833, 0.4748341739177704, -0.49583473801612854, -0.4210301637649536, -0.5927857160568237, 9.830595970153809, 0.3778846561908722, 1.5103294849395752, 1.3073632717132568, -0.01541976910084486, -0.6054179668426514, -0.788330078125, -0.084228515625, 0.122314453125, 
156, 3434647166, 0.47484397888183594, -0.49577391147613525, -0.42112964391708374, -0.5927581787109375, 9.785361289978027, 0.35949474573135376, 1.4989855289459229, 0.9782972931861877, 0.005212496500462294, -0.8476262092590332, -0.789794921875, -0.082275390625, 0.12158203125, 
157, 3434655499, 0.4748394787311554, -0.4957160949707031, -0.4212353527545929, -0.5927351117134094, 9.747014999389648, 0.3229222595691681, 1.4771407842636108, 0.8092433214187622, -0.08788243681192398, -1.024159550666809, -0.789306640625, -0.084228515625, 0.121337890625, 
158, 3434663832, 0.4748101532459259, -0.4956674575805664, -0.42132502794265747, -0.5927356481552124, 9.732394218444824, 0.3483792245388031, 1.4905809164047241, 0.38942602276802063, -0.06539314240217209, -1.2113484144210815, -0.790771484375, -0.079833984375, 0.123046875, 
159, 3434672165, 0.4747341573238373, -0.49564075469970703, -0.4214004576206207, -0.5927650928497314, 9.721041679382324, 0.33362287282943726, 1.5053586959838867, 0.023014388978481293, -0.18549828231334686, -1.491721749305725, -0.788818359375, -0.085205078125, 0.122802734375, 
160, 3434680498, 0.47465643286705017, -0.4955984950065613, -0.42149049043655396, -0.5927987098693848, 9.7452974319458, 0.3028353750705719, 1.4839389324188232, -0.17271678149700165, -0.17230695486068726, -1.789897084236145, -0.788818359375, -0.083251953125, 0.12109375, 
161, 3434688831, 0.4745725989341736, -0.4955548048019409, -0.4215866029262543, -0.5928339958190918, 9.786044120788574, 0.2758295238018036, 1.4941221475601196, -0.18954533338546753, -0.2011229693889618, -1.8955557346343994, -0.788330078125, -0.084228515625, 0.122314453125, 
162, 3434697164, 0.474488228559494, -0.4954984188079834, -0.42169997096061707, -0.592867910861969, 9.786055564880371, 0.2430974245071411, 1.505312204360962, 0.06358733773231506, -0.24640892446041107, -2.0857160091400146, -0.787841796875, -0.083251953125, 0.123779296875, 
163, 3434705497, 0.4744054973125458, -0.49544018507003784, -0.4218158721923828, -0.5929004549980164, 9.848346710205078, 0.24422097206115723, 1.4983229637145996, 0.42713019251823425, -0.21113815903663635, -2.0355119705200195, -0.789306640625, -0.083251953125, 0.1240234375, 
164, 3434713830, 0.47435522079467773, -0.49535098671913147, -0.42194271087646484, -0.592924952507019, 9.843342781066895, 0.2605254352092743, 1.4744930267333984, 0.67571622133255, 0.06535471230745316, -2.0271873474121094, -0.787353515625, -0.084228515625, 0.121826171875, 
165, 3434722163, 0.4743153750896454, -0.4952576458454132, -0.4220966696739197, -0.5929252505302429, 9.834734916687012, 0.2656669020652771, 1.5126206874847412, 0.8736118674278259, -0.16569849848747253, -2.0286216735839844, -0.788818359375, -0.084228515625, 0.124267578125, 
166, 3434730496, 0.47427454590797424, -0.4951758086681366, -0.42224642634391785, -0.5929197669029236, 9.82763385772705, 0.2797320783138275, 1.4882930517196655, 1.0505039691925049, -0.2935391366481781, -1.869608759880066, -0.788818359375, -0.085693359375, 0.123291015625, 
167, 3434738829, 0.47424086928367615, -0.4951033592224121, -0.4223886728286743, -0.5929056406021118, 9.828083038330078, 0.2966950535774231, 1.5072170495986938, 1.0750166177749634, -0.31011152267456055, -1.6336501836776733, -0.787841796875, -0.083740234375, 0.122802734375, 
168, 3434747162, 0.4742192029953003, -0.4950304925441742, -0.42251166701316833, -0.5928962826728821, 9.830022811889648, 0.29207101464271545, 1.506364107131958, 0.9287337064743042, -0.10745170712471008, -1.4541712999343872, -0.787841796875, -0.084716796875, 0.122802734375, 
169, 3434755495, 0.47420305013656616, -0.4949653446674347, -0.42263269424438477, -0.5928772687911987, 9.819209098815918, 0.2911851704120636, 1.5181983709335327, 0.9373144507408142, -0.1643921583890915, -1.2819411754608154, -0.787353515625, -0.086669921875, 0.121826171875, 
170, 3434763828, 0.47419148683547974, -0.4949011504650116, -0.4227411448955536, -0.5928629040718079, 9.817126274108887, 0.2925012409687042, 1.5139925479888916, 0.8501492142677307, -0.05863098427653313, -1.190011739730835, -0.787353515625, -0.085205078125, 0.122314453125, 
171, 3434772161, 0.47418534755706787, -0.4948279857635498, -0.422853946685791, -0.5928482413291931, 9.790975570678711, 0.29412490129470825, 1.4891432523727417, 0.8491502404212952, 0.037383973598480225, -1.2397034168243408, -0.787353515625, -0.085693359375, 0.122314453125, 
172, 3434780494, 0.4741908311843872, -0.49475041031837463, -0.42295438051223755, -0.5928370952606201, 9.789838790893555, 0.305955708026886, 1.484486699104309, 0.9698188900947571, 0.22324088215827942, -1.09429132938385, -0.787841796875, -0.084228515625, 0.122802734375, 
173, 3434788827, 0.4741940200328827, -0.494671493768692, -0.42305588722229004, -0.5928279161453247, 9.758759498596191, 0.342184841632843, 1.475860357284546, 0.7766364216804504, 0.24777930974960327, -1.163142442703247, -0.790771484375, -0.087158203125, 0.121337890625, 
174, 3434797160, 0.47418051958084106, -0.49460670351982117, -0.42313769459724426, -0.59283447265625, 9.738837242126465, 0.34912312030792236, 1.4556819200515747, 0.5018981099128723, 0.25087860226631165, -1.1625534296035767, -0.786865234375, -0.087646484375, 0.123779296875, 
175, 3434805493, 0.47419536113739014, -0.49453654885292053, -0.4232318699359894, -0.5928138494491577, 9.758235931396484, 0.34821465611457825, 1.4659534692764282, 0.27462300658226013, 0.19068516790866852, -0.9772342443466187, -0.786865234375, -0.087646484375, 0.122802734375, 
176, 3434813826, 0.47416359186172485, -0.4944862127304077, -0.42329615354537964, -0.5928353667259216, 9.76011848449707, 0.3487440049648285, 1.473893404006958, 0.05303427204489708, 0.24419330060482025, -1.2053546905517578, -0.787841796875, -0.084716796875, 0.122802734375, 
177, 3434822159, 0.4741284251213074, -0.4944493770599365, -0.42334693670272827, -0.592857837677002, 9.74979019165039, 0.32553303241729736, 1.4525349140167236, -0.20089243352413177, 0.23261570930480957, -1.0688308477401733, -0.788818359375, -0.086669921875, 0.123779296875, 
178, 3434830492, 0.4740995466709137, -0.4944133162498474, -0.4233816862106323, -0.5928862690925598, 9.752179145812988, 0.3359118103981018, 1.4567766189575195, -0.30122339725494385, 0.3839702010154724, -0.9442432522773743, -0.787353515625, -0.085205078125, 0.121826171875, 
179, 3434838825, 0.4740583300590515, -0.4943946301937103, -0.4234112501144409, -0.5929136872291565, 9.751556396484375, 0.3192099332809448, 1.4754383563995361, -0.5380013585090637, 0.22134540975093842, -0.896446943283081, -0.785400390625, -0.087646484375, 0.12353515625, 
180, 3434847158, 0.47401824593544006, -0.49438413977622986, -0.4234362840652466, -0.592936635017395, 9.765833854675293, 0.3359547257423401, 1.4551314115524292, -0.5907411575317383, 0.13538406789302826, -0.7837188243865967, -0.788330078125, -0.085205078125, 0.123779296875, 
181, 3434855491, 0.4739978313446045, -0.49436452984809875, -0.4234847128391266, -0.5929347276687622, 9.769953727722168, 0.30968233942985535, 1.464165449142456, -0.4778335392475128, 0.012077110819518566, -0.7327976226806641, -0.785888671875, -0.087646484375, 0.123779296875, 
182, 3434863824, 0.47397157549858093, -0.49436211585998535, -0.42351558804512024, -0.5929356217384338, 9.799823760986328, 0.3164060115814209, 1.4637291431427002, -0.37355801463127136, -0.03626975789666176, -0.5221717953681946, -0.788818359375, -0.088623046875, 0.121826171875, 
183, 3434872157, 0.47389930486679077, -0.4943970739841461, -0.42350804805755615, -0.5929697155952454, 9.801061630249023, 0.3120284676551819, 1.4383151531219482, -0.370637983083725, -0.06649455428123474, -0.46072322130203247, -0.785888671875, -0.085693359375, 0.123291015625, 
184, 3434880490, 0.47388723492622375, -0.494403600692749, -0.42354169487953186, -0.5929498076438904, 9.810696601867676, 0.34169846773147583, 1.4688720703125, -0.19085164368152618, -0.18744497001171112, -0.23688043653964996, -0.789306640625, -0.087158203125, 0.124267578125, 
185, 3434888823, 0.47387441992759705, -0.49442341923713684, -0.4235643148422241, -0.5929272174835205, 9.808242797851562, 0.33388039469718933, 1.4534577131271362, -0.4178706705570221, -0.22230595350265503, -0.07627919316291809, -0.787841796875, -0.087158203125, 0.124267578125, 
186, 3434897156, 0.47384941577911377, -0.4944695234298706, -0.4235638380050659, -0.5929091572761536, 9.840466499328613, 0.3231511414051056, 1.4357258081436157, -0.8263408541679382, -0.3498392105102539, 0.1085147112607956, -0.787353515625, -0.086669921875, 0.124267578125, 
187, 3434905489, 0.4738233983516693, -0.49451833963394165, -0.42355066537857056, -0.5928986072540283, 9.825860023498535, 0.33920925855636597, 1.4519126415252686, -1.0967247486114502, -0.22366350889205933, 0.14440026879310608, -0.790771484375, -0.087646484375, 0.124755859375, 
188, 3434913822, 0.4737980365753174, -0.4945822060108185, -0.4235067665576935, -0.5928969979286194, 9.832484245300293, 0.33351561427116394, 1.4619982242584229, -1.3944646120071411, -0.1025594025850296, 0.39667484164237976, -0.787841796875, -0.086181640625, 0.123291015625, 
189, 3434922155, 0.4737757742404938, -0.49464771151542664, -0.42345017194747925, -0.5929005742073059, 9.819973945617676, 0.354602187871933, 1.4336872100830078, -1.474995732307434, 0.048090722411870956, 0.49700576066970825, -0.788330078125, -0.086669921875, 0.123291015625, 
190, 3434930488, 0.4737430512905121, -0.4947296679019928, -0.4233822524547577, -0.5929068922996521, 9.83580207824707, 0.3477330207824707, 1.4427067041397095, -1.8040618896484375, -0.08306697010993958, 0.554535448551178, -0.787353515625, -0.087646484375, 0.124267578125, 
191, 3434938821, 0.47368404269218445, -0.4948461353778839, -0.4232938289642334, -0.5929200053215027, 9.846092224121094, 0.3101099729537964, 1.4848723411560059, -2.1224725246429443, -0.3012746572494507, 0.6883442401885986, -0.788818359375, -0.085693359375, 0.123779296875, 
192, 3434947154, 0.4736401438713074, -0.49495673179626465, -0.4232029914855957, -0.5929275751113892, 9.83883285522461, 0.2894270420074463, 1.5073528289794922, -2.2615835666656494, -0.22151191532611847, 0.776687741279602, -0.785888671875, -0.0869140625, 0.126220703125, 
193, 3434955487, 0.4735928773880005, -0.49508169293403625, -0.4230940639972687, -0.5929386615753174, 9.836222648620605, 0.2690480649471283, 1.4837756156921387, -2.3513612747192383, -0.1846017986536026, 0.9713814854621887, -0.788818359375, -0.086181640625, 0.124267578125, 
194, 3434963820, 0.4735783040523529, -0.49519166350364685, -0.4230044484138489, -0.5929225087165833, 9.83978271484375, 0.27810782194137573, 1.501043438911438, -1.9099253416061401, -0.21674765646457672, 1.1581604480743408, -0.788330078125, -0.08642578125, 0.125244140625, 
195, 3434972153, 0.47359275817871094, -0.4952719509601593, -0.4229423701763153, -0.5928882360458374, 9.861479759216309, 0.29090383648872375, 1.4936614036560059, -1.5068086385726929, -0.09613022953271866, 1.1104413270950317, -0.787841796875, -0.086669921875, 0.123779296875, 
196, 3434980486, 0.47359976172447205, -0.49535033106803894, -0.4228828549385071, -0.59285968542099, 9.831625938415527, 0.29458263516426086, 1.4760682582855225, -1.239908218383789, -0.11459808796644211, 1.0281680822372437, -0.787353515625, -0.086669921875, 0.122314453125, 
197, 3434988819, 0.4736621677875519, -0.4953937530517578, -0.4228554964065552, -0.5927931666374207, 9.839028358459473, 0.27933284640312195, 1.4916400909423828, -1.1221851110458374, 0.011283069849014282, 1.1568796634674072, -0.790283203125, -0.085693359375, 0.121337890625, 
198, 3434997152, 0.4736923277378082, -0.495453804731369, -0.4227990508079529, -0.5927590727806091, 9.801233291625977, 0.27291667461395264, 1.4952515363693237, -0.9057192802429199, 0.11243367940187454, 1.1254510879516602, -0.789306640625, -0.086669921875, 0.122802734375, 
199, 3435005485, 0.47367924451828003, -0.4955388009548187, -0.4227229952812195, -0.5927525162696838, 9.818764686584473, 0.27672919631004333, 1.494665265083313, -0.8237024545669556, 0.031134100630879402, 1.011775016784668, -0.788818359375, -0.084228515625, 0.122802734375, 
200, 3435013818, 0.4737095534801483, -0.49558794498443604, -0.4226784408092499, -0.5927190780639648, 9.80722713470459, 0.26917579770088196, 1.484772801399231, -0.7400720119476318, 0.12910854816436768, 0.9752491116523743, -0.787841796875, -0.086181640625, 0.123291015625, 
201, 3435022151, 0.47374969720840454, -0.49562332034111023, -0.4226531982421875, -0.5926753282546997, 9.80344295501709, 0.25718048214912415, 1.479443907737732, -0.16833674907684326, 0.13430823385715485, 0.9495068788528442, -0.787841796875, -0.084716796875, 0.122802734375, 
202, 3435030484, 0.47381481528282166, -0.4956389367580414, -0.42265555262565613, -0.5926084518432617, 9.792241096496582, 0.26213735342025757, 1.4929273128509521, 0.292885959148407, 0.07122036814689636, 0.9636715054512024, -0.786376953125, -0.084716796875, 0.123291015625, 
203, 3435038817, 0.4738978147506714, -0.49564820528030396, -0.4226767420768738, -0.592519223690033, 9.817033767700195, 0.2529030740261078, 1.4891575574874878, 0.4795624613761902, -0.03240200877189636, 1.055626630783081, -0.788818359375, -0.086669921875, 0.124755859375, 
204, 3435047150, 0.4739968180656433, -0.4956585764884949, -0.4226873815059662, -0.5924237966537476, 9.823613166809082, 0.2765718102455139, 1.4760395288467407, 0.79018634557724, 0.06292136758565903, 1.339048147201538, -0.788330078125, -0.084228515625, 0.123291015625, 
205, 3435055483, 0.47407886385917664, -0.49568286538124084, -0.4226878881454468, -0.5923373699188232, 9.831941604614258, 0.27928993105888367, 1.4880412817001343, 0.7257152795791626, 0.01407502219080925, 1.339099407196045, -0.787353515625, -0.08740234375, 0.126220703125, 
206, 3435063816, 0.4741799533367157, -0.49569466710090637, -0.42268723249435425, -0.5922470688819885, 9.83383560180664, 0.2831810414791107, 1.4664114713668823, 0.6756650805473328, 0.16975833475589752, 1.4105631113052368, -0.789306640625, -0.085205078125, 0.124755859375, 
207, 3435072149, 0.4742937684059143, -0.495697021484375, -0.4226989150047302, -0.5921456813812256, 9.844958305358887, 0.3094033896923065, 1.4532073736190796, 0.8036081194877625, 0.18484510481357574, 1.4220637083053589, -0.788818359375, -0.084228515625, 0.122802734375, 
208, 3435080482, 0.4743950366973877, -0.4957026541233063, -0.42269980907440186, -0.5920592546463013, 9.84253215789795, 0.3134090304374695, 1.4621988534927368, 0.7065558433532715, 0.23819956183433533, 1.337332010269165, -0.787841796875, -0.086181640625, 0.122802734375, 
209, 3435088815, 0.4744552969932556, -0.49573802947998047, -0.42265987396240234, -0.5920099020004272, 9.824657440185547, 0.33561140298843384, 1.4556037187576294, 0.30415618419647217, 0.32562094926834106, 1.314689040184021, -0.787353515625, -0.08203125, 0.125, 
210, 3435097148, 0.4745291769504547, -0.49576959013938904, -0.4226253032684326, -0.591948926448822, 9.831202507019043, 0.3350677490234375, 1.4746229648590088, -0.08626875281333923, 0.27318862080574036, 1.3406363725662231, -0.789306640625, -0.083251953125, 0.123046875, 
211, 3435105481, 0.474560409784317, -0.49582913517951965, -0.4225613474845886, -0.5919197201728821, 9.795024871826172, 0.3236876130104065, 1.4674557447433472, -0.458981454372406, 0.2503919303417206, 1.2366936206817627, -0.788330078125, -0.083740234375, 0.123291015625, 
212, 3435113814, 0.4745981693267822, -0.49588194489479065, -0.4225028157234192, -0.5918869376182556, 9.780004501342773, 0.28986889123916626, 1.4651952981948853, -0.8294145464897156, 0.23917289078235626, 1.1496052742004395, -0.788818359375, -0.083740234375, 0.1240234375, 
213, 3435122147, 0.47462812066078186, -0.4959438741207123, -0.4224206805229187, -0.5918697118759155, 9.781716346740723, 0.28124818205833435, 1.4738165140151978, -1.2228748798370361, 0.4046665132045746, 1.2059568166732788, -0.789794921875, -0.083740234375, 0.12451171875, 
214, 3435130480, 0.4746660888195038, -0.4959995150566101, -0.42233967781066895, -0.5918504595756531, 9.777458190917969, 0.26791226863861084, 1.4847322702407837, -1.1074059009552002, 0.4564841091632843, 1.2324930429458618, -0.785888671875, -0.08203125, 0.12353515625, 
215, 3435138813, 0.47469156980514526, -0.496061235666275, -0.422268271446228, -0.5918292999267578, 9.770419120788574, 0.24934810400009155, 1.4917397499084473, -1.0549222230911255, 0.2864311635494232, 1.133750081062317, -0.788330078125, -0.082275390625, 0.123046875, 
216, 3435147146, 0.47472846508026123, -0.4960987865924835, -0.422213613986969, -0.5918072462081909, 9.778974533081055, 0.26673686504364014, 1.4560832977294922, -0.7669157981872559, 0.40617772936820984, 0.9573704600334167, -0.787841796875, -0.082763671875, 0.12255859375, 
217, 3435155479, 0.4747559130191803, -0.49614354968070984, -0.42215219140052795, -0.5917913317680359, 9.798221588134766, 0.2321169078350067, 1.4524776935577393, -0.6703757047653198, 0.4135546386241913, 0.9809355735778809, -0.790771484375, -0.081787109375, 0.123046875, 
218, 3435163812, 0.4748097062110901, -0.4961511492729187, -0.4221210479736328, -0.591763973236084, 9.825759887695312, 0.24291770160198212, 1.4689149856567383, -0.23521552979946136, 0.5588385462760925, 0.7953347563743591, -0.791259765625, -0.08154296875, 0.125, 
219, 3435172145, 0.47489961981773376, -0.4961378574371338, -0.4221169352531433, -0.5917062163352966, 9.849486351013184, 0.23133009672164917, 1.4710537195205688, 0.12454922497272491, 0.5635004043579102, 0.9237901568412781, -0.787841796875, -0.082275390625, 0.123046875, 
220, 3435180478, 0.4749816954135895, -0.4961111545562744, -0.4221131503582001, -0.5916653275489807, 9.828728675842285, 0.21809732913970947, 1.4813752174377441, 0.48350706696510315, 0.7309405207633972, 0.7267398834228516, -0.788330078125, -0.0791015625, 0.1259765625, 
221, 3435188811, 0.4751034080982208, -0.4960573613643646, -0.4221520721912384, -0.5915848612785339, 9.827390670776367, 0.2246350347995758, 1.474029302597046, 0.4917292892932892, 0.6221057772636414, 0.7101674675941467, -0.789306640625, -0.082275390625, 0.12255859375, 
222, 3435197144, 0.47518178820610046, -0.4960302710533142, -0.422163724899292, -0.5915363430976868, 9.824243545532227, 0.23290346562862396, 1.485094428062439, 0.6308403015136719, 0.5592484474182129, 0.6393442153930664, -0.791748046875, -0.082275390625, 0.12255859375, 
223, 3435205477, 0.47526898980140686, -0.49599504470825195, -0.42217177152633667, -0.5914900898933411, 9.83944320678711, 0.22713853418827057, 1.4804668426513672, 0.7402130365371704, 0.7423132658004761, 0.6855778098106384, -0.790283203125, -0.081787109375, 0.12353515625, 
224, 3435213810, 0.475355863571167, -0.49595656991004944, -0.422172486782074, -0.5914520025253296, 9.839922904968262, 0.23611535131931305, 1.4965249300003052, 0.6151898503303528, 0.8433102369308472, 0.6521511673927307, -0.790771484375, -0.082763671875, 0.1240234375, 
225, 3435222143, 0.47543060779571533, -0.4959300756454468, -0.4221544861793518, -0.5914270281791687, 9.838155746459961, 0.2288552075624466, 1.4885996580123901, 0.501411497592926, 0.9218947887420654, 0.7111664414405823, -0.788818359375, -0.080322265625, 0.123046875, 
226, 3435230476, 0.4755302667617798, -0.49588507413864136, -0.42214834690093994, -0.5913891792297363, 9.784996032714844, 0.2326819747686386, 1.4800305366516113, 0.6866791844367981, 1.0172821283340454, 0.7612934708595276, -0.787841796875, -0.081787109375, 0.12255859375, 
227, 3435238809, 0.4756181240081787, -0.4958346486091614, -0.4221462309360504, -0.5913620591163635, 9.767828941345215, 0.22124458849430084, 1.5032914876937866, 0.6833238005638123, 1.0678447484970093, 0.5518971681594849, -0.788818359375, -0.083251953125, 0.1240234375, 
228, 3435247142, 0.4757164418697357, -0.4957544207572937, -0.42215341329574585, -0.5913452506065369, 9.767836570739746, 0.21897713840007782, 1.4665402173995972, 0.8938983678817749, 1.3509330749511719, 0.3173987865447998, -0.789794921875, -0.080810546875, 0.1220703125, 
229, 3435255475, 0.47585612535476685, -0.49559348821640015, -0.4222358465194702, -0.5913088321685791, 9.723686218261719, 0.19468805193901062, 1.3723169565200806, 2.554238796234131, 1.6521308422088623, -0.1750732809305191, -0.789794921875, -0.082763671875, 0.123046875, 
230, 3435263808, 0.47602152824401855, -0.4953696131706238, -0.42239072918891907, -0.5912526845932007, 9.706758499145508, 0.2846425175666809, 1.4849251508712769, 3.720172643661499, 1.6754142045974731, -0.720989465713501, -0.791748046875, -0.08203125, 0.12548828125, 
231, 3435272141, 0.47607749700546265, -0.4951823353767395, -0.42244741320610046, -0.5913240313529968, 9.726277351379395, 0.4767705202102661, 1.561773657798767, 2.0751757621765137, 2.3096485137939453, -1.4211291074752808, -0.790771484375, -0.080810546875, 0.12353515625, 
232, 3435280474, 0.47612813115119934, -0.4949546158313751, -0.422507643699646, -0.5914307832717896, 9.772420883178711, 0.5356159210205078, 1.449431300163269, 1.24683678150177, 2.7698333263397217, -2.0972676277160645, -0.789794921875, -0.0810546875, 0.12451171875, 
233, 3435288807, 0.4761067032814026, -0.49476200342178345, -0.42252466082572937, -0.5915969014167786, 9.889488220214844, 0.37862488627433777, 1.4182332754135132, 0.16758112609386444, 2.7886855602264404, -2.5170340538024902, -0.791259765625, -0.082763671875, 0.123046875, 
234, 3435297140, 0.4761008024215698, -0.4945612847805023, -0.42253807187080383, -0.5917600989341736, 10.063478469848633, 0.253255158662796, 1.491209626197815, -0.022156311199069023, 2.912044048309326, -2.449873447418213, -0.790283203125, -0.082275390625, 0.12158203125, 
235, 3435305473, 0.47611814737319946, -0.49434971809387207, -0.42251625657081604, -0.5919385552406311, 10.186981201171875, 0.28790056705474854, 1.6070637702941895, 0.18064437806606293, 3.507779121398926, -2.126211643218994, -0.788818359375, -0.083251953125, 0.1220703125, 
236, 3435313806, 0.47622308135032654, -0.4941042363643646, -0.4224599301815033, -0.5920993685722351, 10.229594230651855, 0.34805867075920105, 1.6722453832626343, 0.4710841774940491, 4.360861778259277, -1.3210029602050781, -0.789794921875, -0.083251953125, 0.1220703125, 
237, 3435322139, 0.4763574004173279, -0.49388304352760315, -0.4223172962665558, -0.5922772884368896, 10.22607135772705, 0.2945328652858734, 1.6742393970489502, -0.03278622031211853, 5.0497565269470215, -0.41758888959884644, -0.791748046875, -0.082275390625, 0.1240234375, 
238, 3435330472, 0.47658875584602356, -0.49359703063964844, -0.42209529876708984, -0.5924878120422363, 10.144997596740723, 0.26634976267814636, 1.7091513872146606, -0.04318559914827347, 6.847645282745361, 0.2764928340911865, -0.791259765625, -0.08154296875, 0.11767578125, 
239, 3435338805, 0.4770319163799286, -0.493142694234848, -0.4218599498271942, -0.5926770567893982, 9.997544288635254, 0.21222059428691864, 1.6976004838943481, 1.1704298257827759, 9.368292808532715, 1.0407449007034302, -0.793212890625, -0.081787109375, 0.123046875, 
240, 3435347138, 0.4775826930999756, -0.4926129877567291, -0.4215887188911438, -0.5928671360015869, 9.823505401611328, 0.19482851028442383, 1.5896055698394775, 3.439159631729126, 10.872308731079102, 1.9317617416381836, -0.791748046875, -0.08056640625, 0.11669921875, 
241, 3435355471, 0.478215754032135, -0.49200621247291565, -0.4213302433490753, -0.5930444002151489, 9.6145601272583, 0.3219805359840393, 1.610463261604309, 4.767027378082275, 11.833892822265625, 2.1701278686523438, -0.789794921875, -0.08203125, 0.1171875, 
242, 3435363804, 0.47885754704475403, -0.49129629135131836, -0.4210243821144104, -0.5933322906494141, 9.4329833984375, 0.5983292460441589, 1.594757080078125, 4.39167594909668, 13.759058952331543, 1.2208384275436401, -0.792724609375, -0.08203125, 0.11669921875, 
243, 3435372137, 0.4793214499950409, -0.4906163513660431, -0.4206254184246063, -0.5938031077384949, 9.278022766113281, 1.0459799766540527, 1.5536123514175415, 1.3141255378723145, 14.360917091369629, -0.6044703722000122, -0.793212890625, -0.080322265625, 0.112548828125, 
244, 3435380470, 0.4793894588947296, -0.4901924133300781, -0.4199441075325012, -0.5945801138877869, 9.314531326293945, 1.4463666677474976, 1.6454782485961914, -7.262558937072754, 13.880548477172852, -2.5000522136688232, -0.791748046875, -0.081787109375, 0.111328125, 
245, 3435388803, 0.47892284393310547, -0.4901367723941803, -0.418779581785202, -0.5958218574523926, 9.53572940826416, 1.5260854959487915, 1.783410668373108, -19.735218048095703, 14.128447532653809, -4.507800579071045, -0.792724609375, -0.0830078125, 0.107421875, 
246, 3435397136, 0.47806814312934875, -0.49038711190223694, -0.41718894243240356, -0.5974161028862, 9.78378677368164, 1.2866464853286743, 1.8204301595687866, -30.080951690673828, 14.539408683776855, -5.4182610511779785, -0.795654296875, -0.081787109375, 0.106201171875, 
247, 3435405469, 0.4770396053791046, -0.49081891775131226, -0.4153786599636078, -0.5991427302360535, 9.988959312438965, 0.871005654335022, 1.8628745079040527, -36.97220230102539, 14.34121322631836, -5.527431964874268, -0.793701171875, -0.084228515625, 0.1044921875, 
248, 3435413802, 0.47577279806137085, -0.49146613478660583, -0.4132595658302307, -0.6010818481445312, 9.987781524658203, 0.5950723886489868, 1.868220329284668, -41.79026412963867, 14.712162971496582, -5.237428665161133, -0.794189453125, -0.08544921875, 0.10107421875, 
249, 3435422135, 0.47442883253097534, -0.4922194480895996, -0.4111776053905487, -0.6029524803161621, 9.911734580993652, 0.5252184867858887, 1.811242699623108, -42.16337966918945, 12.718141555786133, -5.036023139953613, -0.793212890625, -0.0869140625, 0.097412109375, 
250, 3435430468, 0.4730745553970337, -0.4930245280265808, -0.4090859889984131, -0.6047788858413696, 9.981486320495605, 0.5599393844604492, 1.8820890188217163, -42.54719161987305, 11.968337059020996, -4.5120062828063965, -0.792236328125, -0.086669921875, 0.093505859375, 
251, 3435438801, 0.47162333130836487, -0.4939184784889221, -0.40675586462020874, -0.6067511439323425, 10.035335540771484, 0.5166555643081665, 1.7267311811447144, -43.95154571533203, 13.336806297302246, -3.6485495567321777, -0.793212890625, -0.08935546875, 0.091552734375, 
252, 3435447134, 0.4704204201698303, -0.49471867084503174, -0.4044798016548157, -0.608552098274231, 9.94775390625, 0.31793200969696045, 1.5436125993728638, -42.882423400878906, 13.879186630249023, -1.85867440700531, -0.79296875, -0.0908203125, 0.088623046875, 
253, 3435455467, 0.46929898858070374, -0.49556130170822144, -0.40212777256965637, -0.6102886199951172, 9.850221633911133, 0.14829859137535095, 1.555498480796814, -42.87407684326172, 14.054594039916992, 0.006185849197208881, -0.79345703125, -0.091064453125, 0.086669921875, 
254, 3435463800, 0.46818575263023376, -0.49652940034866333, -0.3996518850326538, -0.6119809150695801, 9.892492294311523, 0.07171057164669037, 1.6020658016204834, -44.42948532104492, 13.520051002502441, 1.8855571746826172, -0.79443359375, -0.091796875, 0.079833984375, 
255, 3435472133, 0.46694254875183105, -0.49770915508270264, -0.3969435393810272, -0.6137324571609497, 9.941279411315918, 0.11308793723583221, 1.8497533798217773, -48.95539474487305, 12.951086044311523, 3.1745715141296387, -0.7939453125, -0.091552734375, 0.077880859375, 
256, 3435480466, 0.46551379561424255, -0.49907273054122925, -0.3938186466693878, -0.6157205700874329, 9.937569618225098, 0.20980289578437805, 2.0874013900756836, -56.21833801269531, 14.657058715820312, 3.9292221069335938, -0.79443359375, -0.093017578125, 0.07421875, 
257, 3435488799, 0.46397027373313904, -0.5005326867103577, -0.3904719948768616, -0.6178281307220459, 9.842977523803711, 0.26462358236312866, 2.0064523220062256, -60.14265823364258, 15.481283187866211, 4.251580715179443, -0.7978515625, -0.0927734375, 0.072509765625, 
258, 3435497132, 0.4623940587043762, -0.5020506978034973, -0.38715726137161255, -0.6198607683181763, 9.75696086883545, 0.27848899364471436, 2.004625082015991, -60.06904220581055, 14.070061683654785, 4.529393196105957, -0.79638671875, -0.092529296875, 0.066162109375, 
259, 3435505465, 0.4607754647731781, -0.503614604473114, -0.3837776780128479, -0.6218958497047424, 9.726672172546387, 0.2876066565513611, 2.044358491897583, -61.212833404541016, 13.90528678894043, 4.859024524688721, -0.79931640625, -0.09228515625, 0.063720703125, 
260, 3435513798, 0.4590989947319031, -0.5052483677864075, -0.3803371787071228, -0.6239209771156311, 9.672714233398438, 0.1102193221449852, 1.8613697290420532, -62.53215026855469, 13.297408103942871, 5.2027435302734375, -0.79638671875, -0.09130859375, 0.058837890625, 
261, 3435522131, 0.4574223756790161, -0.5068483352661133, -0.37694257497787476, -0.6259114742279053, 9.46362018585205, -0.25274553894996643, 1.6121373176574707, -61.73924255371094, 13.077560424804688, 4.940708637237549, -0.79736328125, -0.094482421875, 0.056640625, 
262, 3435530464, 0.45580530166625977, -0.5083457231521606, -0.3737751841545105, -0.6277734637260437, 9.258427619934082, -0.48034656047821045, 1.5213159322738647, -58.06125259399414, 11.922706604003906, 4.13075590133667, -0.796875, -0.09326171875, 0.0537109375, 
263, 3435538797, 0.45421046018600464, -0.5097379088401794, -0.3708716034889221, -0.6295201778411865, 9.100982666015625, -0.4277118444442749, 1.7250703573226929, -54.37208938598633, 10.509252548217773, 2.6734800338745117, -0.79833984375, -0.092529296875, 0.048583984375, 
264, 3435547130, 0.4524778723716736, -0.5110303163528442, -0.36788931488990784, -0.6314669847488403, 9.016443252563477, -0.24316564202308655, 2.111326217651367, -56.421836853027344, 12.540778160095215, 0.2606640160083771, -0.79931640625, -0.09326171875, 0.045166015625, 
265, 3435555463, 0.45040979981422424, -0.5124119520187378, -0.3648175001144409, -0.6336044669151306, 8.89171028137207, 0.024408334866166115, 2.240828514099121, -61.07075119018555, 11.987964630126953, -2.7434606552124023, -0.80078125, -0.094482421875, 0.040771484375, 
266, 3435563796, 0.44809192419052124, -0.5139244198799133, -0.36212241649627686, -0.6355661749839783, 8.985594749450684, 0.18168000876903534, 2.183727741241455, -59.48197937011719, 6.00040864944458, -5.845583438873291, -0.79833984375, -0.095458984375, 0.03857421875, 
267, 3435572129, 0.4455273449420929, -0.5154616236686707, -0.35935553908348083, -0.6376909613609314, 9.478551864624023, 0.1737276017665863, 2.5872693061828613, -62.813411712646484, 6.171361923217773, -8.360068321228027, -0.798828125, -0.09765625, 0.0361328125, 
268, 3435580462, 0.4429004490375519, -0.5169540643692017, -0.35662969946861267, -0.6398393511772156, 9.93924617767334, -0.1471213549375534, 2.5480246543884277, -62.74226760864258, 6.151843547821045, -9.579103469848633, -0.797607421875, -0.09814453125, 0.03271484375, 
269, 3435588795, 0.4404328465461731, -0.518413782119751, -0.3540915250778198, -0.6417683362960815, 10.34515380859375, -0.8137998580932617, 2.7959823608398438, -58.678680419921875, 4.538010597229004, -8.321257591247559, -0.796630859375, -0.102294921875, 0.030517578125, 
270, 3435597128, 0.43843141198158264, -0.5196900367736816, -0.3513960838317871, -0.6435856819152832, 10.711977005004883, -1.814407229423523, 2.812401294708252, -55.093055725097656, 8.562400817871094, -3.3156306743621826, -0.799072265625, -0.1044921875, 0.027587890625, 
271, 3435605461, 0.4373040795326233, -0.5204166769981384, -0.3486873507499695, -0.6452367305755615, 10.791643142700195, -2.5725648403167725, 2.7421438694000244, -44.84115219116211, 16.561634063720703, 2.872847080230713, -0.797119140625, -0.100830078125, 0.021240234375, 
272, 3435613794, 0.4381369650363922, -0.5194368958473206, -0.3460521996021271, -0.6468775868415833, 10.6996431350708, -2.9444198608398438, 3.636185646057129, -19.855255126953125, 40.569000244140625, 11.605728149414062, -0.800048828125, -0.104248046875, 0.019287109375, 
273, 3435622127, 0.4391469657421112, -0.5186074376106262, -0.34355679154396057, -0.648186981678009, 10.015578269958496, -2.7980806827545166, 3.857818126678467, -16.670732498168945, 36.88099670410156, 14.90115737915039, -0.799560546875, -0.10009765625, 0.011962890625, 
274, 3435630460, 0.4382902979850769, -0.5200784802436829, -0.34084638953208923, -0.6490185260772705, 9.47589111328125, -1.6292446851730347, 1.5455536842346191, -43.53934860229492, 5.43130350112915, 13.545549392700195, -0.800537109375, -0.098876953125, 0.0107421875, 
275, 3435638793, 0.4365675449371338, -0.5226028561592102, -0.3374277353286743, -0.6499377489089966, 9.669803619384766, -0.6565659046173096, 0.9493931531906128, -62.8108024597168, -3.1214003562927246, 15.289653778076172, -0.801513671875, -0.09765625, 0.00634765625, 
276, 3435647126, 0.4356844425201416, -0.5243103504180908, -0.33370041847229004, -0.651078462600708, 10.360173225402832, -0.25747305154800415, 2.305955648422241, -55.66248321533203, 11.508514404296875, 19.890316009521484, -0.8017578125, -0.09423828125, 0.004150390625, 
277, 3435655459, 0.436103880405426, -0.5244643092155457, -0.3299899101257324, -0.6525631546974182, 10.493220329284668, -1.1631388664245605, 3.416684150695801, -38.38617706298828, 33.78993225097656, 22.24361801147461, -0.801513671875, -0.09423828125, 0.001220703125, 
278, 3435663792, 0.43688061833381653, -0.5244144797325134, -0.325935423374176, -0.6541195511817932, 10.121731758117676, -2.9040472507476807, 3.218698501586914, -38.00430679321289, 39.80490493774414, 26.573699951171875, -0.80419921875, -0.089111328125, -0.00390625, 
279, 3435672125, 0.43798333406448364, -0.5247520208358765, -0.32204148173332214, -0.6550395488739014, 9.509523391723633, -3.6656737327575684, 3.1473467350006104, -33.678707122802734, 32.23937225341797, 33.90788650512695, -0.802734375, -0.0859375, -0.0087890625, 
280, 3435680458, 0.43946343660354614, -0.5253650546073914, -0.3181290030479431, -0.6554685831069946, 9.496747016906738, -2.9533326625823975, 3.3319337368011475, -30.612470626831055, 27.985605239868164, 41.618309020996094, -0.8046875, -0.08154296875, -0.012451171875, 
281, 3435688791, 0.4409498870372772, -0.5262240767478943, -0.3134673833847046, -0.6560268402099609, 9.867731094360352, -1.7490733861923218, 3.460476875305176, -39.36735916137695, 31.270116806030273, 47.37316131591797, -0.807373046875, -0.074462890625, -0.017822265625, 
282, 3435697124, 0.44250360131263733, -0.52696293592453, -0.3084501028060913, -0.6567652225494385, 10.133742332458496, -0.8643826842308044, 2.9744503498077393, -42.141082763671875, 36.090065002441406, 48.956207275390625, -0.807373046875, -0.06787109375, -0.02294921875, 
283, 3435705457, 0.44408711791038513, -0.527599573135376, -0.30347710847854614, -0.6575015783309937, 10.252486228942871, -0.7941598296165466, 3.0127782821655273, -40.889034271240234, 36.867156982421875, 48.468448638916016, -0.80859375, -0.06298828125, -0.031982421875, 
284, 3435713790, 0.445773720741272, -0.5278787612915039, -0.2980141043663025, -0.6586340069770813, 10.328227996826172, -1.4139866828918457, 3.0659003257751465, -44.047115325927734, 46.38536071777344, 49.05813980102539, -0.81103515625, -0.05419921875, -0.034912109375, 
285, 3435722123, 0.4478904604911804, -0.5277469754219055, -0.29257911443710327, -0.6597395539283752, 10.1222505569458, -2.0959558486938477, 2.5621986389160156, -38.03481674194336, 51.512916564941406, 51.219215393066406, -0.811767578125, -0.047607421875, -0.044921875, 
286, 3435730456, 0.4504939615726471, -0.5273387432098389, -0.28740769624710083, -0.6605660915374756, 9.745859146118164, -2.3897767066955566, 2.416994571685791, -29.290672302246094, 52.322147369384766, 54.342166900634766, -0.811279296875, -0.039794921875, -0.053955078125, 
287, 3435738789, 0.45361992716789246, -0.526814877986908, -0.282654345035553, -0.6608956456184387, 9.77400016784668, -1.9829349517822266, 2.7846240997314453, -19.018531799316406, 49.25368881225586, 58.660282135009766, -0.81494140625, -0.03369140625, -0.060302734375, 
288, 3435747122, 0.4567192494869232, -0.5263532996177673, -0.27740973234176636, -0.6613509654998779, 10.042268753051758, -1.2351032495498657, 3.773739814758301, -24.56010627746582, 52.548587799072266, 61.45155334472656, -0.8154296875, -0.0244140625, -0.0634765625, 
289, 3435755455, 0.4593869149684906, -0.5259987711906433, -0.2715834975242615, -0.6622028946876526, 9.999002456665039, -0.6728827357292175, 3.4061331748962402, -35.1546630859375, 56.461952209472656, 59.63588333129883, -0.814697265625, -0.015380859375, -0.072265625, 
290, 3435763788, 0.46192246675491333, -0.525633692741394, -0.26600295305252075, -0.662993848323822, 9.898433685302734, -0.6026377081871033, 2.9280037879943848, -33.58454895019531, 54.062530517578125, 57.01963424682617, -0.8193359375, -0.00537109375, -0.08056640625, 
291, 3435772121, 0.46483492851257324, -0.5251038670539856, -0.261299729347229, -0.6632483005523682, 9.987483024597168, -0.6545994877815247, 2.567190408706665, -19.844013214111328, 47.50138473510742, 56.902931213378906, -0.8203125, 0.00146484375, -0.088134765625, 
292, 3435780454, 0.46800997853279114, -0.524510383605957, -0.25704267621040344, -0.6631485223770142, 10.427339553833008, -0.8555184602737427, 2.9674243927001953, -12.20536994934082, 43.60496139526367, 58.12821578979492, -0.8203125, 0.00927734375, -0.094482421875, 
293, 3435788787, 0.4711371660232544, -0.523693859577179, -0.25265374779701233, -0.6632663011550903, 10.547181129455566, -1.1063356399536133, 3.129373073577881, -13.07884693145752, 47.89945983886719, 56.440643310546875, -0.818603515625, 0.018798828125, -0.1015625, 
294, 3435797120, 0.4743441641330719, -0.5229301452636719, -0.24864313006401062, -0.6630986928939819, 10.361212730407715, -1.2220373153686523, 3.1591861248016357, -8.412187576293945, 43.17776107788086, 56.49068832397461, -0.820556640625, 0.025390625, -0.107421875, 
295, 3435805453, 0.477715402841568, -0.5219844579696655, -0.244850754737854, -0.6628345251083374, 10.24747085571289, -1.0164027214050293, 3.383328437805176, -3.7150027751922607, 43.29306411743164, 56.41475296020508, -0.8203125, 0.03369140625, -0.109130859375, 
296, 3435813786, 0.4811605215072632, -0.5207431316375732, -0.241037517786026, -0.662716805934906, 10.035782814025879, -0.8762015104293823, 3.1318817138671875, -1.9342679977416992, 47.41157913208008, 55.291446685791016, -0.81982421875, 0.042236328125, -0.115966796875, 
297, 3435822119, 0.48444223403930664, -0.519396185874939, -0.23719872534275055, -0.6627681255340576, 9.453691482543945, -0.9475508332252502, 2.894369602203369, -3.1918551921844482, 49.22512435913086, 52.50680160522461, -0.822021484375, 0.04638671875, -0.1220703125, 
298, 3435830452, 0.48766130208969116, -0.5177207589149475, -0.2335982620716095, -0.6629970073699951, 9.153729438781738, -1.137385606765747, 2.82742977142334, 0.13433444499969482, 51.68492126464844, 47.98823547363281, -0.822509765625, 0.05712890625, -0.12890625, 
299, 3435838785, 0.49077093601226807, -0.516079843044281, -0.23034435510635376, -0.6631203889846802, 8.746993064880371, -1.1086924076080322, 2.8861093521118164, 2.6300668716430664, 47.95519256591797, 45.3359489440918, -0.8193359375, 0.064453125, -0.13818359375, 
300, 3435847118, 0.49368780851364136, -0.5145208239555359, -0.22725580632686615, -0.6632324457168579, 8.518986701965332, -0.924911618232727, 3.173344373703003, 2.2455945014953613, 45.388153076171875, 42.7449836730957, -0.8203125, 0.06884765625, -0.141845703125, 
301, 3435855451, 0.49608147144317627, -0.5133839845657349, -0.2237214744091034, -0.6635286808013916, 8.364152908325195, -0.5623361468315125, 3.4119808673858643, -8.953306198120117, 44.24570846557617, 41.194149017333984, -0.82373046875, 0.07373046875, -0.150146484375, 
302, 3435863784, 0.4979361891746521, -0.5126393437385559, -0.21985900402069092, -0.6640060544013977, 8.21617603302002, -0.5140340924263, 3.0079517364501953, -18.995038986206055, 42.510711669921875, 38.56756591796875, -0.820556640625, 0.0810546875, -0.15380859375, 
303, 3435872117, 0.49916398525238037, -0.5122032165527344, -0.2156682312488556, -0.6647945046424866, 8.079057693481445, -0.5954424738883972, 3.3885178565979004, -29.457338333129883, 42.25751876831055, 33.959815979003906, -0.817626953125, 0.085205078125, -0.16064453125, 
304, 3435880450, 0.4997825026512146, -0.5123870968818665, -0.21168333292007446, -0.6654688119888306, 7.809063911437988, -0.39297959208488464, 2.9027023315429688, -35.79320526123047, 32.54841613769531, 29.561100006103516, -0.817626953125, 0.092041015625, -0.163818359375, 
305, 3435888783, 0.499941885471344, -0.5128239989280701, -0.20739617943763733, -0.6663619875907898, 8.886903762817383, -1.521834135055542, 2.764068365097046, -44.158138275146484, 32.52922439575195, 26.728734970092773, -0.818115234375, 0.095703125, -0.169921875, 
306, 3435897116, 0.4999941289424896, -0.5128479599952698, -0.20263686776161194, -0.6677669882774353, 8.953476905822754, -2.2963008880615234, 3.329015016555786, -47.873470306396484, 42.850013732910156, 24.372772216796875, -0.818115234375, 0.1005859375, -0.173583984375, 
307, 3435905449, 0.49994295835494995, -0.5128294229507446, -0.19821643829345703, -0.6691449284553528, 8.06589126586914, -2.519320011138916, 3.1560511589050293, -45.1144905090332, 40.44682693481445, 21.106346130371094, -0.81640625, 0.106201171875, -0.181396484375, 
308, 3435913782, 0.49965861439704895, -0.5130104422569275, -0.19406332075595856, -0.6704347729682922, 7.8661699295043945, -2.435037612915039, 3.2471230030059814, -45.44071578979492, 35.50048065185547, 18.22165298461914, -0.81494140625, 0.10888671875, -0.185546875, 
309, 3435922115, 0.4995079040527344, -0.5130283832550049, -0.1905074566602707, -0.6715520024299622, 8.35229778289795, -2.14162540435791, 3.321465492248535, -37.40040588378906, 32.057098388671875, 15.992758750915527, -0.818359375, 0.113525390625, -0.190185546875, 
310, 3435930448, 0.4994924068450928, -0.5126999020576477, -0.18712936341762543, -0.6727633476257324, 8.791837692260742, -1.6698541641235352, 3.3914809226989746, -32.680355072021484, 35.03472900390625, 14.430079460144043, -0.81298828125, 0.115966796875, -0.194580078125, 
311, 3435938781, 0.4994829297065735, -0.5121738910675049, -0.18366560339927673, -0.6741239428520203, 8.688109397888184, -1.8267585039138794, 3.247641086578369, -32.44560623168945, 38.53670120239258, 13.563910484313965, -0.81201171875, 0.117919921875, -0.196533203125, 
312, 3435947114, 0.49978092312812805, -0.5115861892700195, -0.18029560148715973, -0.6752581596374512, 8.53239631652832, -2.1156728267669678, 3.990112781524658, -28.42771339416504, 37.628074645996094, 17.1462459564209, -0.81298828125, 0.1201171875, -0.202392578125, 
313, 3435955447, 0.5004162788391113, -0.5106909871101379, -0.17683108150959015, -0.6763805747032166, 8.436371803283691, -2.3885388374328613, 3.6479644775390625, -24.77865982055664, 41.906009674072266, 20.271221160888672, -0.81103515625, 0.12548828125, -0.2119140625, 
314, 3435963780, 0.501391589641571, -0.5098386406898499, -0.1736651360988617, -0.6771210432052612, 8.277488708496094, -2.2235934734344482, 3.780195474624634, -18.991687774658203, 37.5789909362793, 24.059078216552734, -0.8095703125, 0.12890625, -0.213623046875, 
315, 3435972113, 0.5026562213897705, -0.5091148018836975, -0.17063334584236145, -0.6774988174438477, 8.759381294250488, -2.216177463531494, 3.7266674041748047, -15.722100257873535, 33.62294006347656, 28.631277084350586, -0.80859375, 0.131591796875, -0.221435546875, 
316, 3435980446, 0.5042957067489624, -0.5082789063453674, -0.16771858930587769, -0.677635908126831, 9.13834285736084, -2.267853260040283, 3.6678342819213867, -10.679594039916992, 33.03490447998047, 32.69462203979492, -0.809814453125, 0.138916015625, -0.22412109375, 
317, 3435988779, 0.5060845017433167, -0.5074571967124939, -0.16500224173069, -0.6775850653648376, 8.922245025634766, -2.259420394897461, 3.5865423679351807, -7.438899040222168, 30.576574325561523, 34.04718017578125, -0.807373046875, 0.140625, -0.22900390625, 
318, 3435997112, 0.5078782439231873, -0.5069006681442261, -0.16254650056362152, -0.6772531270980835, 8.499715805053711, -2.0393354892730713, 3.500770330429077, -6.195965766906738, 24.321821212768555, 34.820777893066406, -0.806884765625, 0.14404296875, -0.230712890625, 
319, 3436005445, 0.5095489621162415, -0.506718099117279, -0.16024509072303772, -0.6766829490661621, 8.3975191116333, -1.6473733186721802, 3.7769968509674072, -7.682615756988525, 17.84514045715332, 35.11287307739258, -0.806396484375, 0.150146484375, -0.23486328125, 
320, 3436013778, 0.5109446048736572, -0.5069400072097778, -0.15810325741767883, -0.6759676933288574, 8.309256553649902, -1.6675221920013428, 3.9057986736297607, -10.641548156738281, 11.326435089111328, 33.33679962158203, -0.80712890625, 0.1552734375, -0.235107421875, 
321, 3436022111, 0.5120649933815002, -0.5074414610862732, -0.15613529086112976, -0.6752008199691772, 8.207039833068848, -1.835156798362732, 4.19533109664917, -12.785306930541992, 6.56909704208374, 30.55078125, -0.80517578125, 0.1611328125, -0.23583984375, 
322, 3436030444, 0.5129477977752686, -0.5081250667572021, -0.15439000725746155, -0.6744175553321838, 8.059500694274902, -2.1480789184570312, 4.524742126464844, -13.63429069519043, 2.662384033203125, 27.282732009887695, -0.806640625, 0.16552734375, -0.235107421875, 
323, 3436038777, 0.5135699510574341, -0.5089321732521057, -0.15286514163017273, -0.6736822724342346, 8.050684928894043, -2.75972843170166, 4.782251834869385, -14.372540473937988, -0.23442162573337555, 23.268638610839844, -0.806640625, 0.1689453125, -0.236572265625, 
324, 3436047110, 0.5141751170158386, -0.5095989108085632, -0.15168496966362, -0.6729832291603088, 7.9282612800598145, -2.97503662109375, 4.603358745574951, -10.394747734069824, -1.1715701818466187, 20.127559661865234, -0.806884765625, 0.171630859375, -0.23486328125, 
325, 3436055443, 0.5148175954818726, -0.5100147128105164, -0.1508280336856842, -0.672369122505188, 7.921358108520508, -3.0436806678771973, 4.80173921585083, -5.534034252166748, -0.4413334131240845, 17.101465225219727, -0.804443359375, 0.176025390625, -0.2373046875, 
326, 3436063776, 0.5154572129249573, -0.5102130174636841, -0.15032631158828735, -0.6718407869338989, 7.8331403732299805, -3.2734365463256836, 4.689726829528809, -0.9183217287063599, -0.36843520402908325, 13.506759643554688, -0.804443359375, 0.1767578125, -0.233154296875, 
327, 3436072109, 0.5161392688751221, -0.5100895166397095, -0.15024131536483765, -0.6714299321174622, 7.712718486785889, -3.1213090419769287, 4.523264408111572, 5.276186943054199, 0.5809436440467834, 9.494058609008789, -0.804443359375, 0.178466796875, -0.235107421875, 
328, 3436080442, 0.5168557167053223, -0.5096869468688965, -0.15056052803993225, -0.6711130738258362, 7.581387996673584, -3.1307578086853027, 4.326884746551514, 11.026557922363281, 0.9992241263389587, 5.716214179992676, -0.803955078125, 0.179443359375, -0.235107421875, 
329, 3436088775, 0.5176080465316772, -0.5090894103050232, -0.15129442512989044, -0.6708214282989502, 7.69785213470459, -2.916779041290283, 4.256161689758301, 16.44824981689453, 0.1208864152431488, 2.5734503269195557, -0.805908203125, 0.181396484375, -0.236328125, 
330, 3436097108, 0.5181617140769958, -0.5083470940589905, -0.1519528180360794, -0.6708083748817444, 7.943797588348389, -3.1129379272460938, 4.774564743041992, 14.803890228271484, 3.5112898349761963, -1.0302046537399292, -0.806396484375, 0.179443359375, -0.234619140625, 
331, 3436105441, 0.5183576941490173, -0.5078182816505432, -0.15250086784362793, -0.670932948589325, 8.062923431396484, -3.663456678390503, 4.093168258666992, 9.482404708862305, 2.5620005130767822, -4.076327323913574, -0.805908203125, 0.178466796875, -0.236572265625, 
332, 3436113774, 0.5186266899108887, -0.5071981549263, -0.15315204858779907, -0.6710458993911743, 8.142526626586914, -2.8315539360046387, 4.165848255157471, 11.612664222717285, 2.7240872383117676, -4.2487874031066895, -0.803955078125, 0.177001953125, -0.236083984375, 
333, 3436122107, 0.5188378691673279, -0.5066441297531128, -0.15356823801994324, -0.6712059378623962, 8.44306468963623, -2.935837745666504, 4.140023708343506, 8.479707717895508, 4.012866973876953, -3.323267698287964, -0.807861328125, 0.177001953125, -0.235107421875, 
334, 3436130440, 0.5190373063087463, -0.5062306523323059, -0.15389755368232727, -0.6712883710861206, 8.44057559967041, -2.7887566089630127, 4.052023887634277, 6.7475714683532715, 2.753978729248047, -1.9926084280014038, -0.803955078125, 0.17626953125, -0.2392578125, 
335, 3436138773, 0.5192475318908691, -0.5059128999710083, -0.1542159914970398, -0.671292245388031, 8.554328918457031, -2.963278293609619, 3.9405877590179443, 6.215307235717773, 1.4398401975631714, -1.0368130207061768, -0.805908203125, 0.176025390625, -0.236083984375, 
336, 3436147106, 0.5194297432899475, -0.5056833028793335, -0.1543993353843689, -0.6712820529937744, 8.612957000732422, -3.0511372089385986, 4.265528678894043, 4.164528846740723, 1.4177863597869873, -0.08485995978116989, -0.803955078125, 0.177001953125, -0.236572265625, 
337, 3436155439, 0.5194263458251953, -0.505733847618103, -0.15448477864265442, -0.6712268590927124, 8.43288803100586, -3.595247745513916, 4.057007312774658, 0.07337197661399841, -1.1599918603897095, -0.18447370827198029, -0.806396484375, 0.176025390625, -0.236083984375, 
338, 3436163772, 0.5194703340530396, -0.5058886408805847, -0.15472450852394104, -0.6710209846496582, 8.229532241821289, -3.120668888092041, 4.066493034362793, 1.3932737112045288, -4.188363075256348, 0.46178627014160156, -0.803466796875, 0.175537109375, -0.23583984375, 
339, 3436172105, 0.519511878490448, -0.5061151385307312, -0.1549718976020813, -0.6707608699798584, 8.258177757263184, -2.9376747608184814, 4.088888645172119, 1.058393120765686, -5.267874717712402, 0.9428984522819519, -0.805908203125, 0.1767578125, -0.238037109375, 
340, 3436180438, 0.5195241570472717, -0.5064386129379272, -0.1552051305770874, -0.6704534292221069, 8.20353889465332, -2.8736584186553955, 4.220875263214111, 0.12334534525871277, -6.472922325134277, 1.298705816268921, -0.803466796875, 0.175537109375, -0.23388671875, 
341, 3436188771, 0.5195193886756897, -0.5068122744560242, -0.1554291546344757, -0.6701227426528931, 8.16285514831543, -3.076751232147217, 4.260080814361572, -0.37962862849235535, -7.048781871795654, 1.4942705631256104, -0.803955078125, 0.176513671875, -0.23486328125, 
342, 3436197104, 0.519544243812561, -0.5072155594825745, -0.15572388470172882, -0.6697297692298889, 8.059786796569824, -3.0662145614624023, 4.403573513031006, 0.39037376642227173, -8.2150239944458, 1.766575574874878, -0.805908203125, 0.176025390625, -0.236083984375, 
343, 3436205437, 0.5196014046669006, -0.5075880289077759, -0.15604057908058167, -0.6693293452262878, 8.013888359069824, -3.1106491088867188, 4.525326728820801, 1.0674347877502441, -8.056829452514648, 1.9181092977523804, -0.805908203125, 0.1767578125, -0.232177734375, 
344, 3436213770, 0.5197001099586487, -0.507936418056488, -0.15631142258644104, -0.6689251065254211, 8.078228950500488, -3.1959519386291504, 4.653775215148926, 1.10239839553833, -7.459327220916748, 2.5759854316711426, -0.805419921875, 0.17626953125, -0.230712890625, 
345, 3436222103, 0.5198264122009277, -0.5082587599754333, -0.1565483659505844, -0.6685264110565186, 8.150728225708008, -3.4113874435424805, 4.702989101409912, 1.1640260219573975, -6.862540245056152, 2.987990140914917, -0.805419921875, 0.17724609375, -0.230224609375, 
346, 3436230436, 0.5199815034866333, -0.508501410484314, -0.1567542552947998, -0.6681729555130005, 8.134247779846191, -3.719515085220337, 4.67213249206543, 1.5459598302841187, -5.548427581787109, 2.9592251777648926, -0.808349609375, 0.17529296875, -0.228759765625, 
347, 3436238769, 0.5202072858810425, -0.5087024569511414, -0.1571384072303772, -0.6677539944648743, 8.063434600830078, -3.560392379760742, 4.549829483032227, 4.1252360343933105, -6.72962760925293, 2.7583584785461426, -0.808349609375, 0.17822265625, -0.229248046875, 
348, 3436247102, 0.5204988121986389, -0.5087568759918213, -0.15766862034797668, -0.667360246181488, 8.10936164855957, -3.168161153793335, 4.441370487213135, 6.9127068519592285, -6.125876426696777, 1.8240797519683838, -0.806396484375, 0.178955078125, -0.226806640625, 
349, 3436255435, 0.5207428932189941, -0.508781373500824, -0.15827254951000214, -0.6670080423355103, 8.081880569458008, -2.932013511657715, 4.387314796447754, 7.389413356781006, -6.1744914054870605, 0.5255401730537415, -0.807861328125, 0.177490234375, -0.226318359375, 
350, 3436263768, 0.5209199786186218, -0.5087984204292297, -0.15901724994182587, -0.6666795611381531, 8.023216247558594, -2.8652400970458984, 4.2909955978393555, 8.20645523071289, -7.111382961273193, -1.2734630107879639, -0.808349609375, 0.178466796875, -0.226318359375, 
351, 3436272101, 0.5210681557655334, -0.5087559819221497, -0.15987834334373474, -0.6663902401924133, 8.21154499053955, -2.8701629638671875, 4.182497978210449, 9.418366432189941, -7.171627044677734, -2.7503795623779297, -0.807373046875, 0.177001953125, -0.224853515625, 
352, 3436280434, 0.5212467908859253, -0.508644700050354, -0.16092172265052795, -0.6660841107368469, 8.208568572998047, -2.859910249710083, 4.075567722320557, 11.823826789855957, -7.914082050323486, -3.790548324584961, -0.807861328125, 0.17822265625, -0.221435546875, 
353, 3436288767, 0.5214945077896118, -0.5084313750267029, -0.16217096149921417, -0.6657500267028809, 8.228533744812012, -2.7594921588897705, 3.9696500301361084, 14.992002487182617, -8.480721473693848, -4.608437538146973, -0.809326171875, 0.174072265625, -0.223388671875, 
354, 3436297100, 0.5218455195426941, -0.5081474184989929, -0.1636161506175995, -0.6653380990028381, 8.310609817504883, -2.6640331745147705, 3.844574451446533, 18.182435989379883, -9.570838928222656, -4.647806644439697, -0.808349609375, 0.174560546875, -0.222900390625, 
355, 3436305433, 0.5222783088684082, -0.5078190565109253, -0.1652521789073944, -0.6648445725440979, 8.413198471069336, -2.5764474868774414, 3.771320343017578, 21.009689331054688, -10.903497695922852, -4.732206344604492, -0.809326171875, 0.173095703125, -0.22265625, 
356, 3436313766, 0.5227854251861572, -0.5074722170829773, -0.16709381341934204, -0.6642503142356873, 8.450154304504395, -2.498837471008301, 3.6990437507629395, 23.7632999420166, -12.761505126953125, -4.82213830947876, -0.810302734375, 0.173828125, -0.219970703125, 
357, 3436322099, 0.5233518481254578, -0.5071291923522949, -0.1691371500492096, -0.66354900598526, 8.428421020507812, -2.4293954372406006, 3.661391019821167, 26.247400283813477, -14.84097671508789, -4.892271518707275, -0.809326171875, 0.171875, -0.216796875, 
358, 3436330432, 0.5239272713661194, -0.5068312883377075, -0.1713760942220688, -0.6627475023269653, 8.368206977844238, -2.3481087684631348, 3.620296001434326, 27.994064331054688, -17.353940963745117, -5.365265369415283, -0.809814453125, 0.169921875, -0.216796875, 
359, 3436338765, 0.524493932723999, -0.5065808892250061, -0.17378182709217072, -0.6618636250495911, 8.37350082397461, -2.2612648010253906, 3.6198484897613525, 29.314437866210938, -19.5670166015625, -5.882802963256836, -0.812255859375, 0.1669921875, -0.212890625, 
360, 3436347098, 0.524995744228363, -0.506422221660614, -0.17633956670761108, -0.6609100699424744, 8.262033462524414, -2.1337990760803223, 3.675360918045044, 29.740480422973633, -22.156007766723633, -6.830377101898193, -0.812255859375, 0.166259765625, -0.21044921875, 
361, 3436355431, 0.5253912806510925, -0.5064319372177124, -0.17908065021038055, -0.6598501801490784, 8.129220008850098, -2.033870220184326, 3.737957000732422, 29.718894958496094, -25.98836898803711, -7.875364303588867, -0.812255859375, 0.163330078125, -0.208740234375, 
362, 3436363764, 0.525618851184845, -0.5066259503364563, -0.18205587565898895, -0.6587051153182983, 8.054479598999023, -1.9496909379959106, 3.761319160461426, 29.544057846069336, -30.37999153137207, -9.9821138381958, -0.811767578125, 0.16259765625, -0.202392578125, 
363, 3436372097, 0.5256611108779907, -0.5070393085479736, -0.18514743447303772, -0.6574902534484863, 8.004908561706543, -1.8566333055496216, 3.8020622730255127, 27.902545928955078, -34.13817596435547, -11.395280838012695, -0.813720703125, 0.16015625, -0.201416015625, 
364, 3436380430, 0.5254130363464355, -0.5076890587806702, -0.18834778666496277, -0.656277060508728, 8.006392478942871, -1.664241909980774, 3.820794105529785, 25.14215087890625, -37.808555603027344, -14.212675094604492, -0.813232421875, 0.158447265625, -0.1943359375, 
365, 3436388763, 0.5248751640319824, -0.508535623550415, -0.191623717546463, -0.6551026105880737, 8.1339111328125, -1.4897849559783936, 3.842317581176758, 22.28652000427246, -40.59173583984375, -17.09897232055664, -0.81396484375, 0.15283203125, -0.191650390625, 
366, 3436397096, 0.5240273475646973, -0.5095556974411011, -0.19494640827178955, -0.6540073752403259, 8.343417167663574, -1.397337555885315, 3.9478695392608643, 19.071081161499023, -42.77450942993164, -20.357624053955078, -0.816650390625, 0.150634765625, -0.182373046875, 
367, 3436405429, 0.5228685736656189, -0.5106673836708069, -0.19814561307430267, -0.6531058549880981, 8.613432884216309, -1.4011744260787964, 4.008659362792969, 14.606972694396973, -42.161964416503906, -23.415739059448242, -0.818603515625, 0.14697265625, -0.177978515625, 
368, 3436413762, 0.5214390754699707, -0.5117587447166443, -0.20114503800868988, -0.6524773240089417, 8.820741653442383, -1.4836524724960327, 4.071487903594971, 10.30853271484375, -39.387420654296875, -26.48760414123535, -0.81982421875, 0.142578125, -0.173828125, 
369, 3436422095, 0.5197523236274719, -0.5127272009849548, -0.2038479596376419, -0.6522238850593567, 8.836498260498047, -1.761997938156128, 4.028421401977539, 5.689277648925781, -34.21168899536133, -29.70698356628418, -0.8193359375, 0.139404296875, -0.16845703125, 
370, 3436430428, 0.5180405974388123, -0.5136388540267944, -0.20677772164344788, -0.6519460082054138, 8.841076850891113, -2.193352460861206, 3.733351469039917, 8.014055252075195, -35.58308029174805, -31.54624366760254, -0.8212890625, 0.135009765625, -0.164794921875, 
371, 3436438761, 0.5163164734840393, -0.5145512223243713, -0.20986345410346985, -0.6516082882881165, 8.850055694580078, -2.4801595211029053, 3.753523588180542, 9.50014877319336, -37.1400032043457, -32.29926300048828, -0.822265625, 0.132568359375, -0.156982421875, 
372, 3436447094, 0.5145757794380188, -0.515447199344635, -0.21302057802677155, -0.6512525081634521, 8.838876724243164, -2.5939435958862305, 3.753580331802368, 10.179823875427246, -37.694068908691406, -32.90501403808594, -0.819580078125, 0.125244140625, -0.155029296875, 
373, 3436455427, 0.5129355788230896, -0.5162966251373291, -0.21633219718933105, -0.6507818102836609, 8.947654724121094, -2.6398439407348633, 3.7075071334838867, 12.948038101196289, -38.870540618896484, -32.39216995239258, -0.822998046875, 0.11962890625, -0.145263671875, 
374, 3436463760, 0.5113978981971741, -0.5170500874519348, -0.21975716948509216, -0.6502460241317749, 8.849960327148438, -2.649305820465088, 3.7200825214385986, 15.555062294006348, -38.989288330078125, -32.1356201171875, -0.823974609375, 0.115234375, -0.1416015625, 
375, 3436472093, 0.5100037455558777, -0.5177640914916992, -0.22354818880558014, -0.6494798064231873, 8.842536926269531, -2.621731758117676, 3.5167391300201416, 20.831130981445312, -42.394290924072266, -31.92401123046875, -0.821533203125, 0.111083984375, -0.138916015625, 
376, 3436480426, 0.508778989315033, -0.5186427235603333, -0.22774314880371094, -0.6482809782028198, 9.000981330871582, -2.507539987564087, 3.5431296825408936, 25.811952590942383, -49.27886199951172, -29.776472091674805, -0.825927734375, 0.1083984375, -0.133056640625, 
377, 3436488759, 0.5077212452888489, -0.5195060968399048, -0.23181679844856262, -0.6469738483428955, 9.260411262512207, -2.303544044494629, 3.6574482917785645, 26.37517738342285, -48.52340316772461, -26.682205200195312, -0.823486328125, 0.1025390625, -0.1279296875, 
378, 3436497092, 0.5067384243011475, -0.520287275314331, -0.23562167584896088, -0.6457408666610718, 9.369669914245605, -2.250108003616333, 3.6264383792877197, 24.85101890563965, -45.1658935546875, -24.90735626220703, -0.8232421875, 0.10009765625, -0.119384765625, 
379, 3436505425, 0.5057071447372437, -0.521135687828064, -0.2391415685415268, -0.6445701718330383, 9.487288475036621, -2.4488229751586914, 3.563786029815674, 21.30883026123047, -43.46744155883789, -23.48501205444336, -0.8251953125, 0.093994140625, -0.112548828125, 
380, 3436513758, 0.5046530961990356, -0.5222429633140564, -0.24253523349761963, -0.6432306170463562, 9.688694953918457, -2.6899046897888184, 3.4590885639190674, 18.77600860595703, -46.189701080322266, -20.782466888427734, -0.8271484375, 0.09033203125, -0.10546875, 
381, 3436522091, 0.5036572217941284, -0.5234271883964539, -0.24563954770565033, -0.6418695449829102, 9.781194686889648, -2.797886848449707, 3.6256752014160156, 16.178844451904297, -44.803245544433594, -17.757978439331055, -0.8232421875, 0.087158203125, -0.099365234375, 
382, 3436530424, 0.5024587512016296, -0.5248091816902161, -0.24822081625461578, -0.64068603515625, 9.675042152404785, -3.0066094398498535, 3.4733402729034424, 8.125785827636719, -42.352272033691406, -16.370370864868164, -0.8251953125, 0.08544921875, -0.094970703125, 
383, 3436538757, 0.5012972950935364, -0.5262460112571716, -0.25065016746520996, -0.6394703388214111, 9.416946411132812, -3.2970619201660156, 2.9338274002075195, 6.795916557312012, -41.869842529296875, -14.512794494628906, -0.82568359375, 0.081298828125, -0.0869140625, 
384, 3436547090, 0.5006919503211975, -0.5275296568870544, -0.25367167592048645, -0.6376930475234985, 9.230791091918945, -3.103165864944458, 2.7147774696350098, 19.01009750366211, -46.77618408203125, -10.58976936340332, -0.8271484375, 0.0810546875, -0.080322265625, 
385, 3436555423, 0.5006174445152283, -0.5285234451293945, -0.2570657432079315, -0.6355660557746887, 9.268362045288086, -2.820638656616211, 2.9511451721191406, 29.354644775390625, -47.461307525634766, -7.21811056137085, -0.828125, 0.079833984375, -0.07666015625, 
386, 3436563756, 0.5007743835449219, -0.5291731357574463, -0.2604018747806549, -0.6335403323173523, 9.295157432556152, -2.5669968128204346, 2.8158347606658936, 32.5308952331543, -42.523223876953125, -6.710998058319092, -0.8271484375, 0.076416015625, -0.06689453125, 
387, 3436572089, 0.5012964606285095, -0.5292280912399292, -0.2637858986854553, -0.6316789388656616, 9.138858795166016, -2.520728826522827, 2.4420053958892822, 39.11655044555664, -35.14411926269531, -7.1192121505737305, -0.82666015625, 0.075439453125, -0.064453125, 
388, 3436580422, 0.5021201968193054, -0.5291060209274292, -0.267476886510849, -0.6295711994171143, 9.088410377502441, -2.6987531185150146, 2.653470039367676, 46.086483001708984, -36.44271469116211, -5.695496082305908, -0.828125, 0.07373046875, -0.059326171875, 
389, 3436588755, 0.5028366446495056, -0.5291457772254944, -0.2709669768810272, -0.6274702548980713, 9.202335357666016, -2.7818143367767334, 3.140986680984497, 42.433956146240234, -36.77956008911133, -4.598869800567627, -0.828125, 0.073486328125, -0.054443359375, 
390, 3436597088, 0.5033785104751587, -0.5292676091194153, -0.2739748954772949, -0.6256240606307983, 9.326861381530762, -2.7668473720550537, 3.2570042610168457, 35.47718811035156, -32.973045349121094, -4.068676471710205, -0.82763671875, 0.072265625, -0.047607421875, 
391, 3436605421, 0.5036233067512512, -0.5297107696533203, -0.27665939927101135, -0.6238680481910706, 9.327794075012207, -2.78873872756958, 3.172396183013916, 27.98053741455078, -33.93878936767578, -3.6685540676116943, -0.8271484375, 0.071044921875, -0.044189453125, 
392, 3436613754, 0.5033746361732483, -0.5306398272514343, -0.2786862552165985, -0.6223753690719604, 9.306147575378418, -2.853837728500366, 3.374424457550049, 14.363649368286133, -33.53575897216797, -3.103834390640259, -0.8271484375, 0.07177734375, -0.036865234375, 
393, 3436622087, 0.5027859210968018, -0.5317952036857605, -0.2801571190357208, -0.6212036609649658, 9.298521995544434, -2.767427444458008, 2.8318943977355957, 4.342064380645752, -30.56236457824707, -3.296093463897705, -0.828125, 0.070556640625, -0.034912109375, 
394, 3436630420, 0.5024012923240662, -0.5327004790306091, -0.28175604343414307, -0.6200147271156311, 9.061840057373047, -2.751255750656128, 2.1548662185668945, 8.708781242370605, -28.674489974975586, -3.346963405609131, -0.8291015625, 0.072021484375, -0.031982421875, 
395, 3436638753, 0.502292811870575, -0.5331286191940308, -0.2840765416622162, -0.6186742782592773, 8.797070503234863, -2.626070022583008, 1.961474895477295, 20.777639389038086, -29.608552932739258, -7.071099758148193, -0.8271484375, 0.06787109375, -0.02685546875, 
396, 3436647086, 0.5024459958076477, -0.5332412719726562, -0.28722330927848816, -0.6169978380203247, 8.828699111938477, -2.2426602840423584, 2.4230899810791016, 33.210243225097656, -34.09441375732422, -9.825693130493164, -0.828125, 0.068115234375, -0.020263671875, 
397, 3436655419, 0.5025944113731384, -0.5331827998161316, -0.29031264781951904, -0.6154797673225403, 9.197641372680664, -1.5367141962051392, 3.2658839225769043, 33.25949478149414, -31.08065414428711, -11.204072952270508, -0.8291015625, 0.0654296875, -0.0166015625, 
398, 3436663752, 0.5025228261947632, -0.5330200791358948, -0.2928946018218994, -0.614454984664917, 9.451263427734375, -0.8866890072822571, 3.517153263092041, 26.08757972717285, -23.976821899414062, -13.180973052978516, -0.82666015625, 0.066162109375, -0.01123046875, 
399, 3436672085, 0.5022196769714355, -0.5325418710708618, -0.2950482964515686, -0.6140870451927185, 9.352306365966797, -0.6909372210502625, 3.3688206672668457, 20.317136764526367, -14.446362495422363, -17.79624366760254, -0.826171875, 0.062744140625, -0.008056640625, 
400, 3436680418, 0.5016891956329346, -0.531955897808075, -0.2973247170448303, -0.6139305233955383, 9.179604530334473, -0.8306964039802551, 2.907931089401245, 19.56418228149414, -13.781469345092773, -22.525869369506836, -0.8271484375, 0.059814453125, -0.008056640625, 
401, 3436688751, 0.5009382963180542, -0.531563937664032, -0.29989364743232727, -0.6136335134506226, 9.35019302368164, -1.1036380529403687, 2.780787706375122, 19.67033576965332, -19.344430923461914, -24.750757217407227, -0.825927734375, 0.05810546875, -0.004638671875, 
402, 3436697084, 0.49987539649009705, -0.5313846468925476, -0.302123486995697, -0.6135615706443787, 9.705572128295898, -1.283895492553711, 2.812009572982788, 12.120962142944336, -18.467010498046875, -25.590206146240234, -0.827880859375, 0.05419921875, -0.00244140625, 
403, 3436705417, 0.49856847524642944, -0.5313773155212402, -0.3039225935935974, -0.6137430667877197, 9.818828582763672, -1.49835205078125, 2.5301973819732666, 4.479895114898682, -16.09812355041504, -25.515487670898438, -0.825927734375, 0.05029296875, -0.001220703125, 
404, 3436713750, 0.49730443954467773, -0.5314152836799622, -0.30598437786102295, -0.6137111186981201, 9.716778755187988, -1.9000946283340454, 2.114776134490967, 7.5799126625061035, -19.68048667907715, -25.43342399597168, -0.827392578125, 0.04541015625, 0.001708984375, 
405, 3436722083, 0.4963632822036743, -0.5313001871109009, -0.30846157670021057, -0.6133325099945068, 9.722162246704102, -2.1332924365997314, 2.1099965572357178, 15.9650239944458, -22.384841918945312, -24.00724983215332, -0.824951171875, 0.043701171875, 0.00634765625, 
406, 3436730416, 0.4956989288330078, -0.5309687852859497, -0.31094130873680115, -0.6129046678543091, 9.750064849853516, -2.2091662883758545, 2.1066927909851074, 19.680450439453125, -19.783893585205078, -22.2841796875, -0.8232421875, 0.038818359375, 0.008056640625, 
407, 3436738749, 0.49528637528419495, -0.5304465889930725, -0.31366100907325745, -0.6123043298721313, 9.581710815429688, -2.2666351795196533, 2.0060932636260986, 25.590715408325195, -19.971853256225586, -21.54298210144043, -0.826171875, 0.03759765625, 0.011962890625, 
408, 3436747082, 0.4952542781829834, -0.5296860933303833, -0.31693241000175476, -0.6113031506538391, 9.53735637664795, -2.2801027297973633, 2.1325297355651855, 36.35247039794922, -23.02724266052246, -20.672983169555664, -0.82470703125, 0.034912109375, 0.01513671875, 
409, 3436755415, 0.4954822361469269, -0.5288152694702148, -0.3204684257507324, -0.6100274920463562, 9.648674011230469, -2.026169538497925, 2.4796245098114014, 42.433433532714844, -24.748126983642578, -19.015464782714844, -0.8212890625, 0.032958984375, 0.01708984375, 
410, 3436763748, 0.4958534240722656, -0.5278176069259644, -0.3240848481655121, -0.6086779832839966, 9.651647567749023, -1.425500512123108, 2.5531694889068604, 45.32587432861328, -24.15876579284668, -18.46440315246582, -0.82177734375, 0.03125, 0.021240234375, 
411, 3436772081, 0.496317058801651, -0.5266304612159729, -0.32782623171806335, -0.6073230504989624, 9.590291976928711, -0.9106760025024414, 2.370413064956665, 48.369537353515625, -23.029518127441406, -19.396921157836914, -0.822509765625, 0.02685546875, 0.026123046875, 
412, 3436780414, 0.49673721194267273, -0.5253573060035706, -0.33165666460990906, -0.6060011982917786, 9.545459747314453, -0.6306094527244568, 2.203584909439087, 49.22538375854492, -22.897525787353516, -21.026350021362305, -0.821044921875, 0.025146484375, 0.02978515625, 
413, 3436788747, 0.4970550537109375, -0.5240832567214966, -0.335527628660202, -0.6047114729881287, 9.545812606811523, -0.5779711008071899, 2.066986083984375, 48.69050979614258, -23.379514694213867, -22.387880325317383, -0.819091796875, 0.02197265625, 0.03271484375, 
414, 3436797080, 0.49725595116615295, -0.5228444933891296, -0.339313805103302, -0.6035047173500061, 9.54586410522461, -0.6716709733009338, 1.9140077829360962, 46.51169967651367, -23.056486129760742, -23.16022491455078, -0.820556640625, 0.01904296875, 0.037353515625, 
415, 3436805413, 0.49725309014320374, -0.5217730402946472, -0.34299755096435547, -0.6023509502410889, 9.588504791259766, -0.7817302346229553, 1.840998888015747, 42.81787872314453, -24.29183578491211, -23.688926696777344, -0.820556640625, 0.017822265625, 0.040283203125, 
416, 3436813746, 0.49708154797554016, -0.5208601355552673, -0.346604585647583, -0.6012168526649475, 9.635438919067383, -0.8040642142295837, 1.9151204824447632, 39.782554626464844, -25.75889015197754, -23.930721282958984, -0.820068359375, 0.0146484375, 0.046875, 
417, 3436822079, 0.49675577878952026, -0.5200532674789429, -0.35005438327789307, -0.6001849174499512, 9.716256141662598, -0.782905101776123, 2.0395452976226807, 36.160884857177734, -25.53791046142578, -24.2668514251709, -0.818603515625, 0.01220703125, 0.04833984375, 
418, 3436830412, 0.4962941110134125, -0.5193519592285156, -0.35336437821388245, -0.5992336273193359, 9.726058959960938, -0.6878163814544678, 2.091480255126953, 32.92994689941406, -25.559524536132812, -24.437313079833984, -0.820068359375, 0.009033203125, 0.053955078125, 
419, 3436838745, 0.4956991374492645, -0.5187907814979553, -0.356544554233551, -0.5983278751373291, 9.711318969726562, -0.5669964551925659, 2.099921941757202, 29.738426208496094, -26.123241424560547, -24.230501174926758, -0.81640625, 0.0068359375, 0.056884765625, 
420, 3436847078, 0.4949517846107483, -0.5183899998664856, -0.3595419228076935, -0.5974995493888855, 9.747906684875488, -0.531398594379425, 2.1695973873138428, 25.667232513427734, -26.416542053222656, -23.92837142944336, -0.8134765625, 0.002197265625, 0.062744140625, 
421, 3436855411, 0.4941311478614807, -0.5180553793907166, -0.36238038539886475, -0.5967540144920349, 9.830889701843262, -0.7830274105072021, 2.1138241291046143, 23.001447677612305, -25.626771926879883, -23.623065948486328, -0.814697265625, -0.003173828125, 0.065673828125, 
422, 3436863744, 0.49336403608322144, -0.5176347494125366, -0.3652074337005615, -0.5960297584533691, 9.81576919555664, -1.1185771226882935, 2.0229320526123047, 23.744956970214844, -24.449207305908203, -23.687387466430664, -0.811767578125, -0.003173828125, 0.0732421875, 
423, 3436872077, 0.4928273558616638, -0.5169543623924255, -0.36830779910087585, -0.5951558351516724, 9.739720344543457, -1.204894781112671, 1.700609803199768, 30.108318328857422, -24.055879592895508, -24.03260040283203, -0.813720703125, -0.0087890625, 0.07421875, 
424, 3436880410, 0.4926246404647827, -0.5159050822257996, -0.37198007106781006, -0.5939489603042603, 9.60710620880127, -0.906808078289032, 1.37334144115448, 41.38130569458008, -25.61432456970215, -24.978551864624023, -0.810791015625, -0.009521484375, 0.077880859375, 
425, 3436888743, 0.49251896142959595, -0.5146482586860657, -0.3762187957763672, -0.5924553275108337, 9.497939109802246, -0.5316845178604126, 1.2085877656936646, 49.560752868652344, -29.26964569091797, -27.31893539428711, -0.809814453125, -0.01220703125, 0.081298828125, 
426, 3436897076, 0.4923302233219147, -0.5133222341537476, -0.3809122145175934, -0.5907612442970276, 9.46639633178711, -0.28612813353538513, 1.1199122667312622, 54.19211959838867, -33.659271240234375, -30.217987060546875, -0.809814453125, -0.014404296875, 0.08740234375, 
427, 3436905409, 0.4920487403869629, -0.5119490623474121, -0.38598358631134033, -0.5888928174972534, 9.503632545471191, -0.08663976937532425, 1.1031451225280762, 57.84343338012695, -37.526554107666016, -32.699989318847656, -0.80615234375, -0.01904296875, 0.092529296875, 
428, 3436913742, 0.491535484790802, -0.510647177696228, -0.3911895751953125, -0.5870136022567749, 9.57504653930664, 0.27243518829345703, 1.2408092021942139, 56.87138748168945, -40.345069885253906, -35.082088470458984, -0.80712890625, -0.021728515625, 0.099365234375, 
429, 3436922075, 0.49065926671028137, -0.5095378160476685, -0.3962600529193878, -0.5853069424629211, 9.637277603149414, 0.5927432179450989, 1.3537439107894897, 51.006927490234375, -41.696346282958984, -37.180660247802734, -0.80615234375, -0.0263671875, 0.10546875, 
430, 3436930408, 0.48935559391975403, -0.5086277723312378, -0.40107497572898865, -0.58390873670578, 9.793886184692383, 0.7847281694412231, 1.411896824836731, 42.922569274902344, -41.77482986450195, -39.83298110961914, -0.80322265625, -0.030029296875, 0.113525390625, 
431, 3436938741, 0.4877828061580658, -0.507794976234436, -0.40562325716018677, -0.5828068256378174, 9.847249984741211, 0.8895072340965271, 1.4959851503372192, 36.758209228515625, -39.98188400268555, -41.6869010925293, -0.801513671875, -0.035400390625, 0.11962890625, 
432, 3436947074, 0.4860420227050781, -0.506953239440918, -0.4100983738899231, -0.5818614363670349, 9.80760383605957, 1.149092197418213, 1.518820881843567, 34.1732292175293, -39.29280471801758, -43.63286209106445, -0.801025390625, -0.040771484375, 0.124267578125, 
433, 3436955407, 0.48410385847091675, -0.5061642527580261, -0.41440796852111816, -0.5811100006103516, 9.911813735961914, 1.2710171937942505, 1.497706413269043, 30.036020278930664, -38.341094970703125, -45.043190002441406, -0.79541015625, -0.0478515625, 0.131103515625, 
434, 3436963740, 0.48203524947166443, -0.5053768754005432, -0.4186040759086609, -0.5805070996284485, 10.065631866455078, 1.3420499563217163, 1.5001490116119385, 27.35381507873535, -37.33514404296875, -46.29084014892578, -0.7958984375, -0.050048828125, 0.1357421875, 
435, 3436972073, 0.479912132024765, -0.5045580267906189, -0.4227154850959778, -0.5799990296363831, 10.083539962768555, 1.3772870302200317, 1.6943367719650269, 25.97271156311035, -36.14988327026367, -46.929290771484375, -0.793701171875, -0.05712890625, 0.139892578125, 
436, 3436980406, 0.47765418887138367, -0.5038182139396667, -0.42662134766578674, -0.5796460509300232, 10.137510299682617, 1.3553279638290405, 1.729504942893982, 21.96316909790039, -35.15993881225586, -47.158172607421875, -0.791259765625, -0.061279296875, 0.1455078125, 
437, 3436988739, 0.4753217101097107, -0.5031014084815979, -0.43027177453041077, -0.5794877409934998, 10.263800621032715, 1.1493064165115356, 1.6014478206634521, 18.12636947631836, -32.72357177734375, -47.1094970703125, -0.7861328125, -0.06884765625, 0.15234375, 
438, 3436997072, 0.47285664081573486, -0.5024903416633606, -0.4337782859802246, -0.5794203281402588, 10.395210266113281, 1.0756609439849854, 1.411030888557434, 14.824860572814941, -32.811859130859375, -47.15574645996094, -0.7861328125, -0.07373046875, 0.155029296875, 
439, 3437005405, 0.47027361392974854, -0.5020335912704468, -0.4369146227836609, -0.579562246799469, 10.546770095825195, 0.8510589599609375, 1.3377611637115479, 8.816277503967285, -30.862804412841797, -45.957550048828125, -0.7841796875, -0.079833984375, 0.16162109375, 
440, 3437013738, 0.4676268696784973, -0.5017057061195374, -0.43958473205566406, -0.5799685120582581, 10.585983276367188, 0.61197829246521, 1.3628654479980469, 2.231632709503174, -27.4609317779541, -44.203330993652344, -0.781982421875, -0.0869140625, 0.16552734375, 
441, 3437022071, 0.4649774730205536, -0.5014705061912537, -0.44202953577041626, -0.5804437398910522, 10.529714584350586, 0.511204719543457, 1.4122521877288818, -0.5894104242324829, -26.263946533203125, -42.530887603759766, -0.7783203125, -0.09423828125, 0.168212890625, 
442, 3437030404, 0.4623997211456299, -0.5012636780738831, -0.44438448548316956, -0.580883264541626, 10.528329849243164, 0.4882907271385193, 1.3607360124588013, -0.7854620814323425, -25.753448486328125, -40.9612922668457, -0.77734375, -0.099365234375, 0.1708984375, 
443, 3437038737, 0.4599713087081909, -0.5009803175926208, -0.4467863142490387, -0.5812130570411682, 10.50665283203125, 0.6568422317504883, 1.3874977827072144, 1.7824594974517822, -25.256681442260742, -39.8405876159668, -0.774169921875, -0.104248046875, 0.17333984375, 
444, 3437047070, 0.45789051055908203, -0.5004115700721741, -0.4493136703968048, -0.5813977122306824, 10.511499404907227, 0.7802401185035706, 1.584380030632019, 7.870487689971924, -22.661645889282227, -38.782997131347656, -0.772705078125, -0.1083984375, 0.17724609375, 
445, 3437055403, 0.4562740921974182, -0.49937325716018677, -0.45187273621559143, -0.5815778970718384, 10.439519882202148, 0.9051488637924194, 1.6767054796218872, 14.310275077819824, -16.241296768188477, -38.14229965209961, -0.771728515625, -0.11279296875, 0.181396484375, 
