sep=,
PacketCounter,SampleTimeFine,Quat_W,Quat_X,Quat_Y,Quat_Z,Acc_X,Acc_Y,Acc_Z,Gyr_X,Gyr_Y,Gyr_Z,Mag_X,Mag_Y,Mag_Z,
0, 2844120788, 0.4452105164527893, -0.4649568498134613, -0.53724205493927, -0.5449341535568237, 0, 0, 0, 0, 0, 0, -0.751708984375, -0.14208984375, 0.29296875, 
1, 2844129121, 0.44510459899902344, -0.465072363615036, -0.5371556282043457, -0.5450072288513184, 9.78117847442627, 1.599314570426941, -0.059724532067775726, -3.0536136627197266, -0.36222371459007263, 0.07397390156984329, -0.751708984375, -0.14208984375, 0.29296875, 
2, 2844137454, 0.4450233280658722, -0.46516546607017517, -0.5370835661888123, -0.54506516456604, 9.75013542175293, 1.590359091758728, -0.036586180329322815, -2.5174055099487305, -0.19258062541484833, 0.09610461443662643, -0.751220703125, -0.143310546875, 0.288330078125, 
3, 2844145787, 0.44497525691986084, -0.46522387862205505, -0.5370474457740784, -0.5450902581214905, 9.798973083496094, 1.5718085765838623, -0.05026302859187126, -1.6728016138076782, -0.12939029932022095, 0.051407765597105026, -0.750732421875, -0.14404296875, 0.293701171875, 
4, 2844154120, 0.4449545741081238, -0.4652455151081085, -0.5370497703552246, -0.5450863838195801, 9.832247734069824, 1.550464391708374, -0.04191558435559273, -0.6783033013343811, -0.06189679726958275, -0.07444777339696884, -0.750244140625, -0.142578125, 0.291259765625, 
5, 2844162453, 0.44498640298843384, -0.46522340178489685, -0.5370978116989136, -0.5450317859649658, 9.869020462036133, 1.6101335287094116, -0.0850401222705841, 0.7490626573562622, 0.06639209389686584, 0.013575543649494648, -0.751220703125, -0.14208984375, 0.29248046875, 
6, 2844170786, 0.44506192207336426, -0.46516653895378113, -0.5371896624565125, -0.5449280738830566, 9.858200073242188, 1.6927282810211182, -0.1072152778506279, 1.8262438774108887, 0.05163830146193504, 0.10404503345489502, -0.751220703125, -0.143310546875, 0.290771484375, 
7, 2844179119, 0.44518885016441345, -0.4650738835334778, -0.5373082160949707, -0.5447866916656494, 9.856207847595215, 1.7573860883712769, -0.13180552423000336, 2.787417411804199, 0.28623905777931213, 0.27778634428977966, -0.752197265625, -0.141845703125, 0.291015625, 
8, 2844187452, 0.4453485608100891, -0.4649728238582611, -0.5374159216880798, -0.5446361899375916, 9.819144248962402, 1.8215633630752563, -0.15808726847171783, 3.0993735790252686, 0.6089783906936646, 0.5941221117973328, -0.752685546875, -0.1435546875, 0.294677734375, 
9, 2844195785, 0.44551217555999756, -0.4648849070072174, -0.5374939441680908, -0.5445005297660828, 9.818085670471191, 1.8655390739440918, -0.14326664805412292, 2.752044916152954, 0.8217046856880188, 0.8167867660522461, -0.752197265625, -0.140869140625, 0.29052734375, 
10, 2844204118, 0.44566771388053894, -0.4648144841194153, -0.5375168323516846, -0.544410765171051, 9.784818649291992, 1.9015381336212158, -0.14456970989704132, 1.8007320165634155, 1.2565319538116455, 0.9600471258163452, -0.750732421875, -0.1416015625, 0.291015625, 
11, 2844212451, 0.44579017162323, -0.4647740423679352, -0.5374757647514343, -0.5443854928016663, 9.763262748718262, 1.8833551406860352, -0.13559676706790924, 0.4520656168460846, 1.5921809673309326, 0.9434235095977783, -0.750732421875, -0.142578125, 0.292724609375, 
12, 2844220784, 0.4458605647087097, -0.4647749662399292, -0.5373710989952087, -0.5444304347038269, 9.756680488586426, 1.8282593488693237, -0.13937363028526306, -1.1312910318374634, 1.7357741594314575, 0.8387125134468079, -0.751220703125, -0.141357421875, 0.28955078125, 
13, 2844229117, 0.4458675980567932, -0.464822918176651, -0.5372116565704346, -0.5445410013198853, 9.769201278686523, 1.741219401359558, -0.14387577772140503, -2.620604991912842, 1.684827446937561, 0.661103367805481, -0.752197265625, -0.14111328125, 0.291015625, 
14, 2844237450, 0.445807546377182, -0.4649091958999634, -0.5370250344276428, -0.5447005033493042, 9.730304718017578, 1.7113049030303955, -0.1290057748556137, -3.9480888843536377, 1.366929292678833, 0.3129803538322449, -0.751220703125, -0.141845703125, 0.28955078125, 
15, 2844245783, 0.44569528102874756, -0.465030312538147, -0.536845862865448, -0.544865608215332, 9.712393760681152, 1.6693342924118042, -0.1329515278339386, -4.516903877258301, 0.7056978344917297, 0.09451653063297272, -0.754638671875, -0.143798828125, 0.291015625, 
16, 2844254116, 0.4455659091472626, -0.46516385674476624, -0.5367032885551453, -0.5449978113174438, 9.719293594360352, 1.6613874435424805, -0.1034921258687973, -4.148494720458984, 0.05676114186644554, 0.02861109934747219, -0.751220703125, -0.141357421875, 0.2900390625, 
17, 2844262449, 0.4454342722892761, -0.46529901027679443, -0.5365995168685913, -0.5450922250747681, 9.748085975646973, 1.6531734466552734, -0.09415236860513687, -3.5201773643493652, -0.4384773075580597, 0.00950288213789463, -0.752685546875, -0.142333984375, 0.2880859375, 
18, 2844270782, 0.44533097743988037, -0.4654043912887573, -0.5365170240402222, -0.5451678037643433, 9.792473793029785, 1.6017658710479736, -0.0631650984287262, -2.9420125484466553, -0.26942333579063416, -0.021247006952762604, -0.752197265625, -0.141357421875, 0.2890625, 
19, 2844279115, 0.44527554512023926, -0.46548426151275635, -0.536468505859375, -0.5451926589012146, 9.77520751953125, 1.6117013692855835, -0.07289475202560425, -1.9221304655075073, -0.2692440450191498, 0.23846851289272308, -0.750732421875, -0.142822265625, 0.289306640625, 
20, 2844287448, 0.44527870416641235, -0.4655092656612396, -0.5364608764648438, -0.5451762676239014, 9.787521362304688, 1.6377650499343872, -0.06446141749620438, -0.5293565988540649, 0.07189915329217911, 0.2679761052131653, -0.752685546875, -0.141357421875, 0.28759765625, 
21, 2844295781, 0.4453514814376831, -0.465483158826828, -0.5365020036697388, -0.5450986623764038, 9.805081367492676, 1.7079771757125854, -0.09153462201356888, 0.8804894089698792, 0.2538883090019226, 0.4666401743888855, -0.753173828125, -0.143798828125, 0.291259765625, 
22, 2844304114, 0.4454302191734314, -0.46543288230895996, -0.5365644097328186, -0.5450158715248108, 9.80212688446045, 1.719786524772644, -0.08982527256011963, 1.430580735206604, 0.3403107523918152, 0.2365218549966812, -0.751220703125, -0.141357421875, 0.28857421875, 
23, 2844312447, 0.4454965889453888, -0.465376615524292, -0.5366383194923401, -0.5449368953704834, 9.79247760772705, 1.7091002464294434, -0.054154172539711, 1.4626750946044922, 0.24845805764198303, 0.002587037393823266, -0.752197265625, -0.142333984375, 0.291015625, 
24, 2844320780, 0.4455295503139496, -0.46531942486763, -0.5367045402526855, -0.5448936223983765, 9.771921157836914, 1.709822654724121, -0.06833137571811676, 0.9155039191246033, 0.2836008369922638, -0.42093151807785034, -0.749755859375, -0.14111328125, 0.29248046875, 
25, 2844329113, 0.4455122947692871, -0.46528559923171997, -0.536736011505127, -0.5449056029319763, 9.756362915039062, 1.6744304895401, -0.05566342547535896, -0.0814148411154747, 0.32227829098701477, -0.7399824261665344, -0.753173828125, -0.142333984375, 0.2900390625, 
26, 2844337446, 0.4454629123210907, -0.4652864336967468, -0.5367357134819031, -0.5449455976486206, 9.727608680725098, 1.6590018272399902, -0.059103939682245255, -1.0785770416259766, 0.17994000017642975, -0.6950807571411133, -0.754150390625, -0.142822265625, 0.28857421875, 
27, 2844345779, 0.4453953802585602, -0.46531182527542114, -0.5367226600646973, -0.5449919700622559, 9.707776069641113, 1.6481621265411377, -0.0590180903673172, -1.832890510559082, -0.06776245683431625, -0.6274334788322449, -0.754150390625, -0.14111328125, 0.29296875, 
28, 2844354112, 0.4452909231185913, -0.4653768837451935, -0.5366979837417603, -0.5450460910797119, 9.737452507019043, 1.6362216472625732, -0.04774888604879379, -2.1116249561309814, -0.46685791015625, -0.5648322701454163, -0.750732421875, -0.142333984375, 0.289306640625, 
29, 2844362445, 0.44519662857055664, -0.4654439091682434, -0.5366817116737366, -0.5450817942619324, 9.801091194152832, 1.6389336585998535, -0.053855132311582565, -1.8994619846343994, -0.583530604839325, -0.4182676076889038, -0.754150390625, -0.14306640625, 0.29248046875, 
30, 2844370778, 0.4451177716255188, -0.4654843509197235, -0.536679208278656, -0.5451141595840454, 9.834307670593262, 1.6755748987197876, -0.05436190962791443, -1.4697318077087402, -0.36924198269844055, -0.5647554397583008, -0.752685546875, -0.142333984375, 0.2900390625, 
31, 2844379111, 0.44505763053894043, -0.46550124883651733, -0.5366896390914917, -0.5451386570930481, 9.851438522338867, 1.7162317037582397, -0.07678576558828354, -1.015975832939148, -0.17854401469230652, -0.6328892707824707, -0.752197265625, -0.142578125, 0.29248046875, 
32, 2844387444, 0.44499707221984863, -0.465514212846756, -0.536705732345581, -0.545161247253418, 9.846510887145996, 1.7720881700515747, -0.09345855563879013, -0.9726365804672241, -0.20336422324180603, -0.6882161498069763, -0.751708984375, -0.141357421875, 0.28955078125, 
33, 2844395777, 0.4449476897716522, -0.4655282199382782, -0.5367240905761719, -0.5451712012290955, 9.817319869995117, 1.7482693195343018, -0.09838680177927017, -0.708195149898529, -0.21412219107151031, -0.532788872718811, -0.752685546875, -0.142822265625, 0.2890625, 
34, 2844404110, 0.44493740797042847, -0.46549707651138306, -0.5367794632911682, -0.5451517105102539, 9.760276794433594, 1.706396460533142, -0.16970854997634888, 0.22356103360652924, -0.011974655091762543, -0.6303278803825378, -0.751708984375, -0.141357421875, 0.29052734375, 
35, 2844412443, 0.4449586868286133, -0.46542102098464966, -0.5368844866752625, -0.5450958609580994, 9.696043014526367, 1.7072334289550781, -0.19446434080600739, 1.339803695678711, 0.021387886255979538, -0.8245350122451782, -0.752685546875, -0.143798828125, 0.290771484375, 
36, 2844420776, 0.4449935853481293, -0.46532222628593445, -0.5370315313339233, -0.5450069904327393, 9.652581214904785, 1.6980682611465454, -0.17361924052238464, 2.126314401626587, -0.17616190016269684, -0.9536819458007812, -0.751708984375, -0.144287109375, 0.290771484375, 
37, 2844429109, 0.44500479102134705, -0.4652341604232788, -0.5371851325035095, -0.5449215173721313, 9.650128364562988, 1.6903655529022217, -0.17388179898262024, 1.789743423461914, -0.47064870595932007, -1.1243752241134644, -0.752197265625, -0.141357421875, 0.291015625, 
38, 2844437442, 0.44495707750320435, -0.46520447731018066, -0.537316620349884, -0.5448561906814575, 9.67788028717041, 1.6772514581680298, -0.17344678938388824, 0.8852280378341675, -1.0583418607711792, -1.1075212955474854, -0.753173828125, -0.1435546875, 0.293701171875, 
39, 2844445775, 0.44483357667922974, -0.46523794531822205, -0.5373814105987549, -0.5448645949363708, 9.764561653137207, 1.6871994733810425, -0.16600823402404785, -0.694081723690033, -1.1646919250488281, -1.2199931144714355, -0.749755859375, -0.143798828125, 0.290283203125, 
40, 2844454108, 0.4446764290332794, -0.4653100371360779, -0.5373820662498474, -0.544930636882782, 9.810138702392578, 1.6837451457977295, -0.16826145350933075, -2.3898980617523193, -0.9895164370536804, -1.1431761980056763, -0.752197265625, -0.142822265625, 0.291259765625, 
41, 2844462441, 0.4444843828678131, -0.4654267728328705, -0.537339448928833, -0.5450297594070435, 9.85073184967041, 1.724717617034912, -0.15281549096107483, -3.4671812057495117, -1.1058049201965332, -1.001093864440918, -0.753173828125, -0.143798828125, 0.291259765625, 
42, 2844470774, 0.44426608085632324, -0.4655722975730896, -0.5372579097747803, -0.5451636910438538, 9.859186172485352, 1.7436366081237793, -0.14518213272094727, -4.346236228942871, -1.0563182830810547, -0.9475090503692627, -0.750732421875, -0.144287109375, 0.290283203125, 
43, 2844479107, 0.44404077529907227, -0.46573811769485474, -0.5371353030204773, -0.5453263521194458, 9.849945068359375, 1.7630717754364014, -0.11347696930170059, -5.167838096618652, -0.8414660096168518, -0.7685934901237488, -0.751220703125, -0.143310546875, 0.290283203125, 
44, 2844487440, 0.443808913230896, -0.4659149646759033, -0.5369843244552612, -0.5455129146575928, 9.823050498962402, 1.7558406591415405, -0.07001310586929321, -5.5358381271362305, -0.626690685749054, -0.6933901309967041, -0.749755859375, -0.143798828125, 0.289794921875, 
45, 2844495773, 0.4435912072658539, -0.4660772979259491, -0.5368227362632751, -0.5457099676132202, 9.786652565002441, 1.7315400838851929, -0.03289927914738655, -5.42359733581543, -0.2697050869464874, -0.6886515617370605, -0.749755859375, -0.143310546875, 0.288330078125, 
46, 2844504106, 0.4434087574481964, -0.466200590133667, -0.5366944670677185, -0.5458792448043823, 9.762782096862793, 1.686685562133789, -0.017450423911213875, -4.593311309814453, -0.11140911281108856, -0.7603970170021057, -0.752197265625, -0.14404296875, 0.291748046875, 
47, 2844512439, 0.4432680606842041, -0.4662853479385376, -0.5366161465644836, -0.5459980964660645, 9.75535774230957, 1.646323800086975, -0.024522431194782257, -3.366440773010254, -0.1457834392786026, -0.7432611584663391, -0.750732421875, -0.146728515625, 0.289794921875, 
48, 2844520772, 0.4431636333465576, -0.4663269817829132, -0.5365904569625854, -0.5460727214813232, 9.789302825927734, 1.6089586019515991, -0.03031563200056553, -2.1265575885772705, -0.15428733825683594, -0.8570650815963745, -0.74755859375, -0.146240234375, 0.29052734375, 
49, 2844529105, 0.443098783493042, -0.46633800864219666, -0.5365951657295227, -0.5461111068725586, 9.845037460327148, 1.5927735567092896, -0.03644373640418053, -1.114821195602417, -0.04022715240716934, -0.7581941485404968, -0.753662109375, -0.14306640625, 0.29443359375, 
50, 2844537438, 0.4430748224258423, -0.4663149118423462, -0.5366221070289612, -0.5461239218711853, 9.856152534484863, 1.619704008102417, -0.06193646788597107, -0.36601459980010986, 0.2092938870191574, -0.6897016763687134, -0.750732421875, -0.146240234375, 0.290283203125, 
51, 2844545771, 0.443061888217926, -0.46628278493881226, -0.5366755723953247, -0.5461091995239258, 9.811447143554688, 1.652056336402893, -0.07139252871274948, 0.1962050199508667, 0.02184894122183323, -0.6777909994125366, -0.751220703125, -0.14453125, 0.292236328125, 
52, 2844554104, 0.4430655539035797, -0.4662231206893921, -0.5367556214332581, -0.5460785627365112, 9.781311988830566, 1.7218681573867798, -0.10134147852659225, 0.7525718212127686, 0.08667857944965363, -0.8278905153274536, -0.751220703125, -0.145751953125, 0.290283203125, 
53, 2844562437, 0.44307270646095276, -0.466145783662796, -0.536857545375824, -0.5460386276245117, 9.741728782653809, 1.7280337810516357, -0.0851120576262474, 1.0570225715637207, 0.040086276829242706, -1.0209449529647827, -0.750732421875, -0.145263671875, 0.291259765625, 
54, 2844570770, 0.4430806040763855, -0.46605631709098816, -0.536970317363739, -0.5459978580474854, 9.742637634277344, 1.7627538442611694, -0.07880467921495438, 1.283939242362976, 0.07494726032018661, -1.164461612701416, -0.752685546875, -0.144287109375, 0.289794921875, 
55, 2844579103, 0.44307810068130493, -0.4659498929977417, -0.537108302116394, -0.5459548234939575, 9.719319343566895, 1.7352794408798218, -0.10376814752817154, 1.5050923824310303, -0.045734211802482605, -1.5197309255599976, -0.749755859375, -0.147216796875, 0.2900390625, 
56, 2844587436, 0.4430525302886963, -0.46584075689315796, -0.537267804145813, -0.545911967754364, 9.721109390258789, 1.741154670715332, -0.12743739783763885, 1.5558342933654785, -0.32185566425323486, -1.8494887351989746, -0.752197265625, -0.144287109375, 0.288818359375, 
57, 2844595769, 0.443041056394577, -0.4657140076160431, -0.5374346375465393, -0.5458650588989258, 9.722063064575195, 1.73276948928833, -0.126883864402771, 1.3568884134292603, -0.226980522274971, -1.915906310081482, -0.751220703125, -0.14501953125, 0.292236328125, 
58, 2844604102, 0.442996621131897, -0.46562376618385315, -0.5375611782073975, -0.5458534359931946, 9.724954605102539, 1.7098677158355713, -0.13414065539836884, 0.8409921526908875, -0.20136630535125732, -1.8306365013122559, -0.750244140625, -0.14599609375, 0.292236328125, 
59, 2844612435, 0.4429539740085602, -0.4655624032020569, -0.5376463532447815, -0.5458563566207886, 9.736614227294922, 1.7215176820755005, -0.1596943736076355, 0.2403639703989029, -0.06589260697364807, -1.429107666015625, -0.751708984375, -0.147216796875, 0.292236328125, 
60, 2844620768, 0.4429059326648712, -0.465536504983902, -0.5377197265625, -0.5458452105522156, 9.742693901062012, 1.7157381772994995, -0.1888350546360016, 0.023206496611237526, -0.38507160544395447, -1.0437417030334473, -0.7490234375, -0.147705078125, 0.29150390625, 
61, 2844629101, 0.44286441802978516, -0.46552860736846924, -0.5377700328826904, -0.5458362102508545, 9.774138450622559, 1.7185277938842773, -0.1631348878145218, -0.3049502968788147, -0.3265942931175232, -0.7320164442062378, -0.748779296875, -0.14599609375, 0.291259765625, 
62, 2844637434, 0.44282567501068115, -0.46554675698280334, -0.5377963781356812, -0.5458261370658875, 9.802255630493164, 1.7549428939819336, -0.1614178866147995, -0.5456472039222717, -0.35425764322280884, -0.3530025780200958, -0.750244140625, -0.146484375, 0.293701171875, 
63, 2844645767, 0.4427817463874817, -0.46558505296707153, -0.5378007292747498, -0.5458248853683472, 9.860451698303223, 1.760786771774292, -0.18115289509296417, -0.8343454003334045, -0.339145302772522, -0.15433858335018158, -0.749267578125, -0.14599609375, 0.294189453125, 
64, 2844654100, 0.4427514672279358, -0.4656004309654236, -0.5378010272979736, -0.5458359718322754, 9.828657150268555, 1.7709366083145142, -0.2172747552394867, -0.8267378211021423, 0.023488251492381096, -0.2722921371459961, -0.750244140625, -0.145751953125, 0.290283203125, 
65, 2844662433, 0.442717969417572, -0.465609610080719, -0.5377993583679199, -0.5458570718765259, 9.798221588134766, 1.769055724143982, -0.1878698766231537, -0.8272244334220886, 0.13058136403560638, -0.3887856602668762, -0.751220703125, -0.1474609375, 0.294189453125, 
66, 2844670766, 0.4427005648612976, -0.4656122624874115, -0.5377958416938782, -0.5458723306655884, 9.748924255371094, 1.8283023834228516, -0.18523001670837402, -0.7269192337989807, 0.265389084815979, -0.27067846059799194, -0.749267578125, -0.146484375, 0.292724609375, 
67, 2844679099, 0.4426761865615845, -0.4656238555908203, -0.5377920269966125, -0.5458858609199524, 9.746929168701172, 1.823417067527771, -0.1562538594007492, -0.6880623698234558, 0.15368539094924927, -0.24191361665725708, -0.74853515625, -0.146240234375, 0.2900390625, 
68, 2844687432, 0.4426670968532562, -0.4656335711479187, -0.5377708077430725, -0.5459057688713074, 9.762500762939453, 1.8201124668121338, -0.1657385230064392, -0.8841649293899536, 0.41057053208351135, -0.06978597491979599, -0.749755859375, -0.1455078125, 0.292236328125, 
69, 2844695765, 0.442646861076355, -0.4656609892845154, -0.5377382636070251, -0.5459306836128235, 9.740204811096191, 1.8389248847961426, -0.16331371665000916, -1.1558806896209717, 0.301607608795166, 0.017750665545463562, -0.749267578125, -0.145751953125, 0.289306640625, 
70, 2844704098, 0.4425925016403198, -0.46571677923202515, -0.5376725196838379, -0.5459921360015869, 9.726469039916992, 1.8321821689605713, -0.17339585721492767, -2.096666097640991, 0.2663112282752991, -0.03787064924836159, -0.749267578125, -0.146484375, 0.292236328125, 
71, 2844712431, 0.4425126612186432, -0.46581220626831055, -0.537580668926239, -0.5460659265518188, 9.74486255645752, 1.827324390411377, -0.18056902289390564, -2.7514939308166504, 0.02318088337779045, 0.15616999566555023, -0.74951171875, -0.147705078125, 0.29052734375, 
72, 2844720764, 0.4424336552619934, -0.4659240245819092, -0.5374776124954224, -0.5461359024047852, 9.733774185180664, 1.8091697692871094, -0.1846756786108017, -2.939246416091919, -0.05408446118235588, 0.37742576003074646, -0.75048828125, -0.150146484375, 0.28857421875, 
73, 2844729097, 0.44241052865982056, -0.4659985899925232, -0.5373940467834473, -0.5461733937263489, 9.716097831726074, 1.802778720855713, -0.21834611892700195, -2.2456893920898438, 0.2714340090751648, 0.5836203098297119, -0.749755859375, -0.14599609375, 0.292236328125, 
74, 2844737430, 0.44239526987075806, -0.46605926752090454, -0.5372995138168335, -0.546226978302002, 9.727071762084961, 1.8175468444824219, -0.19992013275623322, -2.0339622497558594, 0.6441211700439453, 0.523478090763092, -0.750732421875, -0.1474609375, 0.293701171875, 
75, 2844745763, 0.4423668682575226, -0.46610915660858154, -0.5371788740158081, -0.5463259816169739, 9.718427658081055, 1.7816276550292969, -0.20088493824005127, -2.397505521774292, 1.1051775217056274, 0.24348893761634827, -0.748779296875, -0.14697265625, 0.29150390625, 
76, 2844754096, 0.44230616092681885, -0.4661935865879059, -0.5370182394981384, -0.5464609861373901, 9.706149101257324, 1.7604645490646362, -0.20068062841892242, -3.5671017169952393, 1.0539743900299072, 0.28721240162849426, -0.749267578125, -0.145263671875, 0.290283203125, 
77, 2844762429, 0.44217419624328613, -0.46633240580558777, -0.536821722984314, -0.5466423630714417, 9.694061279296875, 1.694504976272583, -0.14602480828762054, -5.021401405334473, 0.6263960599899292, 0.09856357425451279, -0.750244140625, -0.1484375, 0.29296875, 
78, 2844770762, 0.4419901371002197, -0.4665381610393524, -0.5365872979164124, -0.5468459129333496, 9.683043479919434, 1.6834778785705566, -0.10047147423028946, -6.155779838562012, 0.11990022659301758, 0.3103932738304138, -0.751220703125, -0.147705078125, 0.290771484375, 
79, 2844779095, 0.4417509138584137, -0.46678900718688965, -0.5363481640815735, -0.5470595955848694, 9.686307907104492, 1.6603158712387085, -0.055633075535297394, -6.819674491882324, -0.5231322646141052, 0.20043137669563293, -0.7490234375, -0.148681640625, 0.29150390625, 
80, 2844787428, 0.4414960741996765, -0.46705400943756104, -0.5361306667327881, -0.5472522974014282, 9.686269760131836, 1.6195218563079834, -0.03026103600859642, -6.763169765472412, -1.0214828252792358, 0.17389501631259918, -0.751220703125, -0.147705078125, 0.290283203125, 
81, 2844795761, 0.44126737117767334, -0.46729809045791626, -0.5359460115432739, -0.5474093556404114, 9.7225923538208, 1.619348168373108, -0.023499084636569023, -5.965491771697998, -1.1001955270767212, 0.22002631425857544, -0.750732421875, -0.146728515625, 0.291259765625, 
82, 2844804094, 0.44109249114990234, -0.4674863815307617, -0.5358179807662964, -0.5475147366523743, 9.725367546081543, 1.6254230737686157, -0.042999278753995895, -4.466546535491943, -0.9573705792427063, 0.16490444540977478, -0.748291015625, -0.145751953125, 0.289306640625, 
83, 2844812427, 0.44099190831184387, -0.4676103889942169, -0.5357433557510376, -0.547562837600708, 9.746500015258789, 1.622167944908142, -0.027830328792333603, -2.6680428981781006, -0.6035610437393188, 0.25831955671310425, -0.7509765625, -0.149169921875, 0.2900390625, 
84, 2844820760, 0.4409745931625366, -0.46767646074295044, -0.5357245802879333, -0.5475388169288635, 9.76880931854248, 1.6581648588180542, -0.04280976578593254, -0.9355727434158325, -0.37123990058898926, 0.5333908200263977, -0.74853515625, -0.149658203125, 0.28955078125, 
85, 2844829093, 0.441045343875885, -0.46767231822013855, -0.5357489585876465, -0.5474614500999451, 9.795439720153809, 1.6887648105621338, -0.030936045572161674, 0.4423322081565857, 0.15348048508167267, 0.7100009322166443, -0.74853515625, -0.151123046875, 0.2900390625, 
86, 2844837426, 0.4411463737487793, -0.4676520824432373, -0.5357766151428223, -0.5473702549934387, 9.838277816772461, 1.7419103384017944, -0.0331963449716568, 1.1909594535827637, 0.43631279468536377, 0.8975227475166321, -0.749755859375, -0.146728515625, 0.290771484375, 
87, 2844845759, 0.4412666857242584, -0.4676167964935303, -0.535819411277771, -0.5472615957260132, 9.894640922546387, 1.7522714138031006, -0.05425824224948883, 1.566361904144287, 0.4743756353855133, 0.933920681476593, -0.75146484375, -0.149169921875, 0.29052734375, 
88, 2844854092, 0.4413743317127228, -0.4676005244255066, -0.5358217358589172, -0.5471864938735962, 9.8712739944458, 1.7909002304077148, -0.07779432088136673, 0.9014673829078674, 0.7125623822212219, 1.0435495376586914, -0.751220703125, -0.147705078125, 0.288818359375, 
89, 2844862425, 0.44144004583358765, -0.46761152148246765, -0.5357918739318848, -0.5471532344818115, 9.863428115844727, 1.7456871271133423, -0.07565561681985855, -0.1143803671002388, 0.6581832766532898, 0.877185046672821, -0.751708984375, -0.146728515625, 0.292236328125, 
90, 2844870758, 0.4414413869380951, -0.467666894197464, -0.5357404351234436, -0.5471552014350891, 9.868412971496582, 1.743427038192749, -0.07833053171634674, -1.1904857158660889, 0.21257252991199493, 0.6478608250617981, -0.750244140625, -0.146728515625, 0.290771484375, 
91, 2844879091, 0.4413783848285675, -0.46775010228157043, -0.535653829574585, -0.5472198128700256, 9.888924598693848, 1.7520413398742676, -0.07925549894571304, -2.422325611114502, 0.1547868251800537, 0.2150571346282959, -0.752685546875, -0.14599609375, 0.293212890625, 
92, 2844887424, 0.4412840008735657, -0.46783387660980225, -0.5355536937713623, -0.5473223328590393, 9.882660865783691, 1.709364414215088, -0.10773040354251862, -3.0844531059265137, 0.23588146269321442, -0.16033229231834412, -0.75, -0.147705078125, 0.2890625, 
93, 2844895757, 0.4411722421646118, -0.4679046869277954, -0.5354765057563782, -0.5474272966384888, 9.858487129211426, 1.6946654319763184, -0.09992225468158722, -2.943575143814087, 0.08511610329151154, -0.5495918393135071, -0.7490234375, -0.148193359375, 0.291015625, 
94, 2844904090, 0.44111090898513794, -0.4679316580295563, -0.5354416966438293, -0.5474878549575806, 9.831327438354492, 1.6499884128570557, -0.12535405158996582, -1.7268732786178589, 0.24074819684028625, -0.4965447187423706, -0.751220703125, -0.147705078125, 0.289794921875, 
95, 2844912423, 0.4410991370677948, -0.4679047763347626, -0.5354567170143127, -0.5475054979324341, 9.808257102966309, 1.645361304283142, -0.11357284337282181, -0.42052167654037476, 0.4270917475223541, -0.5815584063529968, -0.750244140625, -0.148193359375, 0.29150390625, 
96, 2844920756, 0.4411299228668213, -0.4678361117839813, -0.5355223417282104, -0.5474751591682434, 9.7659912109375, 1.6522281169891357, -0.09860946983098984, 0.8732916712760925, 0.4438434839248657, -0.6018704771995544, -0.750244140625, -0.145263671875, 0.290771484375, 
97, 2844929089, 0.441205233335495, -0.4677313268184662, -0.5356202721595764, -0.5474082231521606, 9.734823226928711, 1.6773234605789185, -0.07845406979322433, 1.7993489503860474, 0.6000134944915771, -0.524438738822937, -0.750244140625, -0.146728515625, 0.290283203125, 
98, 2844937422, 0.4412722885608673, -0.4676271080970764, -0.5357143878936768, -0.5473511815071106, 9.696060180664062, 1.681628704071045, -0.09890212118625641, 1.7321113348007202, 0.6336193084716797, -0.6111684441566467, -0.7490234375, -0.149658203125, 0.2890625, 
99, 2844945755, 0.44131338596343994, -0.467555433511734, -0.5357673764228821, -0.5473273396492004, 9.700113296508789, 1.6740299463272095, -0.10877328366041183, 1.2744618654251099, 0.7269575595855713, -0.4845828711986542, -0.750732421875, -0.145751953125, 0.289306640625, 
100, 2844954088, 0.44135594367980957, -0.46747642755508423, -0.5358052253723145, -0.5473235249519348, 9.689799308776855, 1.6578859090805054, -0.133336141705513, 0.6073134541511536, 0.9485974907875061, -0.5717480778694153, -0.74951171875, -0.147216796875, 0.29052734375, 
101, 2844962421, 0.44137001037597656, -0.46740615367889404, -0.5358371734619141, -0.5473407506942749, 9.681830406188965, 1.6743735074996948, -0.12548966705799103, 0.19238851964473724, 0.8461406230926514, -0.8134440779685974, -0.749267578125, -0.146240234375, 0.291259765625, 
102, 2844970754, 0.44137489795684814, -0.46735265851020813, -0.5358595848083496, -0.5473606586456299, 9.755348205566406, 1.7126052379608154, -0.09721426665782928, -0.08261871337890625, 0.7250365614891052, -0.7107310891151428, -0.750244140625, -0.147705078125, 0.2890625, 
103, 2844979087, 0.4413403570652008, -0.4673430025577545, -0.5358731150627136, -0.5473835468292236, 9.838363647460938, 1.7427401542663574, -0.08942484110593796, -0.7021501660346985, 0.1753806620836258, -0.6489238142967224, -0.75048828125, -0.148681640625, 0.29052734375, 
104, 2844987420, 0.4412740170955658, -0.4673594534397125, -0.5358629822731018, -0.5474327802658081, 9.863269805908203, 1.7486412525177002, -0.10639853775501251, -1.4233958721160889, 0.05904081091284752, -0.7015355229377747, -0.75, -0.147705078125, 0.28955078125, 
105, 2844995753, 0.4411926865577698, -0.46738946437835693, -0.5358557105064392, -0.5474796891212463, 9.843706130981445, 1.7675472497940063, -0.15104879438877106, -1.555975079536438, -0.18607459962368011, -0.7204899787902832, -0.74853515625, -0.14794921875, 0.2919921875, 
106, 2845004086, 0.44113969802856445, -0.4674074053764343, -0.5358636975288391, -0.5474992990493774, 9.842683792114258, 1.779584527015686, -0.1749088615179062, -0.9933328032493591, -0.15464594960212708, -0.5253095626831055, -0.750732421875, -0.148681640625, 0.291015625, 
107, 2845012419, 0.441089391708374, -0.46741464734077454, -0.5358854532241821, -0.547512412071228, 9.83689022064209, 1.8082029819488525, -0.13184119760990143, -0.7648025751113892, -0.1785183846950531, -0.6367058157920837, -0.751708984375, -0.148681640625, 0.2900390625, 
108, 2845020752, 0.44105470180511475, -0.46739888191223145, -0.5359384417533875, -0.5475018620491028, 9.815374374389648, 1.7940117120742798, -0.11244984716176987, -0.11087121069431305, -0.2318984717130661, -0.743927001953125, -0.750244140625, -0.1474609375, 0.2919921875, 
109, 2845029085, 0.4410281181335449, -0.4673784077167511, -0.5360202789306641, -0.5474607944488525, 9.762200355529785, 1.7435126304626465, -0.1016848161816597, 0.3776306211948395, -0.514910101890564, -0.7202082276344299, -0.752197265625, -0.148193359375, 0.292724609375, 
110, 2845037418, 0.4409981966018677, -0.46735090017318726, -0.536107063293457, -0.5474234223365784, 9.766069412231445, 1.703635573387146, -0.10918814688920975, 0.4427420496940613, -0.4851464331150055, -0.8473316431045532, -0.7529296875, -0.150634765625, 0.2890625, 
111, 2845045751, 0.4409700334072113, -0.4673127233982086, -0.5361772179603577, -0.5474101305007935, 9.773764610290527, 1.6936570405960083, -0.11410906165838242, -0.3183209300041199, -0.2156846821308136, -0.9775031805038452, -0.75146484375, -0.149658203125, 0.29150390625, 
112, 2845054084, 0.44090476632118225, -0.4673110246658325, -0.5362120270729065, -0.5474298596382141, 9.729267120361328, 1.7015968561172485, -0.11953780800104141, -0.7527382969856262, -0.2585885226726532, -0.9366484880447388, -0.75048828125, -0.149658203125, 0.291015625, 
113, 2845062417, 0.4408283233642578, -0.46733224391937256, -0.5362551212310791, -0.547431230545044, 9.700013160705566, 1.7245934009552002, -0.1072997972369194, -0.7117042541503906, -0.6751784086227417, -0.793131947517395, -0.7509765625, -0.150146484375, 0.29052734375, 
114, 2845070750, 0.4407816529273987, -0.4673343598842621, -0.5363119840621948, -0.5474112629890442, 9.687095642089844, 1.7528899908065796, -0.0979367271065712, -0.19667892158031464, -0.53801429271698, -0.6693128347396851, -0.74853515625, -0.150634765625, 0.291015625, 
115, 2845079083, 0.4407975971698761, -0.46729540824890137, -0.5363926887512207, -0.5473525524139404, 9.678383827209473, 1.7604432106018066, -0.0995892658829689, 0.8045687079429626, -0.17867209017276764, -0.4268227815628052, -0.748046875, -0.148681640625, 0.291015625, 
116, 2845087416, 0.44084152579307556, -0.4672376811504364, -0.5364794731140137, -0.5472815036773682, 9.716407775878906, 1.7696563005447388, -0.10046882927417755, 1.3481284379959106, 0.06974755972623825, -0.30958646535873413, -0.74853515625, -0.149658203125, 0.2919921875, 
117, 2845095749, 0.4409094750881195, -0.46715423464775085, -0.5365614891052246, -0.5472175478935242, 9.777481079101562, 1.786170482635498, -0.11122480034828186, 1.5784515142440796, 0.5151534080505371, -0.334150493144989, -0.7490234375, -0.146728515625, 0.28955078125, 
118, 2845104082, 0.44096317887306213, -0.4670798182487488, -0.5366270542144775, -0.5471736192703247, 9.828214645385742, 1.772038459777832, -0.09003299474716187, 1.1527173519134521, 0.5721195340156555, -0.3888625204563141, -0.750732421875, -0.148193359375, 0.291015625, 
119, 2845112415, 0.4409795105457306, -0.4670356512069702, -0.5366660952568054, -0.5471597909927368, 9.838484764099121, 1.7625033855438232, -0.12199173867702484, 0.3923076093196869, 0.43224018812179565, -0.45861005783081055, -0.75, -0.149169921875, 0.2919921875, 
120, 2845120748, 0.4409593343734741, -0.46700841188430786, -0.5366873145103455, -0.5471782684326172, 9.879578590393066, 1.731553077697754, -0.1429138034582138, -0.4007219076156616, 0.3416426479816437, -0.6908287405967712, -0.74951171875, -0.148681640625, 0.29150390625, 
121, 2845129081, 0.44090405106544495, -0.4670076370239258, -0.536681592464447, -0.547228991985321, 9.869757652282715, 1.715666651725769, -0.12003185600042343, -1.2434046268463135, 0.2501998245716095, -0.7824764251708984, -0.74951171875, -0.148193359375, 0.291015625, 
122, 2845137414, 0.4408367872238159, -0.4670224189758301, -0.5366480350494385, -0.5473035573959351, 9.819504737854004, 1.6805505752563477, -0.09659519046545029, -1.7838904857635498, 0.3676154911518097, -0.7239735126495361, -0.7490234375, -0.149658203125, 0.291015625, 
123, 2845145747, 0.44076865911483765, -0.4670408368110657, -0.5366120338439941, -0.5473781824111938, 9.775632858276367, 1.630102276802063, -0.07733572274446487, -1.8921875953674316, 0.34110477566719055, -0.6907519102096558, -0.751708984375, -0.148193359375, 0.2890625, 
124, 2845154080, 0.44072410464286804, -0.467048704624176, -0.5365901589393616, -0.5474287271499634, 9.7233247756958, 1.599168300628662, -0.06785187125205994, -1.331415057182312, 0.3630305230617523, -0.5317899584770203, -0.74755859375, -0.1494140625, 0.2919921875, 
125, 2845162413, 0.4407214820384979, -0.46702829003334045, -0.5366177558898926, -0.5474210977554321, 9.71444034576416, 1.6274148225784302, -0.02331111580133438, -0.12844258546829224, 0.20716793835163116, -0.3953429162502289, -0.750244140625, -0.148193359375, 0.2919921875, 
126, 2845170746, 0.4407736361026764, -0.4669628441333771, -0.5366960167884827, -0.5473583340644836, 9.734261512756348, 1.664745569229126, -0.027988938614726067, 1.3239487409591675, 0.2934623062610626, -0.3008776605129242, -0.74853515625, -0.148193359375, 0.291015625, 
127, 2845179079, 0.44091564416885376, -0.46680906414985657, -0.5368567109107971, -0.5472173094749451, 9.70766544342041, 1.6814062595367432, -0.07684934139251709, 3.6662418842315674, 0.6238089799880981, -0.3325623869895935, -0.75, -0.149658203125, 0.29248046875, 
128, 2845187412, 0.4411347508430481, -0.46657872200012207, -0.5370814800262451, -0.5470167398452759, 9.6850004196167, 1.7712671756744385, -0.11095854640007019, 5.516205310821533, 0.9943958520889282, -0.3684735894203186, -0.7509765625, -0.149658203125, 0.29296875, 
129, 2845195745, 0.4413740634918213, -0.4663203954696655, -0.5373278856277466, -0.5468020439147949, 9.711074829101562, 1.831093430519104, -0.15624700486660004, 5.992988109588623, 1.11985445022583, -0.4825337529182434, -0.74951171875, -0.150634765625, 0.28955078125, 
130, 2845204078, 0.44158440828323364, -0.46609100699424744, -0.5375396013259888, -0.5466196537017822, 9.709172248840332, 1.8682576417922974, -0.1711745709180832, 5.220309257507324, 1.118163824081421, -0.452180951833725, -0.750732421875, -0.148193359375, 0.291015625, 
131, 2845212411, 0.44172433018684387, -0.46592846512794495, -0.5376725196838379, -0.5465145111083984, 9.714978218078613, 1.8589067459106445, -0.1585579365491867, 3.161872625350952, 1.061684489250183, -0.4550241529941559, -0.75048828125, -0.149658203125, 0.2919921875, 
132, 2845220744, 0.441780686378479, -0.46584630012512207, -0.5377335548400879, -0.5464787483215332, 9.756892204284668, 1.7908287048339844, -0.16956529021263123, 1.1250028610229492, 0.7282896041870117, -0.44721171259880066, -0.7490234375, -0.149169921875, 0.28955078125, 
133, 2845229077, 0.441756933927536, -0.46583813428878784, -0.5377313494682312, -0.5465070009231567, 9.807084083557129, 1.7608082294464111, -0.16294176876544952, -0.7457455992698669, 0.38011524081230164, -0.4847109317779541, -0.74755859375, -0.14794921875, 0.2919921875, 
134, 2845237410, 0.44166454672813416, -0.46588563919067383, -0.5376732349395752, -0.546598494052887, 9.864405632019043, 1.7298544645309448, -0.1534656286239624, -2.452626943588257, 0.19333626329898834, -0.6171877980232239, -0.74853515625, -0.150634765625, 0.28955078125, 
135, 2845245743, 0.4415418207645416, -0.4659598767757416, -0.5375906229019165, -0.5467157363891602, 9.84811782836914, 1.6944986581802368, -0.12971337139606476, -3.438518762588501, 0.04349296912550926, -0.6567617058753967, -0.74951171875, -0.147705078125, 0.29150390625, 
136, 2845254076, 0.4414078891277313, -0.4660547971725464, -0.5375028848648071, -0.5468292236328125, 9.847907066345215, 1.6826468706130981, -0.14583849906921387, -3.3925416469573975, -0.14936941862106323, -0.521851658821106, -0.7490234375, -0.149169921875, 0.291015625, 
137, 2845262409, 0.441312700510025, -0.4661219120025635, -0.5374497175216675, -0.5469011068344116, 9.826478004455566, 1.7042936086654663, -0.09224501252174377, -2.4204044342041016, -0.133001908659935, -0.40640828013420105, -0.751708984375, -0.149169921875, 0.28955078125, 
138, 2845270742, 0.4412805438041687, -0.46613413095474243, -0.537443995475769, -0.5469222664833069, 9.825581550598145, 1.757910966873169, -0.08904552459716797, -0.939184308052063, 0.13455156981945038, -0.333689421415329, -0.748046875, -0.149658203125, 0.291015625, 
139, 2845279075, 0.4413244128227234, -0.4660796523094177, -0.537484884262085, -0.5468929409980774, 9.810860633850098, 1.8312705755233765, -0.10429547727108002, 0.6976548433303833, 0.5957101583480835, -0.24690838158130646, -0.750244140625, -0.147216796875, 0.2890625, 
140, 2845287408, 0.44141682982444763, -0.4659833312034607, -0.5375536680221558, -0.5468328595161438, 9.781712532043457, 1.8752238750457764, -0.08451647311449051, 1.679089903831482, 0.897830069065094, -0.18274475634098053, -0.74658203125, -0.147705078125, 0.29052734375, 
141, 2845295741, 0.44154366850852966, -0.46586060523986816, -0.5376399159431458, -0.5467501282691956, 9.739387512207031, 1.8632022142410278, -0.12499261647462845, 2.3790247440338135, 1.1023086309432983, -0.09406828880310059, -0.7509765625, -0.1494140625, 0.29296875, 
142, 2845304074, 0.4416978657245636, -0.4657139778137207, -0.5377504825592041, -0.5466418266296387, 9.684407234191895, 1.8354541063308716, -0.11563573777675629, 3.0503990650177, 1.170928955078125, -0.06397154927253723, -0.749267578125, -0.1474609375, 0.2919921875, 
143, 2845312407, 0.44186291098594666, -0.4655590057373047, -0.5378666520118713, -0.546526312828064, 9.64857292175293, 1.7774156332015991, -0.11373963207006454, 2.964181423187256, 1.1890640258789062, -0.0518047921359539, -0.7490234375, -0.146728515625, 0.2880859375, 
144, 2845320740, 0.4419727921485901, -0.4654325544834137, -0.5379383563995361, -0.5464744567871094, 9.635640144348145, 1.7521657943725586, -0.11991897970438004, 1.9345405101776123, 1.2897789478302002, -0.3417835235595703, -0.7490234375, -0.147705078125, 0.291015625, 
145, 2845329073, 0.4420076012611389, -0.46535366773605347, -0.5379775166511536, -0.5464749336242676, 9.639484405517578, 1.7197153568267822, -0.1431429535150528, 0.46874046325683594, 0.899136483669281, -0.6694920659065247, -0.74951171875, -0.1484375, 0.2919921875, 
146, 2845337406, 0.44196856021881104, -0.4653414487838745, -0.5379729866981506, -0.5465213656425476, 9.659549713134766, 1.673958420753479, -0.17298434674739838, -1.0144133567810059, 0.4221482574939728, -0.7261251211166382, -0.751708984375, -0.147705078125, 0.291259765625, 
147, 2845345739, 0.4418824315071106, -0.46536925435066223, -0.537971019744873, -0.5465692281723022, 9.700428009033203, 1.6761857271194458, -0.1623189002275467, -1.459563136100769, -0.2212173342704773, -0.8081675171852112, -0.748046875, -0.1484375, 0.29248046875, 
148, 2845354072, 0.4417989253997803, -0.465398907661438, -0.5379992127418518, -0.5465837121009827, 9.717487335205078, 1.7209382057189941, -0.181553453207016, -1.0693814754486084, -0.6257173418998718, -0.7651868462562561, -0.750732421875, -0.147705078125, 0.2919921875, 
149, 2845362405, 0.44173169136047363, -0.4654189646244049, -0.5380463004112244, -0.5465747714042664, 9.760297775268555, 1.7485911846160889, -0.20118801295757294, -0.49951598048210144, -0.6838616132736206, -0.6918532252311707, -0.75048828125, -0.149169921875, 0.29248046875, 
150, 2845370738, 0.4417150020599365, -0.46540388464927673, -0.5380955934524536, -0.5465525388717651, 9.752445220947266, 1.7329552173614502, -0.18546602129936218, 0.05898958444595337, -0.15787333250045776, -0.5057914853096008, -0.7490234375, -0.148193359375, 0.29150390625, 
151, 2845379071, 0.44172540307044983, -0.4653671383857727, -0.5381365418434143, -0.546535074710846, 9.737692832946777, 1.7049659490585327, -0.19251205027103424, 0.30888205766677856, 0.290926456451416, -0.4398092031478882, -0.7490234375, -0.148681640625, 0.29052734375, 
152, 2845387404, 0.4417462944984436, -0.46535325050354004, -0.5381695032119751, -0.5464977025985718, 9.74788761138916, 1.6698741912841797, -0.1524771898984909, 0.28162848949432373, 0.11444439738988876, -0.017942771315574646, -0.7470703125, -0.149658203125, 0.2900390625, 
153, 2845395737, 0.44176387786865234, -0.46535372734069824, -0.5381835699081421, -0.5464690923690796, 9.761314392089844, 1.6600892543792725, -0.1404530555009842, -0.09248020499944687, 0.14354217052459717, 0.1256890594959259, -0.74951171875, -0.150634765625, 0.2919921875, 
154, 2845404070, 0.44176384806632996, -0.46538278460502625, -0.538187563419342, -0.5464403629302979, 9.75724983215332, 1.6399108171463013, -0.08857365697622299, -0.3937035799026489, -0.13282258808612823, 0.2743796706199646, -0.749755859375, -0.1474609375, 0.2919921875, 
155, 2845412403, 0.4417635202407837, -0.4654276669025421, -0.538186252117157, -0.5464036464691162, 9.724804878234863, 1.6592521667480469, -0.07296615093946457, -0.27298372983932495, -0.24334806203842163, 0.4785764217376709, -0.748046875, -0.148681640625, 0.291015625, 
156, 2845420736, 0.44180765748023987, -0.46543750166893005, -0.538223147392273, -0.5463233590126038, 9.707466125488281, 1.6679500341415405, -0.07372435182332993, 0.63461834192276, -0.19165852665901184, 0.5674065947532654, -0.750244140625, -0.14794921875, 0.29248046875, 
157, 2845429069, 0.44191184639930725, -0.4653927683830261, -0.5383368730545044, -0.5461651682853699, 9.731019973754883, 1.682086706161499, -0.09979994595050812, 2.3864784240722656, -0.3198065757751465, 0.5889225006103516, -0.748046875, -0.14697265625, 0.29248046875, 
158, 2845437402, 0.4420645534992218, -0.4652954936027527, -0.5385037660598755, -0.5459599494934082, 9.69882583618164, 1.7708885669708252, -0.1095370203256607, 3.8816068172454834, -0.17375415563583374, 0.5159475207328796, -0.74853515625, -0.14794921875, 0.2919921875, 
159, 2845445735, 0.4422314167022705, -0.46518269181251526, -0.5386868715286255, -0.5457401275634766, 9.689715385437012, 1.8481450080871582, -0.09873180836439133, 4.276297092437744, -0.14381112158298492, 0.49012839794158936, -0.751708984375, -0.148681640625, 0.29248046875, 
160, 2845454068, 0.4423992931842804, -0.4650581181049347, -0.5388721227645874, -0.5455273985862732, 9.692925453186035, 1.9049936532974243, -0.09680944681167603, 4.336490154266357, -0.015816790983080864, 0.3571648895740509, -0.7470703125, -0.146484375, 0.2919921875, 
161, 2845462401, 0.4425477385520935, -0.46494919061660767, -0.5390216112136841, -0.5453521609306335, 9.745198249816895, 1.9590719938278198, -0.09044773876667023, 3.5083048343658447, 0.1704627275466919, 0.32184284925460815, -0.74853515625, -0.1474609375, 0.2919921875, 
162, 2845470734, 0.4426596164703369, -0.4648589491844177, -0.5391186475753784, -0.545242428779602, 9.799459457397461, 1.9638127088546753, -0.11439067870378494, 2.3451881408691406, 0.5075460076332092, 0.12737958133220673, -0.749755859375, -0.1455078125, 0.292724609375, 
163, 2845479067, 0.4427061676979065, -0.4648090898990631, -0.5391736030578613, -0.5451924800872803, 9.832962989807129, 1.9349942207336426, -0.12999576330184937, 1.0239291191101074, 0.372789591550827, -0.15472279489040375, -0.750732421875, -0.146728515625, 0.291259765625, 
164, 2845487400, 0.4427327811717987, -0.4647810459136963, -0.5391802787780762, -0.545188307762146, 9.836610794067383, 1.8926637172698975, -0.14927983283996582, -0.039971012622117996, 0.6354891061782837, -0.1155330017209053, -0.74951171875, -0.147705078125, 0.291015625, 
165, 2845495733, 0.4427253007888794, -0.4647983908653259, -0.53916335105896, -0.5451963543891907, 9.82303524017334, 1.8341107368469238, -0.1704021543264389, -0.6013070344924927, 0.2905935049057007, 0.04961477592587471, -0.749267578125, -0.146240234375, 0.290283203125, 
166, 2845504066, 0.4427274763584137, -0.4648151397705078, -0.5391672253608704, -0.5451763868331909, 9.832884788513184, 1.7795629501342773, -0.14664043486118317, -0.3702153265476227, 0.03334973379969597, 0.14846010506153107, -0.749267578125, -0.14501953125, 0.294189453125, 
167, 2845512399, 0.442734032869339, -0.46482014656066895, -0.5392000675201416, -0.5451344847679138, 9.85040283203125, 1.7805719375610352, -0.13038207590579987, -0.13909809291362762, -0.20023927092552185, 0.030813921242952347, -0.748291015625, -0.14599609375, 0.29248046875, 
168, 2845520732, 0.44275152683258057, -0.464811772108078, -0.5392405986785889, -0.5450873374938965, 9.8177490234375, 1.7950702905654907, -0.1081867516040802, 0.3568574786186218, -0.06176872178912163, 0.008478310890495777, -0.750244140625, -0.146728515625, 0.291748046875, 
169, 2845529065, 0.4427882432937622, -0.4647931754589081, -0.5392811894416809, -0.5450329780578613, 9.814966201782227, 1.8270578384399414, -0.1152537614107132, 0.5964275002479553, 0.11098647117614746, 0.1184658333659172, -0.749755859375, -0.146728515625, 0.291748046875, 
170, 2845537398, 0.4428236484527588, -0.46477794647216797, -0.5393178462982178, -0.5449810028076172, 9.833685874938965, 1.816857933998108, -0.12953798472881317, 0.5196871757507324, 0.11593002825975418, 0.14523270726203918, -0.749755859375, -0.14697265625, 0.29248046875, 
171, 2845545731, 0.4428568482398987, -0.4647659659385681, -0.5393341779708862, -0.5449479818344116, 9.786798477172852, 1.8062716722488403, -0.11530382931232452, 0.2035307139158249, 0.32120251655578613, 0.16600584983825684, -0.751220703125, -0.144775390625, 0.291259765625, 
172, 2845554064, 0.44289344549179077, -0.46476295590400696, -0.5393298268318176, -0.5449250936508179, 9.756957054138184, 1.733455777168274, -0.1490008682012558, -0.06945299357175827, 0.46958574652671814, 0.33009064197540283, -0.749755859375, -0.14697265625, 0.29443359375, 
173, 2845562397, 0.4429181218147278, -0.4647664725780487, -0.5393046736717224, -0.5449268817901611, 9.71044921875, 1.7241641283035278, -0.1368696540594101, -0.11340702325105667, 0.6754985451698303, 0.2876734435558319, -0.749267578125, -0.146484375, 0.294189453125, 
174, 2845570730, 0.44294577836990356, -0.4647732377052307, -0.5392920970916748, -0.54491126537323, 9.70352554321289, 1.7237564325332642, -0.13307149708271027, -0.3024144768714905, 0.42419737577438354, 0.34371739625930786, -0.748291015625, -0.14697265625, 0.2958984375, 
175, 2845579063, 0.44296300411224365, -0.46479037404060364, -0.5392730832099915, -0.5449013710021973, 9.73841667175293, 1.695481777191162, -0.1363973170518875, -0.6417261958122253, 0.32888680696487427, 0.3430258333683014, -0.750732421875, -0.146484375, 0.292724609375, 
176, 2845587396, 0.44298055768013, -0.46481627225875854, -0.5392301082611084, -0.5449075102806091, 9.766770362854004, 1.6679500341415405, -0.15957993268966675, -0.8732020258903503, 0.5293181538581848, 0.47086647152900696, -0.74755859375, -0.147705078125, 0.2900390625, 
177, 2845595729, 0.44300350546836853, -0.464836061000824, -0.5391921401023865, -0.544909656047821, 9.759925842285156, 1.6664340496063232, -0.19155289232730865, -0.4902179539203644, 0.5973751544952393, 0.46843311190605164, -0.74755859375, -0.14794921875, 0.294921875, 
178, 2845604062, 0.4430377185344696, -0.4648435711860657, -0.5391873717308044, -0.544880211353302, 9.832204818725586, 1.736903429031372, -0.16799166798591614, -0.10369922965765, 0.3328569829463959, 0.43300861120224, -0.748291015625, -0.14404296875, 0.291748046875, 
179, 2845612395, 0.44308099150657654, -0.46483558416366577, -0.5391936898231506, -0.5448456406593323, 9.878591537475586, 1.7743842601776123, -0.18093116581439972, -0.12278182804584503, 0.3720467686653137, 0.3340096175670624, -0.749755859375, -0.146484375, 0.292236328125, 
180, 2845620728, 0.4431018531322479, -0.46484100818634033, -0.5391820669174194, -0.5448354482650757, 9.86244010925293, 1.7947269678115845, -0.16952237486839294, -0.3717009425163269, 0.41402849555015564, 0.24323277175426483, -0.749755859375, -0.14697265625, 0.2919921875, 
181, 2845629061, 0.4431210160255432, -0.4648508131504059, -0.5391618609428406, -0.5448315143585205, 9.823221206665039, 1.8096052408218384, -0.1820969432592392, -0.477308452129364, 0.4648214876651764, 0.2801685035228729, -0.751220703125, -0.1455078125, 0.293212890625, 
182, 2845637394, 0.4431391954421997, -0.4648696482181549, -0.539119303226471, -0.5448427796363831, 9.816997528076172, 1.783740758895874, -0.17798401415348053, -0.8617780804634094, 0.620607316493988, 0.38984861969947815, -0.750244140625, -0.146240234375, 0.291748046875, 
183, 2845645727, 0.44316336512565613, -0.4648786783218384, -0.5390873551368713, -0.5448469519615173, 9.812971115112305, 1.7602288722991943, -0.16217641532421112, -0.6158302426338196, 0.628701388835907, 0.33718574047088623, -0.751220703125, -0.14794921875, 0.29345703125, 
184, 2845654060, 0.4431874752044678, -0.46486836671829224, -0.5390682816505432, -0.5448551774024963, 9.76513957977295, 1.7252585887908936, -0.1434788703918457, -0.44836434721946716, 0.7180182337760925, 0.08742137998342514, -0.750244140625, -0.14697265625, 0.294189453125, 
185, 2845662393, 0.4431920051574707, -0.46486520767211914, -0.5390604138374329, -0.544861912727356, 9.737966537475586, 1.7026269435882568, -0.13867217302322388, -0.40978938341140747, 0.4587766230106354, -0.0664561316370964, -0.748291015625, -0.146484375, 0.29150390625, 
186, 2845670726, 0.4431810677051544, -0.46486881375312805, -0.5390587449073792, -0.5448693633079529, 9.735663414001465, 1.6859608888626099, -0.13171960413455963, -0.6188527941703796, 0.24318155646324158, -0.18064440786838531, -0.751708984375, -0.146240234375, 0.289794921875, 
187, 2845679059, 0.44316795468330383, -0.4648624658584595, -0.5390825867652893, -0.5448619723320007, 9.749653816223145, 1.7080632448196411, -0.13076148927211761, -0.3991338014602661, 0.032120250165462494, -0.3469320237636566, -0.748291015625, -0.1455078125, 0.295654296875, 
188, 2845687392, 0.443170428276062, -0.4648434519767761, -0.5391230583190918, -0.544836163520813, 9.77369499206543, 1.7118682861328125, -0.1636001318693161, 0.1659802496433258, 0.042801383882761, -0.3135053813457489, -0.748779296875, -0.145263671875, 0.290771484375, 
189, 2845695725, 0.44318705797195435, -0.46479958295822144, -0.5391879081726074, -0.5447956323623657, 9.827985763549805, 1.761108636856079, -0.15909381210803986, 0.8299011588096619, 0.1111401617527008, -0.45382019877433777, -0.750244140625, -0.1455078125, 0.293212890625, 
190, 2845704058, 0.4432411193847656, -0.46471497416496277, -0.5392678380012512, -0.5447448492050171, 9.812942504882812, 1.8082530498504639, -0.1545374095439911, 1.3766626119613647, 0.5162805318832397, -0.513475775718689, -0.74853515625, -0.14697265625, 0.2939453125, 
191, 2845712391, 0.4432961046695709, -0.4646352529525757, -0.5393499135971069, -0.5446867942810059, 9.805732727050781, 1.8435450792312622, -0.14428715407848358, 1.359885334968567, 0.41935625672340393, -0.442319393157959, -0.750244140625, -0.14453125, 0.294677734375, 
192, 2845720724, 0.44333598017692566, -0.46458059549331665, -0.5394109487533569, -0.5446406602859497, 9.762907981872559, 1.8687517642974854, -0.16348537802696228, 0.9273120760917664, 0.33285701274871826, -0.30507832765579224, -0.748046875, -0.14697265625, 0.29443359375, 
193, 2845729057, 0.4433850049972534, -0.4645238220691681, -0.5394462943077087, -0.5446141958236694, 9.763294219970703, 1.903843641281128, -0.15367883443832397, 0.5316490530967712, 0.6778039932250977, -0.21345624327659607, -0.750244140625, -0.1474609375, 0.29345703125, 
194, 2845737390, 0.44342249631881714, -0.4644922614097595, -0.5394431352615356, -0.5446135997772217, 9.75619125366211, 1.869459867477417, -0.17296288907527924, -0.04686124622821808, 0.8236000537872314, -0.019249098375439644, -0.749267578125, -0.14599609375, 0.292236328125, 
195, 2845745723, 0.44344112277030945, -0.46448493003845215, -0.5394076108932495, -0.5446398854255676, 9.747208595275879, 1.8940366506576538, -0.18111716210842133, -0.7244857549667358, 0.8750846982002258, 0.06390750408172607, -0.750244140625, -0.14697265625, 0.294189453125, 
196, 2845754056, 0.4434211552143097, -0.46451157331466675, -0.5393352508544922, -0.5447050333023071, 9.719776153564453, 1.8744531869888306, -0.16952867805957794, -1.775463581085205, 0.8050298690795898, 0.02351387031376362, -0.749267578125, -0.1455078125, 0.291748046875, 
197, 2845762389, 0.44337359070777893, -0.46457087993621826, -0.5392276048660278, -0.5447996854782104, 9.718033790588379, 1.8034999370574951, -0.18745723366737366, -2.695655107498169, 0.7467318177223206, 0.10117623209953308, -0.748291015625, -0.14599609375, 0.29296875, 
198, 2845770722, 0.4432991147041321, -0.4646606147289276, -0.5390955209732056, -0.5449144840240479, 9.718947410583496, 1.7937180995941162, -0.17614592611789703, -3.3235366344451904, 0.6093882322311401, 0.16285529732704163, -0.7490234375, -0.1484375, 0.29296875, 
199, 2845779055, 0.44321006536483765, -0.4647635817527771, -0.5389431118965149, -0.5450500249862671, 9.736617088317871, 1.7473822832107544, -0.1661563366651535, -3.813459873199463, 0.6560574173927307, 0.15483804047107697, -0.751220703125, -0.14697265625, 0.293701171875, 
200, 2845787388, 0.44312068819999695, -0.4648642838001251, -0.5387913584709167, -0.5451866984367371, 9.768636703491211, 1.7026437520980835, -0.1645866483449936, -3.794991970062256, 0.6765487194061279, 0.12294831871986389, -0.747802734375, -0.1455078125, 0.292724609375, 
201, 2845795721, 0.44305500388145447, -0.46493926644325256, -0.5386731028556824, -0.5452930331230164, 9.741131782531738, 1.6785281896591187, -0.1564728170633316, -3.1074037551879883, 0.6305968761444092, 0.07830271869897842, -0.750732421875, -0.146728515625, 0.291259765625, 
202, 2845804054, 0.44300058484077454, -0.46500280499458313, -0.5385819673538208, -0.5453731417655945, 9.795896530151367, 1.6791938543319702, -0.17859145998954773, -2.472580671310425, 0.48257219791412354, 0.0684412345290184, -0.747802734375, -0.146484375, 0.29443359375, 
203, 2845812387, 0.4429674744606018, -0.46506640315055847, -0.5385116934776306, -0.5454152226448059, 9.81401252746582, 1.6876615285873413, -0.17999403178691864, -2.0498175621032715, 0.24523068964481354, 0.3186666965484619, -0.751708984375, -0.14599609375, 0.292724609375, 
204, 2845820720, 0.44294437766075134, -0.4651237428188324, -0.5384507179260254, -0.545445442199707, 9.81305980682373, 1.7177643775939941, -0.18866902589797974, -1.6391187906265259, 0.25893428921699524, 0.3694853186607361, -0.748779296875, -0.14697265625, 0.29345703125, 
205, 2845829053, 0.44294315576553345, -0.4651677906513214, -0.5383939146995544, -0.5454646944999695, 9.760083198547363, 1.7533196210861206, -0.16905725002288818, -1.3492426872253418, 0.4178450107574463, 0.47009801864624023, -0.750244140625, -0.14794921875, 0.29248046875, 
206, 2845837386, 0.44292518496513367, -0.46522533893585205, -0.5383371710777283, -0.5454862117767334, 9.749382019042969, 1.75448477268219, -0.12090470641851425, -1.5114573240280151, 0.21252129971981049, 0.43454545736312866, -0.748779296875, -0.14697265625, 0.2919921875, 
207, 2845845719, 0.442909300327301, -0.4652882516384125, -0.5382697582244873, -0.5455119609832764, 9.768887519836426, 1.7688841819763184, -0.09743323177099228, -1.7031800746917725, 0.2689238488674164, 0.5284984707832336, -0.752197265625, -0.14697265625, 0.294677734375, 
208, 2845854052, 0.4428921639919281, -0.4653383195400238, -0.5382052063941956, -0.5455468893051147, 9.755511283874512, 1.7164872884750366, -0.11490838974714279, -1.617295503616333, 0.4088800251483917, 0.3531434237957001, -0.750732421875, -0.1484375, 0.29345703125, 
209, 2845862385, 0.4428567588329315, -0.465383380651474, -0.5381371974945068, -0.5456041693687439, 9.722343444824219, 1.6503952741622925, -0.1148565486073494, -1.810401201248169, 0.48538973927497864, 0.06710929423570633, -0.750244140625, -0.145751953125, 0.291259765625, 
210, 2845870718, 0.4428255558013916, -0.4654090106487274, -0.5380895733833313, -0.5456546545028687, 9.734969139099121, 1.6389309167861938, -0.08659946918487549, -1.5477529764175415, 0.48613259196281433, -0.13525596261024475, -0.750732421875, -0.145751953125, 0.289306640625, 
211, 2845879051, 0.44282853603363037, -0.4654010534286499, -0.5380750894546509, -0.5456733703613281, 9.743330955505371, 1.6091822385787964, -0.05624280497431755, -0.9215874075889587, 0.5422277450561523, -0.15915405750274658, -0.749267578125, -0.14697265625, 0.29248046875, 
212, 2845887384, 0.4428524374961853, -0.46536529064178467, -0.5380935668945312, -0.5456662774085999, 9.72527027130127, 1.6134238243103027, -0.03569268807768822, 0.10027973353862762, 0.5825701355934143, -0.25018706917762756, -0.750732421875, -0.1474609375, 0.292724609375, 
213, 2845895717, 0.44290465116500854, -0.4653013348579407, -0.5381671786308289, -0.5456057786941528, 9.778951644897461, 1.6625210046768188, -0.04847481846809387, 1.2770745754241943, 0.3255313038825989, -0.27421319484710693, -0.74853515625, -0.14697265625, 0.2919921875, 
214, 2845904050, 0.4429759383201599, -0.4652285575866699, -0.53827303647995, -0.5455056428909302, 9.786149024963379, 1.7398600578308105, -0.0874592661857605, 1.9735255241394043, 0.08324626088142395, -0.15994808077812195, -0.750244140625, -0.14453125, 0.293212890625, 
215, 2845912383, 0.44306614995002747, -0.46513473987579346, -0.5383955240249634, -0.5453914403915405, 9.793915748596191, 1.8055884838104248, -0.11459864675998688, 2.450103998184204, 0.18734249472618103, -0.19624345004558563, -0.748779296875, -0.14697265625, 0.29248046875, 
216, 2845920716, 0.44313499331474304, -0.4650423526763916, -0.5384923815727234, -0.545318603515625, 9.71846866607666, 1.8385393619537354, -0.09964682161808014, 1.8082114458084106, 0.4397708475589752, -0.4324323534965515, -0.749267578125, -0.146484375, 0.294189453125, 
217, 2845929049, 0.44321465492248535, -0.4649401903152466, -0.5385894775390625, -0.5452451109886169, 9.69842529296875, 1.8294392824172974, -0.12673291563987732, 1.7909729480743408, 0.5661258101463318, -0.4305112361907959, -0.748291015625, -0.14501953125, 0.291748046875, 
218, 2845937382, 0.4432981014251709, -0.46482041478157043, -0.538676917552948, -0.545193076133728, 9.698338508605957, 1.7669066190719604, -0.14326420426368713, 1.8430465459823608, 0.9455495476722717, -0.5914967656135559, -0.749267578125, -0.146728515625, 0.2900390625, 
219, 2845945715, 0.4434029459953308, -0.4646891951560974, -0.5387633442878723, -0.5451343059539795, 9.704717636108398, 1.7328941822052002, -0.17073027789592743, 2.0407373905181885, 1.1442904472351074, -0.4712635278701782, -0.750732421875, -0.1484375, 0.29345703125, 
220, 2845954048, 0.44348078966140747, -0.4645830988883972, -0.5388400554656982, -0.5450855493545532, 9.738068580627441, 1.71103835105896, -0.17201271653175354, 1.6214067935943604, 0.8856378793716431, -0.48617100715637207, -0.750732421875, -0.14599609375, 0.292236328125, 
221, 2845962381, 0.4435277581214905, -0.46452125906944275, -0.538884699344635, -0.5450559258460999, 9.805510520935059, 1.6990147829055786, -0.1776694655418396, 0.8289535045623779, 0.6512419581413269, -0.2976245880126953, -0.749755859375, -0.145263671875, 0.290771484375, 
222, 2845970714, 0.4435451924800873, -0.4645145535469055, -0.5388901233673096, -0.5450420379638672, 9.856324195861816, 1.7049659490585327, -0.1956159472465515, -0.1634572297334671, 0.352477490901947, 0.04182804375886917, -0.751220703125, -0.146484375, 0.292236328125, 
223, 2845979047, 0.4435235559940338, -0.46456852555274963, -0.5388535857200623, -0.545049786567688, 9.876959800720215, 1.747017502784729, -0.20431379973888397, -1.2708885669708252, 0.0007940412615425885, 0.3340352177619934, -0.748779296875, -0.14501953125, 0.291748046875, 
224, 2845987380, 0.44347041845321655, -0.46466946601867676, -0.538761556148529, -0.545098066329956, 9.910155296325684, 1.762656569480896, -0.1673033982515335, -2.4639229774475098, 0.013549931347370148, 0.5537285804748535, -0.74853515625, -0.148193359375, 0.291015625, 
225, 2845995713, 0.4433974027633667, -0.4648069441318512, -0.5386204719543457, -0.5451793670654297, 9.920299530029297, 1.8086462020874023, -0.12060242891311646, -3.218287944793701, 0.13168278336524963, 0.7948865294456482, -0.748779296875, -0.14599609375, 0.292724609375, 
226, 2846004046, 0.44333404302597046, -0.46493956446647644, -0.5384792685508728, -0.5452574491500854, 9.886740684509277, 1.8256535530090332, -0.0745355635881424, -3.311523675918579, 0.1909797489643097, 0.8455259799957275, -0.751220703125, -0.14453125, 0.294189453125, 
227, 2846012379, 0.44330114126205444, -0.46504729986190796, -0.5383468866348267, -0.5453229546546936, 9.840910911560059, 1.8290691375732422, -0.06761384755373001, -3.0045881271362305, 0.44000130891799927, 0.8998792767524719, -0.75, -0.147705078125, 0.29052734375, 
228, 2846020712, 0.443297803401947, -0.4651314616203308, -0.5382241606712341, -0.5453752279281616, 9.794950485229492, 1.8304681777954102, -0.07790549099445343, -2.3020923137664795, 0.7205284237861633, 0.9747240543365479, -0.749267578125, -0.14453125, 0.292236328125, 
229, 2846029045, 0.44335025548934937, -0.4651569724082947, -0.5381172299385071, -0.5454161763191223, 9.746125221252441, 1.8070098161697388, -0.06226250156760216, -1.439968228340149, 1.395770788192749, 0.9243408441543579, -0.749755859375, -0.146240234375, 0.289794921875, 
230, 2846037378, 0.4434160888195038, -0.46517547965049744, -0.5380258560180664, -0.5454369783401489, 9.697295188903809, 1.7962491512298584, -0.02941865660250187, -0.9915398359298706, 1.3337844610214233, 0.9998772740364075, -0.749755859375, -0.145263671875, 0.290771484375, 
231, 2846045711, 0.44349053502082825, -0.465193510055542, -0.5379536151885986, -0.5454323291778564, 9.687398910522461, 1.771435260772705, -0.020586883649230003, -0.6338626146316528, 1.1153974533081055, 1.0914736986160278, -0.749267578125, -0.1455078125, 0.291259765625, 
232, 2846054044, 0.44359445571899414, -0.4651945233345032, -0.5379000902175903, -0.5453999042510986, 9.681817054748535, 1.7578986883163452, -0.053234610706567764, 0.036192912608385086, 1.174412727355957, 1.2371163368225098, -0.751708984375, -0.143798828125, 0.290283203125, 
233, 2846062377, 0.443697452545166, -0.4651941955089569, -0.537853479385376, -0.5453622341156006, 9.681130409240723, 1.753326177597046, -0.08996863663196564, 0.23900644481182098, 1.1184968948364258, 1.2141659259796143, -0.751220703125, -0.143310546875, 0.289794921875, 
234, 2846070710, 0.4437839686870575, -0.4651963710784912, -0.5378056764602661, -0.5453370809555054, 9.686466217041016, 1.7409089803695679, -0.10118415206670761, -0.09168615937232971, 1.0471612215042114, 1.0338417291641235, -0.749755859375, -0.14697265625, 0.2919921875, 
235, 2846079043, 0.4438374936580658, -0.46521157026290894, -0.5377353429794312, -0.5453499555587769, 9.680657386779785, 1.7478114366531372, -0.09330883622169495, -0.6238731145858765, 1.1160633563995361, 0.805618941783905, -0.750732421875, -0.144775390625, 0.291259765625, 
236, 2846087376, 0.4438789188861847, -0.4652322828769684, -0.5376639366149902, -0.5453689098358154, 9.696250915527344, 1.7288353443145752, -0.1155468299984932, -0.9971237182617188, 1.0027716159820557, 0.7149444818496704, -0.751708984375, -0.1455078125, 0.292724609375, 
237, 2846095709, 0.4438912868499756, -0.4652694761753082, -0.5375742316246033, -0.5454155802726746, 9.726846694946289, 1.677911639213562, -0.12316130846738815, -1.587864875793457, 0.9591506719589233, 0.5695581436157227, -0.748291015625, -0.144287109375, 0.290283203125, 
238, 2846104042, 0.44387438893318176, -0.4653328061103821, -0.5374709963798523, -0.5454772114753723, 9.782047271728516, 1.6110676527023315, -0.11085924506187439, -2.185239791870117, 0.719170868396759, 0.5367462635040283, -0.752197265625, -0.143798828125, 0.288818359375, 
239, 2846112375, 0.44384709000587463, -0.4654054045677185, -0.5373745560646057, -0.5455325245857239, 9.827970504760742, 1.5716849565505981, -0.1181858479976654, -2.2394654750823975, 0.4862094223499298, 0.5196872353553772, -0.751708984375, -0.144287109375, 0.290283203125, 
240, 2846120708, 0.4438341557979584, -0.4654713571071625, -0.5372952818870544, -0.5455649495124817, 9.879734992980957, 1.589788794517517, -0.1252157837152481, -1.7788702249526978, 0.3942543566226959, 0.6115143299102783, -0.750244140625, -0.145263671875, 0.289306640625, 
241, 2846129041, 0.443840891122818, -0.4655241370201111, -0.5372368693351746, -0.5455716848373413, 9.888934135437012, 1.570220708847046, -0.10667750239372253, -1.397653579711914, 0.32268816232681274, 0.6765231490135193, -0.750732421875, -0.144775390625, 0.288818359375, 
242, 2846137374, 0.4438592493534088, -0.46556413173675537, -0.537192702293396, -0.5455661416053772, 9.870630264282227, 1.5658645629882812, -0.1284722089767456, -0.8773515224456787, 0.36528459191322327, 0.6606166362762451, -0.750244140625, -0.144775390625, 0.288818359375, 
243, 2846145707, 0.443892240524292, -0.4656001329421997, -0.5371936559677124, -0.5455077886581421, 9.833399772644043, 1.5984386205673218, -0.10743570327758789, -0.06274206191301346, -0.11658317595720291, 0.771910548210144, -0.754150390625, -0.144287109375, 0.289306640625, 
244, 2846154040, 0.44392091035842896, -0.4656268358230591, -0.5372269153594971, -0.5454289317131042, 9.80161190032959, 1.6411912441253662, -0.08196442574262619, 0.3932296931743622, -0.4039492607116699, 0.5920730233192444, -0.751708984375, -0.144287109375, 0.289794921875, 
245, 2846162373, 0.44395413994789124, -0.46563321352005005, -0.5372650027275085, -0.5453588366508484, 9.753437995910645, 1.6809896230697632, -0.06943264603614807, 0.5182015299797058, -0.18822619318962097, 0.3900279402732849, -0.751220703125, -0.140869140625, 0.29052734375, 
246, 2846170706, 0.4439919888973236, -0.46560972929000854, -0.5373179912567139, -0.5452958345413208, 9.690163612365723, 1.6759538650512695, -0.07913897186517715, 0.7895076274871826, 0.02230999991297722, 0.06628964096307755, -0.752197265625, -0.144775390625, 0.291259765625, 
247, 2846179039, 0.4440337121486664, -0.4655781686306, -0.537394642829895, -0.5452132821083069, 9.666158676147461, 1.6935642957687378, -0.075998954474926, 1.184094786643982, -0.1572842001914978, 0.003099322086200118, -0.752197265625, -0.14453125, 0.292236328125, 
248, 2846187372, 0.4440685510635376, -0.4655447006225586, -0.5374857187271118, -0.545123815536499, 9.691673278808594, 1.7233061790466309, -0.06383193284273148, 1.3108084201812744, -0.32580024003982544, -0.11151157319545746, -0.750732421875, -0.143310546875, 0.289794921875, 
249, 2846195705, 0.4441050887107849, -0.46550077199935913, -0.5375877022743225, -0.5450308918952942, 9.698199272155762, 1.7395045757293701, -0.07766230404376984, 1.6807036399841309, -0.2984698414802551, -0.21950118243694305, -0.753662109375, -0.14453125, 0.292724609375, 
250, 2846204038, 0.444156289100647, -0.4654247462749481, -0.5377084612846375, -0.5449351072311401, 9.682756423950195, 1.76775062084198, -0.12180782109498978, 1.9451706409454346, -0.10848909616470337, -0.45443496108055115, -0.752685546875, -0.143310546875, 0.287841796875, 
251, 2846212371, 0.44418129324913025, -0.46535399556159973, -0.5378149151802063, -0.5448698401451111, 9.69114875793457, 1.80340576171875, -0.11028248071670532, 1.7444831132888794, -0.011769740842282772, -0.6952855587005615, -0.752197265625, -0.14404296875, 0.292236328125, 
252, 2846220704, 0.4441877007484436, -0.46528834104537964, -0.5379156470298767, -0.5448213219642639, 9.748488426208496, 1.7886542081832886, -0.0981370061635971, 1.0960588455200195, -0.09306932240724564, -0.8748157620429993, -0.751708984375, -0.14208984375, 0.2919921875, 
253, 2846229037, 0.44415438175201416, -0.4652424454689026, -0.5380025506019592, -0.5448019504547119, 9.810253143310547, 1.7536410093307495, -0.08550508320331573, 0.7042377591133118, -0.2189120501279831, -1.1051390171051025, -0.751220703125, -0.14404296875, 0.292236328125, 
254, 2846237370, 0.4441228210926056, -0.46519705653190613, -0.5380911231040955, -0.5447790026664734, 9.833534240722656, 1.7569596767425537, -0.07106379419565201, 0.44886380434036255, -0.2876606583595276, -1.0880800485610962, -0.751220703125, -0.144287109375, 0.290283203125, 
255, 2846245703, 0.44406965374946594, -0.46517619490623474, -0.5381650328636169, -0.544766902923584, 9.867903709411621, 1.7148581743240356, -0.06860288232564926, 0.0293539147824049, -0.46304136514663696, -1.0392591953277588, -0.751220703125, -0.143310546875, 0.290771484375, 
256, 2846254036, 0.44401973485946655, -0.46516549587249756, -0.538250744342804, -0.5447320938110352, 9.872003555297852, 1.6807249784469604, -0.0668218582868576, 0.18611302971839905, -0.7426207065582275, -0.878555417060852, -0.751220703125, -0.14599609375, 0.293212890625, 
257, 2846262369, 0.44398829340934753, -0.46513035893440247, -0.5383481979370117, -0.5446914434432983, 9.841530799865723, 1.7126262187957764, -0.10328023880720139, 0.6088503003120422, -0.527256190776825, -0.9608027338981628, -0.750732421875, -0.143798828125, 0.289306640625, 
258, 2846270702, 0.44397488236427307, -0.46508070826530457, -0.5384589433670044, -0.5446352958679199, 9.789624214172363, 1.7039860486984253, -0.1382787525653839, 1.0023618936538696, -0.467421293258667, -0.9228167533874512, -0.750732421875, -0.1435546875, 0.292236328125, 
259, 2846279035, 0.4439677298069, -0.4650285243988037, -0.5385664701461792, -0.5445792078971863, 9.801891326904297, 1.6629574298858643, -0.10651988536119461, 0.9010575413703918, -0.40451276302337646, -0.8793749809265137, -0.750244140625, -0.14501953125, 0.292236328125, 
260, 2846287368, 0.44396263360977173, -0.46498245000839233, -0.5386669039726257, -0.5445235967636108, 9.768036842346191, 1.6462196111679077, -0.08014760166406631, 0.9517994523048401, -0.3662451505661011, -0.7721284031867981, -0.751220703125, -0.14501953125, 0.292236328125, 
261, 2846295701, 0.4439699351787567, -0.4649372696876526, -0.5387715101242065, -0.5444526672363281, 9.763294219970703, 1.5949552059173584, -0.09868777543306351, 1.2112715244293213, -0.4017464220523834, -0.6037659049034119, -0.749267578125, -0.145263671875, 0.290771484375, 
262, 2846304034, 0.4439842402935028, -0.46488940715789795, -0.5389103293418884, -0.5443445444107056, 9.729785919189453, 1.569408893585205, -0.09181440621614456, 1.7634377479553223, -0.7802224159240723, -0.5631673336029053, -0.752197265625, -0.1435546875, 0.293212890625, 
263, 2846312367, 0.44402387738227844, -0.4648325741291046, -0.5390763282775879, -0.5441963076591492, 9.722831726074219, 1.6201756000518799, -0.05824843421578407, 2.560117244720459, -0.9372119903564453, -0.367423415184021, -0.749755859375, -0.14453125, 0.292236328125, 
264, 2846320700, 0.44411876797676086, -0.46474912762641907, -0.53926682472229, -0.5440014600753784, 9.719947814941406, 1.6856390237808228, -0.10215195268392563, 3.5256712436676025, -0.786369800567627, -0.025960026308894157, -0.752197265625, -0.14453125, 0.292724609375, 
265, 2846329033, 0.444261759519577, -0.46464091539382935, -0.5394839644432068, -0.5437615513801575, 9.713560104370117, 1.7455921173095703, -0.13488221168518066, 4.426883220672607, -0.7090916633605957, 0.24981564283370972, -0.750244140625, -0.14404296875, 0.291748046875, 
266, 2846337366, 0.44444185495376587, -0.46451401710510254, -0.5397008061408997, -0.5435078144073486, 9.706656455993652, 1.8420286178588867, -0.1612338423728943, 4.968649387359619, -0.36598899960517883, 0.480958491563797, -0.749755859375, -0.14306640625, 0.294189453125, 
267, 2846345699, 0.44465410709381104, -0.46439123153686523, -0.5398885011672974, -0.5432526469230652, 9.713879585266113, 1.907045841217041, -0.1884184181690216, 4.738018989562988, -0.020581038668751717, 0.938761830329895, -0.749267578125, -0.143310546875, 0.297607421875, 
268, 2846354032, 0.4448446035385132, -0.4642983078956604, -0.5399988889694214, -0.5430663824081421, 9.740246772766113, 1.9250283241271973, -0.17392712831497192, 3.533073663711548, 0.5387442111968994, 1.0764638185501099, -0.749267578125, -0.14404296875, 0.292724609375, 
269, 2846362365, 0.44498661160469055, -0.46426722407341003, -0.5400088429450989, -0.5429666042327881, 9.75269603729248, 1.931043028831482, -0.14315715432167053, 1.4385465383529663, 0.8800795078277588, 1.2864749431610107, -0.753173828125, -0.142578125, 0.29345703125, 
270, 2846370698, 0.44507789611816406, -0.4642948508262634, -0.5399401187896729, -0.5429365634918213, 9.767081260681152, 1.8908904790878296, -0.16194593906402588, -0.33596912026405334, 0.9941397309303284, 1.419438362121582, -0.749267578125, -0.1416015625, 0.292236328125, 
271, 2846379031, 0.4451140761375427, -0.4643751084804535, -0.5398122072219849, -0.5429654717445374, 9.78392219543457, 1.872801661491394, -0.17327573895454407, -1.9113727807998657, 0.9270816445350647, 1.414725422859192, -0.749755859375, -0.14208984375, 0.292724609375, 
272, 2846387364, 0.4451008141040802, -0.46449846029281616, -0.539641797542572, -0.5430403351783752, 9.832504272460938, 1.8534350395202637, -0.1835252344608307, -3.12746000289917, 0.7953221201896667, 1.3564531803131104, -0.749755859375, -0.14306640625, 0.294189453125, 
273, 2846395697, 0.44502678513526917, -0.4646550714969635, -0.5394368767738342, -0.5431705713272095, 9.852371215820312, 1.8011326789855957, -0.18147560954093933, -4.327461242675781, 0.6690694093704224, 1.0345077514648438, -0.751220703125, -0.14208984375, 0.29345703125, 
274, 2846404030, 0.4449392855167389, -0.4648263454437256, -0.5392159223556519, -0.5433151721954346, 9.850346565246582, 1.7462612390518188, -0.16593430936336517, -4.790822982788086, 0.6425331234931946, 1.0539746284484863, -0.750732421875, -0.14111328125, 0.29345703125, 
275, 2846412363, 0.44486507773399353, -0.4649881422519684, -0.5390301942825317, -0.543421745300293, 9.837291717529297, 1.7306828498840332, -0.1676454395055771, -4.2719550132751465, 0.327554851770401, 1.0856082439422607, -0.750244140625, -0.14208984375, 0.294189453125, 
276, 2846420696, 0.44483518600463867, -0.4650968909263611, -0.538905680179596, -0.543476402759552, 9.825373649597168, 1.704796552658081, -0.14875762164592743, -2.6519572734832764, 0.37273839116096497, 0.9544377326965332, -0.751220703125, -0.1416015625, 0.29443359375, 
277, 2846429029, 0.4448692202568054, -0.4651397168636322, -0.5388451814651489, -0.5434718728065491, 9.803221702575684, 1.6790082454681396, -0.14282797276973724, -1.1077518463134766, 0.5395894646644592, 0.89040207862854, -0.749755859375, -0.14208984375, 0.294189453125, 
278, 2846437362, 0.444955438375473, -0.4651322364807129, -0.5388350486755371, -0.543417751789093, 9.792720794677734, 1.6841583251953125, -0.18467210233211517, 0.4616197347640991, 0.7052623629570007, 0.8967031240463257, -0.751220703125, -0.142578125, 0.293212890625, 
279, 2846445695, 0.44508641958236694, -0.4650951027870178, -0.5388594269752502, -0.5433180928230286, 9.776423454284668, 1.7288968563079834, -0.18218743801116943, 1.558037281036377, 0.7592572569847107, 1.069522500038147, -0.752685546875, -0.1416015625, 0.29248046875, 
280, 2846454028, 0.4452042579650879, -0.4650586247444153, -0.53885817527771, -0.543254017829895, 9.797137260437012, 1.7803740501403809, -0.1861228197813034, 0.9807689785957336, 1.0382217168807983, 0.920703649520874, -0.749267578125, -0.1416015625, 0.291748046875, 
281, 2846462361, 0.44527509808540344, -0.4650576412677765, -0.5388058423995972, -0.54324871301651, 9.7567777633667, 1.812144160270691, -0.1916818916797638, -0.3748258650302887, 1.108481526374817, 0.798395574092865, -0.751220703125, -0.14013671875, 0.29443359375, 
282, 2846470694, 0.4452570080757141, -0.4651206433773041, -0.5387041568756104, -0.5433105230331421, 9.718852996826172, 1.790836215019226, -0.17957240343093872, -2.178426504135132, 0.7063124775886536, 0.5147180557250977, -0.749755859375, -0.14111328125, 0.291015625, 
283, 2846479027, 0.4451509714126587, -0.46524861454963684, -0.5385501384735107, -0.5434406399726868, 9.704233169555664, 1.7632406949996948, -0.14271743595600128, -4.101722240447998, 0.3185129761695862, 0.253478467464447, -0.750732421875, -0.14306640625, 0.293701171875, 
284, 2846487360, 0.4449799656867981, -0.46542373299598694, -0.5383559465408325, -0.543623149394989, 9.724090576171875, 1.6840487718582153, -0.14900754392147064, -5.430256366729736, 0.07679148018360138, 0.055249907076358795, -0.752197265625, -0.1416015625, 0.294921875, 
285, 2846495693, 0.4447796642780304, -0.4655982553958893, -0.5381650924682617, -0.5438264012336731, 9.726491928100586, 1.607886791229248, -0.12807507812976837, -5.839136123657227, -0.039279431104660034, -0.3207542896270752, -0.750732421875, -0.142578125, 0.292724609375, 
286, 2846504026, 0.4445590376853943, -0.4657772183418274, -0.5379970073699951, -0.5440196990966797, 9.72325325012207, 1.5359718799591064, -0.08536415547132492, -5.653714656829834, -0.41099318861961365, -0.5209550857543945, -0.750732421875, -0.14208984375, 0.294677734375, 
287, 2846512359, 0.4443897008895874, -0.4659164249897003, -0.5378763675689697, -0.5441579818725586, 9.725628852844238, 1.499243140220642, -0.05555494874715805, -4.610703468322754, -0.418293297290802, -0.4097124934196472, -0.751220703125, -0.14111328125, 0.2919921875, 
288, 2846520692, 0.4442936182022095, -0.46598199009895325, -0.537834107875824, -0.5442221760749817, 9.752055168151855, 1.5124858617782593, -0.05699452385306358, -2.2681281566619873, -0.23673959076404572, -0.444855272769928, -0.751220703125, -0.142578125, 0.291259765625, 
289, 2846529025, 0.44431358575820923, -0.4659635126590729, -0.5378804802894592, -0.5441758632659912, 9.790382385253906, 1.5471959114074707, -0.11566128581762314, 0.39028406143188477, -0.01287115179002285, -0.09437564015388489, -0.751708984375, -0.144287109375, 0.290771484375, 
290, 2846537358, 0.44443628191947937, -0.46586671471595764, -0.5379736423492432, -0.5440665483474731, 9.830391883850098, 1.6289161443710327, -0.1265845149755478, 2.4216723442077637, 0.6586957573890686, 0.18383337557315826, -0.754638671875, -0.141845703125, 0.291015625, 
291, 2846545691, 0.4446273744106293, -0.4657213091850281, -0.5380848050117493, -0.5439250469207764, 9.835948944091797, 1.6961116790771484, -0.16405344009399414, 3.47592830657959, 1.2020248174667358, 0.4145151376724243, -0.749755859375, -0.1416015625, 0.292724609375, 
292, 2846554024, 0.444828599691391, -0.4655843675136566, -0.5381777882575989, -0.5437859296798706, 9.823894500732422, 1.7593357563018799, -0.14193719625473022, 3.3921186923980713, 1.347283124923706, 0.6575685739517212, -0.751220703125, -0.142333984375, 0.288818359375, 
293, 2846562357, 0.44499585032463074, -0.465485155582428, -0.5382257699966431, -0.5436862111091614, 9.846485137939453, 1.8464453220367432, -0.1602722406387329, 2.220062494277954, 1.3273295164108276, 0.7258049249649048, -0.749755859375, -0.14111328125, 0.2919921875, 
294, 2846570690, 0.44508326053619385, -0.4654563367366791, -0.5381871461868286, -0.5436776280403137, 9.824629783630371, 1.8465206623077393, -0.181403249502182, 0.050101444125175476, 1.3372167348861694, 0.6506015658378601, -0.753173828125, -0.141357421875, 0.29052734375, 
295, 2846579023, 0.44508689641952515, -0.4654814898967743, -0.5380721688270569, -0.543766975402832, 9.789130210876465, 1.8145285844802856, -0.16255149245262146, -2.1208457946777344, 1.4075534343719482, 0.3125961124897003, -0.750732421875, -0.1416015625, 0.29248046875, 
296, 2846587356, 0.4450204372406006, -0.465559720993042, -0.5378962159156799, -0.5439282655715942, 9.760089874267578, 1.7554123401641846, -0.12085220962762833, -3.872910261154175, 1.3265353441238403, 0.1323743462562561, -0.751220703125, -0.1416015625, 0.29345703125, 
297, 2846595689, 0.44490858912467957, -0.46566852927207947, -0.5376919507980347, -0.5441284775733948, 9.74820327758789, 1.6978816986083984, -0.14230772852897644, -4.649073123931885, 1.2128340005874634, -0.03049374930560589, -0.750732421875, -0.142578125, 0.292236328125, 
298, 2846604022, 0.44479066133499146, -0.46578001976013184, -0.5375101566314697, -0.5443093776702881, 9.725054740905762, 1.6091909408569336, -0.14527402818202972, -4.596513271331787, 0.8590759038925171, -0.09037983417510986, -0.752197265625, -0.141845703125, 0.29052734375, 
299, 2846612355, 0.44468533992767334, -0.46589186787605286, -0.5373751521110535, -0.5444328188896179, 9.78306770324707, 1.6123803853988647, -0.1342051923274994, -3.901675224304199, 0.2713571786880493, 0.052842166274785995, -0.752685546875, -0.14208984375, 0.29150390625, 
300, 2846620688, 0.4445875883102417, -0.4659944474697113, -0.5372613668441772, -0.5445371270179749, 9.807711601257324, 1.6405683755874634, -0.1359451413154602, -3.33575439453125, 0.16915640234947205, 0.027253545820713043, -0.751708984375, -0.141845703125, 0.2890625, 
301, 2846629021, 0.4445180296897888, -0.4660809636116028, -0.5371696949005127, -0.5446102023124695, 9.774103164672852, 1.6556799411773682, -0.12708358466625214, -2.4641025066375732, 0.18706077337265015, 0.1787361353635788, -0.753173828125, -0.145263671875, 0.290283203125, 
302, 2846637354, 0.444488525390625, -0.46611833572387695, -0.5371322631835938, -0.5446392893791199, 9.760533332824707, 1.6684575080871582, -0.13328607380390167, -1.3741397857666016, 0.2126493901014328, 0.028252504765987396, -0.752685546875, -0.143310546875, 0.290283203125, 
303, 2846645687, 0.44447365403175354, -0.4661325514316559, -0.5371216535568237, -0.5446497797966003, 9.756670951843262, 1.7100516557693481, -0.11927365511655807, -0.8708455562591553, 0.19868962466716766, -0.09555389732122421, -0.751220703125, -0.1416015625, 0.291015625, 
304, 2846654020, 0.44446149468421936, -0.46614089608192444, -0.5371274352073669, -0.5446467995643616, 9.748373985290527, 1.722039818763733, -0.11064732819795609, -0.5248228311538696, 0.08739577233791351, -0.1359219253063202, -0.750732421875, -0.143310546875, 0.290771484375, 
305, 2846662353, 0.4444524049758911, -0.46613192558288574, -0.5371493101119995, -0.5446403622627258, 9.67803955078125, 1.6900668144226074, -0.12066157907247543, -0.31934547424316406, 0.11149875819683075, -0.3285665810108185, -0.751220703125, -0.142822265625, 0.288818359375, 
306, 2846670686, 0.44443121552467346, -0.46610790491104126, -0.5371826887130737, -0.5446452498435974, 9.64700984954834, 1.6607611179351807, -0.09119141101837158, -0.23517706990242004, 0.14323477447032928, -0.6680832505226135, -0.750732421875, -0.142822265625, 0.289306640625, 
307, 2846679019, 0.44440045952796936, -0.4660717248916626, -0.5372247695922852, -0.5446599125862122, 9.630515098571777, 1.6193104982376099, -0.08167815953493118, -0.2681426405906677, 0.1693100929260254, -0.9491739869117737, -0.753173828125, -0.142333984375, 0.29150390625, 
308, 2846687352, 0.44436806440353394, -0.46602895855903625, -0.5372675657272339, -0.544680655002594, 9.674742698669434, 1.5995116233825684, -0.0399271696805954, -0.23868624866008759, 0.24646015465259552, -1.0494279861450195, -0.752197265625, -0.14111328125, 0.29150390625, 
309, 2846695685, 0.4443490207195282, -0.4659790098667145, -0.5373017191886902, -0.5447052121162415, 9.697495460510254, 1.6003413200378418, -0.028346717357635498, -0.39424148201942444, 0.4469427764415741, -0.9800646305084229, -0.750732421875, -0.1435546875, 0.291259765625, 
310, 2846704018, 0.444333553314209, -0.465939998626709, -0.5373178720474243, -0.5447352528572083, 9.769316673278809, 1.5877022743225098, -0.043446194380521774, -0.422442764043808, 0.5665868520736694, -0.7792746424674988, -0.754150390625, -0.144775390625, 0.289306640625, 
311, 2846712351, 0.44434842467308044, -0.4658978581428528, -0.5373181104660034, -0.5447589159011841, 9.84506607055664, 1.6242246627807617, -0.08235067874193192, -0.4666273295879364, 0.8419142365455627, -0.44272926449775696, -0.753662109375, -0.146240234375, 0.289794921875, 
312, 2846720684, 0.44436725974082947, -0.4658747911453247, -0.5372802019119263, -0.5448007583618164, 9.917244911193848, 1.635697841644287, -0.09857332706451416, -0.7915182113647461, 1.1062787771224976, -0.1322590857744217, -0.751220703125, -0.142822265625, 0.290771484375, 
313, 2846729017, 0.4443904757499695, -0.4658639430999756, -0.5372012853622437, -0.5448688268661499, 9.979681015014648, 1.6952673196792603, -0.11921831965446472, -1.3570036888122559, 1.4611127376556396, 0.09213440120220184, -0.750732421875, -0.143310546875, 0.289306640625, 
314, 2846737350, 0.44440388679504395, -0.4658707082271576, -0.5370928645133972, -0.5449590086936951, 10.019871711730957, 1.714232087135315, -0.09131070226430893, -1.8950821161270142, 1.5824220180511475, 0.20493949949741364, -0.753173828125, -0.141357421875, 0.28857421875, 
315, 2846745683, 0.44440406560897827, -0.4659096598625183, -0.5369601249694824, -0.5450563430786133, 9.977218627929688, 1.7656317949295044, -0.09481703490018845, -2.7901206016540527, 1.3864729404449463, 0.43948909640312195, -0.749755859375, -0.1416015625, 0.291748046875, 
316, 2846754016, 0.4443850517272949, -0.4659687280654907, -0.5367933511734009, -0.5451855659484863, 9.906174659729004, 1.7269176244735718, -0.12091606110334396, -3.1465938091278076, 1.558139681816101, 0.4818294048309326, -0.750244140625, -0.141845703125, 0.289794921875, 
317, 2846762349, 0.4443846344947815, -0.4660109579563141, -0.5366590023040771, -0.5452821254730225, 9.789581298828125, 1.6778963804244995, -0.12573713064193726, -2.4402809143066406, 1.41323983669281, 0.4905126094818115, -0.753173828125, -0.144775390625, 0.288818359375, 
318, 2846770682, 0.44439175724983215, -0.46603453159332275, -0.5365676283836365, -0.5453461408615112, 9.767763137817383, 1.6558799743652344, -0.10345308482646942, -1.7166277170181274, 1.1397310495376587, 0.3330875337123871, -0.753173828125, -0.142822265625, 0.28759765625, 
319, 2846779015, 0.44439467787742615, -0.466036856174469, -0.5365099906921387, -0.545398473739624, 9.745899200439453, 1.6240458488464355, -0.09922423958778381, -1.2524207830429077, 0.9888119697570801, -0.0011398334754630923, -0.754150390625, -0.143310546875, 0.2900390625, 
320, 2846787348, 0.44440126419067383, -0.4660228192806244, -0.5364882946014404, -0.5454264879226685, 9.702473640441895, 1.6188242435455322, -0.11113372445106506, -0.7017660140991211, 0.7588985562324524, -0.17490680515766144, -0.751708984375, -0.143798828125, 0.287841796875, 
321, 2846795681, 0.4444247782230377, -0.4659977853298187, -0.5365108251571655, -0.5454065799713135, 9.684125900268555, 1.6224291324615479, -0.11284326016902924, -0.03377236798405647, 0.36272314190864563, -0.1294415146112442, -0.752685546875, -0.142333984375, 0.28955078125, 
322, 2846804014, 0.4444851875305176, -0.4659627079963684, -0.5365532040596008, -0.5453455448150635, 9.696443557739258, 1.63910973072052, -0.128229022026062, 0.9089979529380798, 0.35324588418006897, 0.20629703998565674, -0.752197265625, -0.141845703125, 0.287109375, 
323, 2846812347, 0.4446030855178833, -0.4658805727958679, -0.5366184115409851, -0.5452554225921631, 9.654411315917969, 1.6800698041915894, -0.14732138812541962, 2.056438684463501, 0.8174015283584595, 0.3268120288848877, -0.753662109375, -0.143310546875, 0.2890625, 
324, 2846820680, 0.44473302364349365, -0.46577534079551697, -0.5366927981376648, -0.5451662540435791, 9.638718605041504, 1.7263048887252808, -0.07667654007673264, 2.2321269512176514, 1.0157326459884644, 0.17627716064453125, -0.754150390625, -0.144287109375, 0.290283203125, 
325, 2846829013, 0.44482919573783875, -0.46568527817726135, -0.5367469787597656, -0.545111358165741, 9.701927185058594, 1.753730058670044, -0.04886972904205322, 1.5730212926864624, 1.003693699836731, -0.042199455201625824, -0.752197265625, -0.143798828125, 0.289306640625, 
326, 2846837346, 0.44487887620925903, -0.46563875675201416, -0.5367538928985596, -0.5451036691665649, 9.80247688293457, 1.8015937805175781, 0.001745276851579547, 0.2512756586074829, 0.9189875721931458, -0.05810588598251343, -0.752197265625, -0.142822265625, 0.287353515625, 
327, 2846845679, 0.4448753595352173, -0.46563416719436646, -0.5367028713226318, -0.5451606512069702, 9.861660957336426, 1.7776957750320435, -0.06541984528303146, -1.1104412078857422, 0.9993905425071716, -0.16665902733802795, -0.754150390625, -0.141357421875, 0.2880859375, 
328, 2846854012, 0.44483625888824463, -0.4656411409378052, -0.5366241931915283, -0.5452641248703003, 9.869757652282715, 1.7160741090774536, -0.07145410031080246, -2.105912685394287, 1.0958539247512817, -0.4599420726299286, -0.754638671875, -0.143798828125, 0.29052734375, 
329, 2846862345, 0.44479796290397644, -0.4656408131122589, -0.5365352630615234, -0.5453831553459167, 9.839706420898438, 1.6459800004959106, -0.07830219715833664, -2.235008716583252, 1.322616696357727, -0.5375019311904907, -0.751708984375, -0.143798828125, 0.289306640625, 
330, 2846870678, 0.44480520486831665, -0.465604305267334, -0.5364872217178345, -0.545455813407898, 9.835918426513672, 1.6052407026290894, -0.07236114144325256, -1.0870040655136108, 1.3804534673690796, -0.4404495656490326, -0.752197265625, -0.142822265625, 0.287841796875, 
331, 2846879011, 0.4448752999305725, -0.46553346514701843, -0.5364822149276733, -0.5454638600349426, 9.825488090515137, 1.571143388748169, -0.07216503471136093, 0.373148113489151, 1.4307599067687988, -0.10208553820848465, -0.753173828125, -0.142333984375, 0.2900390625, 
332, 2846887344, 0.44500651955604553, -0.46542108058929443, -0.5365239381790161, -0.5454118251800537, 9.800793647766113, 1.6184577941894531, -0.10191462188959122, 1.763796329498291, 1.5179508924484253, 0.11920865625143051, -0.753662109375, -0.142822265625, 0.287109375, 
333, 2846895677, 0.44518938660621643, -0.4652897119522095, -0.5365762710571289, -0.5453231334686279, 9.788385391235352, 1.6527447700500488, -0.11109862476587296, 2.483018398284912, 1.7286792993545532, 0.5155121088027954, -0.753662109375, -0.142822265625, 0.2890625, 
334, 2846904010, 0.44537848234176636, -0.4651701748371124, -0.5366049408912659, -0.5452426075935364, 9.746015548706055, 1.7066277265548706, -0.10788415372371674, 2.29103946685791, 1.8958630561828613, 0.755978524684906, -0.751708984375, -0.141357421875, 0.28857421875, 
335, 2846912343, 0.4455486536026001, -0.46507447957992554, -0.5366000533103943, -0.5451900362968445, 9.744686126708984, 1.7491110563278198, -0.10107585042715073, 1.5799115896224976, 1.9629212617874146, 0.8326931595802307, -0.752685546875, -0.140869140625, 0.2861328125, 
336, 2846920676, 0.4456789493560791, -0.4650072157382965, -0.5365604758262634, -0.5451797842979431, 9.764867782592773, 1.7944376468658447, -0.12509307265281677, 0.5647683143615723, 1.9366666078567505, 0.7069785594940186, -0.753173828125, -0.142822265625, 0.2890625, 
337, 2846929009, 0.44574254751205444, -0.4649755358695984, -0.5364559888839722, -0.5452575087547302, 9.72965145111084, 1.7234113216400146, -0.1528640240430832, -1.2284971475601196, 2.136739492416382, 0.3442809283733368, -0.753173828125, -0.141845703125, 0.28759765625, 
338, 2846937342, 0.44572553038597107, -0.4650067985057831, -0.5363020896911621, -0.5453960299491882, 9.694258689880371, 1.6266156435012817, -0.11872164160013199, -2.936915159225464, 1.7635143995285034, 0.14968958497047424, -0.754638671875, -0.1416015625, 0.2861328125, 
339, 2846945675, 0.4456212520599365, -0.4651070535182953, -0.5361427068710327, -0.5455527305603027, 9.76748275756836, 1.5851713418960571, -0.07589437067508698, -3.946526050567627, 0.7721922993659973, -0.06689157336950302, -0.753662109375, -0.140869140625, 0.28759765625, 
340, 2846954008, 0.4454965591430664, -0.4652222990989685, -0.5360113382339478, -0.5456852316856384, 9.853046417236328, 1.5817348957061768, -0.08201544731855392, -3.92570161819458, 0.1627272367477417, -0.14752519130706787, -0.752197265625, -0.14208984375, 0.28564453125, 
341, 2846962341, 0.44539162516593933, -0.46531033515930176, -0.535934567451477, -0.5457711219787598, 9.859018325805664, 1.5903844833374023, -0.10635960847139359, -2.6862032413482666, -0.09222405403852463, -0.25507935881614685, -0.753662109375, -0.14111328125, 0.28564453125, 
342, 2846970674, 0.44533252716064453, -0.46534401178359985, -0.5359615683555603, -0.545764148235321, 9.795568466186523, 1.6419780254364014, -0.12443085759878159, -0.790544867515564, -0.6053540110588074, -0.4146047830581665, -0.752685546875, -0.143310546875, 0.286865234375, 
343, 2846979007, 0.4453286826610565, -0.4653335213661194, -0.5360338687896729, -0.545705258846283, 9.775740623474121, 1.724535584449768, -0.10893084853887558, 0.6188912391662598, -0.4675750732421875, -0.2955242395401001, -0.753173828125, -0.142333984375, 0.28759765625, 
344, 2846987340, 0.4453843832015991, -0.46529078483581543, -0.5361438989639282, -0.5455882549285889, 9.701516151428223, 1.7822630405426025, -0.09253371506929398, 1.8465557098388672, -0.396495521068573, 0.02466650679707527, -0.754150390625, -0.14208984375, 0.28662109375, 
345, 2846995673, 0.44547727704048157, -0.4652348756790161, -0.5362592935562134, -0.5454466342926025, 9.684232711791992, 1.8332451581954956, -0.06000494956970215, 2.3512587547302246, -0.22024402022361755, 0.3227393925189972, -0.754638671875, -0.143798828125, 0.28759765625, 
346, 2847004006, 0.44557565450668335, -0.46519017219543457, -0.536334753036499, -0.5453300476074219, 9.73781967163086, 1.8569391965866089, -0.06764982640743256, 1.8683278560638428, 0.14597554504871368, 0.5508341789245605, -0.752685546875, -0.143310546875, 0.287841796875, 
347, 2847012339, 0.4456484019756317, -0.4651747941970825, -0.5363643169403076, -0.545254647731781, 9.722909927368164, 1.8614271879196167, -0.09650615602731705, 0.7578227519989014, 0.26513293385505676, 0.6087478399276733, -0.751708984375, -0.141357421875, 0.28759765625, 
348, 2847020672, 0.44565412402153015, -0.46520909667015076, -0.5363121032714844, -0.5452722311019897, 9.734375953674316, 1.8292607069015503, -0.0783810093998909, -1.1563929319381714, 0.5133861303329468, 0.4337514340877533, -0.755126953125, -0.139892578125, 0.287109375, 
349, 2847029005, 0.4456011652946472, -0.46529465913772583, -0.5361876487731934, -0.5453647375106812, 9.703670501708984, 1.777580738067627, -0.062957763671875, -2.8778491020202637, 0.6237322688102722, 0.37645238637924194, -0.754638671875, -0.139892578125, 0.28857421875, 
350, 2847037338, 0.4455128610134125, -0.4654141664505005, -0.5360327959060669, -0.5454870462417603, 9.706591606140137, 1.7003008127212524, -0.09411062300205231, -3.8207085132598877, 0.47775664925575256, 0.37120142579078674, -0.752685546875, -0.141357421875, 0.287109375, 
351, 2847045671, 0.445414274930954, -0.4655386805534363, -0.5358744263648987, -0.5456169247627258, 9.765352249145508, 1.6324056386947632, -0.09026575833559036, -3.9676833152770996, 0.4390023648738861, 0.30708903074264526, -0.752685546875, -0.141357421875, 0.28662109375, 
352, 2847054004, 0.4453088939189911, -0.46565741300582886, -0.5357360243797302, -0.5457375645637512, 9.784616470336914, 1.613471508026123, -0.0514901727437973, -3.7896130084991455, 0.2461528182029724, 0.14323478937149048, -0.752685546875, -0.140625, 0.28564453125, 
353, 2847062337, 0.44519859552383423, -0.465789258480072, -0.5355960130691528, -0.545852541923523, 9.762603759765625, 1.6029525995254517, -0.009107767604291439, -3.6530635356903076, 0.11644230782985687, 0.2548103928565979, -0.753662109375, -0.142822265625, 0.287109375, 
354, 2847070670, 0.44509708881378174, -0.4659122824668884, -0.5354723930358887, -0.5459516048431396, 9.738428115844727, 1.5892393589019775, 0.015276258811354637, -3.5201773643493652, 0.013370631262660027, 0.24105554819107056, -0.753662109375, -0.142578125, 0.2861328125, 
355, 2847079003, 0.4450305104255676, -0.46601641178131104, -0.5353525876998901, -0.5460345149040222, 9.735870361328125, 1.5708730220794678, 0.03164990246295929, -2.9084835052490234, 0.3055778443813324, 0.44384345412254333, -0.752197265625, -0.141357421875, 0.287109375, 
356, 2847087336, 0.4450288414955139, -0.46606290340423584, -0.5352692604064941, -0.5460777878761292, 9.75267505645752, 1.561696171760559, 0.003485338296741247, -1.6988002061843872, 0.719555139541626, 0.5092110633850098, -0.753662109375, -0.14404296875, 0.285888671875, 
357, 2847095669, 0.4450685977935791, -0.4660741686820984, -0.5352279543876648, -0.546076238155365, 9.780003547668457, 1.5879955291748047, -0.018983645364642143, -0.60286945104599, 0.7410197854042053, 0.5650500059127808, -0.755615234375, -0.142578125, 0.2861328125, 
358, 2847104002, 0.4451308250427246, -0.4660681486129761, -0.5352184772491455, -0.5460399985313416, 9.812642097473145, 1.5910712480545044, 0.0060942224226891994, 0.17107750475406647, 0.622861385345459, 0.61594557762146, -0.755126953125, -0.14111328125, 0.28515625, 
359, 2847112335, 0.4452350437641144, -0.4660167694091797, -0.5352526903152466, -0.545965313911438, 9.81324291229248, 1.5722235441207886, -0.0550268217921257, 1.0664230585098267, 0.7206821441650391, 0.5402554273605347, -0.755126953125, -0.142578125, 0.28662109375, 
360, 2847120668, 0.4453527331352234, -0.4659455418586731, -0.5353113412857056, -0.545872688293457, 9.771326065063477, 1.607986569404602, -0.0603310763835907, 1.8522677421569824, 0.742838442325592, 0.46208077669143677, -0.753662109375, -0.14208984375, 0.2841796875, 
361, 2847129001, 0.4454749822616577, -0.4658576250076294, -0.5354067087173462, -0.5457543730735779, 9.794486045837402, 1.6546857357025146, -0.0874686986207962, 2.481327772140503, 0.5173563361167908, 0.2957163155078888, -0.753173828125, -0.141357421875, 0.28662109375, 
362, 2847137334, 0.4455782473087311, -0.4657640755176544, -0.5355088710784912, -0.5456497073173523, 9.855860710144043, 1.7127807140350342, -0.09076271206140518, 2.3123507499694824, 0.46051836013793945, -0.01676451787352562, -0.754150390625, -0.14208984375, 0.28515625, 
363, 2847145667, 0.44565969705581665, -0.4656884968280792, -0.5356058478355408, -0.5455524325370789, 9.855619430541992, 1.7483752965927124, -0.11093250662088394, 1.8242201805114746, 0.22261330485343933, -0.06730140000581741, -0.754150390625, -0.143310546875, 0.2890625, 
364, 2847154000, 0.4456898868083954, -0.46564775705337524, -0.5356817245483398, -0.545488178730011, 9.81904411315918, 1.776859164237976, -0.11059010773897171, 1.025337815284729, -0.05469920486211777, -0.2549000680446625, -0.753662109375, -0.139892578125, 0.28759765625, 
365, 2847162333, 0.4456600546836853, -0.4656461477279663, -0.5357249975204468, -0.5454713702201843, 9.79598331451416, 1.794662594795227, -0.14088238775730133, -0.025319669395685196, -0.2625330686569214, -0.49137064814567566, -0.753662109375, -0.141845703125, 0.28662109375, 
366, 2847170666, 0.44558751583099365, -0.46566566824913025, -0.535753607749939, -0.5454856753349304, 9.768322944641113, 1.8067008256912231, -0.13724160194396973, -0.9338821768760681, -0.4703926146030426, -0.7613703012466431, -0.752685546875, -0.141357421875, 0.2880859375, 
367, 2847178999, 0.4454686641693115, -0.465704083442688, -0.5357486605644226, -0.545555055141449, 9.74171257019043, 1.8169128894805908, -0.1180519387125969, -2.032604694366455, -0.40125975012779236, -1.0933563709259033, -0.753662109375, -0.141845703125, 0.28662109375, 
368, 2847187332, 0.44532889127731323, -0.4657629132270813, -0.5357203483581543, -0.5456467866897583, 9.744836807250977, 1.7315948009490967, -0.07169876247644424, -2.6039814949035645, -0.4162953197956085, -1.0851854085922241, -0.754638671875, -0.1416015625, 0.2861328125, 
369, 2847195665, 0.44524648785591125, -0.4657958149909973, -0.5357078909873962, -0.5456979274749756, 9.709171295166016, 1.6718037128448486, -0.08113089948892593, -1.8940061330795288, -0.1886872500181198, -0.7092196941375732, -0.752197265625, -0.142333984375, 0.28857421875, 
370, 2847203998, 0.44521448016166687, -0.4658013582229614, -0.5357130765914917, -0.545714259147644, 9.71115779876709, 1.594290018081665, -0.09134896099567413, -0.7804529070854187, 0.08885578066110611, -0.42218661308288574, -0.752197265625, -0.142822265625, 0.286865234375, 
371, 2847212331, 0.4452241063117981, -0.46578532457351685, -0.5357396006584167, -0.5456940531730652, 9.727387428283691, 1.5575244426727295, -0.02926943264901638, 0.09702672064304352, 0.20086683332920074, -0.17964543402194977, -0.755126953125, -0.1416015625, 0.28662109375, 
372, 2847220664, 0.4452422559261322, -0.4657799303531647, -0.535757303237915, -0.545666515827179, 9.80041790008545, 1.554648995399475, -0.0011873719049617648, 0.025665462017059326, 0.18255263566970825, 0.06308785825967789, -0.752197265625, -0.141845703125, 0.28759765625, 
373, 2847228997, 0.44527512788772583, -0.4657767415046692, -0.5357598066329956, -0.5456399917602539, 9.830052375793457, 1.5929310321807861, -0.054647721350193024, -0.04340331628918648, 0.37209799885749817, 0.2784266769886017, -0.753173828125, -0.142578125, 0.28515625, 
374, 2847237330, 0.44530966877937317, -0.46578317880630493, -0.5357338190078735, -0.5456317663192749, 9.833234786987305, 1.605834722518921, -0.0693611204624176, -0.4127093553543091, 0.6071341633796692, 0.4331367015838623, -0.754638671875, -0.14208984375, 0.28515625, 
375, 2847245663, 0.4453524351119995, -0.46579623222351074, -0.5356903076171875, -0.545628547668457, 9.825716972351074, 1.6241674423217773, -0.08553369343280792, -0.4114542305469513, 0.7771869897842407, 0.632927656173706, -0.752685546875, -0.1416015625, 0.28564453125, 
376, 2847253996, 0.44540607929229736, -0.4658071994781494, -0.5356407761573792, -0.5456238985061646, 9.800639152526855, 1.6168501377105713, -0.02384757809340954, -0.5197768807411194, 0.8798490166664124, 0.7393548488616943, -0.752197265625, -0.1416015625, 0.28564453125, 
377, 2847262329, 0.4454770088195801, -0.46580639481544495, -0.5356001853942871, -0.5456067323684692, 9.794465065002441, 1.6037101745605469, -0.011880908161401749, -0.22495700418949127, 0.9538484215736389, 0.79998379945755, -0.752685546875, -0.141845703125, 0.28857421875, 
378, 2847270662, 0.4455918073654175, -0.46576863527297974, -0.5355767607688904, -0.5455681681632996, 9.760881423950195, 1.5871659517288208, -0.001954529667273164, 0.614101231098175, 1.3207467794418335, 0.8804636597633362, -0.752685546875, -0.138916015625, 0.28662109375, 
379, 2847278995, 0.4457624852657318, -0.46568819880485535, -0.5355931520462036, -0.5454810857772827, 9.77420711517334, 1.6068092584609985, -0.0001558857038617134, 2.186917781829834, 1.537801742553711, 1.0405526161193848, -0.754150390625, -0.142822265625, 0.28857421875, 
380, 2847287328, 0.4459998309612274, -0.46555107831954956, -0.5356669425964355, -0.5453317761421204, 9.77640438079834, 1.597895860671997, -0.014433832839131355, 3.5539233684539795, 1.662312388420105, 1.1233890056610107, -0.754638671875, -0.14111328125, 0.2861328125, 
381, 2847295661, 0.4462634027004242, -0.46538782119750977, -0.5357695817947388, -0.5451545715332031, 9.794475555419922, 1.622588038444519, -0.04573822021484375, 4.294687747955322, 1.6919227838516235, 1.1127079725265503, -0.756103515625, -0.1396484375, 0.2861328125, 
382, 2847303994, 0.4465382397174835, -0.4652121961116791, -0.5358960628509521, -0.5449552536010742, 9.801201820373535, 1.6481845378875732, -0.06841646879911423, 4.791885852813721, 1.5851112604141235, 1.089988112449646, -0.753173828125, -0.139404296875, 0.28857421875, 
383, 2847312327, 0.44677168130874634, -0.4650505781173706, -0.5360332727432251, -0.5447666049003601, 9.79416561126709, 1.6911334991455078, -0.06397750228643417, 4.329984188079834, 1.1583013534545898, 0.7429665327072144, -0.754638671875, -0.14111328125, 0.28515625, 
384, 2847320660, 0.44696545600891113, -0.4649149179458618, -0.536147952079773, -0.5446106195449829, 9.794379234313965, 1.7508656978607178, -0.04692080616950989, 3.6218268871307373, 1.0383498668670654, 0.5874879956245422, -0.755615234375, -0.138916015625, 0.286865234375, 
385, 2847328993, 0.447131872177124, -0.4647945761680603, -0.5362441539764404, -0.5444821119308472, 9.759732246398926, 1.7651495933532715, -0.02781652845442295, 3.019278049468994, 1.0092777013778687, 0.4442020654678345, -0.753173828125, -0.13916015625, 0.28515625, 
386, 2847337326, 0.44725456833839417, -0.46469801664352417, -0.53631991147995, -0.5443890690803528, 9.738945960998535, 1.7527724504470825, -0.029549388214945793, 2.1703197956085205, 0.8617908954620361, 0.20450404286384583, -0.755126953125, -0.138916015625, 0.28759765625, 
387, 2847345659, 0.447344034910202, -0.46462738513946533, -0.536384642124176, -0.5443119406700134, 9.731292724609375, 1.7730467319488525, -0.0517222061753273, 1.5437954664230347, 0.5813918709754944, 0.11744125932455063, -0.753662109375, -0.14013671875, 0.28564453125, 
388, 2847353992, 0.44741278886795044, -0.46454235911369324, -0.5364493727684021, -0.5442643761634827, 9.717995643615723, 1.7431550025939941, -0.07998309284448624, 1.33662748336792, 0.7364092469215393, -0.3233668804168701, -0.754150390625, -0.139404296875, 0.2880859375, 
389, 2847362325, 0.4474831223487854, -0.46444016695022583, -0.5365221500396729, -0.5442220568656921, 9.705656051635742, 1.7220592498779297, -0.09165589511394501, 1.3978456258773804, 0.8478823304176331, -0.5261547565460205, -0.753662109375, -0.139404296875, 0.2880859375, 
390, 2847370658, 0.4475459158420563, -0.4643169939517975, -0.5366127490997314, -0.5441863536834717, 9.723673820495605, 1.7188169956207275, -0.09454112499952316, 1.6403611898422241, 0.8942441344261169, -0.8866751194000244, -0.754150390625, -0.139404296875, 0.28759765625, 
391, 2847378991, 0.4476139545440674, -0.4641750454902649, -0.5367429256439209, -0.5441228747367859, 9.76732063293457, 1.7199630737304688, -0.10265660285949707, 2.359506607055664, 0.6596946120262146, -1.066589593887329, -0.754638671875, -0.138427734375, 0.286376953125, 
392, 2847387324, 0.4476602077484131, -0.4640490710735321, -0.5368907451629639, -0.5440463423728943, 9.810401916503906, 1.7318459749221802, -0.06368319690227509, 2.2817928791046143, 0.1791715919971466, -1.14386785030365, -0.756103515625, -0.138671875, 0.285400390625, 
393, 2847395657, 0.4476696252822876, -0.46395647525787354, -0.5369970798492432, -0.544012725353241, 9.855765342712402, 1.7401964664459229, -0.10325512290000916, 1.2130389213562012, 0.1858568787574768, -1.1761928796768188, -0.754150390625, -0.13818359375, 0.28515625, 
394, 2847403990, 0.4476602077484131, -0.46390214562416077, -0.5370400547981262, -0.5440244078636169, 9.837697982788086, 1.7399362325668335, -0.11820787936449051, 0.047514405101537704, 0.44281888008117676, -0.9064493775367737, -0.752197265625, -0.138427734375, 0.28515625, 
395, 2847412323, 0.4476579427719116, -0.46387234330177307, -0.5370422601699829, -0.5440495014190674, 9.876215934753418, 1.7213960886001587, -0.14067496359348297, -0.5996676087379456, 0.6256532669067383, -0.5016675591468811, -0.755126953125, -0.140625, 0.28564453125, 
396, 2847420656, 0.4476514458656311, -0.46387267112731934, -0.5369839668273926, -0.5441120266914368, 9.911299705505371, 1.6470986604690552, -0.13187377154827118, -1.4014956951141357, 1.000235915184021, -0.14862659573554993, -0.754638671875, -0.140380859375, 0.2880859375, 
397, 2847428989, 0.44762659072875977, -0.4639061987400055, -0.5368863344192505, -0.5442003011703491, 9.891615867614746, 1.5997633934020996, -0.10784225165843964, -2.184804677963257, 1.026926040649414, 0.05271409824490547, -0.752685546875, -0.139892578125, 0.2861328125, 
398, 2847437322, 0.4476202130317688, -0.46394068002700806, -0.5367839932441711, -0.5442770719528198, 9.830181121826172, 1.601239562034607, -0.09252454340457916, -2.0449764728546143, 1.1082255840301514, 0.29610058665275574, -0.753173828125, -0.138916015625, 0.2861328125, 
399, 2847445655, 0.44764572381973267, -0.4639744758605957, -0.5367053747177124, -0.5443048477172852, 9.791271209716797, 1.6010817289352417, -0.06785905361175537, -1.2502179145812988, 0.8980607390403748, 0.6838487982749939, -0.753662109375, -0.138427734375, 0.28564453125, 
400, 2847453988, 0.447683721780777, -0.4640059769153595, -0.5366508960723877, -0.544300377368927, 9.767922401428223, 1.6714835166931152, -0.06027700752019882, -0.7836035490036011, 0.6449408531188965, 0.8027501702308655, -0.754150390625, -0.139892578125, 0.28759765625, 
401, 2847462321, 0.4477198123931885, -0.46403074264526367, -0.5366054773330688, -0.5442945957183838, 9.755247116088867, 1.7364953756332397, -0.03906908258795738, -0.6567361354827881, 0.6197620034217834, 0.6898170113563538, -0.756591796875, -0.14013671875, 0.28515625, 
402, 2847470654, 0.44772377610206604, -0.46406134963035583, -0.5365492701530457, -0.5443205833435059, 9.729347229003906, 1.8054991960525513, -0.011451701633632183, -1.2355667352676392, 0.6057510375976562, 0.364388108253479, -0.754638671875, -0.137451171875, 0.287353515625, 
403, 2847478987, 0.4476855397224426, -0.46411001682281494, -0.5364744663238525, -0.5443840622901917, 9.708625793457031, 1.8525527715682983, -0.04007163643836975, -1.7378361225128174, 0.5543431639671326, 0.08327187597751617, -0.754150390625, -0.138916015625, 0.28857421875, 
404, 2847487320, 0.44765326380729675, -0.46414461731910706, -0.5363934636116028, -0.5444610118865967, 9.690427780151367, 1.8086597919464111, -0.050675079226493835, -2.0524814128875732, 0.7866387367248535, -0.031672000885009766, -0.754150390625, -0.1396484375, 0.28515625, 
405, 2847495653, 0.44760647416114807, -0.46416446566581726, -0.5363257527351379, -0.5445493459701538, 9.658771514892578, 1.7570433616638184, -0.06720367074012756, -1.8240795135498047, 0.8101013898849487, -0.39634186029434204, -0.752685546875, -0.139404296875, 0.28564453125, 
406, 2847503986, 0.44756731390953064, -0.4641391634941101, -0.5363131761550903, -0.5446153283119202, 9.671902656555176, 1.7305445671081543, -0.0359501875936985, -1.1342880725860596, 0.6929163336753845, -0.894615650177002, -0.754638671875, -0.13818359375, 0.285888671875, 
407, 2847512319, 0.4475523829460144, -0.4640921354293823, -0.5363393425941467, -0.54464191198349, 9.671236991882324, 1.7263028621673584, -0.012116915546357632, -0.39769941568374634, 0.5261163711547852, -0.8859066963195801, -0.753662109375, -0.138671875, 0.28369140625, 
408, 2847520652, 0.44754788279533386, -0.46402841806411743, -0.5364015102386475, -0.5446386933326721, 9.69796085357666, 1.7344070672988892, -0.041629545390605927, 0.39182090759277344, 0.33375346660614014, -0.9683077335357666, -0.755615234375, -0.14013671875, 0.2841796875, 
409, 2847528985, 0.44755294919013977, -0.4639517068862915, -0.5364764332771301, -0.5446261763572693, 9.707902908325195, 1.737804651260376, -0.06565594673156738, 0.7295958995819092, 0.36820465326309204, -1.0168724060058594, -0.753662109375, -0.1396484375, 0.28564453125, 
410, 2847537318, 0.44756582379341125, -0.4638640880584717, -0.536563515663147, -0.544604480266571, 9.74154281616211, 1.7454010248184204, -0.10492543131113052, 0.9738020896911621, 0.3707917034626007, -1.061415672302246, -0.754638671875, -0.14013671875, 0.28564453125, 
411, 2847545651, 0.4475613236427307, -0.4637947082519531, -0.5366243720054626, -0.5446075201034546, 9.769230842590332, 1.7627894878387451, -0.1247384250164032, 0.3930247724056244, 0.4283468425273895, -1.0424096584320068, -0.755126953125, -0.138916015625, 0.286376953125, 
412, 2847553984, 0.44750839471817017, -0.46377360820770264, -0.536646842956543, -0.5446466207504272, 9.778472900390625, 1.7811294794082642, -0.1328640580177307, -0.787240743637085, 0.17240943014621735, -1.0249921083450317, -0.756591796875, -0.14013671875, 0.2861328125, 
413, 2847562317, 0.4474045932292938, -0.4638112187385559, -0.5366330146789551, -0.5447136163711548, 9.780633926391602, 1.755784034729004, -0.12325166165828705, -1.9528419971466064, -0.2429894208908081, -0.912571132183075, -0.755615234375, -0.13916015625, 0.28466796875, 
414, 2847570650, 0.4472655653953552, -0.4638921916484833, -0.5365860462188721, -0.5448050498962402, 9.799445152282715, 1.7193959951400757, -0.14089272916316986, -2.8710098266601562, -0.4668578505516052, -0.7959751486778259, -0.755126953125, -0.14111328125, 0.28466796875, 
415, 2847578983, 0.44710493087768555, -0.4640049636363983, -0.5365069508552551, -0.5449188351631165, 9.805948257446289, 1.6813507080078125, -0.08363912999629974, -3.560878038406372, -0.5172410607337952, -0.6538417339324951, -0.753662109375, -0.141357421875, 0.28662109375, 
416, 2847587316, 0.4469493627548218, -0.46412989497184753, -0.536411702632904, -0.5450337529182434, 9.796616554260254, 1.6395699977874756, -0.04293389618396759, -3.7826201915740967, -0.47011083364486694, -0.4320993423461914, -0.754150390625, -0.139404296875, 0.287109375, 
417, 2847595649, 0.44682586193084717, -0.4642438292503357, -0.5363230109214783, -0.5451251268386841, 9.73755168914795, 1.6171989440917969, -0.04687703028321266, -3.305785894393921, -0.34665027260780334, -0.1704755425453186, -0.752197265625, -0.141357421875, 0.28662109375, 
418, 2847603982, 0.4467518925666809, -0.46431487798690796, -0.5362837910652161, -0.5451641082763672, 9.699787139892578, 1.6216691732406616, -0.04341266676783562, -1.951279878616333, -0.2931165099143982, -0.10874524712562561, -0.753173828125, -0.138427734375, 0.28662109375, 
419, 2847612315, 0.44673866033554077, -0.46435415744781494, -0.5362827777862549, -0.5451421737670898, 9.704283714294434, 1.6561120748519897, -0.05119289830327034, -0.7348595857620239, -0.24708767235279083, 0.23905763030052185, -0.752685546875, -0.141845703125, 0.28759765625, 
420, 2847620648, 0.44675686955451965, -0.4643842577934265, -0.5362994074821472, -0.5450852513313293, 9.718676567077637, 1.6951453685760498, -0.005722234956920147, 0.017468906939029694, -0.26383939385414124, 0.51215660572052, -0.756103515625, -0.14013671875, 0.28564453125, 
421, 2847628981, 0.4467758536338806, -0.46440786123275757, -0.5363149046897888, -0.5450342893600464, 9.699197769165039, 1.7380549907684326, 0.006523392628878355, 0.1310168206691742, -0.14550167322158813, 0.44794178009033203, -0.754150390625, -0.140380859375, 0.2880859375, 
422, 2847637314, 0.4468063712120056, -0.46442440152168274, -0.5363151431083679, -0.5449950098991394, 9.693475723266602, 1.7103663682937622, 0.01689501479268074, -0.07511373609304428, 0.14302988350391388, 0.500835120677948, -0.752685546875, -0.140869140625, 0.287109375, 
423, 2847645647, 0.44683802127838135, -0.46443814039230347, -0.5362939834594727, -0.544978141784668, 9.701165199279785, 1.7069687843322754, -0.00673797819763422, -0.4448808431625366, 0.4366458058357239, 0.4850310981273651, -0.752685546875, -0.1376953125, 0.2841796875, 
424, 2847653980, 0.44687336683273315, -0.4644460082054138, -0.5362626910209656, -0.5449733138084412, 9.70246696472168, 1.687041163444519, -0.021880431100726128, -0.4820982813835144, 0.6568257808685303, 0.4635407626628876, -0.753662109375, -0.139404296875, 0.2861328125, 
425, 2847662313, 0.4469102621078491, -0.4644610285758972, -0.5362479090690613, -0.5449445843696594, 9.739790916442871, 1.7061033248901367, -0.018983572721481323, -0.15836000442504883, 0.36874255537986755, 0.5710949897766113, -0.755126953125, -0.141845703125, 0.28759765625, 
426, 2847670646, 0.4469262659549713, -0.4644889235496521, -0.5362326502799988, -0.5449228286743164, 9.815746307373047, 1.7792768478393555, 0.0005364632233977318, -0.481893390417099, 0.1572713851928711, 0.4674341380596161, -0.753662109375, -0.140380859375, 0.28662109375, 
427, 2847678979, 0.4468787610530853, -0.46455812454223633, -0.5361810326576233, -0.5449535846710205, 9.842021942138672, 1.8233801126480103, -0.012167591601610184, -1.8213385343551636, -0.06353611499071121, 0.2061433494091034, -0.754638671875, -0.139892578125, 0.287109375, 
428, 2847687312, 0.4467817544937134, -0.4646678566932678, -0.5360732078552246, -0.545045793056488, 9.838737487792969, 1.7713602781295776, -0.04086963087320328, -3.2423906326293945, 0.006634087301790714, 0.11426510661840439, -0.753662109375, -0.140380859375, 0.28857421875, 
429, 2847695645, 0.4466390311717987, -0.4648107588291168, -0.5359232425689697, -0.545188307762146, 9.823822021484375, 1.7235065698623657, -0.07088657468557358, -3.943272829055786, 0.07028545439243317, 0.0003585992963053286, -0.751708984375, -0.14404296875, 0.283935546875, 
430, 2847703978, 0.4465060830116272, -0.4649345874786377, -0.5358014702796936, -0.5453113317489624, 9.820003509521484, 1.6621941328048706, -0.05684094503521919, -3.8898415565490723, -0.08018535375595093, -0.15062449872493744, -0.753173828125, -0.140625, 0.2841796875, 
431, 2847712311, 0.446372389793396, -0.46504876017570496, -0.5357097387313843, -0.545413613319397, 9.81343936920166, 1.6262359619140625, -0.03765760362148285, -3.464287042617798, -0.3322550654411316, -0.29245054721832275, -0.753173828125, -0.13916015625, 0.28369140625, 
432, 2847720644, 0.44625145196914673, -0.46513456106185913, -0.535653829574585, -0.5454941987991333, 9.750571250915527, 1.6016050577163696, -0.006665862165391445, -2.7740602493286133, -0.3820491433143616, -0.5004637241363525, -0.754638671875, -0.14111328125, 0.28466796875, 
433, 2847728977, 0.4461509585380554, -0.46519845724105835, -0.5356413125991821, -0.5455341339111328, 9.739097595214844, 1.538398027420044, -0.017486141994595528, -1.8348629474639893, -0.588218092918396, -0.5344281792640686, -0.752197265625, -0.14013671875, 0.28515625, 
434, 2847737310, 0.4460919201374054, -0.46523112058639526, -0.5356639623641968, -0.5455324053764343, 9.766498565673828, 1.5382689237594604, 0.0008297297754324973, -0.85655277967453, -0.5356064438819885, -0.4275656044483185, -0.754150390625, -0.143798828125, 0.281494140625, 
435, 2847745643, 0.4460888206958771, -0.4652184247970581, -0.5357153415679932, -0.5454953908920288, 9.793164253234863, 1.5625027418136597, -0.0327528677880764, 0.13183645904064178, -0.20400455594062805, -0.3126601278781891, -0.753173828125, -0.1416015625, 0.28515625, 
436, 2847753976, 0.4461183249950409, -0.46518445014953613, -0.5358087420463562, -0.5454086065292358, 9.796319007873535, 1.6371784210205078, -0.047344665974378586, 1.2760753631591797, -0.3614808917045593, -0.18236052989959717, -0.755126953125, -0.1416015625, 0.28662109375, 
437, 2847762309, 0.4461612403392792, -0.4651539623737335, -0.5359264612197876, -0.5452834963798523, 9.84931755065918, 1.72195303440094, -0.10224094986915588, 1.8107726573944092, -0.6847068667411804, 0.02156718447804451, -0.752685546875, -0.139892578125, 0.2861328125, 
438, 2847770642, 0.4461868405342102, -0.4651435315608978, -0.5360262393951416, -0.5451734662055969, 9.920042037963867, 1.7625755071640015, -0.10601232945919037, 1.3265613317489624, -0.7545569539070129, 0.06329277157783508, -0.754638671875, -0.140380859375, 0.28662109375, 
439, 2847778975, 0.4461822807788849, -0.46514207124710083, -0.5360811352729797, -0.5451245307922363, 9.889370918273926, 1.814182996749878, -0.11370866000652313, 0.2495851218700409, -0.3865828216075897, -0.187637060880661, -0.753662109375, -0.13916015625, 0.2841796875, 
440, 2847787308, 0.4461274743080139, -0.46516284346580505, -0.5361056923866272, -0.5451275706291199, 9.84591007232666, 1.8410704135894775, -0.14435838162899017, -0.7779683470726013, -0.3962394595146179, -0.5218260288238525, -0.751708984375, -0.142333984375, 0.287109375, 
441, 2847795641, 0.4460314214229584, -0.4651985764503479, -0.536103367805481, -0.545177698135376, 9.800230026245117, 1.8294199705123901, -0.12927022576332092, -1.7540501356124878, -0.3592780828475952, -0.8435408473014832, -0.753662109375, -0.13916015625, 0.2841796875, 
