sep=,
PacketCounter,SampleTimeFine,Quat_W,Quat_X,Quat_Y,Quat_Z,Acc_X,Acc_Y,Acc_Z,Gyr_X,Gyr_Y,Gyr_Z,Mag_X,Mag_Y,Mag_Z,
0, 3030963314, 0.5183981657028198, -0.48548823595046997, -0.22068630158901215, -0.6684629321098328, 0, 0, 0, 0, 0, 0, -0.884033203125, 0.12548828125, -0.21630859375, 
1, 3030971647, 0.5183570384979248, -0.4855075180530548, -0.22064566612243652, -0.6684942245483398, 8.680975914001465, -2.074796438217163, 4.265440464019775, -1.3855634927749634, 0.5005021095275879, -0.3868902325630188, -0.880615234375, 0.126953125, -0.216796875, 
2, 3030979980, 0.5183409452438354, -0.48551681637763977, -0.22062057256698608, -0.6685081720352173, 8.706182479858398, -2.0908689498901367, 4.2890238761901855, -0.9015571475028992, 0.4268868863582611, -0.13853459060192108, -0.885498046875, 0.12744140625, -0.217041015625, 
3, 3030988313, 0.5183557271957397, -0.48551270365715027, -0.22063672542572021, -0.6684945225715637, 8.721197128295898, -2.1115479469299316, 4.261106014251709, -0.3048093914985657, 0.20984460413455963, -0.06173030287027359, -0.883544921875, 0.12548828125, -0.2158203125, 
4, 3030996646, 0.5183847546577454, -0.48550379276275635, -0.22064881026744843, -0.668474555015564, 8.726003646850586, -2.10686993598938, 4.25396728515625, -0.02470492757856846, 0.2399541586637497, 0.21459604799747467, -0.883544921875, 0.1279296875, -0.215087890625, 
5, 3031004979, 0.5184149742126465, -0.48548197746276855, -0.2206624150276184, -0.668462336063385, 8.718006134033203, -2.1069486141204834, 4.257851600646973, 0.11062787473201752, 0.3945360481739044, 0.13701054453849792, -0.884521484375, 0.12353515625, -0.21484375, 
6, 3031013312, 0.5184468030929565, -0.4854564368724823, -0.22067663073539734, -0.6684515476226807, 8.706677436828613, -2.0743672847747803, 4.255784511566162, 0.10332782566547394, 0.44755756855010986, 0.11108894646167755, -0.881591796875, 0.127685546875, -0.215087890625, 
7, 3031021645, 0.5184690952301025, -0.4854520559310913, -0.2206868827342987, -0.6684341430664062, 8.702814102172852, -2.0715348720550537, 4.2512993812561035, -0.09706514328718185, 0.20171211659908295, 0.171205535531044, -0.883056640625, 0.1279296875, -0.215576171875, 
8, 3031029978, 0.5184763669967651, -0.48546352982521057, -0.2206844538450241, -0.6684208512306213, 8.695253372192383, -2.082078218460083, 4.265984058380127, -0.470571905374527, 0.13350136578083038, 0.12635502219200134, -0.883544921875, 0.1279296875, -0.216552734375, 
9, 3031038311, 0.51848304271698, -0.48548388481140137, -0.2206944078207016, -0.6683976054191589, 8.693400382995605, -2.038724660873413, 4.254003047943115, -0.6579272747039795, -0.03368271887302399, 0.0001664925366640091, -0.884521484375, 0.12548828125, -0.2158203125, 
10, 3031046644, 0.5184452533721924, -0.4855181574821472, -0.22067829966545105, -0.6684072613716125, 8.685168266296387, -2.0585310459136963, 4.314401626586914, -1.1298565864562988, 0.03901048004627228, -0.29106733202934265, -0.884521484375, 0.12548828125, -0.2138671875, 
11, 3031054977, 0.5184120535850525, -0.48555082082748413, -0.22066642343997955, -0.6684133410453796, 8.670941352844238, -2.0383458137512207, 4.2949604988098145, -1.1856443881988525, 0.0525347925722599, -0.334329754114151, -0.885009765625, 0.12646484375, -0.215576171875, 
12, 3031063310, 0.5183694362640381, -0.4855996072292328, -0.22062483429908752, -0.6684246063232422, 8.665955543518066, -2.0480306148529053, 4.279653072357178, -1.502287745475769, 0.08229853957891464, -0.13220787048339844, -0.883056640625, 0.12548828125, -0.21728515625, 
13, 3031071643, 0.518317461013794, -0.48564550280570984, -0.22056232392787933, -0.6684523224830627, 8.701075553894043, -2.081792116165161, 4.280039310455322, -1.4920804500579834, 0.2696922719478607, -0.0675959587097168, -0.882568359375, 0.126953125, -0.215576171875, 
14, 3031079976, 0.5182952284812927, -0.48568034172058105, -0.22050079703330994, -0.6684646010398865, 8.668673515319824, -2.1206891536712646, 4.263552188873291, -1.4564381837844849, 0.4213029146194458, 0.1384449154138565, -0.885009765625, 0.12646484375, -0.214599609375, 
15, 3031088309, 0.518307089805603, -0.48569050431251526, -0.22044697403907776, -0.6684657335281372, 8.657571792602539, -2.1416256427764893, 4.247930526733398, -0.9757102727890015, 0.6324666738510132, 0.38303524255752563, -0.884521484375, 0.12548828125, -0.21533203125, 
16, 3031096642, 0.5183544158935547, -0.4856746792793274, -0.2204127311706543, -0.6684517860412598, 8.723714828491211, -2.151460647583008, 4.233080863952637, -0.29850828647613525, 0.7288914322853088, 0.6289190649986267, -0.885498046875, 0.1279296875, -0.218017578125, 
17, 3031104975, 0.5184458494186401, -0.4856386184692383, -0.22041115164756775, -0.6684075593948364, 8.766575813293457, -2.1631920337677, 4.203926086425781, 0.4007090926170349, 0.6479120850563049, 0.9000585675239563, -0.884521484375, 0.127197265625, -0.213623046875, 
18, 3031113308, 0.5185552835464478, -0.4855867922306061, -0.22043316066265106, -0.6683530211448669, 8.76990032196045, -2.153449296951294, 4.1989336013793945, 1.0127612352371216, 0.5763715505599976, 1.0045135021209717, -0.885009765625, 0.12548828125, -0.215087890625, 
19, 3031121641, 0.518662691116333, -0.4855365753173828, -0.22048985958099365, -0.6682875752449036, 8.737425804138184, -2.112610101699829, 4.197033405303955, 1.5216647386550903, 0.18985269963741302, 0.9192178845405579, -0.883056640625, 0.12646484375, -0.21630859375, 
20, 3031129974, 0.5187598466873169, -0.48549720644950867, -0.22056032717227936, -0.6682174801826477, 8.728492736816406, -2.066434621810913, 4.229146957397461, 1.3340919017791748, -0.024986686185002327, 0.7167887687683105, -0.885498046875, 0.1279296875, -0.216064453125, 
21, 3031138307, 0.5188140869140625, -0.4854836165904999, -0.22061821818351746, -0.6681661009788513, 8.726625442504883, -2.016293525695801, 4.27131986618042, 0.7085665464401245, -0.18015770614147186, 0.3529897630214691, -0.885498046875, 0.12744140625, -0.214111328125, 
22, 3031146640, 0.5188149809837341, -0.4855015277862549, -0.22063392400741577, -0.6681472063064575, 8.710846900939941, -1.987417459487915, 4.274467468261719, -0.37602975964546204, -0.1107175275683403, 0.005532674491405487, -0.882568359375, 0.1279296875, -0.215087890625, 
23, 3031154973, 0.5187672972679138, -0.48554527759552, -0.22060811519622803, -0.6681609153747559, 8.683537483215332, -2.0055785179138184, 4.3054890632629395, -1.321323037147522, 0.010040780529379845, -0.3008776009082794, -0.885009765625, 0.12646484375, -0.215087890625, 
24, 3031163306, 0.5186875462532043, -0.4856169819831848, -0.22054943442344666, -0.6681901812553406, 8.692185401916504, -2.0011203289031982, 4.287388324737549, -2.1282739639282227, 0.002049138769507408, -0.4194459021091461, -0.882568359375, 0.127197265625, -0.213134765625, 
25, 3031171639, 0.5185874700546265, -0.4856998324394226, -0.22046157717704773, -0.668236494064331, 8.696268081665039, -2.0599427223205566, 4.253416538238525, -2.6077468395233154, 0.1500738114118576, -0.4777951240539551, -0.885986328125, 0.125, -0.214111328125, 
26, 3031179972, 0.5185145735740662, -0.4857584238052368, -0.22036346793174744, -0.6682829260826111, 8.690528869628906, -2.119640827178955, 4.278817176818848, -2.4030632972717285, 0.539358913898468, -0.2543109059333801, -0.885009765625, 0.12841796875, -0.215087890625, 
27, 3031188305, 0.5184849500656128, -0.48577964305877686, -0.22029119729995728, -0.6683142781257629, 8.694077491760254, -2.1452627182006836, 4.262485027313232, -1.5767484903335571, 0.7341296672821045, -0.04696370288729668, -0.884033203125, 0.12548828125, -0.216796875, 
28, 3031196638, 0.5185103416442871, -0.48576951026916504, -0.22025474905967712, -0.6683138608932495, 8.678380012512207, -2.1770682334899902, 4.245312213897705, -0.5461082458496094, 0.7168143391609192, 0.36287686228752136, -0.884521484375, 0.126953125, -0.216064453125, 
29, 3031204971, 0.5185705423355103, -0.4857333302497864, -0.22025597095489502, -0.6682931780815125, 8.704530715942383, -2.1699435710906982, 4.227959632873535, 0.36390137672424316, 0.6366161704063416, 0.5322381258010864, -0.883056640625, 0.12744140625, -0.217041015625, 
30, 3031213304, 0.5186740159988403, -0.4856812059879303, -0.22028332948684692, -0.6682417392730713, 8.67737865447998, -2.1649224758148193, 4.231478691101074, 1.0155788660049438, 0.5422790050506592, 0.8916058540344238, -0.883544921875, 0.12646484375, -0.216064453125, 
31, 3031221637, 0.51877361536026, -0.48563557863235474, -0.22032925486564636, -0.6681824326515198, 8.677664756774902, -2.1489357948303223, 4.255841255187988, 1.344568133354187, 0.2378794103860855, 0.9023383259773254, -0.884033203125, 0.129150390625, -0.214111328125, 
32, 3031229970, 0.5188770890235901, -0.48558467626571655, -0.22037377953529358, -0.6681244969367981, 8.671313285827637, -2.114337205886841, 4.260283946990967, 1.1829677820205688, 0.3662579357624054, 0.8259053826332092, -0.883544921875, 0.12744140625, -0.216552734375, 
33, 3031238303, 0.5189509391784668, -0.4855392277240753, -0.22041630744934082, -0.668086051940918, 8.69729232788086, -2.094381093978882, 4.246371269226074, 0.9778233170509338, 0.34435778856277466, 0.4928434491157532, -0.884033203125, 0.126220703125, -0.213623046875, 
34, 3031246636, 0.5189930200576782, -0.4855187237262726, -0.22043660283088684, -0.6680615544319153, 8.701604843139648, -2.077242612838745, 4.243137836456299, 0.23385797441005707, 0.29548579454421997, 0.2776326835155487, -0.884521484375, 0.12744140625, -0.216064453125, 
35, 3031254969, 0.5189968943595886, -0.4855283200740814, -0.2204335331916809, -0.668052613735199, 8.706647872924805, -2.0608341693878174, 4.2718424797058105, -0.5384112000465393, 0.18848232924938202, 0.037102218717336655, -0.882568359375, 0.126953125, -0.215087890625, 
36, 3031263302, 0.5189541578292847, -0.4855833649635315, -0.22040300071239471, -0.6680557727813721, 8.687013626098633, -2.05180025100708, 4.2625651359558105, -1.4227808713912964, -0.10656802356243134, -0.1306966245174408, -0.884033203125, 0.127197265625, -0.213623046875, 
37, 3031271635, 0.5188989639282227, -0.48564356565475464, -0.22035464644432068, -0.668070912361145, 8.68982982635498, -2.070770502090454, 4.296453952789307, -1.7233641147613525, 0.011193420737981796, -0.19258061051368713, -0.882080078125, 0.126953125, -0.2158203125, 
38, 3031279968, 0.5188436508178711, -0.4856962263584137, -0.2202833890914917, -0.6680991649627686, 8.69145393371582, -2.0868756771087646, 4.28695821762085, -1.940137267112732, 0.33400964736938477, -0.16017861664295197, -0.882568359375, 0.124267578125, -0.2138671875, 
39, 3031288301, 0.5188193917274475, -0.48572689294815063, -0.2202179729938507, -0.6681172251701355, 8.679133415222168, -2.0895683765411377, 4.276046276092529, -1.824386715888977, 0.6076720952987671, -0.07844357937574387, -0.883544921875, 0.12744140625, -0.215576171875, 
40, 3031296634, 0.5187960863113403, -0.48575353622436523, -0.22015327215194702, -0.6681373119354248, 8.684410095214844, -2.1213972568511963, 4.27003288269043, -1.4562333822250366, 0.5691995024681091, 0.06869738548994064, -0.885009765625, 0.1279296875, -0.215087890625, 
41, 3031304967, 0.518790602684021, -0.4857807755470276, -0.22010460495948792, -0.6681377291679382, 8.703965187072754, -2.136990547180176, 4.267779350280762, -1.1151158809661865, 0.3679612874984741, 0.2729068696498871, -0.883544921875, 0.1259765625, -0.21484375, 
42, 3031313300, 0.5188013911247253, -0.4858058989048004, -0.22007079422473907, -0.6681222319602966, 8.7169189453125, -2.151975631713867, 4.243359565734863, -0.8253033757209778, 0.22934985160827637, 0.42637452483177185, -0.882080078125, 0.125, -0.216796875, 
43, 3031321633, 0.5188450813293457, -0.4858088493347168, -0.2200746238231659, -0.6680848598480225, 8.717584609985352, -2.135681629180908, 4.243480205535889, -0.4740298092365265, 0.22988776862621307, 0.34422966837882996, -0.886474609375, 0.12646484375, -0.213623046875, 
44, 3031329966, 0.5188624858856201, -0.48581281304359436, -0.22006118297576904, -0.6680729389190674, 8.683966636657715, -2.1284570693969727, 4.255648136138916, -0.4546142518520355, 0.3207414150238037, 0.2607016861438751, -0.883056640625, 0.126708984375, -0.214111328125, 
45, 3031338299, 0.5188628435134888, -0.48581811785697937, -0.22005142271518707, -0.6680719256401062, 8.678694725036621, -2.1329705715179443, 4.278923034667969, -0.4735431671142578, 0.2823200821876526, 0.049179330468177795, -0.884033203125, 0.129150390625, -0.212158203125, 
46, 3031346632, 0.5188553333282471, -0.4858385920524597, -0.22003290057182312, -0.668069064617157, 8.655082702636719, -2.1264615058898926, 4.2829365730285645, -0.8132904171943665, 0.18918673694133759, 0.04979407414793968, -0.884521484375, 0.1259765625, -0.217041015625, 
47, 3031354965, 0.5188400149345398, -0.4858618974685669, -0.22000879049301147, -0.6680718660354614, 8.674610137939453, -2.129272699356079, 4.283744812011719, -0.899661660194397, 0.20821812748908997, 0.0036372216418385506, -0.883544921875, 0.127685546875, -0.213134765625, 
48, 3031363298, 0.5188384056091309, -0.48587316274642944, -0.22000043094158173, -0.6680676937103271, 8.692914009094238, -2.1290509700775146, 4.273308753967285, -0.6110019683837891, 0.21235480904579163, 0.01945401169359684, -0.884033203125, 0.126953125, -0.215087890625, 
49, 3031371631, 0.5188320875167847, -0.4858610928058624, -0.21999400854110718, -0.6680834293365479, 8.728384971618652, -2.1381993293762207, 4.278480052947998, -0.28906944394111633, 0.4781408905982971, -0.14580902457237244, -0.885009765625, 0.126953125, -0.215576171875, 
50, 3031379964, 0.5188496112823486, -0.485822856426239, -0.22000527381896973, -0.6680939793586731, 8.712212562561035, -2.1281280517578125, 4.259603977203369, 0.007069528568536043, 0.6820301413536072, -0.19158165156841278, -0.883056640625, 0.1279296875, -0.216552734375, 
51, 3031388297, 0.5188787579536438, -0.48577621579170227, -0.22004595398902893, -0.6680918335914612, 8.682979583740234, -2.1153602600097656, 4.238989353179932, 0.37007442116737366, 0.5250405669212341, -0.26555556058883667, -0.884521484375, 0.12744140625, -0.214599609375, 
52, 3031396630, 0.5189142227172852, -0.48572900891304016, -0.2200952172279358, -0.6680824160575867, 8.696677207946777, -2.1087942123413086, 4.2407636642456055, 0.6001158952713013, 0.41402843594551086, -0.1656600683927536, -0.884033203125, 0.1279296875, -0.214599609375, 
53, 3031404963, 0.5189470052719116, -0.48568716645240784, -0.22014294564723969, -0.6680717468261719, 8.69736385345459, -2.1033935546875, 4.233753204345703, 0.5484775900840759, 0.3613912761211395, -0.15490207076072693, -0.882080078125, 0.127197265625, -0.214111328125, 
54, 3031413296, 0.5189809799194336, -0.48566657304763794, -0.220177561044693, -0.6680489182472229, 8.706841468811035, -2.1147522926330566, 4.228038311004639, 0.3060901165008545, 0.17986316978931427, 0.09589970111846924, -0.884033203125, 0.126953125, -0.216552734375, 
55, 3031421629, 0.5190045237541199, -0.485654354095459, -0.22020763158798218, -0.6680295467376709, 8.687957763671875, -2.0906543731689453, 4.228216648101807, 0.14197970926761627, 0.12717467546463013, 0.030941994860768318, -0.885986328125, 0.12841796875, -0.214599609375, 
56, 3031429962, 0.519008994102478, -0.4856603443622589, -0.22021612524986267, -0.6680189967155457, 8.709774017333984, -2.074009656906128, 4.262965679168701, -0.35879141092300415, 0.11713389307260513, -0.00823497585952282, -0.883544921875, 0.128173828125, -0.212646484375, 
57, 3031438295, 0.5189896821975708, -0.48567909002304077, -0.22019731998443604, -0.6680265665054321, 8.683272361755371, -2.0891594886779785, 4.254997253417969, -0.8187462091445923, 0.22253645956516266, -0.09798724949359894, -0.885498046875, 0.12744140625, -0.216064453125, 
58, 3031446628, 0.5189617872238159, -0.4857204258441925, -0.2201610803604126, -0.6680300235748291, 8.674703598022461, -2.074453353881836, 4.265669822692871, -1.279328465461731, 0.10764381289482117, 0.0009093052940443158, -0.883056640625, 0.12841796875, -0.215576171875, 
59, 3031454961, 0.5189303755760193, -0.48576053977012634, -0.22012443840503693, -0.6680374145507812, 8.672557830810547, -2.0538604259490967, 4.263359546661377, -1.3417119979858398, 0.1457706093788147, -0.08556434512138367, -0.885009765625, 0.12451171875, -0.21533203125, 
60, 3031463294, 0.5188974738121033, -0.4857944846153259, -0.22007586061954498, -0.6680542230606079, 8.706998825073242, -2.0602333545684814, 4.278730392456055, -1.414405345916748, 0.33767247200012207, -0.08159415423870087, -0.883056640625, 0.127197265625, -0.213134765625, 
61, 3031471627, 0.5188835859298706, -0.485803484916687, -0.22004038095474243, -0.6680702567100525, 8.713064193725586, -2.093980550765991, 4.2718424797058105, -1.056369423866272, 0.5436365008354187, -0.10441642254590988, -0.883056640625, 0.12890625, -0.216064453125, 
62, 3031479960, 0.518890917301178, -0.48579007387161255, -0.22001391649246216, -0.6680829524993896, 8.701476097106934, -2.1136364936828613, 4.245934963226318, -0.5905746221542358, 0.7077212333679199, 0.027074245736002922, -0.883056640625, 0.127685546875, -0.214111328125, 
63, 3031488293, 0.5189124345779419, -0.4857654273509979, -0.2200022041797638, -0.6680880784988403, 8.712270736694336, -2.148427724838257, 4.239440441131592, -0.22502106428146362, 0.6922376155853271, 0.08810017257928848, -0.882568359375, 0.12744140625, -0.217041015625, 
64, 3031496626, 0.518952488899231, -0.48572221398353577, -0.22001375257968903, -0.6680845022201538, 8.695467948913574, -2.161067008972168, 4.230620384216309, 0.2392241507768631, 0.7006389498710632, 0.09990832209587097, -0.884033203125, 0.125, -0.21435546875, 
65, 3031504959, 0.518993079662323, -0.4856727123260498, -0.22003348171710968, -0.6680824756622314, 8.696755409240723, -2.153163194656372, 4.223689556121826, 0.6742435097694397, 0.6356428861618042, 0.16726097464561462, -0.884033203125, 0.128662109375, -0.213134765625, 
66, 3031513292, 0.5190565586090088, -0.4856274724006653, -0.22008076310157776, -0.6680504679679871, 8.737147331237793, -2.1478703022003174, 4.228224277496338, 0.8219095468521118, 0.3455103933811188, 0.2738417685031891, -0.883056640625, 0.12744140625, -0.215576171875, 
67, 3031521625, 0.5191202163696289, -0.48557859659194946, -0.22012397646903992, -0.6680221557617188, 8.717577934265137, -2.098951578140259, 4.2355055809021, 0.8167610764503479, 0.4318559765815735, 0.26354485750198364, -0.882080078125, 0.12841796875, -0.216064453125, 
68, 3031529958, 0.5191639065742493, -0.4855378568172455, -0.2201669067144394, -0.6680038571357727, 8.725531578063965, -2.070254325866699, 4.237744331359863, 0.5767813324928284, 0.3657200336456299, 0.03552694246172905, -0.884033203125, 0.12744140625, -0.216552734375, 
69, 3031538291, 0.5191875696182251, -0.48552536964416504, -0.22017285227775574, -0.6679925322532654, 8.688029289245605, -2.039597511291504, 4.2574076652526855, -0.16507095098495483, 0.3722260892391205, 0.10358397662639618, -0.882568359375, 0.126220703125, -0.21337890625, 
70, 3031546624, 0.5191726088523865, -0.48554709553718567, -0.22016122937202454, -0.6679922342300415, 8.704508781433105, -2.006772994995117, 4.26524019241333, -0.8163256049156189, 0.12434430420398712, -0.0775342807173729, -0.884033203125, 0.1298828125, -0.217041015625, 
71, 3031554957, 0.5191225409507751, -0.48558515310287476, -0.2201065868139267, -0.6680213809013367, 8.701662063598633, -2.0333170890808105, 4.296233654022217, -1.5045162439346313, 0.33838966488838196, -0.21089479327201843, -0.884521484375, 0.1279296875, -0.216552734375, 
72, 3031563290, 0.5190669298171997, -0.485629677772522, -0.22003260254859924, -0.6680566072463989, 8.713467597961426, -2.064195394515991, 4.281291484832764, -1.9306601285934448, 0.47409385442733765, -0.22003908455371857, -0.883544921875, 0.129150390625, -0.214111328125, 
73, 3031571623, 0.5190001726150513, -0.4856716990470886, -0.21995991468429565, -0.6681018471717834, 8.698799133300781, -2.0809719562530518, 4.254441738128662, -1.9664943218231201, 0.5158963203430176, -0.39895451068878174, -0.883544921875, 0.12841796875, -0.215576171875, 
74, 3031579956, 0.5189464688301086, -0.4856991469860077, -0.21989913284778595, -0.668143630027771, 8.696916580200195, -2.0993168354034424, 4.24558687210083, -1.693779706954956, 0.5861304998397827, -0.3879404067993164, -0.882568359375, 0.1259765625, -0.21630859375, 
75, 3031588289, 0.5188940167427063, -0.48572590947151184, -0.21984323859214783, -0.6681833863258362, 8.711668968200684, -2.1411821842193604, 4.24285888671875, -1.3093355894088745, 0.4708408713340759, -0.24777927994728088, -0.885498046875, 0.12646484375, -0.217041015625, 
76, 3031596622, 0.5188660025596619, -0.48574358224868774, -0.21982504427433014, -0.66819828748703, 8.673551559448242, -2.1588711738586426, 4.234411716461182, -0.9783741235733032, 0.27181825041770935, -0.27457180619239807, -0.884521484375, 0.1279296875, -0.215576171875, 
77, 3031604955, 0.5188654661178589, -0.4857463538646698, -0.21982277929782867, -0.6681973338127136, 8.696941375732422, -2.1401305198669434, 4.2621002197265625, -0.4874516725540161, 0.27286842465400696, -0.06412523239850998, -0.883056640625, 0.127197265625, -0.212646484375, 
78, 3031613288, 0.5188716053962708, -0.48572877049446106, -0.2198370099067688, -0.6682007312774658, 8.675811767578125, -2.1297593116760254, 4.266513347625732, -0.16852885484695435, 0.39005357027053833, -0.20251893997192383, -0.882568359375, 0.12744140625, -0.217041015625, 
79, 3031621621, 0.5188784599304199, -0.48571890592575073, -0.21983842551708221, -0.6682021021842957, 8.686162948608398, -2.1527271270751953, 4.2818989753723145, -0.3192686438560486, 0.40050414204597473, -0.07501128315925598, -0.881591796875, 0.127197265625, -0.21484375, 
80, 3031629954, 0.5188866257667542, -0.4857117831707001, -0.2198444902896881, -0.6681989431381226, 8.684258460998535, -2.096484422683716, 4.2566633224487305, -0.28312692046165466, 0.31441470980644226, -0.049525123089551926, -0.882080078125, 0.127197265625, -0.214111328125, 
81, 3031638287, 0.5188785791397095, -0.4857231080532074, -0.2198295146226883, -0.6682019829750061, 8.684510231018066, -2.130302667617798, 4.287993431091309, -0.7041481733322144, 0.28257623314857483, -0.03930504620075226, -0.884033203125, 0.126708984375, -0.213623046875, 
82, 3031646620, 0.5188688635826111, -0.4857427179813385, -0.21980655193328857, -0.6682027578353882, 8.677871704101562, -2.1218907833099365, 4.295088291168213, -0.8717163801193237, 0.2480226308107376, 0.03145428001880646, -0.882568359375, 0.12841796875, -0.216552734375, 
83, 3031654953, 0.5188640356063843, -0.4857449531555176, -0.2197912037372589, -0.6682099103927612, 8.693614959716797, -2.112062931060791, 4.286133766174316, -0.6529708504676819, 0.411902517080307, -0.07296214252710342, -0.885498046875, 0.12890625, -0.217529296875, 
84, 3031663286, 0.5188679099082947, -0.4857436418533325, -0.21978366374969482, -0.6682102680206299, 8.690653800964355, -2.112635374069214, 4.266412734985352, -0.49219033122062683, 0.3688962161540985, -0.007415321189910173, -0.886962890625, 0.126953125, -0.215087890625, 
85, 3031671619, 0.518868088722229, -0.48574188351631165, -0.21977752447128296, -0.668213427066803, 8.703157424926758, -2.1270627975463867, 4.25497579574585, -0.39101412892341614, 0.34507498145103455, -0.021605608984827995, -0.883544921875, 0.12841796875, -0.215576171875, 
86, 3031679952, 0.5188750624656677, -0.485736608505249, -0.21978965401649475, -0.6682080030441284, 8.687320709228516, -2.1268763542175293, 4.262429237365723, -0.24219541251659393, 0.23454955220222473, -0.08008290827274323, -0.884521484375, 0.12646484375, -0.215087890625, 
87, 3031688285, 0.5188958048820496, -0.4857235252857208, -0.21982607245445251, -0.668189287185669, 8.692778587341309, -2.1343295574188232, 4.256470680236816, 0.0733591690659523, 0.11513598263263702, -0.09703952819108963, -0.881103515625, 0.12646484375, -0.21533203125, 
88, 3031696618, 0.5189194083213806, -0.4856962561607361, -0.21987128257751465, -0.668175995349884, 8.688994407653809, -2.13399338722229, 4.26066255569458, 0.3522213101387024, 0.19822855293750763, -0.15946140885353088, -0.884033203125, 0.126953125, -0.216064453125, 
89, 3031704951, 0.5189422369003296, -0.4856593608856201, -0.21993371844291687, -0.6681644320487976, 8.684038162231445, -2.117842435836792, 4.2616424560546875, 0.5276275873184204, 0.19039058685302734, -0.35062041878700256, -0.885498046875, 0.126953125, -0.215576171875, 
90, 3031713284, 0.5189590454101562, -0.48563358187675476, -0.21998381614685059, -0.6681536436080933, 8.67280101776123, -2.1103174686431885, 4.26716423034668, 0.3333180248737335, 0.14574500918388367, -0.26806578040122986, -0.883056640625, 0.12744140625, -0.215576171875, 
91, 3031721617, 0.518986165523529, -0.4856128692626953, -0.2200281023979187, -0.668133020401001, 8.698193550109863, -2.1033005714416504, 4.276627540588379, 0.35240063071250916, 0.10870680958032608, -0.05113882198929787, -0.882568359375, 0.128662109375, -0.214599609375, 
92, 3031729950, 0.5190008878707886, -0.4855968654155731, -0.22004616260528564, -0.6681272983551025, 8.663881301879883, -2.107055902481079, 4.266026973724365, -0.05946344882249832, 0.31326210498809814, -0.07954501360654831, -0.882568359375, 0.128173828125, -0.215087890625, 
93, 3031738283, 0.5190058350563049, -0.4855993986129761, -0.22005127370357513, -0.6681200861930847, 8.692599296569824, -2.0927858352661133, 4.274331569671631, -0.4147328734397888, 0.2111637443304062, -0.04319841042160988, -0.886474609375, 0.12890625, -0.216552734375, 
94, 3031746616, 0.5190105438232422, -0.4855993986129761, -0.22004324197769165, -0.6681190729141235, 8.655576705932617, -2.0741026401519775, 4.266849517822266, -0.4933941960334778, 0.35291290283203125, 0.017776278778910637, -0.885009765625, 0.1279296875, -0.215576171875, 
95, 3031754949, 0.5190263986587524, -0.48560094833374023, -0.2200337052345276, -0.6681085824966431, 8.677027702331543, -2.0891737937927246, 4.271255970001221, -0.4655771255493164, 0.3351878225803375, 0.17143607139587402, -0.882080078125, 0.1279296875, -0.215576171875, 
96, 3031763282, 0.519045889377594, -0.4855960011482239, -0.2200227677822113, -0.6681007742881775, 8.7059326171875, -2.0690884590148926, 4.255254745483398, -0.3657328486442566, 0.41884395480155945, 0.2070910781621933, -0.884521484375, 0.126220703125, -0.213623046875, 
97, 3031771615, 0.519064724445343, -0.48558956384658813, -0.2200310230255127, -0.6680880188941956, 8.714995384216309, -2.0628581047058105, 4.245777606964111, -0.24703647196292877, 0.28490713238716125, 0.05868221074342728, -0.882568359375, 0.1279296875, -0.215087890625, 
98, 3031779948, 0.5190786123275757, -0.48558905720710754, -0.22003617882728577, -0.6680759191513062, 8.69141960144043, -2.075812339782715, 4.233180999755859, -0.27308616042137146, 0.21669642627239227, 0.09162211418151855, -0.882568359375, 0.130126953125, -0.215576171875, 
99, 3031788281, 0.5190715193748474, -0.4855959713459015, -0.22004473209381104, -0.6680735945701599, 8.707205772399902, -2.0888519287109375, 4.244589805603027, -0.47840988636016846, 0.13401368260383606, -0.18499881029129028, -0.882080078125, 0.126708984375, -0.2138671875, 
100, 3031796614, 0.5190613865852356, -0.4856054484844208, -0.22004947066307068, -0.6680729985237122, 8.7167329788208, -2.09550404548645, 4.254618167877197, -0.5445458292961121, 0.13350138068199158, -0.17836472392082214, -0.882568359375, 0.1279296875, -0.216552734375, 
101, 3031804947, 0.5190410614013672, -0.4856305420398712, -0.2200605273246765, -0.6680668592453003, 8.716175079345703, -2.104773759841919, 4.266191005706787, -0.6677502393722534, -0.11537931859493256, -0.243296816945076, -0.882568359375, 0.12841796875, -0.215576171875, 
102, 3031813280, 0.519023060798645, -0.4856450855731964, -0.22005558013916016, -0.6680718660354614, 8.713685989379883, -2.0863912105560303, 4.268472671508789, -0.739367663860321, 0.16938693821430206, -0.21038252115249634, -0.884521484375, 0.12744140625, -0.218017578125, 
103, 3031821613, 0.5189796686172485, -0.48566117882728577, -0.2200363278388977, -0.6681002378463745, 8.710675239562988, -2.076298713684082, 4.281119346618652, -0.76613450050354, 0.2500205338001251, -0.34206530451774597, -0.883544921875, 0.12646484375, -0.215087890625, 
104, 3031829946, 0.5189551115036011, -0.4856693148612976, -0.2200067639350891, -0.668123185634613, 8.689888954162598, -2.086176633834839, 4.296505451202393, -1.0179224014282227, 0.5042418241500854, -0.2530558109283447, -0.883544921875, 0.12744140625, -0.216064453125, 
105, 3031838279, 0.5189384818077087, -0.48566779494285583, -0.21997709572315216, -0.6681470274925232, 8.686190605163574, -2.1093661785125732, 4.282042503356934, -0.7583990097045898, 0.5928927063941956, -0.1546715497970581, -0.885498046875, 0.127197265625, -0.213623046875, 
106, 3031846612, 0.5189473628997803, -0.48565739393234253, -0.2199617624282837, -0.6681527495384216, 8.681205749511719, -2.112513780593872, 4.2649827003479, -0.47861477732658386, 0.5586720705032349, 0.025332478806376457, -0.881103515625, 0.127685546875, -0.214599609375, 
107, 3031854945, 0.5189854502677917, -0.48563772439956665, -0.21997125446796417, -0.6681342720985413, 8.685769081115723, -2.1205105781555176, 4.250412464141846, 0.08304134756326675, 0.39625218510627747, 0.2663879990577698, -0.885498046875, 0.1279296875, -0.215576171875, 
108, 3031863278, 0.5190331935882568, -0.4856082499027252, -0.2199869155883789, -0.6681135296821594, 8.706082344055176, -2.1270623207092285, 4.242880344390869, 0.2799636125564575, 0.4534744620323181, 0.3073708117008209, -0.886474609375, 0.1279296875, -0.214599609375, 
109, 3031871611, 0.5190795063972473, -0.48557063937187195, -0.22000765800476074, -0.6680980324745178, 8.704344749450684, -2.108250379562378, 4.2423224449157715, 0.41359302401542664, 0.5141288638114929, 0.21439114212989807, -0.884521484375, 0.1259765625, -0.215087890625, 
110, 3031879944, 0.519113302230835, -0.48554933071136475, -0.22002200782299042, -0.668082594871521, 8.69750690460205, -2.1146020889282227, 4.234004020690918, 0.10194464772939682, 0.3804738223552704, 0.17430487275123596, -0.882568359375, 0.1279296875, -0.216552734375, 
111, 3031888277, 0.5191249251365662, -0.4855591952800751, -0.2200375497341156, -0.6680611371994019, 8.67749309539795, -2.1098885536193848, 4.241800308227539, -0.22224189341068268, -0.021554378792643547, 0.10156042873859406, -0.885009765625, 0.12841796875, -0.216552734375, 
112, 3031896610, 0.5191295146942139, -0.4855743646621704, -0.22005164623260498, -0.6680419445037842, 8.696955680847168, -2.1008615493774414, 4.230262756347656, -0.34478041529655457, -0.06630244851112366, 0.04438947141170502, -0.884521484375, 0.126953125, -0.216064453125, 
113, 3031904943, 0.5191025137901306, -0.4856078028678894, -0.2200414538383484, -0.668042004108429, 8.684144973754883, -2.0817415714263916, 4.279917240142822, -0.9405419230461121, -0.0299814585596323, -0.16028107702732086, -0.885009765625, 0.12890625, -0.215087890625, 
114, 3031913276, 0.5190685391426086, -0.4856421649456024, -0.22000955045223236, -0.6680539846420288, 8.674775123596191, -2.065669536590576, 4.269288539886475, -1.2558019161224365, 0.17840315401554108, -0.16630041599273682, -0.883056640625, 0.127197265625, -0.214599609375, 
115, 3031921609, 0.5190137624740601, -0.4856802523136139, -0.2199580818414688, -0.6680856943130493, 8.678631782531738, -2.0748751163482666, 4.284032344818115, -1.6538854837417603, 0.35415521264076233, -0.3594701886177063, -0.885009765625, 0.12841796875, -0.216064453125, 
116, 3031929942, 0.5189623236656189, -0.4857226312160492, -0.21991205215454102, -0.6681098937988281, 8.685869216918945, -2.0886802673339844, 4.247916221618652, -1.5966633558273315, 0.23328164219856262, -0.2965872287750244, -0.883544921875, 0.126953125, -0.215087890625, 
117, 3031938275, 0.5189195871353149, -0.48574841022491455, -0.21985726058483124, -0.6681424975395203, 8.691398620605469, -2.10701060295105, 4.268256187438965, -1.5831516981124878, 0.5497070550918579, -0.30195340514183044, -0.883056640625, 0.126953125, -0.215576171875, 
118, 3031946608, 0.5188887715339661, -0.48576924204826355, -0.21980540454387665, -0.6681681871414185, 8.698343276977539, -2.1334497928619385, 4.263280391693115, -1.3647648096084595, 0.5467614531517029, -0.14440025389194489, -0.883056640625, 0.12841796875, -0.216552734375, 
119, 3031954941, 0.518884539604187, -0.4857727885246277, -0.21978315711021423, -0.6681764125823975, 8.684982299804688, -2.1539928913116455, 4.253824234008789, -0.6968991756439209, 0.44970911741256714, -0.012563781812787056, -0.885498046875, 0.1279296875, -0.215087890625, 
120, 3031963274, 0.5189047455787659, -0.48575013875961304, -0.2197858989238739, -0.6681762337684631, 8.682535171508789, -2.1535708904266357, 4.258802890777588, -0.1317468285560608, 0.5368743538856506, 0.01488187164068222, -0.881103515625, 0.12841796875, -0.217041015625, 
121, 3031971607, 0.5189475417137146, -0.48572462797164917, -0.21980540454387665, -0.6681551933288574, 8.707448959350586, -2.1632914543151855, 4.254146099090576, 0.02879040129482746, 0.4321889877319336, 0.13199014961719513, -0.884521484375, 0.126953125, -0.215087890625, 
122, 3031979940, 0.5189896821975708, -0.4856981933116913, -0.21983730792999268, -0.6681312322616577, 8.706168174743652, -2.151310682296753, 4.227423667907715, 0.38126787543296814, 0.2730477452278137, 0.17827507853507996, -0.884033203125, 0.1279296875, -0.218505859375, 
123, 3031988273, 0.5190417766571045, -0.48567697405815125, -0.21988824009895325, -0.6680892705917358, 8.69921588897705, -2.117677927017212, 4.24614953994751, 0.625217854976654, 0.004482491407543421, 0.2734832167625427, -0.885009765625, 0.12744140625, -0.217041015625, 
124, 3031996606, 0.5190916061401367, -0.4856598675251007, -0.2199280709028244, -0.6680499315261841, 8.679080963134766, -2.077214241027832, 4.236879348754883, 0.48454445600509644, 0.048205990344285965, 0.3340608477592468, -0.883056640625, 0.12744140625, -0.216552734375, 
125, 3032004939, 0.5191320776939392, -0.4856444299221039, -0.21996751427650452, -0.668016791343689, 8.692449569702148, -2.0368149280548096, 4.266420364379883, 0.3658224642276764, 0.05909203737974167, 0.19320815801620483, -0.882080078125, 0.1279296875, -0.215576171875, 
126, 3032013272, 0.5191463232040405, -0.4856353998184204, -0.21997831761837006, -0.6680087447166443, 8.669853210449219, -2.025155782699585, 4.28438138961792, -0.1712951958179474, 0.2836776375770569, 0.0037396783009171486, -0.884033203125, 0.12841796875, -0.216064453125, 
127, 3032021605, 0.5191288590431213, -0.4856571555137634, -0.21994778513908386, -0.6680164337158203, 8.70403003692627, -2.0220587253570557, 4.279874801635742, -0.9963295459747314, 0.3000451326370239, -0.021426305174827576, -0.884521484375, 0.12841796875, -0.215576171875, 
128, 3032029938, 0.5190829038619995, -0.48570114374160767, -0.21988464891910553, -0.6680411100387573, 8.703999519348145, -2.0697073936462402, 4.28122615814209, -1.730407953262329, 0.3602898120880127, -0.129876971244812, -0.884521484375, 0.12646484375, -0.216064453125, 
129, 3032038271, 0.5190207958221436, -0.48575901985168457, -0.2198108732700348, -0.6680715084075928, 8.701018333435059, -2.1244354248046875, 4.2880167961120605, -1.8808146715164185, 0.25770482420921326, -0.13013310730457306, -0.885009765625, 0.128173828125, -0.213623046875, 
130, 3032046604, 0.5189602375030518, -0.48581597208976746, -0.21975542604923248, -0.6680952906608582, 8.672554969787598, -2.1295318603515625, 4.283811569213867, -1.847337007522583, 0.13862423598766327, -0.26921841502189636, -0.882568359375, 0.12646484375, -0.216796875, 
131, 3032054937, 0.5189220309257507, -0.4858464002609253, -0.2197289615869522, -0.6681116223335266, 8.666241645812988, -2.136854648590088, 4.280647277832031, -1.3257287740707397, 0.22138382494449615, -0.3457537293434143, -0.883544921875, 0.127197265625, -0.213623046875, 
132, 3032063270, 0.518897294998169, -0.4858637750148773, -0.21972158551216125, -0.6681205630302429, 8.670247077941895, -2.172926425933838, 4.271463394165039, -0.8398779034614563, 0.1678500771522522, -0.27587810158729553, -0.885009765625, 0.12890625, -0.214599609375, 
133, 3032071603, 0.5189018249511719, -0.4858754873275757, -0.21972867846488953, -0.6681060791015625, 8.67072582244873, -2.159414768218994, 4.238753318786621, -0.3292325437068939, 0.03388763219118118, 0.07148932665586472, -0.884521484375, 0.12548828125, -0.21630859375, 
134, 3032079936, 0.5189382433891296, -0.48585501313209534, -0.21976855397224426, -0.668079674243927, 8.669781684875488, -2.175222396850586, 4.230949401855469, 0.3811910152435303, 0.12469009310007095, 0.10934716463088989, -0.885498046875, 0.12841796875, -0.215576171875, 
135, 3032088269, 0.5190058350563049, -0.4858047366142273, -0.2198486179113388, -0.6680373549461365, 8.669846534729004, -2.1760947704315186, 4.2807183265686035, 1.2449029684066772, 0.09789760410785675, 0.15619559586048126, -0.885986328125, 0.1279296875, -0.214111328125, 
136, 3032096602, 0.5190989375114441, -0.4857275187969208, -0.21993617713451385, -0.6679924130439758, 8.685272216796875, -2.121643543243408, 4.269781112670898, 1.6610832214355469, 0.3544754385948181, 0.2724330425262451, -0.882568359375, 0.12646484375, -0.21533203125, 
137, 3032104935, 0.5191957950592041, -0.48564857244491577, -0.2200038731098175, -0.6679523587226868, 8.719852447509766, -2.0968129634857178, 4.235141277313232, 1.4636486768722534, 0.5679188966751099, 0.3729945123195648, -0.882568359375, 0.1279296875, -0.217041015625, 
138, 3032113268, 0.5192806720733643, -0.48558562994003296, -0.22005145251750946, -0.667916476726532, 8.74482250213623, -2.0649328231811523, 4.239590167999268, 1.1076874732971191, 0.545198917388916, 0.44197359681129456, -0.885009765625, 0.129150390625, -0.213623046875, 
139, 3032121601, 0.5193334221839905, -0.4855453073978424, -0.22006097435951233, -0.6679015159606934, 8.750909805297852, -2.0592892169952393, 4.233989715576172, 0.4517582654953003, 0.6198132038116455, 0.3759913444519043, -0.885986328125, 0.12548828125, -0.214111328125, 
140, 3032129934, 0.5193766355514526, -0.48551955819129944, -0.2200663834810257, -0.6678847670555115, 8.714529991149902, -2.0321297645568848, 4.226200103759766, 0.11767178028821945, 0.5055737495422363, 0.3166431784629822, -0.884033203125, 0.1279296875, -0.214599609375, 
141, 3032138267, 0.5193729400634766, -0.48552894592285156, -0.22006049752235413, -0.6678828597068787, 8.68841552734375, -2.011451005935669, 4.237101078033447, -0.5148077011108398, 0.20486262440681458, -0.007697077002376318, -0.884033203125, 0.1279296875, -0.215576171875, 
142, 3032146600, 0.5193366408348083, -0.4855653643608093, -0.22003445029258728, -0.66789311170578, 8.703572273254395, -2.0034685134887695, 4.270376205444336, -1.2275749444961548, 0.09879409521818161, -0.2089737206697464, -0.885009765625, 0.1259765625, -0.216064453125, 
143, 3032154933, 0.5192593336105347, -0.48561668395996094, -0.21998459100723267, -0.6679323315620422, 8.704252243041992, -2.0610923767089844, 4.281984329223633, -1.9021000862121582, 0.20094367861747742, -0.5893195271492004, -0.883544921875, 0.127197265625, -0.214111328125, 
144, 3032163266, 0.5191624164581299, -0.4856739640235901, -0.21991819143295288, -0.6679879426956177, 8.675986289978027, -2.100325345993042, 4.266877174377441, -2.2898740768432617, 0.31441470980644226, -0.7569133639335632, -0.884521484375, 0.12939453125, -0.217041015625, 
145, 3032171599, 0.5190721154212952, -0.4857247471809387, -0.2198668122291565, -0.6680380702018738, 8.673783302307129, -2.126676321029663, 4.262903690338135, -1.9881126880645752, 0.24118360877037048, -0.7555302977561951, -0.881103515625, 0.127685546875, -0.215087890625, 
146, 3032179932, 0.5190008878707886, -0.4857785403728485, -0.21983131766319275, -0.6680660247802734, 8.664648056030273, -2.176647186279297, 4.275620937347412, -1.72452974319458, 0.020452966913580894, -0.5403066277503967, -0.885009765625, 0.127685546875, -0.214111328125, 
147, 3032188265, 0.5189612507820129, -0.4858049154281616, -0.21980707347393036, -0.6680856347084045, 8.69933795928955, -2.1627120971679688, 4.290675640106201, -1.2355153560638428, 0.24405242502689362, -0.3788217306137085, -0.885009765625, 0.12646484375, -0.215087890625, 
148, 3032196598, 0.5189598202705383, -0.4858042299747467, -0.21979773044586182, -0.6680903434753418, 8.677285194396973, -2.160909652709961, 4.295861721038818, -0.5601193904876709, 0.3891827166080475, -0.07150214165449142, -0.882568359375, 0.125732421875, -0.2138671875, 
149, 3032204931, 0.5189951658248901, -0.4857771396636963, -0.2198062241077423, -0.668079674243927, 8.67194938659668, -2.1651012897491455, 4.2756547927856445, 0.14062215387821198, 0.5042930245399475, 0.19436082243919373, -0.885009765625, 0.126220703125, -0.213134765625, 
150, 3032213264, 0.519068717956543, -0.4857441186904907, -0.21983323991298676, -0.6680377125740051, 8.693657875061035, -2.146775484085083, 4.264524936676025, 0.6482450366020203, 0.3404900133609772, 0.6088759303092957, -0.883056640625, 0.128662109375, -0.215087890625, 
151, 3032221597, 0.5191597938537598, -0.485698401927948, -0.2198811173439026, -0.6679843664169312, 8.717205047607422, -2.1234216690063477, 4.2590532302856445, 1.0378118753433228, 0.3013002574443817, 0.6429685354232788, -0.883544921875, 0.12744140625, -0.214599609375, 
152, 3032229930, 0.5192520022392273, -0.4856489598751068, -0.21992707252502441, -0.6679335832595825, 8.706619262695312, -2.0727508068084717, 4.273337364196777, 1.0904748439788818, 0.3535020351409912, 0.6671739220619202, -0.885009765625, 0.126220703125, -0.213134765625, 
153, 3032238263, 0.5193217396736145, -0.48560288548469543, -0.21996068954467773, -0.6679017543792725, 8.687921524047852, -2.0835232734680176, 4.2892022132873535, 0.7334892153739929, 0.4781408905982971, 0.40357786417007446, -0.882080078125, 0.128662109375, -0.214111328125, 
154, 3032246596, 0.5193820595741272, -0.48555082082748413, -0.21998345851898193, -0.6678851842880249, 8.680411338806152, -2.0794103145599365, 4.265676498413086, 0.5800343155860901, 0.6757802963256836, 0.27704355120658875, -0.882080078125, 0.127197265625, -0.213134765625, 
155, 3032254929, 0.5194258093833923, -0.48549994826316833, -0.220022052526474, -0.6678754091262817, 8.693107604980469, -2.0772500038146973, 4.2522077560424805, 0.5712487101554871, 0.55488121509552, -0.04038084298372269, -0.883544921875, 0.12646484375, -0.214111328125, 
156, 3032263262, 0.519446849822998, -0.4854695200920105, -0.22005167603492737, -0.6678714156150818, 8.705409049987793, -2.0900893211364746, 4.235319137573242, 0.18557512760162354, 0.3933834135532379, -0.1543641984462738, -0.882080078125, 0.12890625, -0.216552734375, 
157, 3032271595, 0.5194380879402161, -0.4854786992073059, -0.22006356716156006, -0.6678676605224609, 8.716368675231934, -2.0707764625549316, 4.262293338775635, -0.5259754657745361, 0.08777997642755508, -0.23218022286891937, -0.883544921875, 0.12744140625, -0.217041015625, 
158, 3032279928, 0.5194077491760254, -0.48551279306411743, -0.22004559636116028, -0.6678723692893982, 8.6802396774292, -2.081942558288574, 4.2748613357543945, -1.0804595947265625, 0.04324963688850403, -0.1754062920808792, -0.881591796875, 0.125732421875, -0.21435546875, 
159, 3032288261, 0.519358217716217, -0.48555290699005127, -0.22000229358673096, -0.667896032333374, 8.668665885925293, -2.0544323921203613, 4.28438138961792, -1.3583228588104248, 0.1973704993724823, -0.21874555945396423, -0.883056640625, 0.12744140625, -0.216064453125, 
160, 3032296594, 0.5193254947662354, -0.48559603095054626, -0.2199576199054718, -0.6679048538208008, 8.66124153137207, -2.078580379486084, 4.253151893615723, -1.4189389944076538, 0.17028342187404633, -0.021708063781261444, -0.885986328125, 0.12744140625, -0.214111328125, 
161, 3032304927, 0.519293487071991, -0.4856474995613098, -0.21989358961582184, -0.6679133176803589, 8.696240425109863, -2.089366912841797, 4.276963710784912, -1.5043368339538574, 0.20068751275539398, 0.20547738671302795, -0.885009765625, 0.12841796875, -0.216552734375, 
162, 3032313260, 0.5192736387252808, -0.48570147156715393, -0.21982532739639282, -0.6679121255874634, 8.696898460388184, -2.0999746322631836, 4.268709182739258, -1.5958565473556519, 0.21303360164165497, 0.35931649804115295, -0.884033203125, 0.12548828125, -0.21630859375, 
163, 3032321593, 0.5192495584487915, -0.48576951026916504, -0.21975351870059967, -0.6679048538208008, 8.691388130187988, -2.1068954467773438, 4.269289970397949, -1.6916794776916504, 0.04728388413786888, 0.4450729787349701, -0.885498046875, 0.12744140625, -0.217041015625, 
164, 3032329926, 0.5192379355430603, -0.4858214259147644, -0.2196911722421646, -0.6678968071937561, 8.70280647277832, -2.1004037857055664, 4.2922563552856445, -1.4516867399215698, 0.1674274355173111, 0.43768322467803955, -0.885009765625, 0.12646484375, -0.217041015625, 
165, 3032338259, 0.519242525100708, -0.48584288358688354, -0.21964359283447266, -0.66789311170578, 8.696483612060547, -2.1016769409179688, 4.258716106414795, -1.1016809940338135, 0.4475574493408203, 0.3069097399711609, -0.885009765625, 0.1279296875, -0.216064453125, 
166, 3032346592, 0.5192450881004333, -0.4858543872833252, -0.2195969820022583, -0.6678981184959412, 8.675568580627441, -2.126826286315918, 4.278264999389648, -0.9611358046531677, 0.5569047331809998, 0.24820195138454437, -0.886474609375, 0.12841796875, -0.216064453125, 
167, 3032354925, 0.5192378163337708, -0.48587799072265625, -0.2195592224597931, -0.6678990721702576, 8.666685104370117, -2.1509599685668945, 4.2716288566589355, -0.8926433324813843, 0.2959724962711334, 0.22135822474956512, -0.882568359375, 0.1298828125, -0.216552734375, 
168, 3032363258, 0.5192278027534485, -0.4859086871147156, -0.21953019499778748, -0.6678940653800964, 8.685003280639648, -2.153620958328247, 4.274960994720459, -0.9914373159408569, 0.15168748795986176, 0.14466920495033264, -0.883544921875, 0.127197265625, -0.212646484375, 
169, 3032371591, 0.519252359867096, -0.48591387271881104, -0.21953126788139343, -0.6678707599639893, 8.708200454711914, -2.1772825717926025, 4.256535053253174, -0.6473870277404785, 0.25739747285842896, 0.11088403314352036, -0.885986328125, 0.12939453125, -0.215576171875, 
170, 3032379924, 0.5192776918411255, -0.48588573932647705, -0.2195439338684082, -0.6678674817085266, 8.69809341430664, -2.1685845851898193, 4.228639125823975, 0.04057295247912407, 0.5104917883872986, -0.0009093054104596376, -0.885498046875, 0.1259765625, -0.213623046875, 
171, 3032388257, 0.5193051695823669, -0.4858502447605133, -0.21956640481948853, -0.6678643822669983, 8.683372497558594, -2.1570041179656982, 4.248002052307129, 0.4617733955383301, 0.452885240316391, 0.05217619240283966, -0.883544921875, 0.12890625, -0.216064453125, 
172, 3032396590, 0.5193477869033813, -0.4858090877532959, -0.21961119771003723, -0.6678464412689209, 8.701991081237793, -2.1290581226348877, 4.251177787780762, 0.5898957848548889, 0.3568319082260132, 0.0110653480514884, -0.883544921875, 0.12890625, -0.218017578125, 
173, 3032404923, 0.5193871259689331, -0.4857833683490753, -0.21966230869293213, -0.6678177118301392, 8.686748504638672, -2.12345027923584, 4.224991321563721, 0.541753888130188, 0.09189107269048691, 0.0470917746424675, -0.885986328125, 0.1279296875, -0.216552734375, 
174, 3032413256, 0.5194220542907715, -0.4857693612575531, -0.21970537304878235, -0.6677865982055664, 8.682671546936035, -2.09195613861084, 4.23374605178833, 0.36735936999320984, 0.008580769412219524, 0.12773819267749786, -0.885009765625, 0.12744140625, -0.215087890625, 
175, 3032421589, 0.5194419622421265, -0.48576706647872925, -0.2197294682264328, -0.6677650809288025, 8.693794250488281, -2.0836660861968994, 4.266606330871582, 0.23339690268039703, -0.005366181954741478, 0.19748574495315552, -0.884521484375, 0.126708984375, -0.213623046875, 
176, 3032429922, 0.5194613933563232, -0.48577049374580383, -0.21973979473114014, -0.6677440404891968, 8.687013626098633, -2.0608198642730713, 4.269546031951904, -0.18955813348293304, 0.10071516782045364, 0.18488354980945587, -0.884033203125, 0.129638671875, -0.215087890625, 
177, 3032438255, 0.5194588899612427, -0.48578891158103943, -0.2197285294532776, -0.6677362322807312, 8.681827545166016, -2.040241241455078, 4.286677360534668, -0.6665208339691162, 0.14062215387821198, 0.07602304965257645, -0.883056640625, 0.128662109375, -0.213134765625, 
178, 3032446588, 0.5194315910339355, -0.48582738637924194, -0.21967685222625732, -0.6677464842796326, 8.669560432434082, -2.061985731124878, 4.27606201171875, -1.41817045211792, 0.29169487953186035, 0.05110039934515953, -0.884521484375, 0.12841796875, -0.216064453125, 
179, 3032454921, 0.5194014310836792, -0.48587411642074585, -0.2196139395236969, -0.6677566766738892, 8.67850112915039, -2.0777149200439453, 4.274231433868408, -1.596522331237793, 0.288621187210083, 0.11779986321926117, -0.882568359375, 0.130859375, -0.217041015625, 
180, 3032463254, 0.519357442855835, -0.4859250485897064, -0.21954353153705597, -0.6677769422531128, 8.683524131774902, -2.060399055480957, 4.2499098777771, -1.820493221282959, 0.3263765275478363, -0.010002357885241508, -0.886962890625, 0.12744140625, -0.216064453125, 
181, 3032471587, 0.5193181037902832, -0.48597094416618347, -0.21947123110294342, -0.6677979230880737, 8.70730972290039, -2.1037919521331787, 4.267232894897461, -1.8816601037979126, 0.4359543025493622, -0.03446395322680473, -0.885986328125, 0.12646484375, -0.216064453125, 
182, 3032479920, 0.5192736387252808, -0.4860156178474426, -0.21939018368721008, -0.6678267121315002, 8.677488327026367, -2.148745059967041, 4.25543212890625, -1.9014854431152344, 0.5163573622703552, -0.024064572528004646, -0.884033203125, 0.12890625, -0.216064453125, 
183, 3032488253, 0.5192456245422363, -0.48604756593704224, -0.2193458378314972, -0.6678396463394165, 8.682535171508789, -2.161953926086426, 4.245655536651611, -1.2636398077011108, 0.30299076437950134, -0.022578947246074677, -0.884033203125, 0.127197265625, -0.214111328125, 
184, 3032496586, 0.5192521810531616, -0.48604482412338257, -0.21933478116989136, -0.6678402423858643, 8.70292854309082, -2.153892755508423, 4.2537312507629395, -0.49416258931159973, 0.4169997572898865, 0.03486097231507301, -0.883544921875, 0.129150390625, -0.213623046875, 
185, 3032504919, 0.5192856192588806, -0.48601600527763367, -0.219346821308136, -0.6678312420845032, 8.727019309997559, -2.162461757659912, 4.2496113777160645, 0.059886086732149124, 0.5233244299888611, 0.08503926545381546, -0.885498046875, 0.12890625, -0.215087890625, 
186, 3032513252, 0.5193397402763367, -0.48596900701522827, -0.21938501298427582, -0.6678107380867004, 8.692770957946777, -2.149364948272705, 4.2306060791015625, 0.6557244062423706, 0.4748879075050354, 0.1600121259689331, -0.885009765625, 0.1298828125, -0.216064453125, 
187, 3032521585, 0.5194008946418762, -0.48590683937072754, -0.2194424271583557, -0.6677897572517395, 8.691869735717773, -2.1413824558258057, 4.229747772216797, 0.9875823855400085, 0.496685653924942, 0.047975458204746246, -0.886962890625, 0.12841796875, -0.216064453125, 
188, 3032529918, 0.519460141658783, -0.485860139131546, -0.2195056974887848, -0.6677567958831787, 8.697656631469727, -2.0946099758148193, 4.245626926422119, 0.9562050700187683, 0.2253028303384781, 0.12889082729816437, -0.885009765625, 0.12890625, -0.216064453125, 
189, 3032538251, 0.5195043087005615, -0.4858224093914032, -0.21955278515815735, -0.6677343249320984, 8.680103302001953, -2.099910259246826, 4.25354528427124, 0.7385095953941345, 0.2542724907398224, 0.10827136784791946, -0.884521484375, 0.12744140625, -0.214599609375, 
190, 3032546584, 0.519538164138794, -0.4857877492904663, -0.2195902317762375, -0.6677209138870239, 8.688758850097656, -2.0681300163269043, 4.251206398010254, 0.40462803840637207, 0.35163217782974243, -0.034233421087265015, -0.885009765625, 0.12841796875, -0.215087890625, 
191, 3032554917, 0.5195543766021729, -0.4857769310474396, -0.21960598230361938, -0.6677109599113464, 8.692778587341309, -2.067014217376709, 4.272436141967773, -0.25213372707366943, 0.30227360129356384, -0.09058474004268646, -0.885986328125, 0.12890625, -0.214599609375, 
192, 3032563250, 0.5195513963699341, -0.48578786849975586, -0.21959054470062256, -0.6677103042602539, 8.708243370056152, -2.069145679473877, 4.251485347747803, -0.6944915056228638, 0.28480467200279236, 0.026459503918886185, -0.885009765625, 0.12841796875, -0.217529296875, 
193, 3032571583, 0.5195287466049194, -0.48581770062446594, -0.2195473611354828, -0.6677205562591553, 8.707663536071777, -2.0840094089508057, 4.246764659881592, -1.1672790050506592, 0.3072171211242676, 0.04216102883219719, -0.885009765625, 0.12890625, -0.215087890625, 
194, 3032579916, 0.5195013880729675, -0.485852986574173, -0.2194972187280655, -0.6677327156066895, 8.6926851272583, -2.0982649326324463, 4.245161533355713, -1.3861782550811768, 0.3211512565612793, 0.01790434867143631, -0.885986328125, 0.130126953125, -0.214599609375, 
195, 3032588249, 0.5194688439369202, -0.48588448762893677, -0.21943560242652893, -0.6677553653717041, 8.69940185546875, -2.0917844772338867, 4.257221221923828, -1.5707288980484009, 0.5047284960746765, -0.06671227514743805, -0.885986328125, 0.12939453125, -0.215087890625, 
196, 3032596582, 0.5194344520568848, -0.4859081208705902, -0.21938076615333557, -0.6677828431129456, 8.713736534118652, -2.124666213989258, 4.24964714050293, -1.4401476383209229, 0.5439438819885254, -0.160434752702713, -0.885009765625, 0.12744140625, -0.217041015625, 
197, 3032604915, 0.5194043517112732, -0.48590677976608276, -0.21933743357658386, -0.6678214073181152, 8.681570053100586, -2.1507456302642822, 4.266927719116211, -1.0238393545150757, 0.7457327842712402, -0.2923992872238159, -0.884033203125, 0.12890625, -0.216552734375, 
198, 3032613248, 0.5193833112716675, -0.485906183719635, -0.21930336952209473, -0.6678494215011597, 8.695611000061035, -2.1456453800201416, 4.257443428039551, -0.9873647689819336, 0.6615645289421082, -0.25351688265800476, -0.886962890625, 0.1279296875, -0.217041015625, 
199, 3032621581, 0.5193731784820557, -0.4859040677547455, -0.21928174793720245, -0.6678659319877625, 8.688236236572266, -2.1570181846618652, 4.260970115661621, -0.8564247488975525, 0.5711718201637268, -0.21719589829444885, -0.883056640625, 0.12890625, -0.216064453125, 
200, 3032629914, 0.5193575024604797, -0.4859084188938141, -0.21927955746650696, -0.6678756475448608, 8.665597915649414, -2.172318458557129, 4.275304794311523, -0.6401894092559814, 0.2825250029563904, -0.2717542052268982, -0.884033203125, 0.12841796875, -0.215576171875, 
201, 3032638247, 0.5193355679512024, -0.4859222173690796, -0.21928825974464417, -0.6678799390792847, 8.67129135131836, -2.1894776821136475, 4.273959636688232, -0.4853513836860657, 0.028226887807250023, -0.27055037021636963, -0.884033203125, 0.127685546875, -0.214111328125, 
202, 3032646580, 0.519336998462677, -0.4859028458595276, -0.21933063864707947, -0.6678789258003235, 8.681713104248047, -2.184034824371338, 4.263258934020996, 0.08593575656414032, 0.16236864030361176, -0.4066387712955475, -0.884521484375, 0.1279296875, -0.216552734375, 
203, 3032654913, 0.5193592309951782, -0.48586446046829224, -0.2193879783153534, -0.6678706407546997, 8.689552307128906, -2.154336452484131, 4.276520252227783, 0.5707107782363892, 0.23431900143623352, -0.3056930601596832, -0.884521484375, 0.12939453125, -0.216064453125, 
204, 3032663246, 0.519395112991333, -0.4858168661594391, -0.21945205330848694, -0.6678563952445984, 8.666942596435547, -2.103522300720215, 4.269131183624268, 0.7571310997009277, 0.2813979685306549, -0.22605842351913452, -0.882568359375, 0.127685546875, -0.214599609375, 
205, 3032671579, 0.5194326043128967, -0.4857743978500366, -0.2195066511631012, -0.6678401827812195, 8.685497283935547, -2.1010336875915527, 4.279632091522217, 0.6944274306297302, 0.28659766912460327, -0.1043395847082138, -0.885498046875, 0.12890625, -0.217529296875, 
206, 3032679912, 0.5194650292396545, -0.48574793338775635, -0.2195526361465454, -0.6678190231323242, 8.67573356628418, -2.1036581993103027, 4.2704548835754395, 0.4373118579387665, 0.15965354442596436, -0.02391088753938675, -0.883056640625, 0.12841796875, -0.218017578125, 
207, 3032688245, 0.5194908380508423, -0.48572272062301636, -0.21956750750541687, -0.6678125858306885, 8.664152145385742, -2.0824570655822754, 4.271827697753906, 0.08452697098255157, 0.4449448585510254, 0.028354957699775696, -0.884033203125, 0.12939453125, -0.215087890625, 
208, 3032696578, 0.5195240378379822, -0.48569121956825256, -0.2195749580860138, -0.6678071618080139, 8.690011024475098, -2.087278366088867, 4.2812347412109375, 0.07661217451095581, 0.5888968706130981, 0.11221596598625183, -0.884033203125, 0.12939453125, -0.216064453125, 
209, 3032704911, 0.5195497274398804, -0.48566934466362, -0.21956492960453033, -0.6678064465522766, 8.679973602294922, -2.0844173431396484, 4.2870917320251465, -0.21883517503738403, 0.6394081115722656, 0.14728184044361115, -0.884521484375, 0.12939453125, -0.218017578125, 
210, 3032713244, 0.519566535949707, -0.4856570363044739, -0.21956183016300201, -0.6678032279014587, 8.691476821899414, -2.120417356491089, 4.25338077545166, -0.2736752927303314, 0.4519120156764984, 0.07484479993581772, -0.884521484375, 0.128662109375, -0.213623046875, 
211, 3032721577, 0.5195775032043457, -0.4856431782245636, -0.21955981850624084, -0.6678054332733154, 8.698465347290039, -2.119215726852417, 4.233846187591553, -0.21496745944023132, 0.46069759130477905, 0.007863570004701614, -0.883056640625, 0.13037109375, -0.217041015625, 
212, 3032729910, 0.5195782780647278, -0.4856380522251129, -0.21955440938472748, -0.667810320854187, 8.70344352722168, -2.0974996089935303, 4.240241050720215, -0.4790758788585663, 0.40880319476127625, -0.09427319467067719, -0.885498046875, 0.1279296875, -0.215087890625, 
213, 3032738243, 0.5195576548576355, -0.4856274724006653, -0.21953321993350983, -0.6678410768508911, 8.718650817871094, -2.130181074142456, 4.226071357727051, -0.5433163642883301, 0.6191217303276062, -0.26742544770240784, -0.885009765625, 0.12841796875, -0.215576171875, 
214, 3032746576, 0.5195520520210266, -0.48559460043907166, -0.21951264142990112, -0.6678760647773743, 8.718392372131348, -2.1221840381622314, 4.233996868133545, -0.5524349808692932, 0.9545400738716125, -0.3486481308937073, -0.884521484375, 0.12841796875, -0.217529296875, 
215, 3032754909, 0.5195425748825073, -0.4855162799358368, -0.21946391463279724, -0.6679563522338867, 8.720934867858887, -2.1423213481903076, 4.217405319213867, -0.4158342778682709, 1.808518648147583, -0.5517946481704712, -0.885986328125, 0.12744140625, -0.216552734375, 
216, 3032763242, 0.5195733904838562, -0.48536810278892517, -0.21941718459129333, -0.6680554151535034, 8.715611457824707, -2.1288061141967773, 4.237922191619873, 0.08135081827640533, 2.739647388458252, -0.6466186046600342, -0.882568359375, 0.12841796875, -0.216064453125, 
217, 3032771575, 0.5196049809455872, -0.4852081835269928, -0.21933022141456604, -0.6681756377220154, 8.703246116638184, -2.1035642623901367, 4.333073139190674, -0.23866063356399536, 3.2753946781158447, -0.5536388754844666, -0.885498046875, 0.12890625, -0.215576171875, 
218, 3032779908, 0.5195993185043335, -0.4850598871707916, -0.2192022204399109, -0.668329656124115, 8.625157356262207, -2.0447771549224854, 4.321707725524902, -1.07322359085083, 3.576669216156006, -0.8332182168960571, -0.885009765625, 0.12744140625, -0.218505859375, 
219, 3032788241, 0.5195514559745789, -0.48495930433273315, -0.2190878689289093, -0.6684772968292236, 8.631736755371094, -2.0988190174102783, 4.315230369567871, -1.4700394868850708, 2.8545022010803223, -1.0898985862731934, -0.885009765625, 0.12841796875, -0.218017578125, 
220, 3032796574, 0.519467830657959, -0.4848576486110687, -0.2189028561115265, -0.6686766743659973, 8.70555591583252, -2.070950746536255, 4.413620471954346, -2.587409257888794, 3.622826337814331, -1.3516759872436523, -0.883544921875, 0.1279296875, -0.218505859375, 
221, 3032804907, 0.5192710757255554, -0.4848044812679291, -0.21862265467643738, -0.6689597368240356, 8.668943405151367, -1.9462589025497437, 4.460330486297607, -4.701248645782471, 4.0468950271606445, -2.1597025394439697, -0.883544921875, 0.12744140625, -0.217529296875, 
222, 3032813240, 0.5189794301986694, -0.484793096780777, -0.21825620532035828, -0.6693137884140015, 8.64278793334961, -1.8648595809936523, 4.388861656188965, -6.7530012130737305, 4.494760513305664, -2.888683795928955, -0.883056640625, 0.124755859375, -0.22021484375, 
223, 3032821573, 0.5185686349868774, -0.48487311601638794, -0.21783536672592163, -0.6697113513946533, 8.654505729675293, -1.9553765058517456, 4.274636745452881, -7.850533962249756, 3.7281649112701416, -3.1799051761627197, -0.884033203125, 0.126220703125, -0.218994140625, 
224, 3032829906, 0.5181940793991089, -0.4849787652492523, -0.21750108897686005, -0.6700331568717957, 8.688093185424805, -2.130756139755249, 4.218485355377197, -7.7472052574157715, 2.7240612506866455, -3.2849490642547607, -0.885986328125, 0.126220703125, -0.220947265625, 
225, 3032838239, 0.517844557762146, -0.4850841164588928, -0.21725396811962128, -0.6703073978424072, 8.727986335754395, -2.2592592239379883, 4.145535469055176, -6.7155022621154785, 1.8874363899230957, -3.3449249267578125, -0.883056640625, 0.126220703125, -0.2236328125, 
226, 3032846572, 0.5175689458847046, -0.48514342308044434, -0.21716780960559845, -0.6705052256584167, 8.736970901489258, -2.3207285404205322, 4.15878438949585, -4.101902008056641, 0.8513146638870239, -3.28383469581604, -0.881591796875, 0.125732421875, -0.22119140625, 
227, 3032854905, 0.5174033641815186, -0.4851464033126831, -0.2172010838985443, -0.6706200242042542, 8.723745346069336, -2.266777515411377, 4.247680187225342, -2.017057180404663, 0.40024808049201965, -2.8504416942596436, -0.884521484375, 0.125244140625, -0.2197265625, 
228, 3032863238, 0.5172572135925293, -0.48514771461486816, -0.21725116670131683, -0.6707153916358948, 8.638896942138672, -2.1606578826904297, 4.242853164672852, -1.2610527276992798, 0.1199258342385292, -2.442765235900879, -0.882568359375, 0.124267578125, -0.220703125, 
229, 3032871571, 0.5171381235122681, -0.4851568639278412, -0.21735942363739014, -0.6707655191421509, 8.658790588378906, -2.1228296756744385, 4.142366886138916, -0.6070445775985718, -0.5459802746772766, -2.3133113384246826, -0.883056640625, 0.125244140625, -0.22216796875, 
230, 3032879904, 0.5170477032661438, -0.4851572513580322, -0.21745026111602783, -0.6708056926727295, 8.7208251953125, -2.2092201709747314, 4.207309722900391, -0.3425263464450836, -0.36475950479507446, -1.8105804920196533, -0.882080078125, 0.125, -0.21923828125, 
231, 3032888237, 0.5169893503189087, -0.4851563572883606, -0.2175014615058899, -0.6708347797393799, 8.703263282775879, -2.2375378608703613, 4.249983787536621, -0.49577632546424866, -0.03149270638823509, -1.205597996711731, -0.883544921875, 0.124755859375, -0.22314453125, 
232, 3032896570, 0.5169026255607605, -0.4852285087108612, -0.21756626665592194, -0.6708283424377441, 8.634288787841797, -2.1911826133728027, 4.237726211547852, -0.9291306138038635, -1.1399871110916138, -1.0565872192382812, -0.883056640625, 0.125, -0.21875, 
233, 3032904903, 0.5167710185050964, -0.48533862829208374, -0.21761931478977203, -0.6708329319953918, 8.64560604095459, -2.135011911392212, 4.219135284423828, -1.570370078086853, -1.4796189069747925, -1.3342583179473877, -0.882080078125, 0.123291015625, -0.22021484375, 
234, 3032913236, 0.5165783166885376, -0.48547232151031494, -0.21761897206306458, -0.6708848476409912, 8.703463554382324, -2.057997941970825, 4.310880184173584, -2.850339651107788, -1.1739646196365356, -1.8312259912490845, -0.885009765625, 0.125244140625, -0.220703125, 
235, 3032921569, 0.5162935853004456, -0.48562195897102356, -0.21752625703811646, -0.6710254549980164, 8.72229290008545, -2.0241806507110596, 4.334700107574463, -4.5305304527282715, -0.3814600110054016, -2.5721940994262695, -0.883056640625, 0.123291015625, -0.22021484375, 
236, 3032929902, 0.5159488916397095, -0.48579686880111694, -0.2174270749092102, -0.6711961627006531, 8.68585205078125, -1.9941799640655518, 4.309945583343506, -5.425286293029785, -0.5117083191871643, -3.2923638820648193, -0.883544921875, 0.124755859375, -0.2216796875, 
237, 3032938235, 0.5155922174453735, -0.48599112033843994, -0.21732836961746216, -0.6713618040084839, 8.680118560791016, -2.0754382610321045, 4.25515079498291, -5.685706615447998, -0.742851197719574, -3.356860399246216, -0.885009765625, 0.125, -0.21728515625, 
238, 3032946568, 0.5152446627616882, -0.48617273569107056, -0.2172727882862091, -0.6715150475502014, 8.708113670349121, -2.1566243171691895, 4.243594646453857, -5.037167549133301, -1.009303331375122, -3.468679904937744, -0.884521484375, 0.124755859375, -0.21923828125, 
239, 3032954901, 0.5149412751197815, -0.48631787300109863, -0.2173013985157013, -0.6716331839561462, 8.705223083496094, -2.218488931655884, 4.231257438659668, -3.446587324142456, -1.4028533697128296, -3.417156457901001, -0.882568359375, 0.123779296875, -0.2216796875, 
240, 3032963234, 0.5147548913955688, -0.4863772988319397, -0.21746677160263062, -0.6716795563697815, 8.673043251037598, -2.2262091636657715, 4.270908355712891, -0.7326312065124512, -1.6785392761230469, -3.0638341903686523, -0.882568359375, 0.123291015625, -0.21923828125, 
241, 3032971567, 0.5146644115447998, -0.4863455295562744, -0.21768838167190552, -0.6717000603675842, 8.70878791809082, -2.1757428646087646, 4.325440406799316, 1.2203645706176758, -1.1318289041519165, -2.618530511856079, -0.884033203125, 0.121826171875, -0.2177734375, 
242, 3032979900, 0.5146473050117493, -0.4862551689147949, -0.21787454187870026, -0.671718418598175, 8.752306938171387, -2.1082725524902344, 4.3351054191589355, 1.7365684509277344, -0.12283307313919067, -1.888755440711975, -0.88330078125, 0.120849609375, -0.218994140625, 
243, 3032988233, 0.5146263837814331, -0.4861333668231964, -0.21801164746284485, -0.6717780828475952, 8.714682579040527, -2.0427746772766113, 4.268610954284668, 1.8447500467300415, 0.6647534370422363, -1.7513221502304077, -0.884521484375, 0.121337890625, -0.22119140625, 
244, 3032996566, 0.5146225690841675, -0.4860192537307739, -0.21813425421714783, -0.6718238592147827, 8.678020477294922, -2.0395028591156006, 4.28754997253418, 1.3237435817718506, 0.768683135509491, -1.6068192720413208, -0.885498046875, 0.121826171875, -0.21875, 
245, 3033004899, 0.5145447254180908, -0.48598524928092957, -0.21823537349700928, -0.6718751192092896, 8.679230690002441, -2.008958339691162, 4.220306396484375, 0.27274036407470703, -0.0554676316678524, -1.844775676727295, -0.88330078125, 0.119873046875, -0.218994140625, 
246, 3033013232, 0.5144348740577698, -0.485983669757843, -0.2183026671409607, -0.671938419342041, 8.734573364257812, -1.9940513372421265, 4.244144916534424, -0.7453358173370361, -0.07898149639368057, -2.0033531188964844, -0.884521484375, 0.121337890625, -0.22216796875, 
247, 3033021565, 0.5143007636070251, -0.48596853017807007, -0.21827852725982666, -0.672059953212738, 8.702290534973145, -1.970130205154419, 4.2265944480896, -1.719624400138855, 0.9863786697387695, -2.0235631465911865, -0.88330078125, 0.120361328125, -0.218017578125, 
248, 3033029898, 0.5141609311103821, -0.48594605922698975, -0.21826720237731934, -0.6721870303153992, 8.698805809020996, -2.0131163597106934, 4.263584613800049, -1.7173961400985718, 1.0056148767471313, -2.269228935241699, -0.88427734375, 0.119873046875, -0.219482421875, 
249, 3033038231, 0.5140376687049866, -0.4859227240085602, -0.21826514601707458, -0.6722987294197083, 8.667805671691895, -2.0098884105682373, 4.323217391967773, -1.734378457069397, 0.9657078385353088, -2.212134838104248, -0.88330078125, 0.119384765625, -0.218994140625, 
250, 3033046564, 0.513885498046875, -0.4859239161014557, -0.21822357177734375, -0.6724278330802917, 8.661250114440918, -1.9663430452346802, 4.357381343841553, -2.2527592182159424, 0.9762610197067261, -2.124150276184082, -0.88232421875, 0.119873046875, -0.219970703125, 
251, 3033054897, 0.5137106776237488, -0.4859279990196228, -0.21812383830547333, -0.6725907325744629, 8.639754295349121, -1.8441575765609741, 4.369288921356201, -3.08929443359375, 1.5312443971633911, -2.1970226764678955, -0.8837890625, 0.120361328125, -0.219970703125, 
252, 3033063230, 0.5135154724121094, -0.4859618842601776, -0.2179976999759674, -0.6727561354637146, 8.65214729309082, -1.77767813205719, 4.305020809173584, -3.6609020233154297, 1.3866009712219238, -2.1156716346740723, -0.88232421875, 0.119873046875, -0.218017578125, 
253, 3033071563, 0.5132782459259033, -0.48606812953948975, -0.21776428818702698, -0.6729357242584229, 8.69725227355957, -1.7535258531570435, 4.256749153137207, -5.393115520477295, 1.4250479936599731, -1.6348927021026611, -0.88134765625, 0.118408203125, -0.221435546875, 
254, 3033079896, 0.512969434261322, -0.4862404763698578, -0.2174159586429596, -0.6731594204902649, 8.712963104248047, -1.849021553993225, 4.280969142913818, -7.629085540771484, 1.7233003377914429, -1.6784369945526123, -0.8818359375, 0.117431640625, -0.219482421875, 
255, 3033088229, 0.5126252174377441, -0.4864669740200043, -0.21695679426193237, -0.6734059453010559, 8.724786758422852, -1.9066064357757568, 4.266548156738281, -9.583861351013184, 2.1131234169006348, -1.3892520666122437, -0.885498046875, 0.119384765625, -0.2197265625, 
256, 3033096562, 0.5122337341308594, -0.48669660091400146, -0.2164146900177002, -0.6737122535705566, 8.72929859161377, -1.9330568313598633, 4.281704902648926, -10.627052307128906, 2.8654134273529053, -1.560355305671692, -0.8828125, 0.118408203125, -0.220458984375, 
257, 3033104895, 0.5118167400360107, -0.4869678318500519, -0.2157721221446991, -0.6740394234657288, 8.714529991149902, -1.9278298616409302, 4.349799156188965, -12.101128578186035, 3.259514331817627, -1.1632835865020752, -0.88232421875, 0.120361328125, -0.221435546875, 
258, 3033113228, 0.5113112330436707, -0.48735010623931885, -0.21510016918182373, -0.674361526966095, 8.714381217956543, -1.9138611555099487, 4.299254417419434, -13.714877128601074, 2.131898880004883, -1.4046210050582886, -0.8837890625, 0.118408203125, -0.220458984375, 
259, 3033121561, 0.5108221769332886, -0.48770445585250854, -0.2144756019115448, -0.6746747493743896, 8.731236457824707, -1.8577382564544678, 4.267055511474609, -13.66697883605957, 2.2322299480438232, -1.9518693685531616, -0.8828125, 0.119384765625, -0.221435546875, 
260, 3033129894, 0.5102898478507996, -0.4880455732345581, -0.21384258568286896, -0.6750319004058838, 8.744078636169434, -1.884491205215454, 4.275984764099121, -13.347875595092773, 2.3960072994232178, -2.282036542892456, -0.884765625, 0.12060546875, -0.22314453125, 
261, 3033138227, 0.5097111463546753, -0.4884026050567627, -0.2132014036178589, -0.6754136085510254, 8.714962005615234, -1.964277744293213, 4.272303581237793, -13.346386909484863, 2.195242404937744, -2.5091066360473633, -0.884033203125, 0.12158203125, -0.22314453125, 
262, 3033146560, 0.5091546773910522, -0.48878562450408936, -0.21262657642364502, -0.6757373213768005, 8.695234298706055, -2.0376088619232178, 4.255166053771973, -13.16578197479248, 1.3018436431884766, -2.539459466934204, -0.8828125, 0.1181640625, -0.222412109375, 
263, 3033154893, 0.5086164474487305, -0.4891935884952545, -0.21207036077976227, -0.6760220527648926, 8.741104125976562, -2.0875651836395264, 4.276569366455078, -13.3007173538208, 0.8302086591720581, -2.338336706161499, -0.88330078125, 0.119873046875, -0.222412109375, 
264, 3033163226, 0.5080848336219788, -0.4896090626716614, -0.21147698163986206, -0.6763069033622742, 8.71062183380127, -2.1042861938476562, 4.3270392417907715, -13.282941818237305, 0.9419125318527222, -1.8175991773605347, -0.88330078125, 0.120361328125, -0.221923828125, 
265, 3033171559, 0.5075936317443848, -0.48999661207199097, -0.2108897864818573, -0.6765784025192261, 8.705225944519043, -2.1464736461639404, 4.287655830383301, -12.371177673339844, 1.1017708778381348, -1.3062365055084229, -0.8818359375, 0.119140625, -0.223388671875, 
266, 3033179892, 0.5072178840637207, -0.4903133809566498, -0.21039080619812012, -0.6767861843109131, 8.661078453063965, -2.2030956745147705, 4.2538323402404785, -10.442886352539062, 1.135479211807251, -0.7514833211898804, -0.88330078125, 0.119140625, -0.223876953125, 
267, 3033188225, 0.5069460868835449, -0.49053099751472473, -0.2099769413471222, -0.676960289478302, 8.667013168334961, -2.298572301864624, 4.20835018157959, -8.15827465057373, 1.5417208671569824, -0.41498902440071106, -0.8837890625, 0.12060546875, -0.223388671875, 
268, 3033196558, 0.5067465305328369, -0.4906778037548065, -0.20967045426368713, -0.6770984530448914, 8.683462142944336, -2.3617069721221924, 4.242701053619385, -6.076733589172363, 1.415135145187378, -0.41601359844207764, -0.8837890625, 0.1201171875, -0.225341796875, 
269, 3033204891, 0.506615936756134, -0.49075478315353394, -0.20942595601081848, -0.677216112613678, 8.692995071411133, -2.323432445526123, 4.2975077629089355, -4.486166477203369, 1.6978651285171509, -0.2556428611278534, -0.88330078125, 0.12060546875, -0.224365234375, 
270, 3033213224, 0.5065151453018188, -0.49080023169517517, -0.20922303199768066, -0.677321195602417, 8.68222713470459, -2.2410449981689453, 4.295638084411621, -3.6424977779388428, 1.6974425315856934, -0.25632160902023315, -0.88232421875, 0.12158203125, -0.224365234375, 
271, 3033221557, 0.5064346194267273, -0.4908484220504761, -0.2091040462255478, -0.677383303642273, 8.641157150268555, -2.1966004371643066, 4.269286632537842, -2.6189403533935547, 0.8615860939025879, -0.33253681659698486, -0.8818359375, 0.120361328125, -0.222412109375, 
272, 3033229890, 0.5063529014587402, -0.4909115731716156, -0.20902954041957855, -0.6774215698242188, 8.6375150680542, -2.191455125808716, 4.295735836029053, -2.2499160766601562, 0.24261805415153503, -0.42889755964279175, -0.8818359375, 0.1201171875, -0.226806640625, 
273, 3033238223, 0.5062912702560425, -0.49095937609672546, -0.20895707607269287, -0.6774553060531616, 8.703640937805176, -2.1948156356811523, 4.248127460479736, -1.9700547456741333, 0.4020922780036926, -0.274264395236969, -0.8828125, 0.1220703125, -0.224609375, 
274, 3033246556, 0.506287693977356, -0.49094733595848083, -0.2089349925518036, -0.6774735450744629, 8.714415550231934, -2.2821860313415527, 4.170414924621582, -0.6539185643196106, 0.6687876582145691, -0.13192611932754517, -0.8828125, 0.11865234375, -0.225341796875, 
275, 3033254889, 0.5063661932945251, -0.49086716771125793, -0.20896513760089874, -0.677463710308075, 8.727477073669434, -2.4304358959198, 4.158877372741699, 0.9443458318710327, 0.9879667162895203, 0.2743028402328491, -0.880859375, 0.12109375, -0.223876953125, 
276, 3033263222, 0.506506621837616, -0.4907466173171997, -0.2090510129928589, -0.6774195432662964, 8.71395492553711, -2.5108654499053955, 4.157019138336182, 2.2604563236236572, 0.9200378060340881, 0.602421224117279, -0.8828125, 0.12109375, -0.224365234375, 
277, 3033271555, 0.5067194104194641, -0.4905972182750702, -0.20914992690086365, -0.6773381233215332, 8.712886810302734, -2.534477710723877, 4.173821926116943, 3.1812117099761963, 1.0586621761322021, 1.3601672649383545, -0.88330078125, 0.12060546875, -0.226806640625, 
278, 3033279888, 0.5069669485092163, -0.4904407262802124, -0.20924675464630127, -0.6772361993789673, 8.710715293884277, -2.4696483612060547, 4.20832633972168, 3.501619577407837, 1.0961356163024902, 1.8260899782180786, -0.8828125, 0.12109375, -0.225341796875, 
279, 3033288221, 0.5072013139724731, -0.4903065264225006, -0.20929932594299316, -0.6771416664123535, 8.679853439331055, -2.3526673316955566, 4.266541004180908, 2.8265817165374756, 1.212193489074707, 2.0080533027648926, -0.8828125, 0.1220703125, -0.2255859375, 
280, 3033296554, 0.5073610544204712, -0.4902232587337494, -0.20930008590221405, -0.6770820617675781, 8.626935958862305, -2.130800247192383, 4.294538497924805, 1.3826305866241455, 1.1173185110092163, 1.5734567642211914, -0.8828125, 0.12255859375, -0.22509765625, 
281, 3033304887, 0.5073831081390381, -0.49022722244262695, -0.20920661091804504, -0.6770915389060974, 8.54905891418457, -1.9568610191345215, 4.337643146514893, -1.2275749444961548, 1.036710500717163, 0.6865382790565491, -0.8818359375, 0.12158203125, -0.226806640625, 
282, 3033313220, 0.5072340369224548, -0.4903131127357483, -0.20899498462677002, -0.6772065162658691, 8.556158065795898, -1.8418511152267456, 4.368418216705322, -4.357865810394287, 1.3110390901565552, -0.6008971929550171, -0.8828125, 0.123046875, -0.22705078125, 
283, 3033321553, 0.5069587826728821, -0.49047645926475525, -0.20872098207473755, -0.6773787140846252, 8.596175193786621, -1.8547412157058716, 4.374949932098389, -6.49406623840332, 1.0526680946350098, -1.5408114194869995, -0.8818359375, 0.12109375, -0.225341796875, 
284, 3033329886, 0.5065796971321106, -0.4907130002975464, -0.20832456648349762, -0.6776131987571716, 8.626092910766602, -1.899574637413025, 4.416130065917969, -9.027033805847168, 1.3431594371795654, -1.9002307653427124, -0.88232421875, 0.12109375, -0.226318359375, 
285, 3033338219, 0.5061488747596741, -0.4910297095775604, -0.207811638712883, -0.6778630018234253, 8.652541160583496, -2.007370710372925, 4.406442165374756, -11.05970287322998, 1.3664683103561401, -1.4784154891967773, -0.88330078125, 0.12158203125, -0.224609375, 
286, 3033346552, 0.505724310874939, -0.4913504719734192, -0.20725411176681519, -0.678118109703064, 8.67381477355957, -2.1080689430236816, 4.300120830535889, -11.48080062866211, 1.6879013776779175, -1.137361764907837, -0.884765625, 0.12109375, -0.22705078125, 
287, 3033354885, 0.5053595900535583, -0.49165216088294983, -0.2067185640335083, -0.6783347129821777, 8.674417495727539, -2.248389720916748, 4.205976963043213, -10.625618934631348, 1.6286044120788574, -0.5233117341995239, -0.88330078125, 0.12158203125, -0.2255859375, 
288, 3033363218, 0.5050926804542542, -0.49189984798431396, -0.20623397827148438, -0.678501546382904, 8.69090747833252, -2.3286709785461426, 4.179001331329346, -8.975445747375488, 1.714002251625061, 0.24546125531196594, -0.8818359375, 0.123046875, -0.22802734375, 
289, 3033371551, 0.5049533247947693, -0.4920491874217987, -0.20585894584655762, -0.6786108613014221, 8.726163864135742, -2.3951292037963867, 4.16473388671875, -6.24135684967041, 1.8484257459640503, 0.8067460060119629, -0.8828125, 0.1201171875, -0.226806640625, 
290, 3033379884, 0.5048984289169312, -0.4921349883079529, -0.20556534826755524, -0.6786783933639526, 8.74258041381836, -2.3858723640441895, 4.199752330780029, -4.35176944732666, 1.829163908958435, 1.163577914237976, -0.880859375, 0.1220703125, -0.224853515625, 
291, 3033388217, 0.5049010515213013, -0.4921674132347107, -0.20535175502300262, -0.6787175536155701, 8.699309349060059, -2.270495653152466, 4.2487335205078125, -2.7620980739593506, 1.7455843687057495, 1.1970044374465942, -0.88134765625, 0.122802734375, -0.22998046875, 
292, 3033396550, 0.5049316883087158, -0.4921620488166809, -0.2052319198846817, -0.6787349581718445, 8.676380157470703, -2.1790950298309326, 4.256035804748535, -1.378340244293213, 1.3735376596450806, 0.8739832639694214, -0.88134765625, 0.12255859375, -0.2275390625, 
293, 3033404883, 0.5049628019332886, -0.49213749170303345, -0.2051893025636673, -0.6787425875663757, 8.6893949508667, -2.130460023880005, 4.216622352600098, -0.4885275363922119, 0.9573320150375366, 0.3639782667160034, -0.88232421875, 0.123046875, -0.228515625, 
294, 3033413216, 0.5049808621406555, -0.4921025037765503, -0.2052268534898758, -0.6787430644035339, 8.71334171295166, -2.0958259105682373, 4.1805572509765625, 0.25990763306617737, 0.4105193316936493, -0.2737521231174469, -0.882568359375, 0.12353515625, -0.22607421875, 
295, 3033421549, 0.5049700140953064, -0.49208536744117737, -0.20529364049434662, -0.6787433624267578, 8.750701904296875, -2.0920634269714355, 4.165722846984863, 0.21667081117630005, -0.039740484207868576, -0.6963613629341125, -0.882080078125, 0.1240234375, -0.2265625, 
296, 3033429882, 0.5049114227294922, -0.4921077787876129, -0.20534148812294006, -0.6787562966346741, 8.732339859008789, -2.097613573074341, 4.21975564956665, -0.5964914560317993, -0.3315378427505493, -0.9833944439888, -0.8828125, 0.1220703125, -0.22802734375, 
297, 3033438215, 0.5048252940177917, -0.4921613335609436, -0.20535606145858765, -0.6787769198417664, 8.725769996643066, -2.115084648132324, 4.219676971435547, -1.3271247148513794, -0.41016072034835815, -0.9876336455345154, -0.87939453125, 0.12255859375, -0.227783203125, 
298, 3033446548, 0.504741370677948, -0.4922301769256592, -0.20531246066093445, -0.6788026690483093, 8.732693672180176, -2.2173757553100586, 4.269298076629639, -1.980556845664978, -0.11481581628322601, -0.5590178966522217, -0.884033203125, 0.1220703125, -0.22705078125, 
299, 3033454881, 0.504684329032898, -0.492290735244751, -0.20526210963726044, -0.6788164377212524, 8.714821815490723, -2.243159532546997, 4.280096530914307, -1.7661911249160767, 0.01006639376282692, -0.2094091773033142, -0.880859375, 0.12451171875, -0.2265625, 
300, 3033463214, 0.5046856999397278, -0.49232175946235657, -0.20525285601615906, -0.6787957549095154, 8.668373107910156, -2.2244341373443604, 4.294281005859375, -0.6885234117507935, -0.07455022633075714, 0.22128136456012726, -0.880859375, 0.1240234375, -0.2265625, 
301, 3033471547, 0.5047227740287781, -0.4923010468482971, -0.20526646077632904, -0.678779125213623, 8.658629417419434, -2.1569321155548096, 4.298550605773926, 0.11787670105695724, 0.3839573562145233, 0.21800273656845093, -0.883056640625, 0.12451171875, -0.2265625, 
302, 3033479880, 0.5047513842582703, -0.4922458231449127, -0.20530086755752563, -0.6787874698638916, 8.6671781539917, -2.109173059463501, 4.3006110191345215, 0.42041921615600586, 0.7026369571685791, -0.2662599980831146, -0.880859375, 0.125, -0.22607421875, 
303, 3033488213, 0.5047544836997986, -0.4921768307685852, -0.20534221827983856, -0.6788225173950195, 8.660662651062012, -2.0933725833892822, 4.26641321182251, 0.3358154296875, 0.8971002101898193, -0.7820537686347961, -0.883056640625, 0.12353515625, -0.228515625, 
304, 3033496546, 0.504723846912384, -0.4920959770679474, -0.20540538430213928, -0.6788848638534546, 8.669027328491211, -2.1031341552734375, 4.22680139541626, 0.31326210498809814, 0.9399144053459167, -1.4602291584014893, -0.880859375, 0.123046875, -0.22802734375, 
305, 3033504879, 0.5046483874320984, -0.492026686668396, -0.20547685027122498, -0.6789695620536804, 8.636127471923828, -2.107032299041748, 4.239609241485596, -0.05249636992812157, 0.8040820956230164, -2.0656983852386475, -0.88232421875, 0.1220703125, -0.22509765625, 
306, 3033513212, 0.5045105218887329, -0.49197709560394287, -0.20554763078689575, -0.6790865063667297, 8.64560317993164, -2.122979164123535, 4.252909183502197, -0.7134973406791687, 0.6638697385787964, -2.802748203277588, -0.88134765625, 0.12255859375, -0.22705078125, 
307, 3033521545, 0.504318356513977, -0.49194929003715515, -0.20562322437763214, -0.6792265176773071, 8.636423110961914, -2.129753351211548, 4.245227336883545, -1.2470417022705078, 0.43285495042800903, -3.4485340118408203, -0.880859375, 0.12255859375, -0.225341796875, 
308, 3033529878, 0.5040796399116516, -0.4919702410697937, -0.2056688517332077, -0.6793748140335083, 8.608102798461914, -2.0859150886535645, 4.272430896759033, -2.2082674503326416, 0.1052745133638382, -3.5943820476531982, -0.8818359375, 0.12109375, -0.227783203125, 
309, 3033538211, 0.5037971138954163, -0.49204903841018677, -0.20561516284942627, -0.6795433759689331, 8.659483909606934, -2.069577693939209, 4.2903289794921875, -3.8873441219329834, 0.27014052867889404, -3.314558506011963, -0.8837890625, 0.12158203125, -0.22705078125, 
310, 3033546544, 0.5034743547439575, -0.4921809434890747, -0.20546528697013855, -0.6797325611114502, 8.68459701538086, -2.0878655910491943, 4.2673516273498535, -5.48937463760376, 0.4607745409011841, -3.0254127979278564, -0.88232421875, 0.12158203125, -0.227783203125, 
311, 3033554877, 0.503134548664093, -0.4923601448535919, -0.20522041618824005, -0.6799282431602478, 8.668294906616211, -2.105949878692627, 4.2875752449035645, -6.832610607147217, 0.6778039932250977, -2.4594664573669434, -0.88037109375, 0.11962890625, -0.226318359375, 
312, 3033563210, 0.5027862787246704, -0.4925859868526459, -0.20491480827331543, -0.6801145076751709, 8.683930397033691, -2.149209499359131, 4.233151912689209, -7.758411884307861, 0.5694045424461365, -1.9249229431152344, -0.884765625, 0.119140625, -0.226318359375, 
313, 3033571543, 0.5024296045303345, -0.4928649067878723, -0.204570472240448, -0.680279552936554, 8.68437385559082, -2.22400164604187, 4.213109493255615, -8.482038497924805, 0.17712244391441345, -1.4516996145248413, -0.88037109375, 0.11962890625, -0.227783203125, 
314, 3033579876, 0.502106249332428, -0.4931630790233612, -0.20422883331775665, -0.6804049611091614, 8.69375228881836, -2.2858471870422363, 4.2125630378723145, -8.255249977111816, -0.1994452327489853, -0.8232799172401428, -0.880859375, 0.12158203125, -0.228271484375, 
315, 3033588209, 0.501835823059082, -0.49343472719192505, -0.20394393801689148, -0.6804929375648499, 8.656797409057617, -2.343855381011963, 4.181305885314941, -7.072718143463135, -0.44347208738327026, -0.53591388463974, -0.8828125, 0.119873046875, -0.228759765625, 
316, 3033596542, 0.5016469955444336, -0.4936417043209076, -0.20375263690948486, -0.6805393695831299, 8.669835090637207, -2.366950035095215, 4.1839213371276855, -5.084694862365723, -0.5420356392860413, -0.2953193485736847, -0.88330078125, 0.121826171875, -0.22900390625, 
317, 3033604875, 0.5015498399734497, -0.4937966763973236, -0.2037055939435959, -0.6805126667022705, 8.670310020446777, -2.3981258869171143, 4.17642068862915, -2.546144723892212, -1.2850533723831177, -0.06479120999574661, -0.88330078125, 0.121337890625, -0.228515625, 
318, 3033613208, 0.501544177532196, -0.4938885569572449, -0.20379088819026947, -0.6804245710372925, 8.678407669067383, -2.415781021118164, 4.1980509757995605, -0.08179904520511627, -1.774029016494751, 0.1466158628463745, -0.88232421875, 0.120361328125, -0.228759765625, 
319, 3033621541, 0.5015870928764343, -0.49395811557769775, -0.2039395570755005, -0.6802978515625, 8.661462783813477, -2.3479037284851074, 4.209741115570068, 1.1082510948181152, -2.121819257736206, 0.36851200461387634, -0.8818359375, 0.1201171875, -0.227294921875, 
320, 3033629874, 0.5016480088233948, -0.49403586983680725, -0.20410585403442383, -0.6801466345787048, 8.65919303894043, -2.2961177825927734, 4.238105773925781, 1.40314781665802, -2.442765712738037, 0.6150234341621399, -0.88330078125, 0.121826171875, -0.22900390625, 
321, 3033638207, 0.5017117261886597, -0.49413594603538513, -0.20425128936767578, -0.6799831986427307, 8.643592834472656, -2.231893301010132, 4.245182991027832, 1.1101722717285156, -2.576369524002075, 0.9219075441360474, -0.8828125, 0.120849609375, -0.229248046875, 
322, 3033646540, 0.5017763376235962, -0.49427011609077454, -0.20434200763702393, -0.6798107028007507, 8.683880805969238, -2.1606907844543457, 4.263491153717041, 0.3915135860443115, -2.5832340717315674, 1.4678493738174438, -0.88232421875, 0.12158203125, -0.225830078125, 
323, 3033654873, 0.5018173456192017, -0.49440672993659973, -0.20434990525245667, -0.6796788573265076, 8.673396110534668, -2.094350814819336, 4.288841247558594, -0.6694664359092712, -1.8179831504821777, 1.5290929079055786, -0.8828125, 0.12158203125, -0.2265625, 
324, 3033663206, 0.501835823059082, -0.49454593658447266, -0.20425522327423096, -0.6795923709869385, 8.67016315460205, -2.0350472927093506, 4.2494797706604, -1.9323763847351074, -0.8942826390266418, 1.719099521636963, -0.884033203125, 0.12158203125, -0.224609375, 
325, 3033671539, 0.501770555973053, -0.4946798086166382, -0.20407411456108093, -0.6795974969863892, 8.667132377624512, -1.9968976974487305, 4.282627582550049, -3.525376558303833, 0.14436182379722595, 0.8687067627906799, -0.88330078125, 0.11962890625, -0.227294921875, 
326, 3033679872, 0.5016021728515625, -0.4948294758796692, -0.203701913356781, -0.6797248125076294, 8.73318862915039, -1.9645345211029053, 4.358613014221191, -6.469067096710205, 1.8499113321304321, 0.41402849555015564, -0.8828125, 0.1220703125, -0.22802734375, 
327, 3033688205, 0.5013614892959595, -0.4950369894504547, -0.20320934057235718, -0.6798983216285706, 8.722942352294922, -1.9989957809448242, 4.300041198730469, -8.610569953918457, 2.259277820587158, 0.3935883343219757, -0.8818359375, 0.12109375, -0.226806640625, 
328, 3033696538, 0.501125156879425, -0.49527907371520996, -0.2027430385351181, -0.6800354719161987, 8.705073356628418, -2.1062190532684326, 4.186883449554443, -8.474508285522461, 1.5124694108963013, 0.6101054549217224, -0.88134765625, 0.12060546875, -0.225341796875, 
329, 3033704871, 0.5009198784828186, -0.49557751417160034, -0.20235586166381836, -0.6800845861434937, 8.723115921020508, -2.2705862522125244, 4.144329071044922, -7.663561820983887, -0.06832598149776459, 1.1187273263931274, -0.8818359375, 0.123046875, -0.22412109375, 
330, 3033713204, 0.5007684826850891, -0.49586358666419983, -0.20208248496055603, -0.680068850517273, 8.728039741516113, -2.402508020401001, 4.110550403594971, -5.970460414886475, -1.0311651229858398, 1.2645748853683472, -0.88232421875, 0.12158203125, -0.225830078125, 
331, 3033721537, 0.5006993412971497, -0.4960266947746277, -0.2019607126712799, -0.6800370216369629, 8.77131175994873, -2.496595621109009, 4.062782287597656, -3.0944433212280273, -0.8018408417701721, 0.7638933658599854, -0.884033203125, 0.12451171875, -0.22607421875, 
332, 3033729870, 0.5007451176643372, -0.49604886770248413, -0.2020229995250702, -0.6799685955047607, 8.7760591506958, -2.5277717113494873, 4.108972072601318, 0.4779360294342041, -0.6869097948074341, 0.4501701295375824, -0.8828125, 0.12255859375, -0.22509765625, 
333, 3033738203, 0.5009040236473083, -0.495975524187088, -0.20224836468696594, -0.6798380613327026, 8.730347633361816, -2.504570722579956, 4.1717209815979, 3.6076366901397705, -1.0200995206832886, 0.5502193570137024, -0.883544921875, 0.12548828125, -0.2265625, 
334, 3033746536, 0.5011283159255981, -0.49588248133659363, -0.20259232819080353, -0.6796382665634155, 8.693434715270996, -2.418069839477539, 4.19945764541626, 5.487286567687988, -1.9513310194015503, 0.7811828851699829, -0.88232421875, 0.12353515625, -0.22607421875, 
335, 3033754869, 0.5013845562934875, -0.49577441811561584, -0.20300942659378052, -0.6794036626815796, 8.684988021850586, -2.3486218452453613, 4.214676380157471, 6.593129634857178, -2.456264019012451, 0.7722435593605042, -0.884521484375, 0.12255859375, -0.22509765625, 
336, 3033763202, 0.5016497373580933, -0.4956320822238922, -0.20344582200050354, -0.6791811585426331, 8.70041275024414, -2.2804811000823975, 4.231481552124023, 7.033387660980225, -2.1682069301605225, 0.5537541508674622, -0.883056640625, 0.125244140625, -0.22412109375, 
337, 3033771535, 0.5019192099571228, -0.4954891502857208, -0.20388108491897583, -0.6789556741714478, 8.690471649169922, -2.224260091781616, 4.259144306182861, 7.068581581115723, -2.1551947593688965, 0.6118215918540955, -0.8828125, 0.12255859375, -0.2236328125, 
338, 3033779868, 0.5021775364875793, -0.49532410502433777, -0.2042827606201172, -0.6787644028663635, 8.677433967590332, -2.1887552738189697, 4.26475191116333, 6.731395244598389, -1.5215494632720947, 0.4457645118236542, -0.884521484375, 0.122802734375, -0.2216796875, 
339, 3033788201, 0.5024289488792419, -0.495187908411026, -0.20466077327728271, -0.6785637736320496, 8.681134223937988, -2.187626600265503, 4.236067771911621, 6.683995723724365, -1.8092358112335205, 0.8693855404853821, -0.88330078125, 0.1220703125, -0.2236328125, 
340, 3033796534, 0.502729058265686, -0.49501270055770874, -0.20504233241081238, -0.6783542037010193, 8.649384498596191, -2.1601014137268066, 4.256961345672607, 6.949936389923096, -1.2961443662643433, 1.0706239938735962, -0.885009765625, 0.123046875, -0.224609375, 
341, 3033804867, 0.503027081489563, -0.49483054876327515, -0.20536965131759644, -0.6781669855117798, 8.66756820678711, -2.1402692794799805, 4.318019866943359, 6.889946937561035, -0.827634334564209, 1.466338038444519, -0.883544921875, 0.1220703125, -0.22314453125, 
342, 3033813200, 0.5033512115478516, -0.4946426749229431, -0.20564129948616028, -0.6779812574386597, 8.67622184753418, -2.081714153289795, 4.3274359703063965, 6.109430313110352, -0.18620267510414124, 1.8421757221221924, -0.883056640625, 0.123779296875, -0.22119140625, 
343, 3033821533, 0.5036392211914062, -0.4944716989994049, -0.2058243751525879, -0.6778364181518555, 8.695075988769531, -2.0482919216156006, 4.311954498291016, 4.908148288726807, 0.4230959117412567, 1.9127428531646729, -0.8828125, 0.122314453125, -0.22314453125, 
344, 3033829866, 0.5038805603981018, -0.4943309426307678, -0.20592570304870605, -0.6777290105819702, 8.682563781738281, -2.017895460128784, 4.261733055114746, 3.409536361694336, 0.8513659238815308, 1.8194303512573242, -0.88330078125, 0.121337890625, -0.22119140625, 
345, 3033838199, 0.5040589570999146, -0.49424880743026733, -0.2059592604637146, -0.6776462197303772, 8.656167984008789, -2.0615689754486084, 4.172019958496094, 1.9489613771438599, 0.7488065361976624, 1.7159231901168823, -0.883544921875, 0.122802734375, -0.220703125, 
346, 3033846532, 0.5041825771331787, -0.4942304790019989, -0.2059786021709442, -0.6775617599487305, 8.665251731872559, -2.1059653759002686, 4.132510662078857, 0.9314360022544861, 0.10184219479560852, 1.4676955938339233, -0.883544921875, 0.1220703125, -0.22412109375, 
347, 3033854865, 0.5042542219161987, -0.4942694902420044, -0.205958753824234, -0.6774858236312866, 8.714401245117188, -2.219663143157959, 4.115796089172363, -0.0484493188560009, -0.286200612783432, 1.4215644598007202, -0.884521484375, 0.1220703125, -0.22265625, 
348, 3033863198, 0.5043178796768188, -0.49432164430618286, -0.20596083998680115, -0.677399754524231, 8.745523452758789, -2.2999536991119385, 4.114980697631836, -0.12127059698104858, -0.6165986657142639, 1.2366807460784912, -0.884521484375, 0.12451171875, -0.2255859375, 
349, 3033871531, 0.5043841004371643, -0.4943671226501465, -0.20600050687789917, -0.6773051023483276, 8.733865737915039, -2.303057909011841, 4.12752628326416, 0.601499080657959, -0.9331393837928772, 1.17369544506073, -0.884033203125, 0.122802734375, -0.22265625, 
350, 3033879864, 0.5045014023780823, -0.4943787455558777, -0.2061108946800232, -0.6771758794784546, 8.723190307617188, -2.3172521591186523, 4.1540446281433105, 1.6572922468185425, -1.1331865787506104, 1.1850425004959106, -0.883056640625, 0.123291015625, -0.22119140625, 
351, 3033888197, 0.5046644806861877, -0.4943482279777527, -0.20631512999534607, -0.6770145297050476, 8.70812702178955, -2.2487738132476807, 4.171207904815674, 3.203751564025879, -1.46737539768219, 1.057253122329712, -0.883544921875, 0.123291015625, -0.22119140625, 
352, 3033896530, 0.504866898059845, -0.49427512288093567, -0.20655909180641174, -0.6768425107002258, 8.73179817199707, -2.2228941917419434, 4.216404438018799, 4.189643859863281, -1.318556785583496, 1.1266165971755981, -0.883056640625, 0.12353515625, -0.21826171875, 
353, 3033904863, 0.5050782561302185, -0.49420464038848877, -0.2068495750427246, -0.6766473054885864, 8.720996856689453, -2.2204906940460205, 4.201577663421631, 4.719115257263184, -1.7902429103851318, 1.0472378730773926, -0.884033203125, 0.124755859375, -0.220703125, 
354, 3033913196, 0.5053245425224304, -0.49411115050315857, -0.20716890692710876, -0.6764340400695801, 8.702178001403809, -2.2126121520996094, 4.20527982711792, 5.44743013381958, -1.8091717958450317, 1.2506917715072632, -0.883056640625, 0.123779296875, -0.22119140625, 
355, 3033921529, 0.5056029558181763, -0.49398499727249146, -0.20750319957733154, -0.676215648651123, 8.704278945922852, -2.2306370735168457, 4.186390399932861, 5.912662506103516, -1.5102026462554932, 1.3165974617004395, -0.885498046875, 0.123779296875, -0.22021484375, 
356, 3033929862, 0.5059107542037964, -0.4938350021839142, -0.20785236358642578, -0.675987720489502, 8.698967933654785, -2.2414748668670654, 4.192543029785156, 6.577479362487793, -1.41353440284729, 1.559855580329895, -0.885009765625, 0.125244140625, -0.2216796875, 
357, 3033938195, 0.5062376260757446, -0.4936579465866089, -0.20819847285747528, -0.675765872001648, 8.691012382507324, -2.252809524536133, 4.225533485412598, 6.969018459320068, -1.0705597400665283, 1.687721848487854, -0.883544921875, 0.12353515625, -0.2177734375, 
358, 3033946528, 0.5066052079200745, -0.4934396743774414, -0.20856410264968872, -0.675537109375, 8.69271183013916, -2.252157211303711, 4.23938512802124, 7.61314058303833, -0.7286611199378967, 1.8159726858139038, -0.884033203125, 0.124755859375, -0.220703125, 
359, 3033954861, 0.5070141553878784, -0.4931722581386566, -0.2089555710554123, -0.6753044128417969, 8.695206642150879, -2.202226400375366, 4.252726078033447, 8.459510803222656, -0.34905800223350525, 1.8860785961151123, -0.885498046875, 0.123779296875, -0.21826171875, 
360, 3033963194, 0.5074350833892822, -0.4928816556930542, -0.2093561291694641, -0.6750763058662415, 8.713656425476074, -2.168077230453491, 4.2300124168396, 8.80261516571045, -0.1413777768611908, 1.8629746437072754, -0.882568359375, 0.124755859375, -0.21923828125, 
361, 3033971527, 0.5078516602516174, -0.4925917088985443, -0.2097506821155548, -0.674852192401886, 8.716120719909668, -2.1264209747314453, 4.2422566413879395, 8.707046508789062, -0.08912472426891327, 1.8290612697601318, -0.883544921875, 0.124267578125, -0.22119140625, 
362, 3033979860, 0.508236289024353, -0.49232426285743713, -0.21010717749595642, -0.67464679479599, 8.694015502929688, -2.104440927505493, 4.226246356964111, 7.9190263748168945, 0.0005635132547467947, 1.7319836616516113, -0.885498046875, 0.124755859375, -0.2197265625, 
363, 3033988193, 0.5086100101470947, -0.49209925532341003, -0.21045179665088654, -0.6744219064712524, 8.69251823425293, -2.1005706787109375, 4.184190273284912, 7.501898288726807, -0.47154533863067627, 1.9622043371200562, -0.885009765625, 0.125244140625, -0.21923828125, 
364, 3033996526, 0.5089481472969055, -0.4919043183326721, -0.21077664196491241, -0.6742076873779297, 8.710185050964355, -2.130817174911499, 4.16082763671875, 6.828985214233398, -0.646592915058136, 1.7846461534500122, -0.883056640625, 0.124755859375, -0.22021484375, 
365, 3034004859, 0.5092779397964478, -0.49172112345695496, -0.21106261014938354, -0.6740027070045471, 8.71345043182373, -2.1334261894226074, 4.19336462020874, 6.291854381561279, -0.4365817904472351, 1.9247816801071167, -0.883544921875, 0.1240234375, -0.21826171875, 
366, 3034013192, 0.5096073746681213, -0.49153056740760803, -0.2113378643989563, -0.6738064289093018, 8.68515396118164, -2.1222383975982666, 4.200447082519531, 6.22822904586792, -0.24342487752437592, 1.927445411682129, -0.884521484375, 0.123779296875, -0.21826171875, 
367, 3034021525, 0.5099424123764038, -0.49135828018188477, -0.21161839365959167, -0.6735906004905701, 8.703219413757324, -2.147942543029785, 4.2056074142456055, 6.222927570343018, -0.5542792081832886, 2.114224433898926, -0.884521484375, 0.1259765625, -0.217041015625, 
368, 3034029858, 0.5102571845054626, -0.491205096244812, -0.2118852734565735, -0.6733799576759338, 8.700124740600586, -2.169132709503174, 4.215546131134033, 5.833411693572998, -0.6715412139892578, 2.0568487644195557, -0.884521484375, 0.124755859375, -0.220703125, 
369, 3034038191, 0.5105583071708679, -0.4910558760166168, -0.2121344655752182, -0.6731820106506348, 8.74169635772705, -2.1773064136505127, 4.258131980895996, 5.513207912445068, -0.5320460796356201, 1.9651498794555664, -0.883544921875, 0.125, -0.21630859375, 
370, 3034046524, 0.5108467936515808, -0.49087196588516235, -0.2123367041349411, -0.6730335354804993, 8.691336631774902, -2.1298274993896484, 4.269983768463135, 5.090188980102539, 0.411441445350647, 1.725221037864685, -0.882080078125, 0.124267578125, -0.22021484375, 
371, 3034054857, 0.5111326575279236, -0.4907037913799286, -0.21251651644706726, -0.6728822588920593, 8.63746166229248, -2.1058671474456787, 4.2478437423706055, 4.7338433265686035, 0.40816283226013184, 1.891918420791626, -0.883544921875, 0.12353515625, -0.21826171875, 
372, 3034063190, 0.5113992691040039, -0.49056631326675415, -0.21269312500953674, -0.6727243661880493, 8.660797119140625, -2.110934257507324, 4.248684883117676, 4.406186580657959, 0.03255569189786911, 1.8965548276901245, -0.887451171875, 0.125244140625, -0.217529296875, 
373, 3034071523, 0.5116506218910217, -0.4904348850250244, -0.21286219358444214, -0.6725752353668213, 8.690454483032227, -2.1637814044952393, 4.257443428039551, 4.462998867034912, -0.025550199672579765, 1.8966827392578125, -0.884033203125, 0.1240234375, -0.21826171875, 
374, 3034079856, 0.511930525302887, -0.4902656078338623, -0.21306437253952026, -0.6724218130111694, 8.671381950378418, -2.1659069061279297, 4.234705924987793, 4.94434118270874, 0.21554377675056458, 1.7245038747787476, -0.885009765625, 0.125, -0.21826171875, 
375, 3034088189, 0.5122128129005432, -0.4900863766670227, -0.2132556289434433, -0.6722767949104309, 8.675637245178223, -2.1640005111694336, 4.269333839416504, 4.950719833374023, 0.4436129629611969, 1.7448674440383911, -0.885986328125, 0.125, -0.217529296875, 
376, 3034096522, 0.5125151872634888, -0.4899007976055145, -0.21346920728683472, -0.6721139550209045, 8.6791410446167, -2.1689326763153076, 4.236700057983398, 5.340555191040039, 0.28950491547584534, 1.871158480644226, -0.884521484375, 0.1259765625, -0.218017578125, 
377, 3034104855, 0.512843668460846, -0.4896712899208069, -0.2136896699666977, -0.6719605326652527, 8.723995208740234, -2.181581735610962, 4.2355732917785645, 5.849318027496338, 0.7963978052139282, 1.855188012123108, -0.883056640625, 0.12451171875, -0.2177734375, 
378, 3034113188, 0.5131873488426208, -0.48941630125045776, -0.2139185667037964, -0.6718111038208008, 8.741048812866211, -2.1809074878692627, 4.231602668762207, 6.212373733520508, 1.0346102714538574, 1.8535995483398438, -0.883056640625, 0.1259765625, -0.2177734375, 
379, 3034121521, 0.5135393142700195, -0.4891672134399414, -0.21416404843330383, -0.6716451644897461, 8.720969200134277, -2.1656341552734375, 4.215001583099365, 6.204177379608154, 0.8371244072914124, 1.8325190544128418, -0.885009765625, 0.126953125, -0.217041015625, 
380, 3034129854, 0.513852059841156, -0.4889596700668335, -0.21439197659492493, -0.6714843511581421, 8.701462745666504, -2.1623294353485107, 4.234358310699463, 5.693634033203125, 0.435749351978302, 1.7938672304153442, -0.885986328125, 0.1259765625, -0.217041015625, 
381, 3034138187, 0.5141409635543823, -0.4887857139110565, -0.2146138846874237, -0.6713188886642456, 8.688821792602539, -2.1128101348876953, 4.241118431091309, 5.006968021392822, 0.13534562289714813, 1.614285945892334, -0.884033203125, 0.124267578125, -0.21875, 
382, 3034146520, 0.5143786668777466, -0.4886387586593628, -0.21481642127037048, -0.6711791753768921, 8.687895774841309, -2.078439712524414, 4.260749340057373, 4.463921546936035, -0.02432071603834629, 1.3020228147506714, -0.883544921875, 0.126953125, -0.218017578125, 
383, 3034154853, 0.5145835280418396, -0.48850375413894653, -0.21500152349472046, -0.6710609793663025, 8.692211151123047, -2.0406558513641357, 4.305315971374512, 3.8354239463806152, 0.06792894750833511, 0.9388641715049744, -0.885498046875, 0.12646484375, -0.218505859375, 
384, 3034163186, 0.514761745929718, -0.48835617303848267, -0.21515685319900513, -0.6709820032119751, 8.685394287109375, -2.078542947769165, 4.290456295013428, 3.4535162448883057, 0.5480678677558899, 0.6370517015457153, -0.883544921875, 0.12744140625, -0.214599609375, 
385, 3034171519, 0.5148763060569763, -0.48824161291122437, -0.21526962518692017, -0.6709412932395935, 8.653623580932617, -2.057814598083496, 4.265700340270996, 3.0072646141052246, 0.43633848428726196, 0.5046772360801697, -0.885009765625, 0.1259765625, -0.218017578125, 
386, 3034179852, 0.5150341987609863, -0.48812335729599, -0.21542194485664368, -0.6708572506904602, 8.672113418579102, -2.0890188217163086, 4.214136600494385, 3.0982723236083984, 0.20345386862754822, 0.5935074687004089, -0.884033203125, 0.127685546875, -0.219482421875, 
387, 3034188185, 0.5151886940002441, -0.48800191283226013, -0.2155662328004837, -0.6707806587219238, 8.698321342468262, -2.133634567260742, 4.2190022468566895, 3.225318670272827, 0.2782217860221863, 0.654008150100708, -0.883056640625, 0.125, -0.2177734375, 
388, 3034196518, 0.5153674483299255, -0.48789167404174805, -0.2157151997089386, -0.6706756353378296, 8.686698913574219, -2.18398380279541, 4.248567581176758, 3.2114617824554443, 0.07771359384059906, 0.9801031351089478, -0.883544921875, 0.1240234375, -0.21826171875, 
389, 3034204851, 0.5155830383300781, -0.4877667725086212, -0.2158733308315277, -0.6705499291419983, 8.695291519165039, -2.2051219940185547, 4.209650039672852, 3.6480813026428223, 0.13642139732837677, 1.3230262994766235, -0.884033203125, 0.12646484375, -0.218505859375, 
390, 3034213184, 0.5158473253250122, -0.48760470747947693, -0.21605849266052246, -0.6704049110412598, 8.678447723388672, -2.229233980178833, 4.234541416168213, 4.60618257522583, 0.2815004885196686, 1.6553455591201782, -0.884033203125, 0.1240234375, -0.21728515625, 
391, 3034221517, 0.5161682963371277, -0.48741596937179565, -0.21628358960151672, -0.6702224612236023, 8.661961555480957, -2.192305326461792, 4.232116222381592, 5.154250144958496, 0.29525527358055115, 1.8427906036376953, -0.883544921875, 0.12646484375, -0.217041015625, 
392, 3034229850, 0.5164480209350586, -0.487249493598938, -0.21647298336029053, -0.6700670719146729, 8.669601440429688, -2.174846887588501, 4.253108978271484, 4.809943675994873, 0.268744558095932, 1.8298553228378296, -0.883056640625, 0.1279296875, -0.218994140625, 
393, 3034238183, 0.5166872143745422, -0.4871308207511902, -0.21661967039108276, -0.6699211597442627, 8.687811851501465, -2.097857713699341, 4.233098983764648, 3.690089225769043, 0.10209833085536957, 1.764769434928894, -0.885986328125, 0.126953125, -0.218017578125, 
394, 3034246516, 0.5168771743774414, -0.48705047369003296, -0.2167438417673111, -0.6697930097579956, 8.681548118591309, -2.1005494594573975, 4.240424633026123, 2.914489984512329, -0.14606517553329468, 1.5028895139694214, -0.881591796875, 0.12890625, -0.216552734375, 
395, 3034254849, 0.5170033574104309, -0.4870155453681946, -0.21684488654136658, -0.66968834400177, 8.69256591796875, -2.076646327972412, 4.225050449371338, 2.248161554336548, -0.5199305415153503, 1.2098627090454102, -0.885986328125, 0.1259765625, -0.215576171875, 
396, 3034263182, 0.5171045660972595, -0.4870046377182007, -0.216938316822052, -0.6695879101753235, 8.6806058883667, -2.0611319541931152, 4.242620944976807, 1.4600368738174438, -0.6457476019859314, 0.9002122282981873, -0.885986328125, 0.1259765625, -0.216552734375, 
397, 3034271515, 0.5171566605567932, -0.48700669407844543, -0.21701771020889282, -0.6695203185081482, 8.69228458404541, -2.076127052307129, 4.260648250579834, 1.2443395853042603, -0.6956697702407837, 0.5515000820159912, -0.886474609375, 0.12890625, -0.216064453125, 
398, 3034279848, 0.5172198414802551, -0.48699110746383667, -0.2171078771352768, -0.6694536209106445, 8.697134971618652, -2.0577728748321533, 4.250805854797363, 1.1076620817184448, -0.4667554497718811, 0.3193839192390442, -0.883544921875, 0.12646484375, -0.217041015625, 
399, 3034288181, 0.5172789692878723, -0.48697346448898315, -0.21718022227287292, -0.6693973541259766, 8.709516525268555, -2.083272695541382, 4.283651351928711, 1.0050513744354248, -0.2857652008533478, 0.362262099981308, -0.884521484375, 0.12646484375, -0.217529296875, 
400, 3034296514, 0.5173460245132446, -0.4869570732116699, -0.21726974844932556, -0.6693283319473267, 8.684946060180664, -2.071556329727173, 4.243810176849365, 1.1423691511154175, -0.45785436034202576, 0.37404465675354004, -0.883056640625, 0.12841796875, -0.217529296875, 
401, 3034304847, 0.5174066424369812, -0.4869410991668701, -0.21735221147537231, -0.669266402721405, 8.686119079589844, -2.117534875869751, 4.252715587615967, 1.163462519645691, -0.4186646640300751, 0.37948769330978394, -0.885009765625, 0.12939453125, -0.218994140625, 
402, 3034313180, 0.5174734592437744, -0.48693782091140747, -0.21742582321166992, -0.6691931486129761, 8.677013397216797, -2.127720355987549, 4.259875774383545, 0.9139159321784973, -0.49441877007484436, 0.5473505854606628, -0.882568359375, 0.1279296875, -0.216064453125, 
403, 3034321513, 0.517533540725708, -0.4869513511657715, -0.2174873650074005, -0.6691168546676636, 8.671442031860352, -2.1383495330810547, 4.2584309577941895, 0.4469683766365051, -0.5493357181549072, 0.5315977931022644, -0.884033203125, 0.126953125, -0.217041015625, 
404, 3034329846, 0.5175443291664124, -0.4869976043701172, -0.2175126075744629, -0.6690665483474731, 8.664896011352539, -2.1287074089050293, 4.2791948318481445, -0.32925814390182495, -0.6211323142051697, 0.33941420912742615, -0.882568359375, 0.1279296875, -0.216552734375, 
405, 3034338179, 0.5175471901893616, -0.4870511293411255, -0.21753203868865967, -0.6690191626548767, 8.674875259399414, -2.1287295818328857, 4.279982566833496, -0.585323691368103, -0.6219519972801208, 0.25401636958122253, -0.884033203125, 0.12939453125, -0.215576171875, 
406, 3034346512, 0.5175213813781738, -0.48711097240448, -0.21751897037029266, -0.6689999103546143, 8.674738883972168, -2.1087586879730225, 4.263960361480713, -1.115410327911377, -0.37497958540916443, 0.0796346589922905, -0.882080078125, 0.12890625, -0.216064453125, 
407, 3034354845, 0.5174896717071533, -0.4871646463871002, -0.21748703718185425, -0.6689956784248352, 8.670183181762695, -2.13310170173645, 4.266768455505371, -1.6865310668945312, -0.0031121298670768738, -0.15812948346138, -0.884033203125, 0.12841796875, -0.217529296875, 
408, 3034363178, 0.5174374580383301, -0.4872148633003235, -0.21744465827941895, -0.6690133810043335, 8.714272499084473, -2.135931968688965, 4.250669956207275, -1.6048213243484497, 0.08888138830661774, -0.25792253017425537, -0.885009765625, 0.12841796875, -0.218994140625, 
409, 3034371511, 0.5174162983894348, -0.4872329533100128, -0.21741876006126404, -0.6690248250961304, 8.728507041931152, -2.138399600982666, 4.248688697814941, -0.9807562828063965, 0.3226113021373749, -0.1368952840566635, -0.885009765625, 0.12841796875, -0.218505859375, 
410, 3034379844, 0.5174342393875122, -0.4872243106365204, -0.21741601824760437, -0.6690181493759155, 8.682585716247559, -2.1677191257476807, 4.25014066696167, -0.2774149775505066, 0.39655956625938416, 0.11900373548269272, -0.885986328125, 0.12890625, -0.216552734375, 
411, 3034388177, 0.5174627304077148, -0.4872046709060669, -0.21741977334022522, -0.6690090894699097, 8.6981201171875, -2.136618137359619, 4.231513977050781, 0.279425710439682, 0.3868774175643921, 0.31410735845565796, -0.882568359375, 0.12646484375, -0.21484375, 
412, 3034396510, 0.5175285935401917, -0.4871674180030823, -0.2174583375453949, -0.6689728498458862, 8.712849617004395, -2.1430418491363525, 4.243202209472656, 0.7138431072235107, 0.3106750547885895, 0.4069845676422119, -0.885009765625, 0.12890625, -0.216552734375, 
413, 3034404843, 0.517615020275116, -0.48712456226348877, -0.2175041288137436, -0.6689221858978271, 8.696863174438477, -2.183248519897461, 4.214955806732178, 0.8743674755096436, 0.3147733509540558, 0.563410758972168, -0.884033203125, 0.128173828125, -0.219970703125, 
414, 3034413176, 0.5176758766174316, -0.487106591463089, -0.2175535410642624, -0.6688722372055054, 8.675490379333496, -2.163177013397217, 4.219783782958984, 0.684822142124176, -0.05047284811735153, 0.44415083527565, -0.884521484375, 0.12841796875, -0.217529296875, 
415, 3034421509, 0.5177114009857178, -0.48711687326431274, -0.2176026999950409, -0.6688211560249329, 8.673673629760742, -2.1694283485412598, 4.220069885253906, 0.415872722864151, -0.40994298458099365, 0.3445626497268677, -0.882568359375, 0.1298828125, -0.217041015625, 
416, 3034429842, 0.51772141456604, -0.48714470863342285, -0.21763163805007935, -0.6687837839126587, 8.693465232849121, -2.1319332122802734, 4.236314296722412, -0.2072063535451889, -0.3945232629776001, 0.16270162165164948, -0.885498046875, 0.126953125, -0.217041015625, 
417, 3034438175, 0.517720103263855, -0.4871903657913208, -0.21764570474624634, -0.6687470078468323, 8.721160888671875, -2.1272268295288086, 4.267056941986084, -0.7095527052879333, -0.4351986348628998, 0.11690335720777512, -0.885498046875, 0.12744140625, -0.215576171875, 
418, 3034446508, 0.5176913738250732, -0.4872341454029083, -0.21763890981674194, -0.6687395572662354, 8.70887279510498, -2.0686230659484863, 4.251041412353516, -0.9981483817100525, -0.20118701457977295, -0.11973373591899872, -0.884033203125, 0.1259765625, -0.217041015625, 
419, 3034454841, 0.5176641941070557, -0.48727723956108093, -0.21763640642166138, -0.6687300205230713, 8.684810638427734, -2.0781946182250977, 4.225749969482422, -0.8937960267066956, -0.2397620528936386, -0.11010279506444931, -0.885498046875, 0.1259765625, -0.215087890625, 
420, 3034463174, 0.5176354050636292, -0.48731669783592224, -0.21762311458587646, -0.6687278747558594, 8.679152488708496, -2.072951078414917, 4.2592034339904785, -1.0432549715042114, -0.08074887096881866, -0.1289292424917221, -0.885498046875, 0.126953125, -0.215576171875, 
421, 3034471507, 0.5176264643669128, -0.4873337745666504, -0.21760344505310059, -0.6687288284301758, 8.706619262695312, -2.0885801315307617, 4.269954681396484, -1.211668610572815, 0.3553975224494934, -0.1936051845550537, -0.884033203125, 0.12548828125, -0.21728515625, 
422, 3034479840, 0.5176096558570862, -0.4873272478580475, -0.2175484597682953, -0.6687644720077515, 8.697871208190918, -2.1264758110046387, 4.25720739364624, -1.132827877998352, 0.9291561841964722, -0.14501497149467468, -0.886474609375, 0.1259765625, -0.217041015625, 
423, 3034488173, 0.517616331577301, -0.48730695247650146, -0.2175031155347824, -0.6687886714935303, 8.6875638961792, -2.1664459705352783, 4.234790802001953, -0.9237645268440247, 1.0288982391357422, -0.04445350542664528, -0.885009765625, 0.12939453125, -0.218017578125, 
424, 3034496506, 0.5176393985748291, -0.48728540539741516, -0.2174796611070633, -0.6687941551208496, 8.706941604614258, -2.195128917694092, 4.2062506675720215, -0.37815573811531067, 0.7591546773910522, 0.17814700305461884, -0.886474609375, 0.126953125, -0.216064453125, 
425, 3034504839, 0.517673909664154, -0.4872567057609558, -0.21748775243759155, -0.668785810470581, 8.731597900390625, -2.2355709075927734, 4.20798921585083, 0.03182569146156311, 0.5615025162696838, 0.1176333874464035, -0.883544921875, 0.1279296875, -0.217529296875, 
426, 3034513172, 0.5177133083343506, -0.48722589015960693, -0.21751879155635834, -0.6687676906585693, 8.713471412658691, -2.2229533195495605, 4.212717056274414, 0.368563175201416, 0.347610741853714, 0.1049671322107315, -0.885986328125, 0.12646484375, -0.215576171875, 
427, 3034521505, 0.5177472829818726, -0.487193763256073, -0.21756815910339355, -0.668748676776886, 8.698908805847168, -2.1973390579223633, 4.190814971923828, 0.5862329602241516, 0.19451449811458588, -0.03971486911177635, -0.885009765625, 0.1279296875, -0.214599609375, 
428, 3034529838, 0.5177762508392334, -0.4871721863746643, -0.21761971712112427, -0.6687252521514893, 8.68907356262207, -2.1719751358032227, 4.20446252822876, 0.43777287006378174, 0.050664953887462616, -0.06276766955852509, -0.884033203125, 0.126708984375, -0.213134765625, 
429, 3034538171, 0.5178319215774536, -0.4871441721916199, -0.21770711243152618, -0.6686740517616272, 8.704001426696777, -2.135974884033203, 4.219383239746094, 0.6000903248786926, -0.12508712708950043, -0.12206465005874634, -0.885986328125, 0.1279296875, -0.215576171875, 
430, 3034546504, 0.5178548097610474, -0.487138956785202, -0.2177744209766388, -0.6686382293701172, 8.709051132202148, -2.118149995803833, 4.220556259155273, 0.4626955986022949, -0.314709335565567, -0.08743420243263245, -0.885498046875, 0.12841796875, -0.216552734375, 
431, 3034554837, 0.5178533792495728, -0.4871540367603302, -0.21783095598220825, -0.6686099171638489, 8.69787883758545, -2.102764129638672, 4.206686973571777, 0.10804085433483124, -0.4591991603374481, -0.20356914401054382, -0.885009765625, 0.1279296875, -0.214599609375, 
432, 3034563170, 0.5178309082984924, -0.48720070719718933, -0.21785670518875122, -0.6685850620269775, 8.700374603271484, -2.117006301879883, 4.221043586730957, -0.6268700361251831, -0.5573529601097107, -0.149113267660141, -0.886474609375, 0.129150390625, -0.213134765625, 
433, 3034571503, 0.5177995562553406, -0.48727282881736755, -0.21787890791893005, -0.6685495376586914, 8.709015846252441, -2.1112618446350098, 4.194169521331787, -1.090871810913086, -0.8019944429397583, -0.17272959649562836, -0.884521484375, 0.12841796875, -0.215576171875, 
434, 3034579836, 0.517736554145813, -0.48737600445747375, -0.21786603331565857, -0.6685273051261902, 8.686040878295898, -2.0520520210266113, 4.182255744934082, -1.6632219552993774, -0.9072433710098267, -0.11212630569934845, -0.887451171875, 0.1279296875, -0.215576171875, 
435, 3034588169, 0.5176263451576233, -0.48752328753471375, -0.21780185401439667, -0.6685260534286499, 8.674751281738281, -2.012812376022339, 4.204171657562256, -2.551293134689331, -1.0104432106018066, -0.09401705116033554, -0.885498046875, 0.1279296875, -0.216552734375, 
436, 3034596502, 0.5175055265426636, -0.4877053499221802, -0.2177201211452484, -0.6685133576393127, 8.657526016235352, -2.0133633613586426, 4.233514308929443, -3.2735376358032227, -1.2495776414871216, -0.012435710988938808, -0.885986328125, 0.12744140625, -0.215576171875, 
437, 3034604835, 0.5173218250274658, -0.4879447817802429, -0.21757985651493073, -0.6685264110565186, 8.62566089630127, -2.042177438735962, 4.2596821784973145, -4.761289596557617, -1.3601545095443726, -0.24147821962833405, -0.883056640625, 0.129638671875, -0.215087890625, 
438, 3034613168, 0.5170727372169495, -0.48822158575057983, -0.2173871546983719, -0.6685799360275269, 8.620163917541504, -2.0963387489318848, 4.298646450042725, -6.026991367340088, -1.2706838846206665, -0.6362448930740356, -0.885498046875, 0.12744140625, -0.214111328125, 
439, 3034621501, 0.5167967081069946, -0.48848986625671387, -0.2171759009361267, -0.6686659455299377, 8.637805938720703, -2.1455183029174805, 4.297427654266357, -6.554183006286621, -0.8819878101348877, -1.091845154762268, -0.885498046875, 0.129150390625, -0.214111328125, 
440, 3034629834, 0.5164793133735657, -0.48872435092926025, -0.2169419825077057, -0.6688157916069031, 8.62691593170166, -2.1913375854492188, 4.392731666564941, -6.850412368774414, -0.14611640572547913, -1.7977737188339233, -0.885009765625, 0.12890625, -0.215087890625, 
441, 3034638167, 0.5161235928535461, -0.48893868923187256, -0.2166750133037567, -0.669020414352417, 8.644503593444824, -2.2219717502593994, 4.40461540222168, -7.491409778594971, 0.5465309619903564, -2.4146158695220947, -0.885009765625, 0.128662109375, -0.212646484375, 
442, 3034646500, 0.5157252550125122, -0.48915714025497437, -0.2164115011692047, -0.6692529916763306, 8.67093563079834, -2.1974904537200928, 4.421576976776123, -7.801225185394287, 0.5272306203842163, -2.9789865016937256, -0.884521484375, 0.1259765625, -0.214599609375, 
443, 3034654833, 0.5153383016586304, -0.48934653401374817, -0.21617990732192993, -0.6694874167442322, 8.711181640625, -2.209346294403076, 4.346285820007324, -7.363684177398682, 0.6523050665855408, -3.263279676437378, -0.885498046875, 0.1279296875, -0.215576171875, 
444, 3034663166, 0.5149659514427185, -0.4894881844520569, -0.21604189276695251, -0.6697147488594055, 8.74712085723877, -2.2216172218322754, 4.293972969055176, -5.911766052246094, 0.3864804208278656, -3.775512933731079, -0.885986328125, 0.1279296875, -0.216064453125, 
