sep=,
PacketCounter,SampleTimeFine,Quat_W,Quat_X,Quat_Y,Quat_Z,Acc_X,Acc_Y,Acc_Z,Gyr_X,Gyr_Y,Gyr_Z,Mag_X,Mag_Y,Mag_Z,
0, 3128526078, 0.9655090570449829, -0.17024968564510345, 0.0016098879277706146, -0.19702965021133423, 0, 0, 0, 0, 0, 0, -0.09814453125, 0.012451171875, -0.62158203125, 
1, 3128534411, 0.9655048847198486, -0.17028602957725525, 0.0016228333115577698, -0.19701868295669556, 0.6237565279006958, -3.2327630519866943, 9.151726722717285, -1.0129148960113525, -0.6474766135215759, 0.035155538469552994, -0.093994140625, 0.007080078125, -0.6240234375, 
2, 3128542744, 0.9655001759529114, -0.170320063829422, 0.0016392096877098083, -0.19701224565505981, 0.636646032333374, -3.2093164920806885, 9.174966812133789, -0.9982636570930481, -0.5832105875015259, -0.018006809055805206, -0.09716796875, 0.009521484375, -0.62548828125, 
3, 3128551077, 0.9654961824417114, -0.17035925388336182, 0.0016665346920490265, -0.1969977617263794, 0.6228910088539124, -3.1913552284240723, 9.155760765075684, -1.088963508605957, -0.4720959961414337, 0.11204946786165237, -0.096435546875, 0.007080078125, -0.625, 
4, 3128559410, 0.9654924869537354, -0.17040026187896729, 0.001683562994003296, -0.19697999954223633, 0.616603672504425, -3.168959856033325, 9.178384780883789, -1.0923957824707031, -0.6213757395744324, 0.13712580502033234, -0.095703125, 0.009521484375, -0.62451171875, 
5, 3128567743, 0.9654855728149414, -0.17046043276786804, 0.001725420355796814, -0.19696125388145447, 0.6666165590286255, -3.166027545928955, 9.178342819213867, -1.4136496782302856, -0.34679114818573, 0.20098209381103516, -0.09814453125, 0.010986328125, -0.623046875, 
6, 3128576076, 0.9654765725135803, -0.17053164541721344, 0.0017694644629955292, -0.19694343209266663, 0.6517313122749329, -3.189152240753174, 9.143178939819336, -1.5765559673309326, -0.3425135016441345, 0.18440966308116913, -0.09619140625, 0.01025390625, -0.62646484375, 
7, 3128584409, 0.9654706716537476, -0.17058822512626648, 0.0018167197704315186, -0.19692295789718628, 0.6529470682144165, -3.2364392280578613, 9.174077987670898, -1.3794289827346802, -0.27076807618141174, 0.2386094033718109, -0.09521484375, 0.0087890625, -0.626953125, 
8, 3128592742, 0.9654668569564819, -0.17063362896442413, 0.001870814710855484, -0.1969018280506134, 0.6736690402030945, -3.2543861865997314, 9.19543743133545, -1.2504870891571045, -0.14774291217327118, 0.26796334981918335, -0.095703125, 0.010498046875, -0.623046875, 
9, 3128601075, 0.9654651880264282, -0.17067211866378784, 0.0019361376762390137, -0.1968761384487152, 0.6583762764930725, -3.2343225479125977, 9.176310539245605, -1.1787670850753784, 0.00849111843854189, 0.36014893651008606, -0.09619140625, 0.01171875, -0.6279296875, 
10, 3128609408, 0.9654712080955505, -0.17068228125572205, 0.001985538750886917, -0.19683727622032166, 0.6329622268676758, -3.282790184020996, 9.148500442504883, -0.7465524673461914, -0.15704087913036346, 0.5192133188247681, -0.09521484375, 0.010986328125, -0.61962890625, 
11, 3128617741, 0.9654842019081116, -0.17067158222198486, 0.0020145364105701447, -0.19678214192390442, 0.6218538880348206, -3.3009297847747803, 9.115325927734375, -0.3930247724056244, -0.41233792901039124, 0.708502471446991, -0.095703125, 0.009521484375, -0.62353515625, 
12, 3128626074, 0.9654995203018188, -0.17065054178237915, 0.002021797001361847, -0.19672545790672302, 0.6069117188453674, -3.263441324234009, 9.126426696777344, -0.19692222774028778, -0.6732445359230042, 0.6824015974998474, -0.095947265625, 0.009521484375, -0.6201171875, 
13, 3128634407, 0.9655148983001709, -0.17062844336032867, 0.0020273588597774506, -0.19666898250579834, 0.610809862613678, -3.246997356414795, 9.141240119934082, -0.1717178374528885, -0.6941713690757751, 0.6750503778457642, -0.09716796875, 0.010009765625, -0.6259765625, 
14, 3128642740, 0.9655294418334961, -0.17059388756752014, 0.0020324215292930603, -0.19662806391716003, 0.5942224264144897, -3.234708786010742, 9.155481338500977, -0.014625729992985725, -0.6298540830612183, 0.4663968086242676, -0.0966796875, 0.010986328125, -0.62255859375, 
15, 3128651073, 0.9655437469482422, -0.17054884135723114, 0.002018515020608902, -0.1965962052345276, 0.5211060643196106, -3.229179620742798, 9.145853996276855, 0.18294966220855713, -0.8329236507415771, 0.30039092898368835, -0.09619140625, 0.0087890625, -0.626953125, 
16, 3128659406, 0.9655560851097107, -0.17050744593143463, 0.001981891691684723, -0.1965719759464264, 0.5298110842704773, -3.2041304111480713, 9.16629695892334, 0.18645882606506348, -1.125643253326416, 0.14176198840141296, -0.09521484375, 0.009765625, -0.62548828125, 
17, 3128667739, 0.9655653238296509, -0.1704811155796051, 0.0019406042993068695, -0.19655075669288635, 0.5640303492546082, -3.228106737136841, 9.187233924865723, -0.0034579215571284294, -1.222464919090271, 0.07777761667966843, -0.09521484375, 0.009521484375, -0.62451171875, 
18, 3128676072, 0.9655750393867493, -0.17045247554779053, 0.0018837600946426392, -0.1965278685092926, 0.5746092796325684, -3.2468113899230957, 9.184127807617188, 0.0656108632683754, -1.4237415790557861, 0.06922246515750885, -0.0966796875, 0.0107421875, -0.6259765625, 
19, 3128684405, 0.9655823707580566, -0.17043712735176086, 0.0018359683454036713, -0.19650578498840332, 0.5728998184204102, -3.236833095550537, 9.180902481079102, -0.13596035540103912, -1.3433384895324707, 0.0784948319196701, -0.0966796875, 0.010498046875, -0.62548828125, 
20, 3128692738, 0.965586245059967, -0.1704346239566803, 0.0017851963639259338, -0.19648948311805725, 0.5749885439872742, -3.2045810222625732, 9.165139198303223, -0.3110848665237427, -1.3995360136032104, -0.021541571244597435, -0.095947265625, 0.008544921875, -0.62451171875, 
21, 3128701071, 0.9655888080596924, -0.17044442892074585, 0.0017366781830787659, -0.1964687705039978, 0.6274330615997314, -3.189052104949951, 9.161905288696289, -0.4795241057872772, -1.4181064367294312, 0.04791142791509628, -0.09814453125, 0.008544921875, -0.62451171875, 
22, 3128709404, 0.9655891060829163, -0.17046132683753967, 0.0017028860747814178, -0.1964527666568756, 0.6593705415725708, -3.1962907314300537, 9.168478012084961, -0.623066246509552, -1.2244629859924316, 0.005571095738559961, -0.09521484375, 0.0107421875, -0.62451171875, 
23, 3128717737, 0.9655882120132446, -0.1704912632703781, 0.00170212984085083, -0.19643139839172363, 0.6683833599090576, -3.1782946586608887, 9.169974327087402, -0.885586678981781, -0.83261638879776, 0.14048127830028534, -0.099609375, 0.00830078125, -0.61962890625, 
24, 3128726070, 0.965584933757782, -0.1705327033996582, 0.001712508499622345, -0.19641125202178955, 0.6845914721488953, -3.1747822761535645, 9.152055740356445, -1.0768992900848389, -0.7157898545265198, 0.15308348834514618, -0.0966796875, 0.008544921875, -0.62353515625, 
25, 3128734403, 0.9655784964561462, -0.1705828756093979, 0.0017319172620773315, -0.19639858603477478, 0.6731182932853699, -3.190432548522949, 9.184951782226562, -1.2201083898544312, -0.5992705821990967, 0.058951158076524734, -0.10009765625, 0.01123046875, -0.61767578125, 
26, 3128742736, 0.9655718803405762, -0.17063549160957336, 0.0017682574689388275, -0.19638562202453613, 0.6849203705787659, -3.2200164794921875, 9.162504196166992, -1.3030985593795776, -0.38493070006370544, 0.10910381376743317, -0.09912109375, 0.01025390625, -0.6181640625, 
27, 3128751069, 0.9655650854110718, -0.17069260776042938, 0.0018102750182151794, -0.19636845588684082, 0.6873524188995361, -3.2247090339660645, 9.178155899047852, -1.3738195896148682, -0.33201172947883606, 0.18458899855613708, -0.0947265625, 0.01123046875, -0.6240234375, 
28, 3128759402, 0.9655589461326599, -0.1707555055618286, 0.0018499121069908142, -0.19634360074996948, 0.6456084251403809, -3.2160685062408447, 9.175216674804688, -1.4492533206939697, -0.39602169394493103, 0.2757244110107422, -0.0966796875, 0.010009765625, -0.62451171875, 
29, 3128767735, 0.965552031993866, -0.17082904279232025, 0.001899123191833496, -0.19631358981132507, 0.5962386131286621, -3.234455108642578, 9.149189949035645, -1.611263394355774, -0.31011152267456055, 0.361352801322937, -0.09716796875, 0.008544921875, -0.6240234375, 
30, 3128776068, 0.9655458927154541, -0.1708964705467224, 0.0019429326057434082, -0.19628509879112244, 0.5962466597557068, -3.2343368530273438, 9.196939468383789, -1.519461989402771, -0.359956830739975, 0.33491891622543335, -0.095703125, 0.010009765625, -0.62451171875, 
31, 3128784401, 0.9655402302742004, -0.17096343636512756, 0.001986030489206314, -0.19625428318977356, 0.6257879137992859, -3.226346969604492, 9.168778419494629, -1.5070134401321411, -0.37647801637649536, 0.3637349307537079, -0.0966796875, 0.0107421875, -0.62646484375, 
32, 3128792734, 0.9655290842056274, -0.17103342711925507, 0.0020356178283691406, -0.1962474286556244, 0.6311596632003784, -3.220688819885254, 9.158735275268555, -1.5798346996307373, -0.2392369508743286, 0.047296684235334396, -0.09814453125, 0.010986328125, -0.62548828125, 
33, 3128801067, 0.9655176401138306, -0.1710984706878662, 0.0020865686237812042, -0.19624599814414978, 0.5781356692314148, -3.2271766662597656, 9.157855987548828, -1.5138781070709229, -0.19666609168052673, -0.028047585859894753, -0.0947265625, 0.010009765625, -0.623046875, 
34, 3128809400, 0.9655053615570068, -0.17116478085517883, 0.0021349750459194183, -0.19624823331832886, 0.5970191955566406, -3.2301595211029053, 9.16500186920166, -1.5307577848434448, -0.22432945668697357, -0.07958341389894485, -0.0966796875, 0.011474609375, -0.62255859375, 
35, 3128817733, 0.9654946327209473, -0.17122504115104675, 0.002175126224756241, -0.19624802470207214, 0.6221757531166077, -3.230102300643921, 9.179128646850586, -1.4186444282531738, -0.3247116804122925, -0.06085941940546036, -0.0986328125, 0.012451171875, -0.623046875, 
36, 3128826066, 0.9654817581176758, -0.17128907144069672, 0.002210080623626709, -0.1962553858757019, 0.6252085566520691, -3.245509386062622, 9.166797637939453, -1.465928316116333, -0.38513562083244324, -0.18045227229595184, -0.0966796875, 0.011962890625, -0.62060546875, 
37, 3128834399, 0.9654703736305237, -0.17135608196258545, 0.0022515282034873962, -0.19625228643417358, 0.6169685125350952, -3.2635278701782227, 9.155139923095703, -1.5150307416915894, -0.33293381333351135, -0.021900169551372528, -0.095703125, 0.010009765625, -0.6240234375, 
38, 3128842732, 0.9654595851898193, -0.1714232712984085, 0.0022908076643943787, -0.1962461769580841, 0.6115466356277466, -3.2361178398132324, 9.155767440795898, -1.5149027109146118, -0.3669751286506653, 0.012691853567957878, -0.099609375, 0.010986328125, -0.619140625, 
39, 3128851065, 0.9654474258422852, -0.1714993566274643, 0.002342991530895233, -0.19623863697052002, 0.6078705191612244, -3.219797134399414, 9.17542839050293, -1.6655399799346924, -0.22627614438533783, 0.06117960065603256, -0.0966796875, 0.009521484375, -0.62451171875, 
40, 3128859398, 0.965431272983551, -0.1715988963842392, 0.002404429018497467, -0.1962302029132843, 0.6122726798057556, -3.199274778366089, 9.167881965637207, -2.016019582748413, -0.16505813598632812, 0.08164536952972412, -0.09716796875, 0.013427734375, -0.62158203125, 
41, 3128867731, 0.9654111266136169, -0.17171764373779297, 0.002491302788257599, -0.19622495770454407, 0.598665177822113, -3.2073094844818115, 9.160438537597656, -2.345290422439575, 0.12872432172298431, 0.07967306673526764, -0.09619140625, 0.0126953125, -0.62353515625, 
42, 3128876064, 0.9653860926628113, -0.17185771465301514, 0.002594340592622757, -0.1962238848209381, 0.6117426156997681, -3.222902774810791, 9.172760009765625, -2.6866259574890137, 0.2942691445350647, 0.0568251870572567, -0.09423828125, 0.01171875, -0.62353515625, 
43, 3128884397, 0.9653630256652832, -0.1719920039176941, 0.00270051509141922, -0.1962180733680725, 0.6358436346054077, -3.248798370361328, 9.156181335449219, -2.6110384464263916, 0.33819758892059326, 0.13579387962818146, -0.09521484375, 0.01220703125, -0.625, 
44, 3128892730, 0.9653427600860596, -0.1721208393573761, 0.0028082728385925293, -0.1962031126022339, 0.6240900158882141, -3.2651634216308594, 9.146100044250488, -2.5399842262268066, 0.3541039526462555, 0.2649408280849457, -0.09375, 0.01123046875, -0.625, 
45, 3128901063, 0.9653259515762329, -0.17224091291427612, 0.0029065385460853577, -0.19617924094200134, 0.644254207611084, -3.2809078693389893, 9.146692276000977, -2.3862476348876953, 0.2297980934381485, 0.37134239077568054, -0.09619140625, 0.011474609375, -0.62255859375, 
46, 3128909396, 0.9653153419494629, -0.1723351627588272, 0.0029906928539276123, -0.1961478590965271, 0.6098567843437195, -3.3023393154144287, 9.115960121154785, -1.9951695203781128, 0.09409388899803162, 0.45525458455085754, -0.09423828125, 0.01171875, -0.6240234375, 
47, 3128917729, 0.9653089046478271, -0.1724148839712143, 0.00305735319852829, -0.19610875844955444, 0.6296948194503784, -3.325321912765503, 9.12934398651123, -1.7414863109588623, -0.11546897888183594, 0.5226713418960571, -0.0947265625, 0.0126953125, -0.62353515625, 
48, 3128926062, 0.9653042554855347, -0.17248335480690002, 0.003104880452156067, -0.19607031345367432, 0.6119826436042786, -3.294506072998047, 9.126060485839844, -1.540798544883728, -0.33856892585754395, 0.4784354865550995, -0.0947265625, 0.01220703125, -0.62451171875, 
49, 3128934395, 0.965299129486084, -0.17254525423049927, 0.0031451210379600525, -0.19604074954986572, 0.5700100660324097, -3.304420232772827, 9.131612777709961, -1.4283264875411987, -0.3970462679862976, 0.3413737118244171, -0.09619140625, 0.0146484375, -0.6220703125, 
50, 3128942728, 0.9652956128120422, -0.17259560525417328, 0.0031796395778656006, -0.19601315259933472, 0.5665692090988159, -3.2758872509002686, 9.126769065856934, -1.2620902061462402, -0.43715813755989075, 0.3088948428630829, -0.09423828125, 0.01318359375, -0.622314453125, 
51, 3128951061, 0.9652923345565796, -0.1726405918598175, 0.003205128014087677, -0.19598877429962158, 0.5814617276191711, -3.2970528602600098, 9.166654586791992, -1.1608625650405884, -0.5341079831123352, 0.24391154944896698, -0.1005859375, 0.0146484375, -0.615234375, 
52, 3128959394, 0.9652894139289856, -0.17267535626888275, 0.003217138350009918, -0.19597238302230835, 0.5600461363792419, -3.281674385070801, 9.170059204101562, -0.9918601512908936, -0.6680961847305298, 0.10823296010494232, -0.09375, 0.01025390625, -0.62353515625, 
53, 3128967727, 0.9652897119522095, -0.17268140614032745, 0.003241080790758133, -0.1959654986858368, 0.5659257769584656, -3.2854866981506348, 9.170924186706543, -0.630366325378418, -0.4110828936100006, 0.025370901450514793, -0.0947265625, 0.013671875, -0.62451171875, 
54, 3128976060, 0.9652926921844482, -0.1726675033569336, 0.0032798312604427338, -0.19596228003501892, 0.5962252020835876, -3.2703657150268555, 9.163593292236328, -0.4030400216579437, -0.14894677698612213, 0.013998179696500301, -0.0966796875, 0.012451171875, -0.614501953125, 
55, 3128984393, 0.9653000831604004, -0.17263013124465942, 0.003297623246908188, -0.19595807790756226, 0.5739084482192993, -3.296494960784912, 9.14378833770752, -0.020465774461627007, -0.3673081398010254, -0.015983281657099724, -0.09375, 0.01318359375, -0.62353515625, 
56, 3128992726, 0.9653046727180481, -0.17260555922985077, 0.003315173089504242, -0.19595706462860107, 0.5690445303916931, -3.2816245555877686, 9.139174461364746, -0.2010205090045929, -0.3973023593425751, -0.06103872135281563, -0.09521484375, 0.01123046875, -0.62548828125, 
57, 3129001059, 0.965308427810669, -0.17258456349372864, 0.00333506241440773, -0.1959570348262787, 0.6081134080886841, -3.2539072036743164, 9.141077041625977, -0.2526076138019562, -0.36997202038764954, -0.07802097499370575, -0.09619140625, 0.012939453125, -0.62255859375, 
58, 3129009392, 0.965308666229248, -0.17257782816886902, 0.0033608898520469666, -0.19596096873283386, 0.6094865798950195, -3.2710165977478027, 9.151247024536133, -0.4708408713340759, -0.32373830676078796, -0.11838898807764053, -0.0947265625, 0.01171875, -0.62451171875, 
59, 3129017725, 0.965303897857666, -0.1725890040397644, 0.0033785775303840637, -0.19597482681274414, 0.6078271269798279, -3.250072956085205, 9.122578620910645, -0.6920453906059265, -0.45749589800834656, -0.2826530933380127, -0.09619140625, 0.01171875, -0.6240234375, 
60, 3129026058, 0.9652954936027527, -0.17261934280395508, 0.003397546708583832, -0.1959889829158783, 0.6011964082717896, -3.251532554626465, 9.157607078552246, -0.9646320939064026, -0.4899490475654602, -0.29622864723205566, -0.095703125, 0.012451171875, -0.62060546875, 
61, 3129034391, 0.96528559923172, -0.1726560741662979, 0.0034138746559619904, -0.19600462913513184, 0.5943011045455933, -3.2530343532562256, 9.141097068786621, -1.0396305322647095, -0.539512574672699, -0.3254288136959076, -0.0947265625, 0.013671875, -0.625, 
62, 3129042724, 0.9652777910232544, -0.17269165813922882, 0.0034183375537395477, -0.19601169228553772, 0.598478376865387, -3.2805798053741455, 9.161375999450684, -0.9925514459609985, -0.7148675918579102, -0.2329358458518982, -0.09716796875, 0.0146484375, -0.62451171875, 
63, 3129051057, 0.9652670621871948, -0.17273764312267303, 0.003421362489461899, -0.1960243582725525, 0.6148726940155029, -3.2505593299865723, 9.137077331542969, -1.129510760307312, -0.7442983984947205, -0.32916849851608276, -0.095703125, 0.01220703125, -0.623046875, 
64, 3129059390, 0.9652565121650696, -0.1727781593799591, 0.003426656126976013, -0.19604036211967468, 0.5792800784111023, -3.258577823638916, 9.173728942871094, -1.0685489177703857, -0.6941713690757751, -0.358727365732193, -0.09814453125, 0.011962890625, -0.6181640625, 
65, 3129067723, 0.9652459025382996, -0.17282120883464813, 0.003433145582675934, -0.1960545778274536, 0.5781213641166687, -3.256746530532837, 9.15323543548584, -1.0989017486572266, -0.6924552321434021, -0.32793906331062317, -0.0947265625, 0.0146484375, -0.621337890625, 
66, 3129076056, 0.9652354121208191, -0.17286927998065948, 0.0034313946962356567, -0.19606387615203857, 0.6060031652450562, -3.29388427734375, 9.167756080627441, -1.1482348442077637, -0.8247015476226807, -0.286751389503479, -0.09423828125, 0.01220703125, -0.6240234375, 
67, 3129084389, 0.9652256965637207, -0.17290851473808289, 0.0034331195056438446, -0.19607719779014587, 0.6083279252052307, -3.297975778579712, 9.170623779296875, -1.0333294868469238, -0.74127596616745, -0.3421037495136261, -0.09423828125, 0.0126953125, -0.623046875, 
68, 3129092722, 0.965214729309082, -0.1729501634836197, 0.00344192236661911, -0.1960943639278412, 0.6209526062011719, -3.27622389793396, 9.126062393188477, -1.0934460163116455, -0.6478608250617981, -0.3658224940299988, -0.09423828125, 0.01220703125, -0.62646484375, 
69, 3129101055, 0.9652002453804016, -0.17299838364124298, 0.003466721624135971, -0.19612202048301697, 0.6161530613899231, -3.262576103210449, 9.137499809265137, -1.2258716821670532, -0.43057531118392944, -0.4760405421257019, -0.095703125, 0.012451171875, -0.62158203125, 
70, 3129109388, 0.9651837944984436, -0.173045814037323, 0.003518819808959961, -0.19616010785102844, 0.6507155895233154, -3.2645933628082275, 9.17303466796875, -1.2981036901474, -0.03890802338719368, -0.5567765831947327, -0.09716796875, 0.01220703125, -0.625, 
71, 3129117721, 0.9651619791984558, -0.1731082797050476, 0.0036225207149982452, -0.19621118903160095, 0.6169781684875488, -3.2392051219940186, 9.16434383392334, -1.6444082260131836, 0.633452832698822, -0.615510106086731, -0.09375, 0.013671875, -0.624267578125, 
72, 3129126054, 0.9651333093643188, -0.17320086061954498, 0.003751888871192932, -0.1962677240371704, 0.5962288975715637, -3.2269346714019775, 9.15839672088623, -2.132641315460205, 0.9090365171432495, -0.6524458527565002, -0.0947265625, 0.013671875, -0.621826171875, 
73, 3129134387, 0.9650980234146118, -0.17331363260746002, 0.003910288214683533, -0.19633826613426208, 0.5866835117340088, -3.2538363933563232, 9.171919822692871, -2.489959716796875, 1.2715034484863281, -0.7834113836288452, -0.09521484375, 0.01416015625, -0.62451171875, 
74, 3129142720, 0.9650596976280212, -0.17344778776168823, 0.0040851011872291565, -0.19640520215034485, 0.5734027028083801, -3.2502028942108154, 9.15882396697998, -2.8319101333618164, 1.4257524013519287, -0.7107694745063782, -0.09423828125, 0.0146484375, -0.624755859375, 
75, 3129151053, 0.9650164842605591, -0.17358699440956116, 0.004274286329746246, -0.19649043679237366, 0.5959386229515076, -3.2796545028686523, 9.13469409942627, -2.9416158199310303, 1.6442675590515137, -0.9333059787750244, -0.0966796875, 0.0126953125, -0.625, 
76, 3129159386, 0.9649635553359985, -0.17374323308467865, 0.004529830068349838, -0.1966058313846588, 0.6431781649589539, -3.2607662677764893, 9.103338241577148, -3.37429141998291, 2.554751396179199, -1.2015894651412964, -0.095703125, 0.01416015625, -0.62255859375, 
77, 3129167719, 0.9649076461791992, -0.1739063858985901, 0.004831954836845398, -0.19672876596450806, 0.6204023957252502, -3.2967493534088135, 9.124003410339355, -3.592524528503418, 3.166060447692871, -1.19218909740448, -0.09521484375, 0.015625, -0.619873046875, 
78, 3129176052, 0.9648512601852417, -0.17406494915485382, 0.00514751672744751, -0.19685789942741394, 0.6133928298950195, -3.241948127746582, 8.969050407409668, -3.5759012699127197, 3.3784539699554443, -1.2498210668563843, -0.0966796875, 0.01611328125, -0.619873046875, 
79, 3129184385, 0.9647374153137207, -0.17438262701034546, 0.005608629435300827, -0.19712114334106445, 0.6263650059700012, -3.188585042953491, 8.906082153320312, -6.201667785644531, 5.195425510406494, -2.83716082572937, -0.09375, 0.01318359375, -0.622802734375, 
80, 3129192718, 0.9645988941192627, -0.174790620803833, 0.00624823197722435, -0.19741901755332947, 0.5594773292541504, -3.512155532836914, 9.058948516845703, -7.946561336517334, 7.4110822677612305, -2.952629804611206, -0.0927734375, 0.0166015625, -0.622314453125, 
81, 3129201051, 0.9644401669502258, -0.17521792650222778, 0.006987456232309341, -0.19779017567634583, 0.628035306930542, -3.463428258895874, 9.096979141235352, -8.509511947631836, 8.848733901977539, -3.7221078872680664, -0.09423828125, 0.01708984375, -0.622802734375, 
82, 3129209384, 0.9642755389213562, -0.17566531896591187, 0.007734309881925583, -0.19816812872886658, 0.5796833038330078, -3.1391162872314453, 9.168416023254395, -8.815628051757812, 8.920658111572266, -3.8334014415740967, -0.091796875, 0.016357421875, -0.624267578125, 
83, 3129217717, 0.9641342759132385, -0.1760602444410324, 0.008329078555107117, -0.19848057627677917, 0.3390427827835083, -3.279789924621582, 9.199735641479492, -7.651817321777344, 6.888295650482178, -3.266173839569092, -0.09130859375, 0.015869140625, -0.623779296875, 
84, 3129226050, 0.9640125036239624, -0.17638751864433289, 0.008757319301366806, -0.19876277446746826, 0.32079756259918213, -3.369523286819458, 9.132922172546387, -6.261066913604736, 4.788799285888672, -3.2035470008850098, -0.08935546875, 0.017822265625, -0.623779296875, 
85, 3129234383, 0.9639173150062561, -0.17664818465709686, 0.009103648364543915, -0.19897720217704773, 0.4596491754055023, -3.4056904315948486, 9.129137992858887, -5.092135906219482, 3.714973211288452, -2.4245665073394775, -0.08984375, 0.015869140625, -0.624755859375, 
86, 3129242716, 0.9638484120368958, -0.17684108018875122, 0.009366638958454132, -0.19912749528884888, 0.47851356863975525, -3.502504348754883, 9.18372631072998, -3.917006015777588, 2.639021873474121, -1.6947147846221924, -0.09033203125, 0.018310546875, -0.622314453125, 
87, 3129251049, 0.9638152718544006, -0.17691990733146667, 0.009512219578027725, -0.19921079277992249, 0.41191884875297546, -3.515141010284424, 9.049957275390625, -1.998115062713623, 1.2274212837219238, -0.9820242524147034, -0.0888671875, 0.018798828125, -0.624267578125, 
88, 3129259382, 0.9638121724128723, -0.17691129446029663, 0.009587053209543228, -0.19922977685928345, 0.39729008078575134, -3.7353291511535645, 9.026358604431152, -0.5864379405975342, 0.3673465847969055, -0.2059384435415268, -0.08837890625, 0.018310546875, -0.6220703125, 
89, 3129267715, 0.9638174176216125, -0.17682482302188873, 0.009567875415086746, -0.19928225874900818, 0.4741479754447937, -3.442728042602539, 9.173922538757324, 0.7335021495819092, -0.5839533805847168, -0.8506743907928467, -0.0908203125, 0.015380859375, -0.623291015625, 
90, 3129276048, 0.9638139605522156, -0.17675989866256714, 0.00950697436928749, -0.19935929775238037, 0.6761823296546936, -2.8947548866271973, 9.198798179626465, 0.5366565585136414, -1.1349667310714722, -1.298667311668396, -0.0927734375, 0.017578125, -0.618896484375, 
91, 3129284381, 0.9637999534606934, -0.17678651213645935, 0.009507544338703156, -0.1994037628173828, 0.6786901950836182, -2.975611448287964, 9.323180198669434, -0.8676310181617737, -0.6401253938674927, -0.7844616174697876, -0.08984375, 0.016845703125, -0.620849609375, 
92, 3129292714, 0.9637764692306519, -0.17688605189323425, 0.009533651173114777, -0.19942742586135864, 0.5493170022964478, -3.3387608528137207, 9.25324821472168, -1.9364873170852661, -0.5608236193656921, -0.45588216185569763, -0.0888671875, 0.018310546875, -0.623779296875, 
93, 3129301047, 0.9637701511383057, -0.1769511103630066, 0.00950256735086441, -0.19940194487571716, 0.40734148025512695, -3.467578887939453, 9.194234848022461, -1.282914638519287, -1.3349114656448364, 0.07944255322217941, -0.08935546875, 0.018798828125, -0.623779296875, 
94, 3129309380, 0.9637812376022339, -0.17698492109775543, 0.009425491094589233, -0.1993219256401062, 0.44820892810821533, -3.5926265716552734, 9.256668090820312, -0.7109487056732178, -2.0057225227355957, 0.770975649356842, -0.087890625, 0.017822265625, -0.625732421875, 
95, 3129317713, 0.9638251066207886, -0.17694509029388428, 0.00926930457353592, -0.19915243983268738, 0.5126829743385315, -3.4554593563079834, 9.230194091796875, 0.5557136535644531, -3.075629234313965, 1.870005488395691, -0.0888671875, 0.016357421875, -0.623291015625, 
96, 3129326046, 0.9638868570327759, -0.17686191201210022, 0.009059473872184753, -0.1989363133907318, 0.49623772501945496, -3.3193283081054688, 9.185308456420898, 1.3078757524490356, -3.7799441814422607, 2.405215263366699, -0.0888671875, 0.018798828125, -0.623291015625, 
97, 3129334379, 0.9639596939086914, -0.17675438523292542, 0.008836984634399414, -0.19868901371955872, 0.4523588716983795, -3.458261251449585, 9.139432907104492, 1.6951371431350708, -3.9555039405822754, 2.8080756664276123, -0.08935546875, 0.017333984375, -0.623779296875, 
98, 3129342712, 0.9640374183654785, -0.17661839723587036, 0.008608736097812653, -0.19844263792037964, 0.5707941055297852, -3.438019037246704, 9.11522388458252, 2.094053268432617, -3.956425905227661, 2.811251640319824, -0.08935546875, 0.018310546875, -0.620849609375, 
99, 3129351045, 0.9641059041023254, -0.17650896310806274, 0.00840853527188301, -0.19821590185165405, 0.5954620242118835, -3.227108955383301, 9.176422119140625, 1.6499792337417603, -3.611351251602173, 2.594273805618286, -0.08935546875, 0.020263671875, -0.626220703125, 
100, 3129359378, 0.9641546010971069, -0.17646287381649017, 0.008269388228654861, -0.198025643825531, 0.5761540532112122, -3.073972463607788, 9.152673721313477, 0.5959023833274841, -2.879910707473755, 2.1940255165100098, -0.09130859375, 0.0166015625, -0.622314453125, 
101, 3129367711, 0.9641808271408081, -0.17648790776729584, 0.0081796795129776, -0.19788005948066711, 0.5667462348937988, -3.1352951526641846, 9.148412704467773, -0.5259371399879456, -2.3086366653442383, 1.6500051021575928, -0.0888671875, 0.017822265625, -0.622314453125, 
102, 3129376044, 0.9641938209533691, -0.1765492558479309, 0.008111752569675446, -0.197765052318573, 0.5535842180252075, -3.2591679096221924, 9.13902473449707, -1.1007205247879028, -2.0412752628326416, 1.2606430053710938, -0.09228515625, 0.017822265625, -0.623779296875, 
103, 3129384377, 0.9641911387443542, -0.1766669601202011, 0.008085209876298904, -0.1976727545261383, 0.5423786044120789, -3.3197739124298096, 9.128774642944336, -1.9916605949401855, -1.5921040773391724, 1.0144388675689697, -0.09033203125, 0.017822265625, -0.623779296875, 
104, 3129392710, 0.9641827940940857, -0.17680802941322327, 0.008098609745502472, -0.19758713245391846, 0.5101213455200195, -3.3502867221832275, 9.08623218536377, -2.4272303581237793, -1.1057664155960083, 1.0000181198120117, -0.091796875, 0.01806640625, -0.617431640625, 
105, 3129401043, 0.9641780257225037, -0.1769278198480606, 0.008116491138935089, -0.19750264286994934, 0.48395273089408875, -3.450385093688965, 9.07995319366455, -2.143681049346924, -0.987838625907898, 1.0088294744491577, -0.08984375, 0.016845703125, -0.621337890625, 
106, 3129409376, 0.9641872644424438, -0.17698124051094055, 0.00811833143234253, -0.19740954041481018, 0.4923950731754303, -3.4900856018066406, 9.109482765197754, -1.193444013595581, -1.0428835153579712, 1.1295748949050903, -0.08984375, 0.017333984375, -0.621826171875, 
107, 3129417709, 0.9642074704170227, -0.17697781324386597, 0.008094970136880875, -0.19731512665748596, 0.5045830011367798, -3.4700279235839844, 9.116759300231934, -0.33869704604148865, -1.2268962860107422, 1.1226848363876343, -0.0908203125, 0.017822265625, -0.620849609375, 
108, 3129426042, 0.9642379879951477, -0.17692479491233826, 0.008031707257032394, -0.1972161829471588, 0.4974191188812256, -3.4150230884552, 9.136741638183594, 0.4480826258659363, -1.6327537298202515, 1.1183046102523804, -0.09130859375, 0.018798828125, -0.623779296875, 
109, 3129434375, 0.9642806053161621, -0.17682240903377533, 0.00792234018445015, -0.19710451364517212, 0.4942363500595093, -3.405851364135742, 9.13217830657959, 1.259541630744934, -2.1455764770507812, 1.2153570652008057, -0.09130859375, 0.01513671875, -0.623291015625, 
110, 3129442708, 0.9643399715423584, -0.17664100229740143, 0.0077645182609558105, -0.1969832181930542, 0.5542880296707153, -3.416283369064331, 9.11197280883789, 2.473015546798706, -2.5960021018981934, 1.2761650085449219, -0.09130859375, 0.0166015625, -0.622314453125, 
111, 3129451041, 0.9644019603729248, -0.1764468252658844, 0.007591519504785538, -0.1968604028224945, 0.5666375160217285, -3.4273600578308105, 9.071155548095703, 2.695552110671997, -2.768744707107544, 1.2720668315887451, -0.091796875, 0.017578125, -0.620361328125, 
112, 3129459374, 0.964457631111145, -0.17627070844173431, 0.007437705993652344, -0.19675114750862122, 0.5478695631027222, -3.3976080417633057, 9.074954986572266, 2.384774923324585, -2.5273051261901855, 1.115820050239563, -0.09033203125, 0.0166015625, -0.619384765625, 
113, 3129467707, 0.9645140171051025, -0.17607980966567993, 0.007291536778211594, -0.19665053486824036, 0.531004011631012, -3.386715888977051, 9.066689491271973, 2.567840099334717, -2.3678057193756104, 1.0224050283432007, -0.0908203125, 0.01513671875, -0.620849609375, 
114, 3129476040, 0.9645695090293884, -0.1758764237165451, 0.007173970341682434, -0.1965646743774414, 0.5902543067932129, -3.4311060905456543, 9.050508499145508, 2.6505227088928223, -1.916610836982727, 0.8961526155471802, -0.096435546875, 0.01904296875, -0.616455078125, 
115, 3129484373, 0.9646213054656982, -0.1756819784641266, 0.0070680417120456696, -0.19648867845535278, 0.5221670866012573, -3.3550641536712646, 9.102478981018066, 2.4979641437530518, -1.763079047203064, 0.7832961082458496, -0.09228515625, 0.017822265625, -0.623779296875, 
116, 3129492706, 0.9646649360656738, -0.17551289498806, 0.006993960589170456, -0.1964278221130371, 0.4834938049316406, -3.3266994953155518, 9.107410430908203, 2.0506625175476074, -1.3706176280975342, 0.6341443061828613, -0.09228515625, 0.018310546875, -0.622802734375, 
117, 3129501039, 0.9647092223167419, -0.17533616721630096, 0.006930265575647354, -0.19637054204940796, 0.4991947114467621, -3.3660075664520264, 9.131009101867676, 2.1343958377838135, -1.2131415605545044, 0.6340932846069336, -0.0927734375, 0.01611328125, -0.618408203125, 
118, 3129509372, 0.9647638201713562, -0.17510730028152466, 0.006857100874185562, -0.19630950689315796, 0.49000313878059387, -3.4591290950775146, 9.132004737854004, 2.867013931274414, -1.1985923051834106, 0.6733854413032532, -0.091796875, 0.0166015625, -0.622802734375, 
119, 3129517705, 0.9648253917694092, -0.17484050989151, 0.00678248330950737, -0.19624653458595276, 0.46270325779914856, -3.4112119674682617, 9.144776344299316, 3.398432493209839, -1.1241319179534912, 0.7250748872756958, -0.08935546875, 0.015380859375, -0.621826171875, 
120, 3129526038, 0.9648951888084412, -0.1745663285255432, 0.00668494775891304, -0.1961507499217987, 0.4860798716545105, -3.3866817951202393, 9.169835090637207, 3.568357467651367, -1.4847803115844727, 1.121122121810913, -0.09326171875, 0.017578125, -0.622314453125, 
121, 3129534371, 0.9649649262428284, -0.17430183291435242, 0.006573662161827087, -0.19604703783988953, 0.5159862041473389, -3.3526055812835693, 9.123046875, 3.4839837551116943, -1.7156667709350586, 1.1947886943817139, -0.09326171875, 0.0166015625, -0.621826171875, 
122, 3129542704, 0.965031623840332, -0.1740729957818985, 0.0064689479768276215, -0.19592541456222534, 0.5705399513244629, -3.3174071311950684, 9.088949203491211, 2.9757208824157715, -1.7628997564315796, 1.4341025352478027, -0.09423828125, 0.0166015625, -0.621826171875, 
123, 3129551037, 0.9650887846946716, -0.17390374839305878, 0.00638890266418457, -0.1957966685295105, 0.6093817949295044, -3.2280828952789307, 9.1246337890625, 2.1034281253814697, -1.6175901889801025, 1.5628654956817627, -0.09375, 0.01611328125, -0.620849609375, 
124, 3129559370, 0.9651334285736084, -0.17380458116531372, 0.006334535777568817, -0.19566679000854492, 0.6345334649085999, -3.179088830947876, 9.132966041564941, 1.0659747123718262, -1.462598443031311, 1.5941659212112427, -0.0927734375, 0.01513671875, -0.621826171875, 
125, 3129567703, 0.965168297290802, -0.17375576496124268, 0.006314482539892197, -0.19553861021995544, 0.5833235383033752, -3.2177512645721436, 9.131440162658691, 0.288915753364563, -1.1335322856903076, 1.605461835861206, -0.09326171875, 0.013671875, -0.621337890625, 
126, 3129576036, 0.9651963114738464, -0.17373250424861908, 0.006294127553701401, -0.1954215168952942, 0.5714682936668396, -3.236333131790161, 9.157150268554688, -0.07102826237678528, -1.1839410066604614, 1.4538767337799072, -0.09423828125, 0.01513671875, -0.623779296875, 
127, 3129584369, 0.9652163982391357, -0.17373837530612946, 0.006264474242925644, -0.1953175961971283, 0.5588033199310303, -3.2136929035186768, 9.149749755859375, -0.4448680877685547, -1.3531233072280884, 1.2308024168014526, -0.09326171875, 0.015625, -0.622802734375, 
128, 3129592702, 0.9652337431907654, -0.1737453192472458, 0.006231930106878281, -0.19522696733474731, 0.534826934337616, -3.2346956729888916, 9.159477233886719, -0.4630029499530792, -1.3612942695617676, 1.0424610376358032, -0.09326171875, 0.0166015625, -0.621337890625, 
129, 3129601035, 0.965246856212616, -0.1737663447856903, 0.006205834448337555, -0.19514355063438416, 0.4935384690761566, -3.271775484085083, 9.156805038452148, -0.6685571074485779, -1.3037389516830444, 0.9618528485298157, -0.09521484375, 0.013427734375, -0.619384765625, 
130, 3129609368, 0.965257465839386, -0.17379502952098846, 0.006178665906190872, -0.1950666606426239, 0.5052993297576904, -3.279780387878418, 9.129536628723145, -0.7801583409309387, -1.31482994556427, 0.8526850342750549, -0.095703125, 0.015380859375, -0.616455078125, 
131, 3129617701, 0.96526038646698, -0.17384257912635803, 0.006162878125905991, -0.1950102150440216, 0.5038813948631287, -3.280245304107666, 9.158561706542969, -1.0714945793151855, -1.1655246019363403, 0.5863738059997559, -0.09228515625, 0.0166015625, -0.621826171875, 
132, 3129626034, 0.9652560949325562, -0.1739184707403183, 0.0061713457107543945, -0.19496336579322815, 0.5058881640434265, -3.241940975189209, 9.178061485290527, -1.5350353717803955, -0.8975227475166321, 0.49587878584861755, -0.09423828125, 0.01416015625, -0.622314453125, 
133, 3129634367, 0.9652414321899414, -0.17402710020542145, 0.006227895617485046, -0.1949375867843628, 0.5365087985992432, -3.2096338272094727, 9.145462036132812, -2.118169069290161, -0.2898763120174408, 0.2847406268119812, -0.09619140625, 0.0146484375, -0.62158203125, 
134, 3129642700, 0.9652197360992432, -0.17415788769721985, 0.0062988437712192535, -0.19492599368095398, 0.5614929795265198, -3.23488712310791, 9.156352043151855, -2.4699037075042725, -0.12960803508758545, 0.12603484094142914, -0.09228515625, 0.017578125, -0.621826171875, 
135, 3129651033, 0.9651951789855957, -0.17428766191005707, 0.006375495344400406, -0.194929301738739, 0.5598637461662292, -3.2702479362487793, 9.17400074005127, -2.469827175140381, -0.027791446074843407, -0.03603922948241234, -0.09619140625, 0.016357421875, -0.618896484375, 
136, 3129659366, 0.9651691913604736, -0.1744215190410614, 0.006454534828662872, -0.19493594765663147, 0.5843651294708252, -3.283097267150879, 9.13565444946289, -2.541956663131714, 0.015406962484121323, -0.10847628861665726, -0.09423828125, 0.01611328125, -0.623779296875, 
137, 3129667699, 0.9651408195495605, -0.1745595633983612, 0.006563737988471985, -0.19494840502738953, 0.6027958989143372, -3.3212060928344727, 9.059774398803711, -2.6768412590026855, 0.41081392765045166, -0.10189343243837357, -0.09228515625, 0.0166015625, -0.621826171875, 
138, 3129676032, 0.965116024017334, -0.17467980086803436, 0.0066626183688640594, -0.19496044516563416, 0.574662446975708, -3.3874683380126953, 9.112571716308594, -2.4094796180725098, 0.3267992436885834, -0.12863470613956451, -0.091796875, 0.0185546875, -0.620849609375, 
139, 3129684365, 0.9650962948799133, -0.17476579546928406, 0.006758272647857666, -0.19497746229171753, 0.5820959210395813, -3.3904788494110107, 9.085012435913086, -1.9286236763000488, 0.38040977716445923, -0.17071886360645294, -0.09521484375, 0.015625, -0.620849609375, 
140, 3129692698, 0.965084433555603, -0.17481419444084167, 0.006830114871263504, -0.1949911117553711, 0.5522781014442444, -3.3460288047790527, 9.098331451416016, -1.3541476726531982, 0.1637646108865738, -0.17353643476963043, -0.09423828125, 0.01611328125, -0.618896484375, 
141, 3129701031, 0.9650819301605225, -0.1748027801513672, 0.0068829357624053955, -0.19501149654388428, 0.519904375076294, -3.3627445697784424, 9.11584758758545, -0.47744932770729065, 0.0801597461104393, -0.2579609453678131, -0.09716796875, 0.016845703125, -0.618896484375, 
142, 3129709364, 0.9650847911834717, -0.17476530373096466, 0.006919946521520615, -0.19502964615821838, 0.5303618311882019, -3.3460354804992676, 9.113887786865234, -0.08439891040325165, -0.06024468317627907, -0.2691543698310852, -0.0908203125, 0.01611328125, -0.618896484375, 
143, 3129717697, 0.9650886058807373, -0.17472276091575623, 0.006950691342353821, -0.19504785537719727, 0.5222719311714172, -3.3219082355499268, 9.13769245147705, 0.007005493622273207, -0.12671363353729248, -0.29054227471351624, -0.09423828125, 0.01708984375, -0.619873046875, 
144, 3129726030, 0.965094804763794, -0.17466984689235687, 0.006982497870922089, -0.1950637400150299, 0.49351754784584045, -3.3098134994506836, 9.156940460205078, 0.14196689426898956, -0.0915708839893341, -0.241311714053154, -0.0927734375, 0.01708984375, -0.620849609375, 
145, 3129734363, 0.9651012420654297, -0.17462389171123505, 0.006989598274230957, -0.1950725018978119, 0.4746912717819214, -3.3000285625457764, 9.144172668457031, 0.12234639376401901, -0.45662492513656616, -0.2061433494091034, -0.0927734375, 0.01708984375, -0.621337890625, 
146, 3129742696, 0.9651044011116028, -0.17459909617900848, 0.006997071206569672, -0.19507834315299988, 0.49243032932281494, -3.271638870239258, 9.155374526977539, -0.17456099390983582, -0.5141545534133911, -0.1765333116054535, -0.091796875, 0.0166015625, -0.621337890625, 
147, 3129751029, 0.9651015400886536, -0.174601212143898, 0.006995845586061478, -0.19509050250053406, 0.5117573738098145, -3.2829978466033936, 9.149660110473633, -0.5151278972625732, -0.6871274709701538, -0.3023504316806793, -0.09130859375, 0.015625, -0.622314453125, 
148, 3129759362, 0.9651018381118774, -0.17460377514362335, 0.006977863609790802, -0.19508767127990723, 0.5298610329627991, -3.3245198726654053, 9.131389617919922, -0.475912481546402, -0.9467021226882935, -0.1342441886663437, -0.09130859375, 0.01708984375, -0.619873046875, 
149, 3129767695, 0.9651038646697998, -0.17459356784820557, 0.00693797692656517, -0.1950879991054535, 0.5673420429229736, -3.3470654487609863, 9.129195213317871, -0.2390064150094986, -1.1925219297409058, -0.22870950400829315, -0.0927734375, 0.01611328125, -0.620849609375, 
150, 3129776028, 0.965112566947937, -0.17455771565437317, 0.0068947188556194305, -0.19507911801338196, 0.5606040954589844, -3.3535103797912598, 9.136641502380371, 0.12039970606565475, -1.194366216659546, -0.08775436133146286, -0.09375, 0.01513671875, -0.618896484375, 
151, 3129784361, 0.9651241898536682, -0.17451363801956177, 0.006843850016593933, -0.19506287574768066, 0.5364131331443787, -3.3262650966644287, 9.134330749511719, 0.2640187442302704, -1.2986161708831787, 0.017584173008799553, -0.08935546875, 0.018310546875, -0.61962890625, 
152, 3129792694, 0.9651367664337158, -0.17446187138557434, 0.006790105253458023, -0.19504880905151367, 0.559752881526947, -3.3181324005126953, 9.127635955810547, 0.36849915981292725, -1.3036876916885376, -0.03263253718614578, -0.094970703125, 0.0185546875, -0.622802734375, 
153, 3129801027, 0.9651460647583008, -0.17442284524440765, 0.006759386509656906, -0.1950383186340332, 0.5731501579284668, -3.30301833152771, 9.131247520446777, 0.13692089915275574, -1.0256452560424805, -0.029456371441483498, -0.09326171875, 0.017578125, -0.619384765625, 
154, 3129809360, 0.9651516675949097, -0.17440517246723175, 0.006729550659656525, -0.19502770900726318, 0.5286022424697876, -3.286166191101074, 9.12259292602539, -0.16339319944381714, -1.0682928562164307, -0.04246839880943298, -0.09375, 0.0166015625, -0.620361328125, 
155, 3129817693, 0.9651530981063843, -0.1744038462638855, 0.006714567542076111, -0.195022314786911, 0.5188314914703369, -3.2749147415161133, 9.138544082641602, -0.4263745844364166, -0.8998537659645081, -0.09779515117406845, -0.09423828125, 0.01708984375, -0.617919921875, 
156, 3129826026, 0.9651498198509216, -0.17442022264003754, 0.006707232445478439, -0.19502398371696472, 0.5610189437866211, -3.3059940338134766, 9.14473819732666, -0.6967583894729614, -0.8305415511131287, -0.17773717641830444, -0.091796875, 0.017578125, -0.617431640625, 
157, 3129834359, 0.9651445150375366, -0.1744505912065506, 0.006696909666061401, -0.19502326846122742, 0.5598673224449158, -3.299642324447632, 9.14670467376709, -0.8738296031951904, -0.9123533964157104, -0.1695149838924408, -0.09375, 0.01611328125, -0.621826171875, 
158, 3129842692, 0.9651384353637695, -0.17447835206985474, 0.006696432828903198, -0.19502827525138855, 0.5107129812240601, -3.3140480518341064, 9.095998764038086, -0.8727537989616394, -0.7618954181671143, -0.21498025953769684, -0.09228515625, 0.0185546875, -0.619873046875, 
159, 3129851025, 0.9651305675506592, -0.1745099574327469, 0.006687454879283905, -0.19503933191299438, 0.48709431290626526, -3.3277242183685303, 9.115132331848145, -0.8977532386779785, -0.8705765604972839, -0.32476285099983215, -0.0927734375, 0.0166015625, -0.619873046875, 
160, 3129859358, 0.9651279449462891, -0.17450958490371704, 0.006668459624052048, -0.1950531303882599, 0.5041396021842957, -3.3490543365478516, 9.125319480895996, -0.44041115045547485, -0.910816490650177, -0.36379894614219666, -0.095458984375, 0.017578125, -0.623291015625, 
161, 3129867691, 0.965128481388092, -0.17449748516082764, 0.00664520263671875, -0.19506222009658813, 0.4995545446872711, -3.3568434715270996, 9.121455192565918, -0.26011258363723755, -0.9523885846138, -0.29453811049461365, -0.095703125, 0.01611328125, -0.621337890625, 
162, 3129876024, 0.965135931968689, -0.17446668446063995, 0.006596934050321579, -0.1950543224811554, 0.4959280490875244, -3.3606417179107666, 9.10859489440918, 0.06409961730241776, -1.2717723846435547, -0.11687774211168289, -0.09375, 0.01806640625, -0.621337890625, 
163, 3129884357, 0.9651454091072083, -0.17442426085472107, 0.006537053734064102, -0.19504773616790771, 0.5117930769920349, -3.3453845977783203, 9.133965492248535, 0.2610474228858948, -1.3840138912200928, -0.1788385808467865, -0.0927734375, 0.01513671875, -0.619384765625, 
164, 3129892690, 0.9651607871055603, -0.17436152696609497, 0.006462663412094116, -0.19503018260002136, 0.5366420149803162, -3.3236758708953857, 9.135160446166992, 0.5747194290161133, -1.5556806325912476, -0.027560915797948837, -0.09375, 0.01708984375, -0.621337890625, 
165, 3129901023, 0.9651769399642944, -0.1742989867925644, 0.006399482488632202, -0.19500845670700073, 0.5830139517784119, -3.3248846530914307, 9.177826881408691, 0.5523582100868225, -1.4221534729003906, 0.060385555028915405, -0.09228515625, 0.0166015625, -0.619384765625, 
166, 3129909356, 0.9651955366134644, -0.1742233783006668, 0.006360560655593872, -0.1949853003025055, 0.6067613363265991, -3.3323092460632324, 9.129924774169922, 0.6596049070358276, -1.0642714500427246, 0.1426328718662262, -0.09814453125, 0.017333984375, -0.614990234375, 
167, 3129917689, 0.9652208685874939, -0.174128457903862, 0.006319083273410797, -0.19494590163230896, 0.5561047196388245, -3.355119466781616, 9.156855583190918, 0.9452292323112488, -1.1049724817276, 0.4178065359592438, -0.095703125, 0.015869140625, -0.615966796875, 
168, 3129926022, 0.965256929397583, -0.17398710548877716, 0.00625276193022728, -0.19489598274230957, 0.5632954835891724, -3.3567311763763428, 9.125795364379883, 1.6453688144683838, -1.3164180517196655, 0.48437798023223877, -0.09326171875, 0.01708984375, -0.619873046875, 
169, 3129934355, 0.9653096199035645, -0.17377892136573792, 0.006153032183647156, -0.19482412934303284, 0.5679010152816772, -3.3965003490448, 9.14091682434082, 2.666172981262207, -1.6447925567626953, 0.7626254558563232, -0.0947265625, 0.01708984375, -0.617431640625, 
170, 3129942688, 0.96538907289505, -0.1734631508588791, 0.0059913210570812225, -0.19471672177314758, 0.5460373759269714, -3.44389271736145, 9.137977600097656, 4.3146538734436035, -2.2578437328338623, 1.1511164903640747, -0.0947265625, 0.01513671875, -0.619873046875, 
171, 3129951021, 0.9655237197875977, -0.1729966402053833, 0.00572122260928154, -0.19447150826454163, 0.5774495005607605, -3.317643404006958, 9.145964622497559, 6.731689929962158, -3.616243362426758, 2.8499293327331543, -0.09423828125, 0.013671875, -0.620849609375, 
172, 3129959354, 0.9657347202301025, -0.17231380939483643, 0.005308333784341812, -0.19404146075248718, 0.6266834735870361, -3.1908416748046875, 9.212182998657227, 10.146504402160645, -5.389312744140625, 5.216839790344238, -0.09423828125, 0.015625, -0.621826171875, 
173, 3129967687, 0.9659931659698486, -0.17133736610412598, 0.0047194138169288635, -0.19363510608673096, 0.5038919448852539, -3.2316181659698486, 9.258069038391113, 14.631891250610352, -6.867381572723389, 4.56633996963501, -0.0947265625, 0.014404296875, -0.618896484375, 
174, 3129976020, 0.9662343859672546, -0.17034876346588135, 0.004120495170354843, -0.19331711530685425, 0.5197852253913879, -3.228414535522461, 9.206071853637695, 14.784221649169922, -6.782881259918213, 3.3903391361236572, -0.09619140625, 0.013427734375, -0.62060546875, 
175, 3129984353, 0.966454267501831, -0.16945679485797882, 0.00359918549656868, -0.19301143288612366, 0.5253859162330627, -3.1520543098449707, 9.157605171203613, 13.251693725585938, -5.978517532348633, 3.3496642112731934, -0.09814453125, 0.012451171875, -0.6181640625, 
176, 3129992686, 0.9666315913200378, -0.1686953902244568, 0.0031411759555339813, -0.19279849529266357, 0.5468561053276062, -3.1045632362365723, 9.179327011108398, 11.245585441589355, -5.265646934509277, 2.142362117767334, -0.09423828125, 0.011962890625, -0.620361328125, 
177, 3130001019, 0.9667788743972778, -0.16807390749454498, 0.0027526430785655975, -0.19260931015014648, 0.5811434388160706, -3.0973873138427734, 9.131280899047852, 9.139479637145996, -4.653517723083496, 1.8936477899551392, -0.097412109375, 0.007568359375, -0.62158203125, 
178, 3130009352, 0.9669033288955688, -0.16754260659217834, 0.0024088844656944275, -0.1924515664577484, 0.5876137018203735, -3.215873956680298, 9.137201309204102, 7.763099193572998, -4.2270917892456055, 1.5251356363296509, -0.09912109375, 0.0078125, -0.62109375, 
179, 3130017685, 0.9670068621635437, -0.16708536446094513, 0.0021045245230197906, -0.19233277440071106, 0.5506242513656616, -3.2239725589752197, 9.159735679626465, 6.629976749420166, -3.7820191383361816, 0.9626728296279907, -0.099609375, 0.00927734375, -0.62060546875, 
180, 3130026018, 0.967094898223877, -0.16666263341903687, 0.0018432140350341797, -0.19225922226905823, 0.6121974587440491, -3.2014400959014893, 9.191061019897461, 6.022176265716553, -3.222322463989258, 0.4949054718017578, -0.098388671875, 0.00634765625, -0.619140625, 
181, 3130034351, 0.9671915173530579, -0.16615477204322815, 0.00159449502825737, -0.1922149360179901, 0.6405404210090637, -3.3274240493774414, 9.227703094482422, 7.148076057434082, -2.76564621925354, 0.16363655030727386, -0.10302734375, 0.008544921875, -0.61474609375, 
182, 3130042684, 0.9673357009887695, -0.16535790264606476, 0.0012446902692317963, -0.19218000769615173, 0.6524446606636047, -3.554377317428589, 9.192306518554688, 11.35905647277832, -3.3242413997650146, -0.06441980600357056, -0.100341796875, 0.00634765625, -0.61669921875, 
183, 3130051017, 0.9675297141075134, -0.16426627337932587, 0.0007699616253376007, -0.19214123487472534, 0.6034300327301025, -3.5853922367095947, 9.17078685760498, 15.733149528503418, -4.217769145965576, -0.15962794423103333, -0.100341796875, 0.00439453125, -0.619873046875, 
184, 3130059350, 0.9677689075469971, -0.16292893886566162, 0.0001801326870918274, -0.19207635521888733, 0.5584076642990112, -3.4010872840881348, 9.197569847106934, 19.39934539794922, -5.155430316925049, 0.04832126945257187, -0.101318359375, 0.005859375, -0.618896484375, 
185, 3130067683, 0.9680435657501221, -0.16139519214630127, -0.0004843808710575104, -0.19198718667030334, 0.568936288356781, -3.3587372303009033, 9.189098358154297, 22.300416946411133, -5.697428226470947, 0.32336705923080444, -0.098876953125, 0.0029296875, -0.618896484375, 
186, 3130076016, 0.9683436751365662, -0.15977558493614197, -0.0011984780430793762, -0.19182562828063965, 0.6388804912567139, -3.1209492683410645, 9.237336158752441, 23.620573043823242, -6.280229091644287, 1.2192765474319458, -0.099365234375, 0.00048828125, -0.619873046875, 
187, 3130084349, 0.9687142372131348, -0.15789130330085754, -0.0020313598215579987, -0.19150763750076294, 0.7823778390884399, -2.6938421726226807, 9.392143249511719, 27.624244689941406, -7.5021586418151855, 3.2060463428497314, -0.103759765625, -0.00146484375, -0.615966796875, 
188, 3130092682, 0.9691644906997681, -0.1555277705192566, -0.0030949488282203674, -0.19114908576011658, 0.8549069762229919, -2.420184373855591, 9.672870635986328, 34.78321075439453, -9.402944564819336, 3.458399534225464, -0.103515625, -0.004638671875, -0.6201171875, 
189, 3130101015, 0.9697147607803345, -0.15258684754371643, -0.004331570118665695, -0.19070357084274292, 1.0677449703216553, -1.9770809412002563, 9.9879732131958, 43.155517578125, -10.370247840881348, 4.470857620239258, -0.10400390625, -0.004150390625, -0.61962890625, 
190, 3130109348, 0.9703385829925537, -0.14901304244995117, -0.005791608244180679, -0.19031685590744019, 1.162986159324646, -1.8267040252685547, 10.198315620422363, 52.325653076171875, -11.565420150756836, 3.3877861499786377, -0.1044921875, -0.009765625, -0.6201171875, 
191, 3130117681, 0.9709399938583374, -0.14535698294639587, -0.007191445678472519, -0.1900290846824646, 1.079872727394104, -2.152175188064575, 9.767976760864258, 53.22296905517578, -10.366721153259277, 2.1984879970550537, -0.104736328125, -0.013916015625, -0.619140625, 
192, 3130126014, 0.9715670347213745, -0.14165948331356049, -0.0084153413772583, -0.1895657181739807, 1.0478028059005737, -1.912750482559204, 9.527180671691895, 53.37422180175781, -8.236815452575684, 4.883712291717529, -0.107177734375, -0.0185546875, -0.614013671875, 
193, 3130134347, 0.9722524881362915, -0.13768982887268066, -0.009588044136762619, -0.18891960382461548, 0.7020277976989746, -2.331106424331665, 9.643730163574219, 57.01301193237305, -7.193164348602295, 7.553596019744873, -0.1083984375, -0.02197265625, -0.614990234375, 
194, 3130142680, 0.9729741811752319, -0.1336638480424881, -0.010313227772712708, -0.1880550980567932, 0.5896457433700562, -3.2433643341064453, 9.098363876342773, 56.700435638427734, -1.4716700315475464, 11.400633811950684, -0.10791015625, -0.025146484375, -0.614501953125, 
195, 3130151013, 0.9737807512283325, -0.1294369101524353, -0.011106176301836967, -0.18678787350654602, 0.2560189664363861, -5.131403923034668, 8.658027648925781, 59.77889633178711, -2.5827691555023193, 16.843481063842773, -0.104248046875, -0.031982421875, -0.615234375, 
196, 3130159346, 0.9746795296669006, -0.12485084682703018, -0.012158690020442009, -0.18514946103096008, 0.21337756514549255, -5.4504618644714355, 8.584752082824707, 65.47314453125, -5.786484241485596, 21.54579734802246, -0.108154296875, -0.03369140625, -0.61474609375, 
197, 3130167679, 0.9757298231124878, -0.1194961741566658, -0.013571342453360558, -0.18304023146629333, 0.5858443975448608, -3.8145406246185303, 9.343964576721191, 77.04203033447266, -9.440925598144531, 27.495086669921875, -0.10595703125, -0.0380859375, -0.615234375, 
198, 3130176012, 0.9768130779266357, -0.11357951164245605, -0.014863835647702217, -0.18091779947280884, 1.11398184299469, -1.3214749097824097, 10.105155944824219, 84.32511901855469, -6.428500652313232, 27.847286224365234, -0.108642578125, -0.047119140625, -0.614501953125, 
199, 3130184345, 0.9779403209686279, -0.107588991522789, -0.01567510887980461, -0.1784031093120575, 1.2477267980575562, -0.09620082378387451, 10.136504173278809, 84.28172302246094, -0.38501036167144775, 33.96263122558594, -0.110595703125, -0.05224609375, -0.61376953125, 
200, 3130192678, 0.979102611541748, -0.1016954556107521, -0.01604526862502098, -0.17542779445648193, 0.43670129776000977, -1.729921579360962, 9.493757247924805, 82.03463745117188, 4.636530876159668, 40.916725158691406, -0.109375, -0.05859375, -0.6142578125, 
201, 3130201011, 0.9803526401519775, -0.09599970281124115, -0.0165261160582304, -0.17156749963760376, -0.4858666956424713, -4.470804214477539, 8.449138641357422, 79.9645004272461, 1.4510709047317505, 52.93195343017578, -0.107177734375, -0.06298828125, -0.61328125, 
202, 3130209344, 0.98171466588974, -0.09078040719032288, -0.017627552151679993, -0.16643467545509338, -0.9946954846382141, -5.352734565734863, 8.317059516906738, 75.4347152709961, -9.695590019226074, 69.64210510253906, -0.110107421875, -0.067138671875, -0.614990234375, 
203, 3130217677, 0.9830665588378906, -0.08586623519659042, -0.019327223300933838, -0.1607774794101715, -0.7820658087730408, -5.086922645568848, 8.911282539367676, 72.8167953491211, -19.131105422973633, 76.02649688720703, -0.111328125, -0.07080078125, -0.612060546875, 
204, 3130226010, 0.9843190908432007, -0.08104169368743896, -0.021549450233578682, -0.1552410125732422, -0.16027061641216278, -5.06041145324707, 9.327788352966309, 72.5936050415039, -26.273014068603516, 73.57899475097656, -0.11572265625, -0.074462890625, -0.6123046875, 
205, 3130234343, 0.985438346862793, -0.07662580162286758, -0.02396012842655182, -0.14993858337402344, 0.15884125232696533, -2.8913540840148926, 9.488283157348633, 67.2718505859375, -29.481740951538086, 70.04054260253906, -0.12109375, -0.07958984375, -0.612548828125, 
206, 3130242676, 0.9864029288291931, -0.07329091429710388, -0.02609584853053093, -0.14481955766677856, -0.13241462409496307, -0.9299997687339783, 8.953020095825195, 51.80724334716797, -27.83472442626953, 67.87965393066406, -0.125, -0.08251953125, -0.61669921875, 
207, 3130251009, 0.9872758984565735, -0.07028459757566452, -0.028471048921346664, -0.13982674479484558, -0.15476396679878235, -2.370229959487915, 8.986620903015137, 47.71588897705078, -31.65190315246582, 65.86006164550781, -0.13037109375, -0.081787109375, -0.61376953125, 
208, 3130259342, 0.9880082607269287, -0.06739221513271332, -0.031179672107100487, -0.13543185591697693, 0.8309183716773987, -0.5786683559417725, 9.81536865234375, 46.41455841064453, -35.86777114868164, 57.1960334777832, -0.136474609375, -0.0849609375, -0.616943359375, 
209, 3130267675, 0.9886429309844971, -0.06473828852176666, -0.03343750163912773, -0.13149940967559814, 1.471232295036316, 0.5189170837402344, 10.157095909118652, 42.07240676879883, -29.809547424316406, 51.25468444824219, -0.137451171875, -0.0869140625, -0.618408203125, 
210, 3130276008, 0.9891777038574219, -0.062359631061553955, -0.03525218740105629, -0.12810993194580078, 1.0307985544204712, 0.704326868057251, 9.81716251373291, 37.163909912109375, -23.834102630615234, 44.20989990234375, -0.147216796875, -0.08837890625, -0.618896484375, 
211, 3130284341, 0.9895793199539185, -0.0604383610188961, -0.03679754585027695, -0.12546628713607788, 0.9957964420318604, 1.4486281871795654, 9.581461906433105, 30.013914108276367, -20.412565231323242, 34.282432556152344, -0.148681640625, -0.08935546875, -0.621337890625, 
212, 3130292674, 0.9898686408996582, -0.05886418744921684, -0.03810122236609459, -0.12352851033210754, 1.2926229238510132, 1.6957275867462158, 9.539596557617188, 24.39954948425293, -17.18210220336914, 24.859785079956055, -0.151123046875, -0.08935546875, -0.619873046875, 
213, 3130301007, 0.9900467991828918, -0.057500410825014114, -0.03923090174794197, -0.12238508462905884, 1.436384677886963, 1.6591678857803345, 9.763423919677734, 20.75065803527832, -14.594720840454102, 14.110316276550293, -0.1552734375, -0.08984375, -0.6220703125, 
214, 3130309340, 0.9901427626609802, -0.05613726004958153, -0.04023076221346855, -0.12191593647003174, 1.5517053604125977, 1.6104775667190552, 9.871463775634766, 20.0795841217041, -12.331236839294434, 4.8942036628723145, -0.158935546875, -0.092041015625, -0.61962890625, 
215, 3130317673, 0.9901629090309143, -0.05505396053195, -0.04096083715558052, -0.12200289964675903, 1.6221122741699219, 1.201499581336975, 9.879770278930664, 15.4583101272583, -8.747648239135742, -2.4396796226501465, -0.1591796875, -0.091552734375, -0.62060546875, 
216, 3130326006, 0.990135908126831, -0.05445319786667824, -0.04148019850254059, -0.12231579422950745, 1.401808261871338, 0.2023053616285324, 9.327192306518555, 8.363624572753906, -6.536035537719727, -5.16498327255249, -0.162841796875, -0.09375, -0.6171875, 
217, 3130334339, 0.9900747537612915, -0.05440729856491089, -0.04195278882980347, -0.12266916036605835, 1.3195611238479614, -0.21881479024887085, 9.0247163772583, 0.6851679682731628, -6.826629638671875, -5.423378944396973, -0.160888671875, -0.09619140625, -0.618408203125, 
218, 3130342672, 0.9900169968605042, -0.054924651980400085, -0.042307838797569275, -0.12278380990028381, 1.441089153289795, -0.8348914384841919, 9.322646141052246, -7.044325828552246, -6.34766960144043, -1.7531923055648804, -0.163818359375, -0.095947265625, -0.611328125, 
219, 3130351005, 0.9899728298187256, -0.05587632209062576, -0.042536526918411255, -0.1226310133934021, 1.5809969902038574, -1.7354803085327148, 9.527718544006348, -13.002349853515625, -5.56036376953125, 2.258676052093506, -0.160888671875, -0.0947265625, -0.6171875, 
220, 3130359338, 0.9899491667747498, -0.05691440403461456, -0.042698442935943604, -0.12228760123252869, 1.4371968507766724, -2.1927578449249268, 9.529054641723633, -14.168079376220703, -4.926130294799805, 4.989282608032227, -0.163818359375, -0.095947265625, -0.614990234375, 
221, 3130367671, 0.9899516701698303, -0.05761845409870148, -0.04286826401948929, -0.1218767762184143, 1.5371146202087402, -1.9556822776794434, 9.696535110473633, -9.54171371459961, -4.512025356292725, 5.748974323272705, -0.16357421875, -0.093505859375, -0.61572265625, 
222, 3130376004, 0.9899806380271912, -0.05767941102385521, -0.04307274520397186, -0.12154009938240051, 1.458513617515564, -1.3591212034225464, 9.856460571289062, -0.757054328918457, -3.8288931846618652, 4.376589298248291, -0.160888671875, -0.09326171875, -0.6162109375, 
223, 3130384337, 0.9900219440460205, -0.05722193047404289, -0.043282400816679, -0.12134480476379395, 1.3145248889923096, -1.4340044260025024, 9.860278129577637, 6.243227005004883, -2.9152843952178955, 2.1612911224365234, -0.162353515625, -0.09326171875, -0.615234375, 
224, 3130392670, 0.9900716543197632, -0.056627653539180756, -0.043520487844944, -0.12113356590270996, 1.0851689577102661, -1.0782076120376587, 9.779768943786621, 8.16224479675293, -3.0794715881347656, 2.2888753414154053, -0.164306640625, -0.094482421875, -0.615966796875, 
225, 3130401003, 0.9901142716407776, -0.05608975142240524, -0.04382307827472687, -0.12092554569244385, 0.9407159090042114, -0.9037390351295471, 9.620379447937012, 7.500706195831299, -4.0550665855407715, 2.2174882888793945, -0.162109375, -0.09228515625, -0.6181640625, 
226, 3130409336, 0.9901404976844788, -0.05570129305124283, -0.04415247589349747, -0.12077149748802185, 0.8920183181762695, -0.8107078075408936, 9.578238487243652, 5.4596099853515625, -4.635382175445557, 1.523521900177002, -0.162841796875, -0.095947265625, -0.616455078125, 
227, 3130417669, 0.990138053894043, -0.0555923655629158, -0.044508807361125946, -0.12071093916893005, 0.8747962117195129, -0.39099031686782837, 9.701888084411621, 1.6256457567214966, -5.413414478302002, 0.35197800397872925, -0.1650390625, -0.094482421875, -0.615966796875, 
228, 3130426002, 0.9901106357574463, -0.05593923106789589, -0.044813379645347595, -0.12066346406936646, 0.8624212741851807, -0.09722887724637985, 9.56898021697998, -4.700955390930176, -5.469715118408203, 0.45118197798728943, -0.16455078125, -0.09326171875, -0.618896484375, 
229, 3130434335, 0.9900561571121216, -0.05668485909700394, -0.04501498490571976, -0.12068650126457214, 0.8239407539367676, -0.3624204993247986, 9.325496673583984, -10.358601570129395, -4.693603992462158, -0.22765932977199554, -0.1669921875, -0.094482421875, -0.615478515625, 
230, 3130442668, 0.9899840354919434, -0.05755113065242767, -0.04516817629337311, -0.12081104516983032, 0.8850544691085815, -0.4810006022453308, 9.371806144714355, -12.164586067199707, -4.164926052093506, -1.5270695686340332, -0.16748046875, -0.091064453125, -0.617919921875, 
231, 3130451001, 0.9899008870124817, -0.05836902931332588, -0.04525131732225418, -0.12106907367706299, 0.9894595742225647, -0.7884127497673035, 9.590320587158203, -11.709933280944824, -3.032290458679199, -3.3378684520721436, -0.1650390625, -0.092041015625, -0.61669921875, 
232, 3130459334, 0.9898239374160767, -0.0589897446334362, -0.04528065770864487, -0.12138599157333374, 1.0024503469467163, -1.3357211351394653, 9.713502883911133, -9.150404930114746, -1.9197105169296265, -4.208009719848633, -0.16552734375, -0.092041015625, -0.61572265625, 
233, 3130467667, 0.989758312702179, -0.05939849466085434, -0.04528158903121948, -0.12172043323516846, 0.9811604619026184, -1.755711317062378, 9.670068740844727, -6.310297966003418, -1.1606322526931763, -4.537408828735352, -0.16748046875, -0.089111328125, -0.61376953125, 
234, 3130476000, 0.9897085428237915, -0.059606652706861496, -0.045309022068977356, -0.12201374769210815, 0.925711989402771, -1.9054033756256104, 9.569092750549316, -3.502157688140869, -1.206865906715393, -4.0969462394714355, -0.166748046875, -0.087890625, -0.61669921875, 
235, 3130484333, 0.9896689057350159, -0.059700388461351395, -0.04542798548936844, -0.12224435806274414, 0.909446656703949, -1.629831075668335, 9.539796829223633, -1.7375928163528442, -2.308124303817749, -3.373164415359497, -0.166015625, -0.0888671875, -0.61572265625, 
236, 3130492666, 0.9896381497383118, -0.05978136137127876, -0.04559335857629776, -0.12239298224449158, 0.9509497880935669, -1.2089776992797852, 9.616228103637695, -1.4328346252441406, -2.9769885540008545, -2.287914752960205, -0.16796875, -0.090087890625, -0.615478515625, 
237, 3130500999, 0.989609956741333, -0.05988842993974686, -0.04579714685678482, -0.12249207496643066, 0.9672959446907043, -0.9209102392196655, 9.702524185180664, -1.6822916269302368, -3.585096836090088, -1.6240962743759155, -0.16455078125, -0.0908203125, -0.61669921875, 
238, 3130509332, 0.9895758628845215, -0.060114435851573944, -0.04600398242473602, -0.1225787103176117, 0.9775921702384949, -0.582549512386322, 9.687989234924316, -3.30070161819458, -3.839599847793579, -1.393209457397461, -0.1669921875, -0.0888671875, -0.619384765625, 
239, 3130517665, 0.9895331263542175, -0.06047608703374863, -0.04616856947541237, -0.12268456816673279, 0.9861457943916321, -0.5964584946632385, 9.652141571044922, -5.232168674468994, -3.4852776527404785, -1.5480986833572388, -0.1650390625, -0.09130859375, -0.61767578125, 
240, 3130525998, 0.9894766211509705, -0.06092020124197006, -0.046275921165943146, -0.1228800117969513, 0.97809898853302, -0.6410968899726868, 9.637344360351562, -6.523894786834717, -2.7764551639556885, -2.6905195713043213, -0.169189453125, -0.089111328125, -0.617919921875, 
241, 3130534331, 0.9894083738327026, -0.06129860132932663, -0.04634448140859604, -0.12321490049362183, 0.9630528688430786, -0.787420392036438, 9.619213104248047, -5.789151191711426, -2.0321314334869385, -4.617530345916748, -0.168212890625, -0.08740234375, -0.61767578125, 
242, 3130542664, 0.9893326163291931, -0.06155884638428688, -0.04638860374689102, -0.12367618083953857, 0.9939252138137817, -0.9999071359634399, 9.593484878540039, -4.3154616355896, -1.3939012289047241, -6.405148029327393, -0.16845703125, -0.089111328125, -0.615966796875, 
243, 3130550997, 0.9892579317092896, -0.06167541816830635, -0.046409644186496735, -0.12420579791069031, 1.013536810874939, -1.284599781036377, 9.543479919433594, -2.4371178150177, -0.7802609801292419, -7.4047441482543945, -0.1669921875, -0.0888671875, -0.6171875, 
244, 3130559330, 0.9891870617866516, -0.06165146455168724, -0.04644501954317093, -0.12476789951324463, 0.9595918655395508, -1.6127302646636963, 9.500041007995605, -0.5247589349746704, -0.702086329460144, -7.941413402557373, -0.169189453125, -0.088134765625, -0.61376953125, 
245, 3130567663, 0.9891176819801331, -0.06153830885887146, -0.046491533517837524, -0.1253540813922882, 1.0535204410552979, -1.6014071702957153, 9.53282356262207, 0.7022526264190674, -0.6822607517242432, -8.3331298828125, -0.166015625, -0.08837890625, -0.6181640625, 
246, 3130575996, 0.9890521764755249, -0.061419982463121414, -0.046546854078769684, -0.12590768933296204, 1.095403790473938, -1.1473500728607178, 9.620890617370605, 0.8043511509895325, -0.81545490026474, -7.894872188568115, -0.168701171875, -0.088623046875, -0.61474609375, 
247, 3130584329, 0.9889904856681824, -0.06145835667848587, -0.046572305262088776, -0.12636259198188782, 1.1752749681472778, -0.5114120841026306, 9.597159385681152, -1.3069149255752563, -0.7632017135620117, -6.4187726974487305, -0.16748046875, -0.090576171875, -0.617919921875, 
248, 3130592662, 0.9889284372329712, -0.06167802959680557, -0.04654359072446823, -0.12675148248672485, 1.1094521284103394, -0.5961873531341553, 9.559320449829102, -3.8301219940185547, -0.39717432856559753, -5.36044454574585, -0.1689453125, -0.09033203125, -0.619873046875, 
249, 3130600995, 0.9888590574264526, -0.06204536184668541, -0.04651176556944847, -0.1271255612373352, 1.0621544122695923, -1.0063073635101318, 9.49211311340332, -5.835025787353516, -0.6302383542060852, -5.076050758361816, -0.1689453125, -0.089599609375, -0.616455078125, 
250, 3130609328, 0.988781213760376, -0.06239901855587959, -0.046417541801929474, -0.12758994102478027, 1.0834368467330933, -1.0818065404891968, 9.458216667175293, -5.828596591949463, 0.315324068069458, -6.271748065948486, -0.169921875, -0.090087890625, -0.617919921875, 
251, 3130617661, 0.9886971712112427, -0.06269369274377823, -0.04619823396205902, -0.12817540764808655, 1.150850534439087, -1.0703699588775635, 9.502631187438965, -5.322587013244629, 2.217667579650879, -7.8613409996032715, -0.166748046875, -0.08740234375, -0.61767578125, 
252, 3130625994, 0.988591730594635, -0.06305967271327972, -0.04590306431055069, -0.1289135217666626, 1.0714718103408813, -1.0154328346252441, 9.516311645507812, -6.546537399291992, 3.2438507080078125, -9.862735748291016, -0.1689453125, -0.089599609375, -0.617431640625, 
253, 3130634327, 0.9884529113769531, -0.06348714232444763, -0.0455910786986351, -0.12987565994262695, 0.9793920516967773, -0.9847431778907776, 9.362502098083496, -7.57861328125, 3.535315752029419, -12.91539192199707, -0.167236328125, -0.08837890625, -0.620361328125, 
254, 3130642660, 0.9882846474647522, -0.06388222426176071, -0.045305877923965454, -0.1310565173625946, 1.0356425046920776, -0.9430797696113586, 9.495686531066895, -7.258461952209473, 3.4019172191619873, -15.982954978942871, -0.165771484375, -0.087890625, -0.61962890625, 
255, 3130650993, 0.9880876541137695, -0.06432319432497025, -0.0450555756688118, -0.13240563869476318, 1.1748539209365845, -0.7930142283439636, 9.691937446594238, -7.9434638023376465, 2.9738521575927734, -18.324634552001953, -0.168701171875, -0.089111328125, -0.618408203125, 
256, 3130659326, 0.987875759601593, -0.064907506108284, -0.044764451682567596, -0.13379374146461487, 1.3546868562698364, -0.44905176758766174, 9.700486183166504, -10.008767127990723, 3.294978380203247, -18.755674362182617, -0.16552734375, -0.08837890625, -0.619140625, 
257, 3130667659, 0.9876586198806763, -0.06578534096479416, -0.044399648904800415, -0.13508284091949463, 1.3243505954742432, -0.16103088855743408, 9.677788734436035, -14.07082748413086, 3.662670135498047, -17.174299240112305, -0.1669921875, -0.0908203125, -0.618408203125, 
258, 3130675992, 0.9874451756477356, -0.0669465884566307, -0.043977029621601105, -0.13620677590370178, 1.26790452003479, -0.21959275007247925, 9.755778312683105, -17.927026748657227, 3.7756035327911377, -14.699043273925781, -0.164306640625, -0.086669921875, -0.62060546875, 
259, 3130684325, 0.9872181415557861, -0.06843439489603043, -0.04349730163812637, -0.1372629702091217, 1.1258034706115723, -0.6424478888511658, 9.883044242858887, -22.439929962158203, 3.8687891960144043, -13.55413818359375, -0.164794921875, -0.0869140625, -0.6181640625, 
260, 3130692658, 0.9869725704193115, -0.07013709098100662, -0.042995765805244446, -0.13832354545593262, 1.0012108087539673, -1.5907809734344482, 9.712982177734375, -25.41714859008789, 3.7509384155273438, -13.499966621398926, -0.16064453125, -0.085693359375, -0.619140625, 
261, 3130700991, 0.986728847026825, -0.07174337655305862, -0.04256412014365196, -0.13936778903007507, 0.8216021060943604, -2.1506290435791016, 9.55705451965332, -23.96482276916504, 2.9722137451171875, -13.398917198181152, -0.163818359375, -0.084228515625, -0.6201171875, 
262, 3130709324, 0.9864842891693115, -0.07320445775985718, -0.042268138378858566, -0.14042618870735168, 0.7255845665931702, -2.0737478733062744, 9.64175033569336, -21.74393653869629, 1.4244468212127686, -13.811408996582031, -0.162353515625, -0.080322265625, -0.619384765625, 
263, 3130717657, 0.9862263202667236, -0.07464725524187088, -0.042068127542734146, -0.14153268933296204, 0.8350011706352234, -1.7247519493103027, 9.626834869384766, -21.35103988647461, 0.19601304829120636, -14.597381591796875, -0.159912109375, -0.08154296875, -0.620849609375, 
264, 3130725990, 0.9859359264373779, -0.07614406943321228, -0.04188012331724167, -0.1428094208240509, 0.8459144830703735, -1.7023800611495972, 9.449162483215332, -22.192625045776367, 0.08530827611684799, -16.950695037841797, -0.160400390625, -0.080078125, -0.621826171875, 
265, 3130734323, 0.985602617263794, -0.07784610986709595, -0.04164942353963852, -0.1442522406578064, 0.9187832474708557, -1.9202451705932617, 9.600292205810547, -25.196819305419922, 0.40912365913391113, -19.123628616333008, -0.159423828125, -0.07861328125, -0.619384765625, 
266, 3130742656, 0.9852206707000732, -0.07989915460348129, -0.04134181886911392, -0.14581847190856934, 1.0378546714782715, -1.7841887474060059, 9.559946060180664, -30.23293113708496, 0.8606777787208557, -20.608755111694336, -0.1611328125, -0.076171875, -0.618896484375, 
267, 3130750989, 0.9847669005393982, -0.08245095610618591, -0.040798310190439224, -0.1476064920425415, 1.1300411224365234, -1.1481146812438965, 9.696173667907715, -37.6623420715332, 3.2581751346588135, -23.214351654052734, -0.162109375, -0.0751953125, -0.620849609375, 
268, 3130759322, 0.984225332736969, -0.08569245785474777, -0.039963215589523315, -0.1495875120162964, 1.0852746963500977, -0.7487537860870361, 9.657859802246094, -47.807899475097656, 5.977520942687988, -25.288799285888672, -0.1591796875, -0.071044921875, -0.623291015625, 
269, 3130767655, 0.9835203886032104, -0.09004013240337372, -0.038858458399772644, -0.15194201469421387, 1.024365782737732, -0.3735910654067993, 9.499824523925781, -63.72975158691406, 7.700300693511963, -29.756649017333984, -0.157958984375, -0.06689453125, -0.62353515625, 
270, 3130775988, 0.9826457500457764, -0.09542437642812729, -0.03724968433380127, -0.1546928882598877, 1.0311287641525269, -0.9832863807678223, 9.69234561920166, -79.22492980957031, 12.75322151184082, -34.29159164428711, -0.157958984375, -0.06298828125, -0.623046875, 
271, 3130784321, 0.9816331267356873, -0.10128721594810486, -0.03524625301361084, -0.15783217549324036, 0.9005398154258728, -1.8781623840332031, 9.56087875366211, -86.9124526977539, 17.506616592407227, -39.073020935058594, -0.1552734375, -0.056396484375, -0.626220703125, 
272, 3130792654, 0.9805560111999512, -0.10675109922885895, -0.03300618752837181, -0.16137197613716125, 0.6271297931671143, -2.8300952911376953, 9.285873413085938, -82.32463073730469, 22.09474754333496, -44.48160171508789, -0.15478515625, -0.051513671875, -0.622314453125, 
273, 3130800987, 0.9794497489929199, -0.11174516379833221, -0.03066498599946499, -0.1651260256767273, 0.4487294852733612, -3.521897554397583, 9.438080787658691, -76.35240936279297, 24.80051612854004, -47.49850082397461, -0.150146484375, -0.042724609375, -0.626953125, 
274, 3130809320, 0.9783390760421753, -0.1162647008895874, -0.028341278433799744, -0.16896158456802368, 0.4902114272117615, -3.1349937915802, 9.330927848815918, -69.9636459350586, 25.76531982421875, -48.83426284790039, -0.14892578125, -0.03955078125, -0.629150390625, 
275, 3130817653, 0.9771947860717773, -0.12033015489578247, -0.02608741819858551, -0.17305079102516174, 0.37927404046058655, -2.0866475105285645, 8.47885513305664, -63.84043884277344, 26.271963119506836, -52.613853454589844, -0.146484375, -0.0361328125, -0.626708984375, 
276, 3130825986, 0.9759824275970459, -0.12430519610643387, -0.023082822561264038, -0.17745399475097656, 0.48897799849510193, -2.8372061252593994, 8.986159324645996, -64.64237213134766, 37.0735969543457, -55.78626251220703, -0.145263671875, -0.029296875, -0.630859375, 
277, 3130834319, 0.9744648933410645, -0.12996524572372437, -0.02014324627816677, -0.1820363700389862, 0.46226510405540466, -2.4645581245422363, 9.255404472351074, -87.6710433959961, 32.293636322021484, -58.50963592529297, -0.143310546875, -0.0244140625, -0.6298828125, 
278, 3130842652, 0.9728012084960938, -0.1360325813293457, -0.017197366803884506, -0.18674376606941223, 0.03009902685880661, -1.417832612991333, 8.408278465270996, -93.44719696044922, 31.546083450317383, -60.427921295166016, -0.138427734375, -0.021484375, -0.635498046875, 
279, 3130850985, 0.971041202545166, -0.1423216462135315, -0.014151079580187798, -0.19141435623168945, 0.1768030822277069, -1.9154139757156372, 8.35710620880127, -96.83641052246094, 32.22385787963867, -59.943443298339844, -0.13623046875, -0.012939453125, -0.63623046875, 
280, 3130859318, 0.9694050550460815, -0.14787469804286957, -0.011407475918531418, -0.19563445448875427, 0.30451321601867676, -3.885195732116699, 8.63019847869873, -85.88687133789062, 29.265920639038086, -54.336524963378906, -0.132568359375, -0.0078125, -0.63623046875, 
281, 3130867651, 0.9681056141853333, -0.15130271017551422, -0.009400781244039536, -0.1995154619216919, 0.7642630338668823, -5.92763614654541, 9.036883354187012, -54.831607818603516, 24.515682220458984, -50.74232482910156, -0.132568359375, -0.00341796875, -0.636474609375, 
282, 3130875984, 0.9670014381408691, -0.1535068303346634, -0.008130155503749847, -0.20320889353752136, 1.4024566411972046, -4.444671630859375, 9.806160926818848, -36.09537887573242, 17.717544555664062, -49.39866256713867, -0.132080078125, -0.002197265625, -0.637939453125, 
283, 3130884317, 0.9658837914466858, -0.1552668660879135, -0.00719534233212471, -0.20718303322792053, 1.8753435611724854, -1.5602726936340332, 10.41904067993164, -29.296716690063477, 15.076655387878418, -53.92991256713867, -0.12939453125, 0.00146484375, -0.641845703125, 
284, 3130892650, 0.9647048711776733, -0.15689058601856232, -0.006390973925590515, -0.2114354968070984, 1.531545639038086, -0.6342900395393372, 10.540970802307129, -27.288280487060547, 14.327696800231934, -58.091094970703125, -0.13037109375, 0.00146484375, -0.642333984375, 
285, 3130900983, 0.9634186029434204, -0.15849976241588593, -0.005648549646139145, -0.21607065200805664, 1.065855860710144, -1.1863809823989868, 9.864178657531738, -27.170215606689453, 14.360107421875, -63.613590240478516, -0.128662109375, 0.00146484375, -0.639404296875, 
286, 3130909316, 0.9620486497879028, -0.16001905500888824, -0.005053609609603882, -0.22101309895515442, 0.8584305644035339, -2.130371332168579, 10.145365715026855, -25.757951736450195, 13.339356422424316, -68.26323699951172, -0.1279296875, 0.00341796875, -0.642333984375, 
287, 3130917649, 0.9606017470359802, -0.16167162358760834, -0.00451202318072319, -0.22605884075164795, 1.2373746633529663, -2.283395290374756, 10.912692070007324, -27.52969741821289, 12.448540687561035, -69.9718246459961, -0.1259765625, 0.006591796875, -0.6416015625, 
288, 3130925982, 0.9589210152626038, -0.1641998291015625, -0.003796059638261795, -0.23132354021072388, 0.8799118399620056, -0.6863179206848145, 10.84659481048584, -40.17533493041992, 12.504985809326172, -73.14876556396484, -0.1259765625, 0.007568359375, -0.6376953125, 
289, 3130934315, 0.95704585313797, -0.16818583011627197, -0.0025786086916923523, -0.23619097471237183, 0.12213335931301117, -0.8240683674812317, 10.371759414672852, -61.415279388427734, 13.571433067321777, -67.3202133178711, -0.1259765625, 0.008056640625, -0.6416015625, 
290, 3130942648, 0.9550228118896484, -0.17327269911766052, -0.0009265504777431488, -0.2406720519065857, 0.38559862971305847, -1.9043768644332886, 9.654467582702637, -77.64151000976562, 14.819106101989746, -61.67277145385742, -0.121826171875, 0.01416015625, -0.639892578125, 
291, 3130950981, 0.9530950784683228, -0.1788962036371231, 0.0010112598538398743, -0.24417367577552795, 0.38219818472862244, -3.920222759246826, 8.660341262817383, -85.40129089355469, 14.458502769470215, -47.80523681640625, -0.119384765625, 0.019287109375, -0.641357421875, 
292, 3130959314, 0.9515549540519714, -0.18383513391017914, 0.0028238147497177124, -0.24648743867874146, 0.12489324808120728, -6.399528503417969, 8.060273170471191, -75.06444549560547, 12.192870140075684, -31.23600196838379, -0.11767578125, 0.026611328125, -0.635009765625, 
293, 3130967647, 0.9504468441009521, -0.18751519918441772, 0.0042822398245334625, -0.24796482920646667, 0.7069372534751892, -7.117094993591309, 8.392006874084473, -56.33405303955078, 9.688882827758789, -19.67215347290039, -0.11767578125, 0.03076171875, -0.637451171875, 
294, 3130975980, 0.9496617317199707, -0.1903056502342224, 0.0055569373071193695, -0.24882012605667114, 1.299513816833496, -5.4895920753479, 8.209942817687988, -43.28181076049805, 8.703078269958496, -10.862043380737305, -0.118408203125, 0.03466796875, -0.638427734375, 
295, 3130984313, 0.949058473110199, -0.19272860884666443, 0.006800714880228043, -0.2492254674434662, 1.1176016330718994, -4.076138019561768, 8.20212173461914, -37.92945098876953, 8.361610412597656, -4.417564392089844, -0.118408203125, 0.038818359375, -0.636474609375, 
296, 3130992646, 0.9486162066459656, -0.1947595328092575, 0.007888734340667725, -0.24929839372634888, 0.9141947031021118, -3.9253296852111816, 8.572771072387695, -31.889545440673828, 6.77990198135376, 0.09709084033966064, -0.117919921875, 0.039794921875, -0.63623046875, 
297, 3131000979, 0.9482295513153076, -0.19645950198173523, 0.008916936814785004, -0.2494010031223297, 1.3022055625915527, -3.013758420944214, 9.014792442321777, -27.207487106323242, 7.204611778259277, -0.22471386194229126, -0.1181640625, 0.043701171875, -0.6376953125, 
298, 3131009312, 0.9478106498718262, -0.19805549085140228, 0.009848270565271378, -0.24969595670700073, 1.2320456504821777, -2.0999488830566406, 9.220248222351074, -25.592632293701172, 6.82411003112793, -3.0903337001800537, -0.1181640625, 0.046630859375, -0.6357421875, 
299, 3131017645, 0.9473576545715332, -0.19961881637573242, 0.010741189122200012, -0.2501329779624939, 1.0197628736495972, -2.386359214782715, 9.036191940307617, -25.100481033325195, 6.8256731033325195, -5.159274101257324, -0.11767578125, 0.0478515625, -0.63623046875, 
300, 3131025978, 0.9469304084777832, -0.20096132159233093, 0.011551272124052048, -0.25063908100128174, 1.063116431236267, -2.9746642112731934, 8.762214660644531, -21.864912033081055, 6.693835258483887, -6.166118144989014, -0.11376953125, 0.05126953125, -0.636474609375, 
301, 3131034311, 0.946585476398468, -0.20187148451805115, 0.012145165354013443, -0.2511821389198303, 0.9696542620658875, -3.6685595512390137, 8.892176628112793, -15.254302024841309, 5.4577412605285645, -6.891894340515137, -0.116943359375, 0.0517578125, -0.635986328125, 
302, 3131042644, 0.9463307857513428, -0.20236149430274963, 0.01249752938747406, -0.25172945857048035, 0.8405305743217468, -4.1078362464904785, 9.030572891235352, -8.701668739318848, 3.7619504928588867, -7.236586570739746, -0.115478515625, 0.052734375, -0.635986328125, 
303, 3131050977, 0.9461679458618164, -0.2025960087776184, 0.012628458440303802, -0.25214552879333496, 0.7327091693878174, -3.6960041522979736, 8.771916389465332, -4.37355375289917, 1.3818751573562622, -5.781132698059082, -0.112548828125, 0.052001953125, -0.638427734375, 
304, 3131059310, 0.9461038112640381, -0.2027169167995453, 0.01261390745639801, -0.2522898316383362, 0.6590502262115479, -4.383230686187744, 8.324295997619629, -2.1680400371551514, -0.8906068801879883, -2.289656400680542, -0.114501953125, 0.05419921875, -0.634521484375, 
305, 3131067643, 0.9462399482727051, -0.20232325792312622, 0.012456715106964111, -0.2521032691001892, 0.9113222360610962, -4.8408074378967285, 8.298213005065918, 5.528281211853027, -1.9178401231765747, 2.39975905418396, -0.114501953125, 0.052734375, -0.636474609375, 
306, 3131075976, 0.9464160799980164, -0.20184241235256195, 0.012290887534618378, -0.251835435628891, 1.0957965850830078, -3.6671574115753174, 8.925392150878906, 6.784071445465088, -1.959258794784546, 3.5883629322052, -0.116455078125, 0.05419921875, -0.637451171875, 
307, 3131084309, 0.9465475082397461, -0.20157524943351746, 0.012238427996635437, -0.2515580952167511, 0.8788361549377441, -3.155291795730591, 9.036171913146973, 3.490720510482788, -1.2441089153289795, 3.8343610763549805, -0.116943359375, 0.0517578125, -0.635009765625, 
308, 3131092642, 0.9466309547424316, -0.2014768421649933, 0.01227467879652977, -0.2513209879398346, 1.0176267623901367, -3.2294270992279053, 9.085858345031738, 0.8564759492874146, -0.5531650185585022, 3.3644940853118896, -0.115966796875, 0.054443359375, -0.637939453125, 
309, 3131100975, 0.9466328620910645, -0.2016455978155136, 0.0124070905148983, -0.25117212533950806, 1.0375624895095825, -3.299051284790039, 9.079752922058105, -3.161513090133667, 0.03338814526796341, 2.1533498764038086, -0.116455078125, 0.05419921875, -0.636474609375, 
310, 3131109308, 0.94661545753479, -0.20194536447525024, 0.01258854940533638, -0.2509877681732178, 0.7408328652381897, -3.709197998046875, 8.991958618164062, -5.099153518676758, 0.12531764805316925, 2.6619465351104736, -0.116455078125, 0.0517578125, -0.637451171875, 
311, 3131117641, 0.9466015100479126, -0.20231777429580688, 0.012759044766426086, -0.25073158740997314, 0.7172336578369141, -4.004727363586426, 8.8660888671875, -6.007101535797119, -0.46825382113456726, 3.5676913261413574, -0.116943359375, 0.05322265625, -0.635009765625, 
312, 3131125974, 0.9465960264205933, -0.2027069479227066, 0.01287912204861641, -0.25043153762817383, 0.6549203991889954, -3.9356131553649902, 8.828036308288574, -6.038761138916016, -1.3070178031921387, 4.024265766143799, -0.115966796875, 0.0537109375, -0.635986328125, 
313, 3131134307, 0.9466333985328674, -0.20291802287101746, 0.01288752630352974, -0.25011882185935974, 0.6223573684692383, -3.964317798614502, 9.156208992004395, -3.2142279148101807, -2.1911697387695312, 4.057333469390869, -0.116455078125, 0.0537109375, -0.637451171875, 
314, 3131142640, 0.9467002153396606, -0.20300114154815674, 0.012788325548171997, -0.24980401992797852, 0.5351162552833557, -3.6597867012023926, 9.073023796081543, -1.1015913486480713, -3.1605403423309326, 3.9065420627593994, -0.116455078125, 0.0537109375, -0.634521484375, 
315, 3131150973, 0.9467748999595642, -0.2030332386493683, 0.012651704251766205, -0.24950063228607178, 0.6195538640022278, -3.634707450866699, 8.900500297546387, -0.28060394525527954, -3.4432449340820312, 3.6877963542938232, -0.114990234375, 0.055419921875, -0.640380859375, 
316, 3131159306, 0.9468584060668945, -0.20301535725593567, 0.012468699365854263, -0.2492077350616455, 0.636203944683075, -3.9094414710998535, 8.836414337158203, 0.5510261654853821, -3.846130847930908, 3.4632105827331543, -0.114501953125, 0.054931640625, -0.637451171875, 
317, 3131167639, 0.9469465017318726, -0.20297151803970337, 0.012264017015695572, -0.24891841411590576, 0.6995334625244141, -4.024874210357666, 8.846044540405273, 0.981473445892334, -4.032398223876953, 3.376763343811035, -0.115966796875, 0.0537109375, -0.636474609375, 
318, 3131175972, 0.9470003843307495, -0.2030520886182785, 0.012112855911254883, -0.24865499138832092, 0.7961956858634949, -3.762239933013916, 8.893820762634277, -0.9159138798713684, -3.6824564933776855, 3.050412178039551, -0.115966796875, 0.0546875, -0.636474609375, 
319, 3131184305, 0.9470036625862122, -0.2032693475484848, 0.012086335569620132, -0.2484663724899292, 0.7102648615837097, -3.6576850414276123, 9.009888648986816, -3.248192548751831, -2.310532331466675, 2.2283999919891357, -0.117919921875, 0.05517578125, -0.634521484375, 
320, 3131192638, 0.9469575881958008, -0.20362381637096405, 0.012183401733636856, -0.24834707379341125, 0.7232362031936646, -3.6878550052642822, 9.014769554138184, -5.586925506591797, -0.967398464679718, 1.4802082777023315, -0.113037109375, 0.054443359375, -0.635498046875, 
321, 3131200971, 0.9468690752983093, -0.20409820973873138, 0.01237034797668457, -0.24828588962554932, 0.7331234216690063, -3.7784290313720703, 8.832587242126465, -7.562346935272217, -0.03680765628814697, 0.8085261583328247, -0.115966796875, 0.0546875, -0.636474609375, 
322, 3131209304, 0.9467724561691284, -0.2045634537935257, 0.012598343193531036, -0.24825981259346008, 0.755126416683197, -3.963785171508789, 8.844870567321777, -7.601794242858887, 0.6303279995918274, 0.4417559802532196, -0.115966796875, 0.056396484375, -0.635986328125, 
323, 3131217637, 0.9466700553894043, -0.20501458644866943, 0.012823447585105896, -0.24826666712760925, 0.7961134910583496, -4.0278544425964355, 8.906476020812988, -7.415987491607666, 0.7317090630531311, -0.01275588944554329, -0.113525390625, 0.057373046875, -0.635498046875, 
324, 3131225970, 0.9465871453285217, -0.20537897944450378, 0.01299290731549263, -0.24827271699905396, 0.6842133402824402, -4.053354740142822, 8.902337074279785, -6.046214580535889, 0.3005702495574951, -0.07717569917440414, -0.115966796875, 0.058349609375, -0.635498046875, 
325, 3131234303, 0.9465548992156982, -0.205551415681839, 0.013076674193143845, -0.24824875593185425, 0.6496992707252502, -4.104322910308838, 8.84343433380127, -3.113154172897339, -0.25455427169799805, 0.27905428409576416, -0.115478515625, 0.058837890625, -0.634521484375, 
326, 3131242636, 0.946574866771698, -0.20553180575370789, 0.013068784028291702, -0.24818924069404602, 0.6839333772659302, -3.9806573390960693, 8.875205039978027, -0.16257356107234955, -0.9009296298027039, 0.6954137086868286, -0.115966796875, 0.057861328125, -0.636474609375, 
327, 3131250969, 0.9466098546981812, -0.20543937385082245, 0.013010136783123016, -0.24813562631607056, 0.6437267661094666, -3.774984121322632, 8.918340682983398, 1.0064215660095215, -1.3007164001464844, 0.5393204689025879, -0.115966796875, 0.056884765625, -0.634521484375, 
328, 3131259302, 0.9466389417648315, -0.20535790920257568, 0.012960150837898254, -0.24809491634368896, 0.6991472244262695, -3.799511194229126, 8.883044242858887, 0.8139051795005798, -1.1872453689575195, 0.37436485290527344, -0.114501953125, 0.058349609375, -0.636474609375, 
329, 3131267635, 0.9466615319252014, -0.2052752524614334, 0.012927275151014328, -0.24807816743850708, 0.7408556938171387, -3.8563551902770996, 8.930438995361328, 0.7631120681762695, -0.8933732509613037, 0.09068720042705536, -0.116943359375, 0.057373046875, -0.635009765625, 
330, 3131275968, 0.9466891288757324, -0.20517121255397797, 0.012908615171909332, -0.2480601668357849, 0.6944909691810608, -3.7557432651519775, 8.991080284118652, 1.0010427236557007, -0.6379993557929993, 0.16435374319553375, -0.11572265625, 0.058837890625, -0.635498046875, 
331, 3131284301, 0.9467176795005798, -0.20508581399917603, 0.012916214764118195, -0.2480214536190033, 0.7448827624320984, -3.708813428878784, 8.979914665222168, 0.6728475689888, -0.41940751671791077, 0.5077638030052185, -0.114990234375, 0.058349609375, -0.635009765625, 
332, 3131292634, 0.9467465877532959, -0.20502905547618866, 0.012967858463525772, -0.2479550838470459, 0.7962830662727356, -3.7555572986602783, 9.022073745727539, 0.1430426985025406, -0.019671730697155, 0.9893625974655151, -0.115966796875, 0.057861328125, -0.636474609375, 
333, 3131300967, 0.946781575679779, -0.20498156547546387, 0.013043604791164398, -0.2478569746017456, 0.8008179664611816, -3.7787539958953857, 8.956038475036621, -0.04692528024315834, 0.17044992744922638, 1.4877387285232544, -0.114501953125, 0.057861328125, -0.635009765625, 
334, 3131309300, 0.946821928024292, -0.20491789281368256, 0.01314648985862732, -0.24775037169456482, 0.8185018301010132, -3.806906223297119, 8.945550918579102, 0.08185029029846191, 0.5542280077934265, 1.6978522539138794, -0.113525390625, 0.056884765625, -0.634521484375, 
335, 3131317633, 0.9468812942504883, -0.20479537546634674, 0.013241421431303024, -0.24761933088302612, 0.7921319603919983, -3.7531347274780273, 8.954338073730469, 0.9293228983879089, 0.5786640644073486, 2.069796562194824, -0.113037109375, 0.055419921875, -0.636962890625, 
336, 3131325966, 0.9469761848449707, -0.20455040037631989, 0.013302519917488098, -0.24745535850524902, 0.8319955468177795, -3.8225088119506836, 8.976799011230469, 2.727569818496704, 0.4564071595668793, 2.5475785732269287, -0.114990234375, 0.055908203125, -0.634521484375, 
337, 3131334299, 0.9471296668052673, -0.20413796603679657, 0.013280428946018219, -0.24720996618270874, 0.8560082316398621, -3.770674467086792, 8.956409454345703, 5.34519100189209, -0.2980472147464752, 3.600605010986328, -0.114013671875, 0.054443359375, -0.637939453125, 
338, 3131342632, 0.9473050832748413, -0.20375776290893555, 0.013176746666431427, -0.2468568980693817, 0.7819985151290894, -3.582043409347534, 8.613140106201172, 5.240403652191162, -1.7737090587615967, 4.844459056854248, -0.115966796875, 0.056396484375, -0.635009765625, 
339, 3131350965, 0.9474524855613708, -0.2034769505262375, 0.013124294579029083, -0.24652519822120667, 0.7144209742546082, -3.9562160968780518, 8.805802345275879, 3.7021665573120117, -1.3824772834777832, 4.596564769744873, -0.112060546875, 0.054443359375, -0.636962890625, 
340, 3131359298, 0.947583019733429, -0.20323312282562256, 0.013045303523540497, -0.24622869491577148, 0.9124463796615601, -4.087117671966553, 9.008265495300293, 3.265648603439331, -1.7482484579086304, 3.999701738357544, -0.116455078125, 0.05517578125, -0.633544921875, 
341, 3131367631, 0.9477025270462036, -0.2030574381351471, 0.012987274676561356, -0.2459162473678589, 0.7958633899688721, -3.4080092906951904, 8.90034008026123, 2.275299549102783, -1.751936674118042, 4.218677043914795, -0.112548828125, 0.054931640625, -0.635009765625, 
342, 3131375964, 0.9478371739387512, -0.20289255678653717, 0.012914612889289856, -0.24553686380386353, 0.7019750475883484, -3.4755170345306396, 8.769625663757324, 2.2117252349853516, -2.165888547897339, 5.0971174240112305, -0.114990234375, 0.05419921875, -0.634521484375, 
343, 3131384297, 0.9480153322219849, -0.20260173082351685, 0.012807313352823257, -0.2450944483280182, 0.7028470039367676, -3.8940272331237793, 8.805265426635742, 4.084792613983154, -2.3773086071014404, 5.9939494132995605, -0.112548828125, 0.053466796875, -0.634033203125, 
344, 3131392630, 0.9482553601264954, -0.20205144584178925, 0.012557152658700943, -0.2446328103542328, 0.8069815039634705, -4.215386867523193, 8.839520454406738, 8.113603591918945, -3.428644895553589, 6.0978922843933105, -0.114013671875, 0.053466796875, -0.635498046875, 
345, 3131400963, 0.9485796093940735, -0.20125070214271545, 0.012196488678455353, -0.24405333399772644, 0.8563483953475952, -3.4916765689849854, 8.759225845336914, 11.96839427947998, -4.3700456619262695, 7.654905796051025, -0.112548828125, 0.0537109375, -0.632568359375, 
346, 3131409296, 0.9490019083023071, -0.20023544132709503, 0.011842720210552216, -0.24326324462890625, 0.820350170135498, -3.554630994796753, 9.042786598205566, 14.975458145141602, -4.158549785614014, 10.784968376159668, -0.11181640625, 0.052001953125, -0.634521484375, 
347, 3131417629, 0.9495280385017395, -0.19898918271064758, 0.011444184929132462, -0.24225017428398132, 0.8946527242660522, -3.74999737739563, 9.22413158416748, 18.392885208129883, -4.602265357971191, 13.958521842956543, -0.11376953125, 0.0517578125, -0.633056640625, 
348, 3131425962, 0.9501927495002747, -0.19735872745513916, 0.01096070185303688, -0.24099671840667725, 0.8192115426063538, -3.6857829093933105, 9.071684837341309, 24.029769897460938, -5.109403133392334, 17.385635375976562, -0.11572265625, 0.04931640625, -0.634033203125, 
349, 3131434295, 0.9510117769241333, -0.19518831372261047, 0.010292157530784607, -0.2395581305027008, 0.7732608318328857, -3.615492582321167, 9.010250091552734, 32.093536376953125, -6.265096664428711, 19.89832878112793, -0.115234375, 0.04833984375, -0.633544921875, 
350, 3131442628, 0.9519659876823425, -0.19249820709228516, 0.009397357702255249, -0.23797696828842163, 0.7977482676506042, -3.7951223850250244, 8.915426254272461, 39.9753303527832, -7.912047863006592, 21.670310974121094, -0.1171875, 0.044189453125, -0.634765625, 
351, 3131450961, 0.9530412554740906, -0.18916545808315277, 0.008230667561292648, -0.23638293147087097, 0.8508054614067078, -3.722533702850342, 8.522281646728516, 49.59844207763672, -9.418992042541504, 21.600629806518555, -0.114990234375, 0.042236328125, -0.6337890625, 
352, 3131459294, 0.954188883304596, -0.1853189766407013, 0.006971269845962524, -0.23483526706695557, 0.9664182066917419, -3.6660900115966797, 8.77676010131836, 56.82353591918945, -8.851411819458008, 21.043970108032227, -0.114990234375, 0.038818359375, -0.63623046875, 
353, 3131467627, 0.9553610682487488, -0.18128272891044617, 0.00572441890835762, -0.23324906826019287, 1.1748682260513306, -3.039769411087036, 9.266341209411621, 59.33514404296875, -8.174761772155762, 21.67759895324707, -0.11767578125, 0.03369140625, -0.632568359375, 
354, 3131475960, 0.9564957022666931, -0.17728841304779053, 0.004547633230686188, -0.23169001936912537, 1.120387315750122, -2.1879146099090576, 9.243017196655273, 58.4658317565918, -7.317192077636719, 21.37380599975586, -0.115234375, 0.0283203125, -0.635009765625, 
355, 3131484293, 0.9576370120048523, -0.17332130670547485, 0.003508619964122772, -0.22998875379562378, 1.223402500152588, -1.291424036026001, 9.8502197265625, 57.675811767578125, -5.938347816467285, 23.599849700927734, -0.116455078125, 0.025146484375, -0.633544921875, 
356, 3131492626, 0.9588105082511902, -0.1694326102733612, 0.0024461671710014343, -0.22800180315971375, 1.3195816278457642, -1.387214183807373, 10.440581321716309, 56.780616760253906, -7.178849697113037, 27.40385627746582, -0.11669921875, 0.0166015625, -0.634765625, 
357, 3131500959, 0.960076093673706, -0.16524271667003632, 0.0011544711887836456, -0.2257504165172577, 1.343369960784912, -1.3962805271148682, 10.387895584106445, 61.671234130859375, -9.873740196228027, 30.655797958374023, -0.11572265625, 0.01318359375, -0.634765625, 
358, 3131509292, 0.9616239070892334, -0.1599489003419876, -0.00041643157601356506, -0.22296130657196045, 1.1330552101135254, -2.6989917755126953, 9.7903470993042, 77.75093078613281, -11.362038612365723, 38.01394271850586, -0.113037109375, 0.006591796875, -0.630859375, 
359, 3131517625, 0.9635078310966492, -0.15336549282073975, -0.0022059641778469086, -0.21941456198692322, 0.8509135842323303, -4.466182231903076, 9.339930534362793, 96.2110824584961, -11.959869384765625, 48.58259201049805, -0.11328125, -0.002197265625, -0.631591796875, 
360, 3131525958, 0.9656287431716919, -0.14576974511146545, -0.004189956933259964, -0.2151993215084076, 0.7387164831161499, -5.455090045928955, 8.69411563873291, 110.73662567138672, -12.88757038116455, 57.70676040649414, -0.113037109375, -0.0068359375, -0.629638671875, 
361, 3131534291, 0.9678386449813843, -0.13776502013206482, -0.006288632750511169, -0.21044126152992249, 0.8891935348510742, -5.5909247398376465, 8.151317596435547, 116.71614837646484, -14.278421401977539, 64.9180908203125, -0.11328125, -0.015869140625, -0.6298828125, 
362, 3131542624, 0.9700481295585632, -0.12952299416065216, -0.008657243102788925, -0.20535656809806824, 0.3451675772666931, -6.064601421356201, 8.361957550048828, 120.68341827392578, -17.80742645263672, 68.7376937866211, -0.114013671875, -0.025390625, -0.629638671875, 
363, 3131550957, 0.9721976518630981, -0.12129750847816467, -0.011449556797742844, -0.20000913739204407, 0.24262644350528717, -5.811155796051025, 9.04603099822998, 121.59288787841797, -23.97633171081543, 71.31611633300781, -0.11279296875, -0.033447265625, -0.630615234375, 
364, 3131559290, 0.9742857813835144, -0.11291410028934479, -0.014316394925117493, -0.19449540972709656, 0.7955955266952515, -3.0750794410705566, 9.486516952514648, 123.82455444335938, -24.83123779296875, 73.22697448730469, -0.121826171875, -0.040771484375, -0.628173828125, 
365, 3131567623, 0.9761332869529724, -0.1049327477812767, -0.016656072810292244, -0.18945109844207764, 1.1614848375320435, 0.030487850308418274, 10.186884880065918, 116.5746078491211, -18.156482696533203, 67.18315124511719, -0.123046875, -0.0498046875, -0.62841796875, 
366, 3131575956, 0.9776970148086548, -0.0981559157371521, -0.01815740019083023, -0.18482521176338196, 0.8785334229469299, 1.320973515510559, 10.608790397644043, 97.70303344726562, -9.508500099182129, 62.322357177734375, -0.124267578125, -0.056884765625, -0.6259765625, 
367, 3131584289, 0.9790449142456055, -0.09222955256700516, -0.019136078655719757, -0.18059492111206055, 0.12372949719429016, -0.40611734986305237, 9.867034912109375, 84.55718994140625, -4.159585475921631, 57.373294830322266, -0.125244140625, -0.061767578125, -0.629150390625, 
368, 3131592622, 0.9802747964859009, -0.08667320758104324, -0.02028541825711727, -0.17650312185287476, -0.5189194083213806, -2.567383050918579, 8.983729362487793, 79.80622100830078, -7.23446798324585, 55.09573745727539, -0.12255859375, -0.068359375, -0.627685546875, 
369, 3131600955, 0.9814683198928833, -0.08145330101251602, -0.021704813465476036, -0.17213386297225952, -0.6055063605308533, -2.6548116207122803, 9.258464813232422, 75.96765899658203, -12.030311584472656, 58.51808166503906, -0.125, -0.07275390625, -0.626953125, 
370, 3131609288, 0.9825795888900757, -0.07643105834722519, -0.0232949610799551, -0.1678357720375061, -0.38422566652297974, -2.270392656326294, 9.752840042114258, 73.5832290649414, -14.750944137573242, 57.23170852661133, -0.125732421875, -0.077880859375, -0.625, 
371, 3131617621, 0.9835885763168335, -0.07171641290187836, -0.024924270808696747, -0.16372275352478027, 0.08680829405784607, -2.184493064880371, 9.524360656738281, 69.35932159423828, -15.828044891357422, 54.553321838378906, -0.129638671875, -0.0810546875, -0.625244140625, 
372, 3131625954, 0.9844720363616943, -0.06737259030342102, -0.026572907343506813, -0.15995526313781738, 0.27627211809158325, -1.7197482585906982, 8.962875366210938, 64.13674926757812, -16.62565803527832, 49.703731536865234, -0.12939453125, -0.0849609375, -0.624267578125, 
373, 3131634287, 0.9851964116096497, -0.06352204084396362, -0.028074827045202255, -0.15678328275680542, 0.18342579901218414, -0.2694089710712433, 9.025779724121094, 56.78173828125, -15.233778953552246, 41.60837936401367, -0.13134765625, -0.09033203125, -0.621337890625, 
374, 3131642620, 0.9857943058013916, -0.060392290353775024, -0.029412200674414635, -0.15399211645126343, 0.20556960999965668, 0.6720795631408691, 9.686388969421387, 46.392642974853516, -14.272913932800293, 36.59857177734375, -0.13427734375, -0.0908203125, -0.6220703125, 
375, 3131650953, 0.9862759113311768, -0.05804847180843353, -0.03057931922376156, -0.1515623927116394, 0.4490600526332855, -0.007052568718791008, 9.666130065917969, 35.14297103881836, -13.379571914672852, 31.91177749633789, -0.135986328125, -0.095947265625, -0.6220703125, 
376, 3131659286, 0.986702024936676, -0.05632353946566582, -0.03166455402970314, -0.14919894933700562, 0.7670595049858093, -0.25860026478767395, 9.484933853149414, 26.498674392700195, -13.523287773132324, 31.222379684448242, -0.135498046875, -0.097900390625, -0.62109375, 
377, 3131667619, 0.9871055483818054, -0.05536990985274315, -0.03256531432271004, -0.1466711461544037, 0.5534107685089111, -0.5408740639686584, 10.09665584564209, 15.713520050048828, -12.747041702270508, 33.883026123046875, -0.138427734375, -0.099609375, -0.619873046875, 
378, 3131675952, 0.9874670505523682, -0.054850898683071136, -0.03341415524482727, -0.14422115683555603, 0.37636899948120117, -2.1867103576660156, 9.714445114135742, 9.638071060180664, -12.872601509094238, 32.97793960571289, -0.14404296875, -0.09619140625, -0.617431640625, 
379, 3131684285, 0.987776517868042, -0.05423691123723984, -0.034496378153562546, -0.14206340909004211, 0.4239213168621063, -2.880599021911621, 9.460826873779297, 11.224156379699707, -15.6615571975708, 28.686344146728516, -0.139404296875, -0.1005859375, -0.617919921875, 
380, 3131692618, 0.9880367517471313, -0.053389012813568115, -0.03578478842973709, -0.14024576544761658, 0.6833757162094116, -1.9030793905258179, 9.58375358581543, 14.598298072814941, -17.7701473236084, 23.706167221069336, -0.144775390625, -0.099609375, -0.618408203125, 
381, 3131700951, 0.9882746338844299, -0.052228882908821106, -0.03727415204048157, -0.13860708475112915, 0.772165060043335, -1.039604663848877, 9.687541007995605, 19.13437843322754, -19.784942626953125, 20.93206214904785, -0.144775390625, -0.099365234375, -0.616455078125, 
382, 3131709284, 0.988479495048523, -0.0508408322930336, -0.038818955421447754, -0.13723132014274597, 0.8212512731552124, -0.19590872526168823, 9.336867332458496, 22.170059204101562, -19.925390243530273, 17.139080047607422, -0.14990234375, -0.100341796875, -0.6162109375, 
383, 3131717617, 0.9886698126792908, -0.04965188726782799, -0.040204644203186035, -0.135890394449234, 1.0247952938079834, 0.05810541659593582, 9.15191650390625, 19.142213821411133, -18.12810516357422, 16.855628967285156, -0.1513671875, -0.101806640625, -0.619140625, 
384, 3131725950, 0.9888531565666199, -0.04877742752432823, -0.04140361025929451, -0.1345060169696808, 0.9802851676940918, -0.3644373118877411, 9.52584171295166, 14.528619766235352, -16.203960418701172, 17.733118057250977, -0.152587890625, -0.1044921875, -0.61474609375, 
385, 3131734283, 0.9890231490135193, -0.04804268479347229, -0.04240358620882034, -0.13320335745811462, 1.4433209896087646, -0.8728212714195251, 9.506717681884766, 12.21145248413086, -13.716046333312988, 16.812206268310547, -0.15771484375, -0.105712890625, -0.612548828125, 
386, 3131742616, 0.9891958236694336, -0.047540582716464996, -0.04315140098333359, -0.13185396790504456, 1.2558188438415527, -0.6850299835205078, 9.578839302062988, 8.608166694641113, -10.734468460083008, 17.753528594970703, -0.1552734375, -0.104248046875, -0.616455078125, 
387, 3131750949, 0.9893574714660645, -0.04739298298954964, -0.04368630051612854, -0.130511075258255, 1.180895209312439, -0.2366906702518463, 9.858884811401367, 3.3952836990356445, -8.489457130432129, 17.991716384887695, -0.1572265625, -0.105224609375, -0.614013671875, 
388, 3131759282, 0.9895216226577759, -0.047424864023923874, -0.044061899185180664, -0.1291218400001526, 1.0758922100067139, -1.2358042001724243, 9.647518157958984, 0.6905984282493591, -6.667695045471191, 18.84136199951172, -0.16015625, -0.103759765625, -0.612548828125, 
389, 3131767615, 0.9896485805511475, -0.047617360949516296, -0.04437972605228424, -0.12796342372894287, 0.7187811732292175, -1.5670448541641235, 9.746450424194336, -1.7546522617340088, -6.043858528137207, 15.768779754638672, -0.15966796875, -0.104736328125, -0.616455078125, 
390, 3131775948, 0.9897783398628235, -0.04760761931538582, -0.04493384063243866, -0.12676525115966797, 0.8371011018753052, -2.3293416500091553, 9.516688346862793, 1.4325660467147827, -8.922900199890137, 16.036911010742188, -0.1611328125, -0.103759765625, -0.614013671875, 
391, 3131784281, 0.9899135828018188, -0.04678915813565254, -0.04571327194571495, -0.12573003768920898, 1.0369890928268433, -1.9615923166275024, 9.368297576904297, 12.744840621948242, -10.475046157836914, 13.183124542236328, -0.162109375, -0.103515625, -0.614013671875, 
392, 3131792614, 0.9900559782981873, -0.04544547572731972, -0.046484336256980896, -0.12481644749641418, 1.2025246620178223, -0.505340576171875, 10.026443481445312, 19.799184799194336, -9.365490913391113, 11.21311092376709, -0.16455078125, -0.10498046875, -0.613037109375, 
393, 3131800947, 0.9901828169822693, -0.043987058103084564, -0.047175176441669464, -0.12407147884368896, 0.966532289981842, -0.17272256314754486, 10.12644100189209, 21.115270614624023, -7.983729839324951, 8.86740779876709, -0.166015625, -0.1044921875, -0.614990234375, 
394, 3131809280, 0.9902617931365967, -0.042743414640426636, -0.047784194350242615, -0.12364253401756287, 1.0528156757354736, 0.25099286437034607, 9.650675773620605, 17.807802200317383, -7.073680400848389, 4.671563625335693, -0.16455078125, -0.10546875, -0.614501953125, 
395, 3131817613, 0.9903002381324768, -0.04185670614242554, -0.04825577139854431, -0.12345319986343384, 1.1583503484725952, 0.8090750575065613, 9.278507232666016, 12.540489196777344, -5.698580265045166, 1.6565626859664917, -0.1669921875, -0.108642578125, -0.615234375, 
396, 3131825946, 0.9903072714805603, -0.04140687733888626, -0.04854544997215271, -0.1234351098537445, 1.3180830478668213, 0.7071184515953064, 9.420966148376465, 6.143433570861816, -3.8804802894592285, -0.335956335067749, -0.16650390625, -0.110595703125, -0.61474609375, 
397, 3131834279, 0.9903037548065186, -0.041312772780656815, -0.0486731082201004, -0.12344452738761902, 1.3604261875152588, 0.23474925756454468, 9.610637664794922, 1.0026308298110962, -2.2745440006256104, -0.398301362991333, -0.169921875, -0.109619140625, -0.61328125, 
398, 3131842612, 0.9902997612953186, -0.04129955172538757, -0.04877329617738724, -0.12344133853912354, 1.2768476009368896, -0.41651561856269836, 9.61770248413086, -0.1414930522441864, -2.040225028991699, -0.15793737769126892, -0.16796875, -0.108154296875, -0.61376953125, 
399, 3131850945, 0.9903050661087036, -0.041378192603588104, -0.048861533403396606, -0.12333783507347107, 1.2542649507522583, -0.9492864608764648, 9.664037704467773, -1.336345911026001, -2.0872528553009033, 1.2926095724105835, -0.16796875, -0.107666015625, -0.61376953125, 
400, 3131859278, 0.9903229475021362, -0.04149977117776871, -0.048989370465278625, -0.12310335040092468, 1.0545789003372192, -1.469576358795166, 9.722501754760742, -1.761772871017456, -2.762777090072632, 3.10374116897583, -0.16845703125, -0.108642578125, -0.61376953125, 
401, 3131867611, 0.9903421401977539, -0.04167701303958893, -0.049199797213077545, -0.122804194688797, 0.9929958581924438, -1.355631709098816, 9.727269172668457, -2.3324837684631348, -4.019181251525879, 3.977673292160034, -0.17138671875, -0.110595703125, -0.61376953125, 
402, 3131875944, 0.990361213684082, -0.04179256781935692, -0.04949957877397537, -0.1224905252456665, 0.9687739014625549, -1.004187822341919, 9.57515811920166, -1.3360384702682495, -5.13872766494751, 4.082076072692871, -0.1689453125, -0.108642578125, -0.61328125, 
403, 3131884277, 0.9903666973114014, -0.04179965704679489, -0.04988094046711922, -0.12228831648826599, 0.976000964641571, -0.9821498394012451, 9.609452247619629, 0.20118699967861176, -6.0147857666015625, 2.419610023498535, -0.16845703125, -0.107666015625, -0.6103515625, 
404, 3131892610, 0.9903542399406433, -0.04180115833878517, -0.05026531592011452, -0.12223228812217712, 1.002106785774231, -0.500186026096344, 9.690409660339355, 0.16673587262630463, -5.971907615661621, 0.3940109610557556, -0.16845703125, -0.110107421875, -0.6103515625, 
405, 3131900943, 0.9903182983398438, -0.041795384138822556, -0.05064154416322708, -0.12237006425857544, 1.023632287979126, -0.2766842842102051, 9.621859550476074, 0.10823294520378113, -5.75813102722168, -2.28507137298584, -0.1708984375, -0.10888671875, -0.61083984375, 
406, 3131909276, 0.990269124507904, -0.04173212870955467, -0.05093589425086975, -0.12266719341278076, 1.119297981262207, -0.1748082935810089, 9.594026565551758, 0.6307633519172668, -4.458797931671143, -4.4703755378723145, -0.1728515625, -0.1083984375, -0.6123046875, 
407, 3131917609, 0.9902232885360718, -0.04167536273598671, -0.051134854555130005, -0.12297296524047852, 1.15127694606781, 0.12982621788978577, 9.700681686401367, 0.38212600350379944, -3.1674563884735107, -4.524114608764648, -0.1728515625, -0.1083984375, -0.61181640625, 
408, 3131925942, 0.9901955723762512, -0.04177277162671089, -0.05117640271782875, -0.12314489483833313, 1.168845534324646, -0.11460746824741364, 9.745992660522461, -1.883568525314331, -1.344824194908142, -2.4704675674438477, -0.1728515625, -0.108642578125, -0.61328125, 
409, 3131934275, 0.990186333656311, -0.04189736023545265, -0.05113177374005318, -0.1231963038444519, 1.071414589881897, -1.064922571182251, 9.664078712463379, -2.3022587299346924, -0.2780681550502777, -0.7309790849685669, -0.1708984375, -0.1103515625, -0.6123046875, 
410, 3131942608, 0.9901846647262573, -0.0419631227850914, -0.05109664425253868, -0.12320119142532349, 1.0193157196044922, -1.2702020406723022, 9.575397491455078, -1.4501755237579346, -0.3251470923423767, -0.13104242086410522, -0.173828125, -0.109375, -0.61181640625, 
411, 3131950941, 0.990184485912323, -0.042003147304058075, -0.05109058693051338, -0.12319183349609375, 1.0317261219024658, -0.8435345888137817, 9.51098346710205, -1.0365312099456787, -0.6880494952201843, 0.030570587143301964, -0.17236328125, -0.108642578125, -0.61328125, 
412, 3131959274, 0.9901754856109619, -0.04216568171977997, -0.0511067658662796, -0.12320131063461304, 1.1368517875671387, -0.5946933031082153, 9.580638885498047, -2.6880860328674316, -1.1903191804885864, -0.16797815263271332, -0.17236328125, -0.108154296875, -0.61328125, 
413, 3131967607, 0.9901610016822815, -0.04249071329832077, -0.051129765808582306, -0.12319669127464294, 1.066042184829712, -0.3338770270347595, 9.503968238830566, -4.879332065582275, -1.5745837688446045, 0.12467728555202484, -0.17236328125, -0.111328125, -0.613037109375, 
414, 3131975940, 0.9901308417320251, -0.04283063858747482, -0.051215656101703644, -0.12328550219535828, 1.0964889526367188, -0.7634813189506531, 9.527194023132324, -5.054251670837402, -2.4078147411346436, -1.2006160020828247, -0.173828125, -0.10791015625, -0.6123046875, 
415, 3131984273, 0.9900959730148315, -0.04319056496024132, -0.051329467445611954, -0.12339332699775696, 1.1366568803787231, -0.6093002557754517, 9.7222261428833, -5.292182445526123, -2.8183085918426514, -1.4687457084655762, -0.17236328125, -0.107177734375, -0.61181640625, 
416, 3131992606, 0.9900584816932678, -0.04354364052414894, -0.0514468252658844, -0.12352097034454346, 1.0969525575637817, -0.571026623249054, 9.69425106048584, -5.210396766662598, -2.8405675888061523, -1.7504513263702393, -0.17236328125, -0.107666015625, -0.61181640625, 
417, 3132000939, 0.9900213479995728, -0.04385839030146599, -0.05153723061084747, -0.12366867065429688, 1.0891039371490479, -0.7188655138015747, 9.638629913330078, -4.7472147941589355, -2.399976968765259, -2.032489538192749, -0.17529296875, -0.10791015625, -0.6103515625, 
418, 3132009272, 0.9899872541427612, -0.04419635981321335, -0.051581427454948425, -0.123803049325943, 1.035307765007019, -0.6385047435760498, 9.58607006072998, -5.132862567901611, -1.8134877681732178, -1.8030630350112915, -0.175048828125, -0.10595703125, -0.6103515625, 
419, 3132017605, 0.9899564385414124, -0.044502757489681244, -0.05159427970647812, -0.12393414974212646, 1.0515567064285278, -0.7296607494354248, 9.599553108215332, -4.749058246612549, -1.3368582725524902, -1.7569315433502197, -0.173583984375, -0.10546875, -0.61083984375, 
420, 3132025938, 0.9899336695671082, -0.04477634280920029, -0.051560960710048676, -0.12403163313865662, 1.1646736860275269, -0.5374618768692017, 9.587937355041504, -4.354317665100098, -0.6626147031784058, -1.2795592546463013, -0.171875, -0.106201171875, -0.611328125, 
421, 3132034271, 0.9899197220802307, -0.04506823420524597, -0.05145855247974396, -0.12407934665679932, 1.1612483263015747, -0.6720983386039734, 9.693971633911133, -4.679157257080078, 0.21909135580062866, -0.5307013392448425, -0.175048828125, -0.10791015625, -0.613037109375, 
422, 3132042604, 0.9899121522903442, -0.04547129571437836, -0.051331497728824615, -0.12404561042785645, 1.1545428037643433, -0.7661353349685669, 9.68909740447998, -6.175413131713867, 0.3213946223258972, 0.6815052032470703, -0.173583984375, -0.106201171875, -0.6123046875, 
423, 3132050937, 0.9899000525474548, -0.045937854796648026, -0.05122281610965729, -0.12401500344276428, 1.1425477266311646, -0.9794729948043823, 9.615004539489746, -7.011102676391602, -0.040880315005779266, 0.663703203201294, -0.174560546875, -0.1044921875, -0.611328125, 
424, 3132059270, 0.989883542060852, -0.04646620899438858, -0.05115975812077522, -0.12397703528404236, 1.1235013008117676, -0.8622481822967529, 9.539466857910156, -7.774817943572998, -0.7727559804916382, 0.7725382447242737, -0.172607421875, -0.105224609375, -0.61083984375, 
425, 3132067603, 0.9898553490638733, -0.04702521860599518, -0.05115541070699692, -0.12399211525917053, 1.1497584581375122, -0.6063283681869507, 9.587617874145508, -8.133338928222656, -1.6003518104553223, 0.014177478849887848, -0.171630859375, -0.104248046875, -0.61083984375, 
426, 3132075936, 0.9898192286491394, -0.04762055352330208, -0.051145099103450775, -0.12405848503112793, 1.193782091140747, -0.606450080871582, 9.623401641845703, -8.682790756225586, -1.5511213541030884, -0.6680448651313782, -0.173583984375, -0.104736328125, -0.6103515625, 
427, 3132084269, 0.9897772669792175, -0.04814077541232109, -0.051102444529533386, -0.12421026825904846, 1.113806962966919, -0.6512422561645508, 9.639782905578613, -7.77638053894043, -0.9336646795272827, -1.8734767436981201, -0.171630859375, -0.104248046875, -0.61181640625, 
428, 3132092602, 0.9897332191467285, -0.04857216402888298, -0.05102347582578659, -0.12442445755004883, 1.0550400018692017, -0.556167721748352, 9.634900093078613, -6.677426815032959, -0.2450770139694214, -2.763366460800171, -0.170166015625, -0.103759765625, -0.61328125, 
429, 3132100935, 0.9896914958953857, -0.048977941274642944, -0.05089616775512695, -0.12464988231658936, 1.0777825117111206, -0.5830747485160828, 9.688323020935059, -6.414189338684082, 0.4633743464946747, -2.900351047515869, -0.173095703125, -0.102783203125, -0.6123046875, 
430, 3132109268, 0.9896579384803772, -0.04942447692155838, -0.05070565640926361, -0.1248173713684082, 1.0622185468673706, -0.6167765855789185, 9.750630378723145, -7.034719467163086, 1.2218632698059082, -2.0245234966278076, -0.173095703125, -0.103271484375, -0.6123046875, 
431, 3132117601, 0.9896265268325806, -0.04991552233695984, -0.05049346014857292, -0.12495774030685425, 1.0305609703063965, -0.8334041833877563, 9.605339050292969, -7.656121253967285, 1.4218591451644897, -1.6053979396820068, -0.172119140625, -0.102294921875, -0.61279296875, 
432, 3132125934, 0.9895938038825989, -0.05044926702976227, -0.050305694341659546, -0.12507712841033936, 1.0205752849578857, -0.8608852624893188, 9.584715843200684, -8.182595252990723, 1.0047310590744019, -1.3100656270980835, -0.170166015625, -0.103271484375, -0.611328125, 
433, 3132134267, 0.9895594120025635, -0.051057301461696625, -0.05013715475797653, -0.12517064809799194, 1.0717965364456177, -0.7930335998535156, 9.579160690307617, -9.14233684539795, 0.5906258821487427, -0.923854410648346, -0.173583984375, -0.101318359375, -0.61181640625, 
434, 3132142600, 0.9895298480987549, -0.051596637815237045, -0.05002700164914131, -0.12522682547569275, 1.0707029104232788, -0.927104651927948, 9.614261627197266, -8.079319953918457, -0.10248257219791412, -0.494610995054245, -0.172119140625, -0.100341796875, -0.61376953125, 
435, 3132150933, 0.9895005822181702, -0.05202331766486168, -0.04997912049293518, -0.12530037760734558, 1.0786267518997192, -1.1799544095993042, 9.64321517944336, -6.449535846710205, -0.7491138577461243, -0.852288007736206, -0.172607421875, -0.1005859375, -0.615234375, 
436, 3132159266, 0.9894734621047974, -0.05232081562280655, -0.0499778650701046, -0.12539145350456238, 1.0472917556762695, -1.2005362510681152, 9.624679565429688, -4.623113632202148, -1.1422412395477295, -1.20876145362854, -0.172119140625, -0.0986328125, -0.61376953125, 
437, 3132167599, 0.989436149597168, -0.05252505838871002, -0.0500083863735199, -0.12558820843696594, 1.0572706460952759, -1.120916485786438, 9.572375297546387, -3.376981019973755, -1.348205327987671, -2.75171160697937, -0.170654296875, -0.10107421875, -0.61279296875, 
438, 3132175932, 0.9893839359283447, -0.052710190415382385, -0.050001583993434906, -0.12592414021492004, 1.0526518821716309, -1.0117194652557373, 9.607409477233887, -3.2895591259002686, -0.7149701118469238, -4.657487869262695, -0.173095703125, -0.100341796875, -0.6123046875, 
439, 3132184265, 0.989299476146698, -0.05297667905688286, -0.04997004196047783, -0.12648701667785645, 1.0339816808700562, -0.8254453539848328, 9.443260192871094, -4.617965221405029, -0.37962862849235535, -7.726995468139648, -0.171142578125, -0.100341796875, -0.612060546875, 
440, 3132192598, 0.9891654849052429, -0.053293414413928986, -0.049899667501449585, -0.12742626667022705, 1.074401617050171, -1.2153186798095703, 9.424897193908691, -5.664205551147461, 0.3045917749404907, -12.870183944702148, -0.173095703125, -0.098876953125, -0.61328125, 
441, 3132200931, 0.9889689087867737, -0.053711868822574615, -0.0497782826423645, -0.12881702184677124, 1.0989333391189575, -1.2812342643737793, 9.490774154663086, -7.49208927154541, 1.1058052778244019, -19.014068603515625, -0.171630859375, -0.100341796875, -0.611083984375, 
