sep=,
PacketCounter,SampleTimeFine,Quat_W,Quat_X,Quat_Y,Quat_Z,Acc_X,Acc_Y,Acc_Z,Gyr_X,Gyr_Y,Gyr_Z,Mag_X,Mag_Y,Mag_Z,
0, 3330218010, 0.5935608148574829, -0.6092923283576965, -0.2562163472175598, -0.45915135741233826, 0, 0, 0, 0, 0, 0, -0.843017578125, 0.35302734375, 0.181640625, 
1, 3330226343, 0.5935150384902954, -0.6092635989189148, -0.2563297748565674, -0.45918548107147217, 8.450813293457031, -4.808021068572998, 1.2797635793685913, -0.21417342126369476, -1.1725811958312988, -1.792650580406189, -0.843017578125, 0.3525390625, 0.1796875, 
2, 3330234676, 0.5934662222862244, -0.6092182993888855, -0.25645220279693604, -0.45924022793769836, 8.479652404785156, -4.811384201049805, 1.281333327293396, 0.055941496044397354, -1.111773133277893, -2.0731523036956787, -0.843505859375, 0.35205078125, 0.1806640625, 
3, 3330243009, 0.5934250354766846, -0.6091568470001221, -0.25659695267677307, -0.45929422974586487, 8.507231712341309, -4.844712257385254, 1.278441071510315, 0.4065491557121277, -1.1458911895751953, -2.2721235752105713, -0.844482421875, 0.3505859375, 0.179443359375, 
4, 3330251342, 0.5933889746665955, -0.6090766191482544, -0.25675690174102783, -0.45935800671577454, 8.520461082458496, -4.84299898147583, 1.2753875255584717, 0.6531116962432861, -1.0788074731826782, -2.5026514530181885, -0.844482421875, 0.35107421875, 0.18115234375, 
5, 3330259675, 0.5933618545532227, -0.608986496925354, -0.25690847635269165, -0.4594274163246155, 8.493233680725098, -4.806281089782715, 1.300133228302002, 0.7644568681716919, -0.8502005338668823, -2.4661002159118652, -0.84130859375, 0.34912109375, 0.1796875, 
6, 3330268008, 0.5933326482772827, -0.608893096446991, -0.257063090801239, -0.4595024585723877, 8.519391059875488, -4.815403938293457, 1.3032211065292358, 0.7449901103973389, -0.8311691880226135, -2.554110527038574, -0.8427734375, 0.34912109375, 0.1826171875, 
7, 3330276341, 0.5933074951171875, -0.6088042259216309, -0.2572186291217804, -0.45956575870513916, 8.506401062011719, -4.816511631011963, 1.3253568410873413, 0.7834881544113159, -0.9153374433517456, -2.437873125076294, -0.843505859375, 0.3505859375, 0.18017578125, 
8, 3330284674, 0.5932706594467163, -0.6087308526039124, -0.2573584020137787, -0.45963236689567566, 8.490199089050293, -4.816895961761475, 1.3183165788650513, 0.45375609397888184, -0.9347274303436279, -2.337695598602295, -0.843017578125, 0.3505859375, 0.1796875, 
9, 3330293007, 0.5932254791259766, -0.608678936958313, -0.25747451186180115, -0.45969444513320923, 8.488554000854492, -4.807828426361084, 1.2852240800857544, 0.284010648727417, -1.0336495637893677, -2.058039665222168, -0.84375, 0.3486328125, 0.179931640625, 
10, 3330301340, 0.5931949019432068, -0.6086289882659912, -0.25758421421051025, -0.45973846316337585, 8.484257698059082, -4.850844383239746, 1.2666232585906982, 0.20432473719120026, -1.0029125213623047, -1.7784602642059326, -0.84326171875, 0.3486328125, 0.179443359375, 
11, 3330309673, 0.5931735634803772, -0.6085830926895142, -0.25769197940826416, -0.4597661793231964, 8.511839866638184, -4.842426300048828, 1.2420845031738281, 0.19354116916656494, -1.0295515060424805, -1.587736964225769, -0.8427734375, 0.35009765625, 0.177490234375, 
12, 3330318006, 0.5931528806686401, -0.6085395216941833, -0.25779610872268677, -0.4597923159599304, 8.512014389038086, -4.862720489501953, 1.230355978012085, 0.26459506154060364, -1.11410391330719, -1.5019546747207642, -0.8427734375, 0.35009765625, 0.1787109375, 
13, 3330326339, 0.5931493639945984, -0.6084895730018616, -0.2579028308391571, -0.4598030745983124, 8.49984073638916, -4.897877216339111, 1.2387559413909912, 0.5689690113067627, -1.1511164903640747, -1.3194787502288818, -0.84326171875, 0.34912109375, 0.178955078125, 
14, 3330334672, 0.593164324760437, -0.6084155440330505, -0.25802236795425415, -0.45981478691101074, 8.523085594177246, -4.881420135498047, 1.278407096862793, 0.9582284688949585, -1.0417180061340332, -1.3957325220108032, -0.844970703125, 0.35107421875, 0.1806640625, 
15, 3330343005, 0.5931875109672546, -0.6083306074142456, -0.25814223289489746, -0.4598298966884613, 8.498485565185547, -4.895730972290039, 1.2974560260772705, 1.2681094408035278, -0.9783997535705566, -1.3987549543380737, -0.8447265625, 0.3486328125, 0.180419921875, 
16, 3330351338, 0.593231201171875, -0.6082345843315125, -0.2582697570323944, -0.45982903242111206, 8.48210620880127, -4.865146160125732, 1.2893145084381104, 1.4732410907745361, -0.970292866230011, -1.2566856145858765, -0.844482421875, 0.349609375, 0.179443359375, 
17, 3330359671, 0.593278706073761, -0.6081476211547852, -0.2583804726600647, -0.4598204493522644, 8.449817657470703, -4.840117454528809, 1.2944860458374023, 1.4049408435821533, -0.9403626322746277, -1.0007352828979492, -0.84326171875, 0.34716796875, 0.179931640625, 
18, 3330368004, 0.5933235287666321, -0.6080651879310608, -0.25848138332366943, -0.45981505513191223, 8.43498706817627, -4.814426898956299, 1.3087821006774902, 1.2200061082839966, -0.8737399578094482, -0.9425910115242004, -0.843994140625, 0.35009765625, 0.177490234375, 
19, 3330376337, 0.5933632850646973, -0.6079996228218079, -0.25856679677963257, -0.45980238914489746, 8.448895454406738, -4.825587749481201, 1.3261222839355469, 0.925109326839447, -0.8776333332061768, -0.7450540065765381, -0.843994140625, 0.3515625, 0.1796875, 
20, 3330384670, 0.5933921933174133, -0.6079553365707397, -0.25862202048301697, -0.4597925543785095, 8.450698852539062, -4.807954788208008, 1.3154726028442383, 0.5027049779891968, -0.8341403603553772, -0.4881944954395294, -0.845703125, 0.348876953125, 0.180908203125, 
21, 3330393003, 0.5934091806411743, -0.6079262495040894, -0.2586384415626526, -0.4597998261451721, 8.437936782836914, -4.821681499481201, 1.3071177005767822, 0.25644969940185547, -0.6436216235160828, -0.2921687364578247, -0.84228515625, 0.3505859375, 0.18017578125, 
22, 3330401336, 0.5934359431266785, -0.607893168926239, -0.2586613893508911, -0.4597959518432617, 8.440068244934082, -4.844756603240967, 1.3011950254440308, 0.16759392619132996, -0.6029462218284607, -0.2404535859823227, -0.845458984375, 0.35009765625, 0.179931640625, 
23, 3330409669, 0.5934674143791199, -0.6078590750694275, -0.25866758823394775, -0.45979705452919006, 8.416749954223633, -4.84718132019043, 1.2801300287246704, 0.10591486096382141, -0.37385258078575134, -0.1274692267179489, -0.84423828125, 0.34912109375, 0.181640625, 
24, 3330418002, 0.5935109853744507, -0.6078174114227295, -0.25867360830307007, -0.4597926139831543, 8.409317016601562, -4.855307579040527, 1.2664965391159058, 0.2735600173473358, -0.3539246618747711, -0.019377168267965317, -0.846923828125, 0.348876953125, 0.178955078125, 
25, 3330426335, 0.5935719013214111, -0.6077603697776794, -0.2586930990219116, -0.4597783088684082, 8.423023223876953, -4.847074031829834, 1.2631993293762207, 0.5729519724845886, -0.30593639612197876, -0.025409318506717682, -0.848388671875, 0.347900390625, 0.178955078125, 
26, 3330434668, 0.5936406254768372, -0.6076929569244385, -0.2587047219276428, -0.45977213978767395, 8.411042213439941, -4.853419303894043, 1.2612967491149902, 0.7345906496047974, -0.1606396734714508, 0.016111351549625397, -0.84423828125, 0.34912109375, 0.179931640625, 
27, 3330443001, 0.5937207937240601, -0.6076228022575378, -0.2587225139141083, -0.45975127816200256, 8.409468650817871, -4.8582539558410645, 1.241318702697754, 0.9874544143676758, -0.27006369829177856, 0.13954636454582214, -0.841796875, 0.34912109375, 0.1806640625, 
28, 3330451334, 0.593812108039856, -0.6075311899185181, -0.25874820351600647, -0.45974001288414, 8.45218563079834, -4.849884986877441, 1.3076469898223877, 1.2288941144943237, -0.0848727747797966, -0.0036500287242233753, -0.84375, 0.3486328125, 0.177490234375, 
29, 3330459667, 0.5939012169837952, -0.6074418425559998, -0.2587689161300659, -0.4597312808036804, 8.458916664123535, -4.853082180023193, 1.3006443977355957, 1.20978581905365, -0.04706615209579468, 0.004789861384779215, -0.844482421875, 0.349609375, 0.177978515625, 
30, 3330468000, 0.5939960479736328, -0.6073417663574219, -0.25878605246543884, -0.45973125100135803, 8.447714805603027, -4.849656105041504, 1.2929335832595825, 1.233299732208252, 0.14500218629837036, -0.03105725720524788, -0.84228515625, 0.34814453125, 0.179443359375, 
31, 3330476333, 0.5940839052200317, -0.6072500944137573, -0.2588050067424774, -0.4597281217575073, 8.46094799041748, -4.834785461425781, 1.2855805158615112, 1.1824299097061157, 0.024282293394207954, -0.04250682145357132, -0.84375, 0.3486328125, 0.175537109375, 
32, 3330484666, 0.5941685438156128, -0.6071666479110718, -0.2588112950325012, -0.4597254991531372, 8.447514533996582, -4.8296918869018555, 1.2744218111038208, 0.9532080888748169, 0.06910720467567444, 0.07543391734361649, -0.84228515625, 0.34716796875, 0.177978515625, 
33, 3330492999, 0.5942440629005432, -0.6070979237556458, -0.2587977647781372, -0.4597262442111969, 8.455704689025879, -4.86669397354126, 1.240503191947937, 0.7171217799186707, 0.1097826212644577, 0.2078339159488678, -0.842041015625, 0.3515625, 0.17919921875, 
34, 3330501332, 0.5943263173103333, -0.6070376634597778, -0.258772075176239, -0.45971405506134033, 8.44455337524414, -4.854333877563477, 1.2244021892547607, 0.5763970613479614, 0.09623266756534576, 0.488463431596756, -0.84326171875, 0.34912109375, 0.178955078125, 
35, 3330509665, 0.5944181680679321, -0.6069880127906799, -0.2587224841117859, -0.45968878269195557, 8.435212135314941, -4.848547458648682, 1.2268985509872437, 0.42442786693573, 0.1989201307296753, 0.870422899723053, -0.845458984375, 0.34912109375, 0.177978515625, 
36, 3330517998, 0.5945175886154175, -0.6069430708885193, -0.2586473226547241, -0.45966193079948425, 8.426140785217285, -4.839004993438721, 1.2081725597381592, 0.3339071571826935, 0.3440760374069214, 1.182814121246338, -0.844482421875, 0.3505859375, 0.177490234375, 
37, 3330526331, 0.5946129560470581, -0.6069218516349792, -0.25853976607322693, -0.4596272110939026, 8.419868469238281, -4.811152458190918, 1.1981083154678345, 0.09239054471254349, 0.3128010332584381, 1.5878263711929321, -0.844482421875, 0.3505859375, 0.177001953125, 
38, 3330534664, 0.5947215557098389, -0.606905996799469, -0.2584253251552582, -0.4595719873905182, 8.429195404052734, -4.823089122772217, 1.1943303346633911, 0.025101948529481888, 0.27589091658592224, 1.905366063117981, -0.844482421875, 0.3515625, 0.178955078125, 
39, 3330542997, 0.5948346257209778, -0.6068952083587646, -0.25831520557403564, -0.4595016539096832, 8.428393363952637, -4.8128886222839355, 1.1894943714141846, 0.07521618902683258, 0.14130093157291412, 2.0168263912200928, -0.842529296875, 0.3505859375, 0.177734375, 
40, 3330551330, 0.5949446558952332, -0.6068851351737976, -0.2582046389579773, -0.45943471789360046, 8.450593948364258, -4.819780349731445, 1.2077491283416748, 0.05560850352048874, 0.1161605641245842, 1.9995754957199097, -0.846923828125, 0.3525390625, 0.177978515625, 
41, 3330559663, 0.5950595736503601, -0.6068745255470276, -0.25810590386390686, -0.45935529470443726, 8.468389511108398, -4.792229652404785, 1.1856658458709717, 0.17033468186855316, -0.008849718607962132, 2.004775047302246, -0.843994140625, 0.3505859375, 0.177490234375, 
42, 3330567996, 0.5951709747314453, -0.6068645119667053, -0.2580137848854065, -0.45927590131759644, 8.490372657775879, -4.810482978820801, 1.18442702293396, 0.22758246958255768, -0.13482052087783813, 1.9536232948303223, -0.844482421875, 0.35302734375, 0.177734375, 
43, 3330576329, 0.5952771306037903, -0.6068478226661682, -0.25793370604515076, -0.4592055082321167, 8.494333267211914, -4.81153678894043, 1.1940988302230835, 0.2928987741470337, -0.11358631402254105, 1.7091865539550781, -0.844970703125, 0.3505859375, 0.176513671875, 
44, 3330584662, 0.5953870415687561, -0.6068233251571655, -0.25786876678466797, -0.45913177728652954, 8.501948356628418, -4.796755790710449, 1.1649069786071777, 0.4847237467765808, -0.22400929033756256, 1.6185890436172485, -0.842529296875, 0.35107421875, 0.177734375, 
45, 3330592995, 0.5955039858818054, -0.6067894697189331, -0.2578141689300537, -0.4590553045272827, 8.487059593200684, -4.767084121704102, 1.1732033491134644, 0.752354085445404, -0.2511475384235382, 1.5620455741882324, -0.843505859375, 0.351806640625, 0.175048828125, 
46, 3330601328, 0.595610499382019, -0.6067633628845215, -0.25777339935302734, -0.4589746296405792, 8.445954322814941, -4.735453128814697, 1.1654988527297974, 0.6472845077514648, -0.4818805754184723, 1.4494454860687256, -0.845458984375, 0.349609375, 0.176513671875, 
47, 3330609661, 0.5957161784172058, -0.606738805770874, -0.257739782333374, -0.45888879895210266, 8.438594818115234, -4.732578277587891, 1.14871084690094, 0.6509985327720642, -0.5446354746818542, 1.407335638999939, -0.843994140625, 0.352294921875, 0.175048828125, 
48, 3330617994, 0.5958061814308167, -0.6067262291908264, -0.25770875811576843, -0.45880600810050964, 8.421378135681152, -4.7141313552856445, 1.1681593656539917, 0.46574366092681885, -0.7226159572601318, 1.3267661333084106, -0.843505859375, 0.353759765625, 0.17724609375, 
49, 3330626327, 0.5958836674690247, -0.6067359447479248, -0.25766199827194214, -0.45871883630752563, 8.401819229125977, -4.7187652587890625, 1.1337724924087524, 0.14643657207489014, -0.8139563202857971, 1.4887505769729614, -0.844482421875, 0.35302734375, 0.17822265625, 
50, 3330634660, 0.5959542989730835, -0.6067535281181335, -0.25761640071868896, -0.4586293399333954, 8.393013000488281, -4.71307373046875, 1.1440659761428833, -0.011103770695626736, -0.9191282987594604, 1.4886225461959839, -0.844482421875, 0.354736328125, 0.177734375, 
51, 3330642993, 0.596019983291626, -0.6067835688591003, -0.2575843334197998, -0.4585222005844116, 8.396671295166016, -4.699917316436768, 1.1477410793304443, -0.16519902646541595, -1.1505274772644043, 1.489160418510437, -0.843505859375, 0.353271484375, 0.17578125, 
52, 3330651326, 0.5960737466812134, -0.6068223714828491, -0.2575445771217346, -0.45842328667640686, 8.405439376831055, -4.693288326263428, 1.150624394416809, -0.254413366317749, -1.2408689260482788, 1.4876492023468018, -0.844970703125, 0.353515625, 0.17822265625, 
53, 3330659659, 0.5961307883262634, -0.6068634986877441, -0.2575235962867737, -0.45830637216567993, 8.427239418029785, -4.725362777709961, 1.1633871793746948, -0.12378078699111938, -1.481924295425415, 1.4800673723220825, -0.841064453125, 0.352783203125, 0.17724609375, 
54, 3330667992, 0.5961833596229553, -0.6068981289863586, -0.2575024664402008, -0.4582039713859558, 8.4598970413208, -4.727010250091553, 1.1525095701217651, -0.10008763521909714, -1.397832989692688, 1.3364485502243042, -0.842529296875, 0.355712890625, 0.17529296875, 
55, 3330676325, 0.5962122678756714, -0.6069365739822388, -0.2574765086174011, -0.4581301510334015, 8.46670913696289, -4.744640350341797, 1.137547492980957, 0.18421758711338043, -1.5652475357055664, 1.1027441024780273, -0.843017578125, 0.356689453125, 0.17822265625, 
56, 3330684658, 0.5962702631950378, -0.6069545149803162, -0.2574974298477173, -0.45801904797554016, 8.463773727416992, -4.732119083404541, 1.1637731790542603, 0.3782965838909149, -1.692626953125, 1.0334575176239014, -0.842041015625, 0.356689453125, 0.1796875, 
57, 3330692991, 0.5963168740272522, -0.6069734692573547, -0.25753137469291687, -0.4579140841960907, 8.477461814880371, -4.712445259094238, 1.1758233308792114, 0.4216999411582947, -1.8111056089401245, 0.804607093334198, -0.841064453125, 0.354248046875, 0.177734375, 
58, 3330701324, 0.5963577032089233, -0.6069871187210083, -0.2575695514678955, -0.45782142877578735, 8.495014190673828, -4.701854228973389, 1.1561720371246338, 0.3130187392234802, -1.7123372554779053, 0.6134994029998779, -0.841552734375, 0.355712890625, 0.17724609375, 
59, 3330709657, 0.5963866114616394, -0.6070072650909424, -0.25760188698768616, -0.457738995552063, 8.499730110168457, -4.695446491241455, 1.1667332649230957, 0.23198814690113068, -1.7153470516204834, 0.5362852811813354, -0.840576171875, 0.354248046875, 0.17724609375, 
60, 3330717990, 0.5964093804359436, -0.6070274710655212, -0.25763317942619324, -0.45766481757164, 8.484509468078613, -4.701764106750488, 1.1837811470031738, 0.00040982774225994945, -1.6067681312561035, 0.4310619533061981, -0.843017578125, 0.354248046875, 0.17626953125, 
61, 3330726323, 0.5964058041572571, -0.6070687770843506, -0.25766080617904663, -0.45759904384613037, 8.49582290649414, -4.702422618865967, 1.1973515748977661, -0.43945062160491943, -1.7065610885620117, 0.2854962646961212, -0.843505859375, 0.354736328125, 0.1767578125, 
62, 3330734656, 0.5963912010192871, -0.6071107983589172, -0.2576800584793091, -0.45755138993263245, 8.510997772216797, -4.71542501449585, 1.1878660917282104, -0.6602709889411926, -1.5577682256698608, 0.15558086335659027, -0.842041015625, 0.355224609375, 0.17822265625, 
63, 3330742989, 0.5963562726974487, -0.6071696281433105, -0.25770336389541626, -0.4575059413909912, 8.491520881652832, -4.725727558135986, 1.1937047243118286, -0.9710485339164734, -1.7056905031204224, 0.015599070116877556, -0.845947265625, 0.35546875, 0.17724609375, 
64, 3330751322, 0.5963085889816284, -0.6072413921356201, -0.25772255659103394, -0.4574621915817261, 8.495862007141113, -4.701222896575928, 1.1999402046203613, -1.1960951089859009, -1.8284850120544434, 0.020696301013231277, -0.843017578125, 0.355224609375, 0.1796875, 
65, 3330759655, 0.5962551236152649, -0.6073212027549744, -0.2577526569366455, -0.45740875601768494, 8.491541862487793, -4.751666069030762, 1.1862324476242065, -1.162412405014038, -2.0647764205932617, -0.0054942537099123, -0.841552734375, 0.355224609375, 0.17822265625, 
66, 3330767988, 0.5962167382240295, -0.6073832511901855, -0.257796049118042, -0.45735201239585876, 8.463422775268555, -4.737992286682129, 1.2227574586868286, -0.8395194411277771, -2.040417194366455, -0.051471810787916183, -0.843017578125, 0.353515625, 0.1796875, 
67, 3330776321, 0.5961713790893555, -0.6074452996253967, -0.2578451633453369, -0.45730113983154297, 8.466132164001465, -4.739602565765381, 1.223238468170166, -0.7068888545036316, -2.1306815147399902, -0.17557276785373688, -0.843505859375, 0.353759765625, 0.17724609375, 
68, 3330784654, 0.5961528420448303, -0.6074845790863037, -0.25792497396469116, -0.45722800493240356, 8.459183692932129, -4.750555038452148, 1.2437750101089478, -0.2004954069852829, -2.264387845993042, -0.17703278362751007, -0.843994140625, 0.35400390625, 0.17822265625, 
69, 3330792987, 0.5961407423019409, -0.6075168251991272, -0.25801700353622437, -0.45714879035949707, 8.465582847595215, -4.761208534240723, 1.251224160194397, 0.017801892012357712, -2.3202271461486816, -0.2257254272699356, -0.840087890625, 0.354248046875, 0.177734375, 
70, 3330801320, 0.5961301326751709, -0.6075360774993896, -0.2581203877925873, -0.4570789337158203, 8.462896347045898, -4.760300636291504, 1.2737324237823486, 0.1674402356147766, -2.275632619857788, -0.42259642481803894, -0.843017578125, 0.355224609375, 0.1787109375, 
71, 3330809653, 0.5961138010025024, -0.6075567007064819, -0.258217453956604, -0.4570179581642151, 8.452122688293457, -4.728673934936523, 1.2803913354873657, 0.08578206598758698, -2.174379348754883, -0.4777951240539551, -0.842041015625, 0.352783203125, 0.1787109375, 
72, 3330817986, 0.5960951447486877, -0.6075759530067444, -0.25829944014549255, -0.4569704532623291, 8.451266288757324, -4.736665725708008, 1.2640776634216309, -0.11423949152231216, -1.9409700632095337, -0.47716763615608215, -0.843017578125, 0.354736328125, 0.1787109375, 
73, 3330826319, 0.5960748195648193, -0.6075983643531799, -0.25838303565979004, -0.45691993832588196, 8.461091995239258, -4.720031261444092, 1.258370041847229, -0.1868942826986313, -1.9430831670761108, -0.4879896342754364, -0.844482421875, 0.35400390625, 0.17919921875, 
74, 3330834652, 0.5960366725921631, -0.6076322197914124, -0.2584468126296997, -0.4568885564804077, 8.447677612304688, -4.723372459411621, 1.2420161962509155, -0.5686743259429932, -1.8187003135681152, -0.5282039642333984, -0.842529296875, 0.354736328125, 0.17919921875, 
75, 3330842985, 0.5959873795509338, -0.6076716184616089, -0.2584877610206604, -0.4568769633769989, 8.449816703796387, -4.726919174194336, 1.251706600189209, -0.924123227596283, -1.5056945085525513, -0.5639870762825012, -0.842041015625, 0.354736328125, 0.18017578125, 
76, 3330851318, 0.5959200859069824, -0.6077196002006531, -0.25851017236709595, -0.45688843727111816, 8.44810676574707, -4.7211737632751465, 1.2772899866104126, -1.3389201164245605, -1.3132033348083496, -0.6644204258918762, -0.843994140625, 0.35400390625, 0.181640625, 
77, 3330859651, 0.5958471894264221, -0.6077663898468018, -0.25852012634277344, -0.45691558718681335, 8.44405746459961, -4.71818208694458, 1.276149034500122, -1.42001473903656, -1.1144369840621948, -0.7289682626724243, -0.842041015625, 0.354736328125, 0.1787109375, 
78, 3330867984, 0.5957692861557007, -0.6078137755393982, -0.25853076577186584, -0.45694810152053833, 8.440886497497559, -4.729455471038818, 1.2661325931549072, -1.5729572772979736, -1.075682520866394, -0.8080650568008423, -0.842041015625, 0.354248046875, 0.1796875, 
79, 3330876317, 0.5956886410713196, -0.607862114906311, -0.25853633880615234, -0.45698586106300354, 8.468772888183594, -4.750508785247803, 1.2561644315719604, -1.6290524005889893, -0.9887991547584534, -0.8322705030441284, -0.843505859375, 0.35498046875, 0.18115234375, 
80, 3330884650, 0.5956053733825684, -0.607902467250824, -0.2585601210594177, -0.45702728629112244, 8.501840591430664, -4.7634100914001465, 1.250478744506836, -1.5086143016815186, -1.0838791131973267, -1.05001699924469, -0.84130859375, 0.35205078125, 0.181640625, 
81, 3330892983, 0.5955303907394409, -0.6079326272010803, -0.25859421491622925, -0.4570654630661011, 8.541779518127441, -4.8057661056518555, 1.2608654499053955, -1.324806571006775, -1.0451247692108154, -1.1144626140594482, -0.843994140625, 0.357177734375, 0.1796875, 
82, 3330901316, 0.595458447933197, -0.6079466938972473, -0.2586378753185272, -0.45711588859558105, 8.522431373596191, -4.825484752655029, 1.275571346282959, -1.1062915325164795, -0.9665147066116333, -1.3133058547973633, -0.841552734375, 0.3525390625, 0.18017578125, 
83, 3330909649, 0.5953879356384277, -0.6079553365707397, -0.25868818163871765, -0.45716774463653564, 8.543682098388672, -4.809556484222412, 1.2825945615768433, -0.9392355680465698, -0.9779642224311829, -1.391019344329834, -0.842041015625, 0.3525390625, 0.18017578125, 
84, 3330917982, 0.5953286290168762, -0.6079528331756592, -0.25874876976013184, -0.4572140574455261, 8.528903007507324, -4.82252836227417, 1.2641925811767578, -0.7438245415687561, -0.9878257513046265, -1.4007784128189087, -0.843017578125, 0.3544921875, 0.181640625, 
85, 3330926315, 0.5952576398849487, -0.6079617738723755, -0.2587815225124359, -0.45727619528770447, 8.498744010925293, -4.789151191711426, 1.2371282577514648, -0.6500253081321716, -1.0054740905761719, -1.2559300661087036, -0.842529296875, 0.3525390625, 0.18115234375, 
86, 3330934648, 0.5951966047286987, -0.6079638600349426, -0.2588450312614441, -0.45731669664382935, 8.453912734985352, -4.769229412078857, 1.2271212339401245, -0.7572976350784302, -1.0981462001800537, -1.3713732957839966, -0.843505859375, 0.3544921875, 0.181640625, 
87, 3330942981, 0.5951294898986816, -0.6079877614974976, -0.25889167189598083, -0.45734596252441406, 8.441370010375977, -4.761850833892822, 1.2107998132705688, -0.9012496471405029, -1.2671746015548706, -1.08626127243042, -0.842529296875, 0.3544921875, 0.18115234375, 
88, 3330951314, 0.5950643420219421, -0.6080213189125061, -0.2589271366596222, -0.45736610889434814, 8.475558280944824, -4.787890434265137, 1.2096874713897705, -1.1531400680541992, -1.2501410245895386, -0.8851382732391357, -0.843017578125, 0.353515625, 0.18115234375, 
89, 3330959647, 0.5949984788894653, -0.6080601215362549, -0.25896427035331726, -0.4573790431022644, 8.512075424194336, -4.806277751922607, 1.2258695363998413, -1.1596204042434692, -1.3310565948486328, -0.8358821868896484, -0.842529296875, 0.3525390625, 0.18115234375, 
90, 3330967980, 0.5949364900588989, -0.6081006526947021, -0.2590026259422302, -0.4573841691017151, 8.53182315826416, -4.824248313903809, 1.2262146472930908, -1.1112351417541504, -1.4315924644470215, -0.7416217923164368, -0.843017578125, 0.353515625, 0.181640625, 
91, 3330976313, 0.5948834419250488, -0.6081317663192749, -0.2590523958206177, -0.45738351345062256, 8.533865928649902, -4.835561752319336, 1.2640947103500366, -0.911111056804657, -1.425521731376648, -0.7861648797988892, -0.841064453125, 0.3525390625, 0.1826171875, 
92, 3330984646, 0.5948356986045837, -0.6081489324569702, -0.25911828875541687, -0.45738545060157776, 8.515146255493164, -4.818628311157227, 1.2839492559432983, -0.6167523860931396, -1.4865093231201172, -0.9381341934204102, -0.843017578125, 0.35302734375, 0.18212890625, 
93, 3330992979, 0.5947999954223633, -0.6081517934799194, -0.25920599699020386, -0.45737820863723755, 8.492400169372559, -4.802443504333496, 1.2535910606384277, -0.201443150639534, -1.594063401222229, -1.0292184352874756, -0.843505859375, 0.35400390625, 0.1806640625, 
94, 3331001312, 0.5947816371917725, -0.6081339716911316, -0.2593168020248413, -0.4573630392551422, 8.461819648742676, -4.801409721374512, 1.2521902322769165, 0.2594466209411621, -1.6724430322647095, -1.1141550540924072, -0.841552734375, 0.353515625, 0.18408203125, 
95, 3331009645, 0.5947884321212769, -0.6081045269966125, -0.25944042205810547, -0.45732352137565613, 8.447487831115723, -4.7953104972839355, 1.2472834587097168, 0.4719550907611847, -1.6422309875488281, -0.9607130885124207, -0.843505859375, 0.3515625, 0.18359375, 
96, 3331017978, 0.59477698802948, -0.6080799102783203, -0.25955986976623535, -0.45730334520339966, 8.42912483215332, -4.7701849937438965, 1.217676043510437, 0.4449320435523987, -1.7156157493591309, -1.1258224248886108, -0.843994140625, 0.353515625, 0.181640625, 
97, 3331026311, 0.5947731733322144, -0.6080453395843506, -0.2596907913684845, -0.45727989077568054, 8.433266639709473, -4.766438961029053, 1.2303863763809204, 0.5273970365524292, -1.6355841159820557, -1.2214019298553467, -0.843017578125, 0.3544921875, 0.18212890625, 
98, 3331034644, 0.5947542190551758, -0.6080133318901062, -0.2598063051700592, -0.4572814702987671, 8.467808723449707, -4.7820844650268555, 1.2054749727249146, 0.33890193700790405, -1.4834612607955933, -1.3437355756759644, -0.843994140625, 0.3525390625, 0.18212890625, 
99, 3331042977, 0.5947209596633911, -0.607984185218811, -0.2599219083786011, -0.45729780197143555, 8.486597061157227, -4.790029048919678, 1.223393440246582, 0.1272515058517456, -1.3895337581634521, -1.5624041557312012, -0.843994140625, 0.3525390625, 0.181640625, 
100, 3331051310, 0.594680905342102, -0.6079465746879578, -0.2600303292274475, -0.4573383927345276, 8.496411323547363, -4.805368900299072, 1.244723916053772, 0.025383707135915756, -1.1387447118759155, -1.756150245666504, -0.843994140625, 0.3525390625, 0.18310546875, 
101, 3331059643, 0.5946375131607056, -0.6079022884368896, -0.2601493299007416, -0.4573858380317688, 8.504406929016113, -4.838587760925293, 1.2610621452331543, -0.02672845683991909, -1.0400532484054565, -1.9800701141357422, -0.846435546875, 0.35107421875, 0.180908203125, 
102, 3331067976, 0.5945817828178406, -0.6078588366508484, -0.2602556645870209, -0.4574556350708008, 8.492691040039062, -4.8150458335876465, 1.2582242488861084, -0.1752910017967224, -0.895896315574646, -2.097895383834839, -0.847900390625, 0.351318359375, 0.182373046875, 
103, 3331076309, 0.5945513248443604, -0.607794463634491, -0.26038676500320435, -0.4575059413909912, 8.482049942016602, -4.831681728363037, 1.2543230056762695, -0.0885355994105339, -0.7186457514762878, -2.1614186763763428, -0.846923828125, 0.35205078125, 0.181396484375, 
104, 3331084642, 0.5944958925247192, -0.6077461838722229, -0.26047980785369873, -0.4575892388820648, 8.45326042175293, -4.828396797180176, 1.218902826309204, -0.265094518661499, -0.6431350708007812, -2.1119322776794434, -0.845947265625, 0.35009765625, 0.181396484375, 
105, 3331092975, 0.5944504737854004, -0.607707142829895, -0.26055091619491577, -0.45765960216522217, 8.471981048583984, -4.824007034301758, 1.2005910873413086, -0.3600720763206482, -0.5615023970603943, -1.7423186302185059, -0.844482421875, 0.35107421875, 0.1826171875, 
106, 3331101308, 0.5944100618362427, -0.6076763868331909, -0.2605935037136078, -0.45772868394851685, 8.43382453918457, -4.82611608505249, 1.2101036310195923, -0.5500272512435913, -0.4063570499420166, -1.4190670251846313, -0.846435546875, 0.349365234375, 0.182373046875, 
107, 3331109641, 0.594369649887085, -0.6076642870903015, -0.2606022357940674, -0.45779234170913696, 8.446792602539062, -4.843855381011963, 1.2029222249984741, -0.8322193622589111, -0.300672709941864, -1.0256580114364624, -0.842041015625, 0.35400390625, 0.18359375, 
108, 3331117974, 0.5943289995193481, -0.6076744794845581, -0.26058530807495117, -0.4578411877155304, 8.448022842407227, -4.824428558349609, 1.1794750690460205, -1.1886670589447021, -0.3489811420440674, -0.6085558533668518, -0.8466796875, 0.349365234375, 0.183837890625, 
109, 3331126307, 0.5942891240119934, -0.6076949238777161, -0.26052889227867126, -0.45789793133735657, 8.440018653869629, -4.818154811859131, 1.1903189420700073, -1.402609944343567, -0.07182232290506363, -0.29410266876220703, -0.845947265625, 0.3525390625, 0.181640625, 
110, 3331134640, 0.5942538976669312, -0.607725977897644, -0.2604725956916809, -0.45793452858924866, 8.43265151977539, -4.843082904815674, 1.1758415699005127, -1.5178356170654297, -0.24029992520809174, -0.07088739424943924, -0.845703125, 0.348388671875, 0.181884765625, 
111, 3331142973, 0.5942229628562927, -0.6077634692192078, -0.2604030966758728, -0.4579642117023468, 8.450804710388184, -4.8535685539245605, 1.1817855834960938, -1.4892243146896362, -0.24567891657352448, 0.14564253389835358, -0.845458984375, 0.35205078125, 0.18408203125, 
112, 3331151306, 0.594215452671051, -0.607791006565094, -0.26033616065979004, -0.4579755961894989, 8.44351577758789, -4.846287250518799, 1.1935949325561523, -1.2336711883544922, -0.24355296790599823, 0.38641634583473206, -0.8427734375, 0.3505859375, 0.181640625, 
113, 3331159639, 0.5942133665084839, -0.607814610004425, -0.26026278734207153, -0.4579887092113495, 8.471126556396484, -4.849184036254883, 1.198043942451477, -0.9867885112762451, -0.2238427996635437, 0.465192973613739, -0.8447265625, 0.349609375, 0.181396484375, 
114, 3331167972, 0.5942380428314209, -0.6078274250030518, -0.2602023482322693, -0.4579739570617676, 8.496390342712402, -4.869447708129883, 1.209545612335205, -0.7110384106636047, -0.30740922689437866, 0.6959899663925171, -0.843505859375, 0.35107421875, 0.1806640625, 
115, 3331176305, 0.594265341758728, -0.6078406572341919, -0.260139524936676, -0.4579566419124603, 8.516733169555664, -4.8261518478393555, 1.1762921810150146, -0.6277408599853516, -0.3131211996078491, 0.7497286796569824, -0.844482421875, 0.3505859375, 0.181640625, 
116, 3331184638, 0.5943001508712769, -0.6078430414199829, -0.26007792353630066, -0.45794323086738586, 8.53903579711914, -4.819656848907471, 1.1687815189361572, -0.5528703927993774, -0.18410231173038483, 0.7194270491600037, -0.845458984375, 0.3515625, 0.179443359375, 
117, 3331192971, 0.5943188071250916, -0.6078591346740723, -0.2600044906139374, -0.4579392671585083, 8.51601791381836, -4.828476428985596, 1.1687959432601929, -0.5964658856391907, -0.29885411262512207, 0.7252926826477051, -0.8427734375, 0.3486328125, 0.18017578125, 
118, 3331201304, 0.594346284866333, -0.6078676581382751, -0.25995293259620667, -0.4579215943813324, 8.509193420410156, -4.814614295959473, 1.1349343061447144, -0.5856311321258545, -0.3649132251739502, 0.6476303935050964, -0.847412109375, 0.349853515625, 0.182861328125, 
119, 3331209637, 0.5943734049797058, -0.6078777313232422, -0.2599181830883026, -0.4578929543495178, 8.495309829711914, -4.7954020500183105, 1.118726134300232, -0.8054779767990112, -0.38212594389915466, 0.5253223180770874, -0.845458984375, 0.3515625, 0.18359375, 
120, 3331217970, 0.5943780541419983, -0.6079068779945374, -0.2598719894886017, -0.4578743875026703, 8.493521690368652, -4.786003112792969, 1.154197096824646, -0.9085496664047241, -0.6288934350013733, 0.538718581199646, -0.843994140625, 0.35107421875, 0.1826171875, 
121, 3331226303, 0.5943663120269775, -0.6079487204551697, -0.2598159909248352, -0.457865834236145, 8.484487533569336, -4.77961540222168, 1.1465723514556885, -1.1059585809707642, -0.6521255970001221, 0.4886939525604248, -0.845458984375, 0.3515625, 0.181640625, 
122, 3331234636, 0.5943706035614014, -0.6079818606376648, -0.25977984070777893, -0.4578368663787842, 8.463944435119629, -4.800387382507324, 1.1816926002502441, -0.8436943292617798, -0.8269171118736267, 0.5523197054862976, -0.844970703125, 0.350341796875, 0.18310546875, 
123, 3331242969, 0.5943800210952759, -0.6080198287963867, -0.25974005460739136, -0.4577968120574951, 8.435412406921387, -4.7865824699401855, 1.1738673448562622, -0.7002803683280945, -0.9397221803665161, 0.7292885184288025, -0.845947265625, 0.3505859375, 0.181884765625, 
124, 3331251302, 0.5944021940231323, -0.6080431342124939, -0.25973188877105713, -0.4577416479587555, 8.42121410369873, -4.769336700439453, 1.1957049369812012, -0.34349972009658813, -1.1462754011154175, 0.6093882918357849, -0.843994140625, 0.3515625, 0.181640625, 
125, 3331259635, 0.5944375991821289, -0.608073890209198, -0.2597233057022095, -0.4576597511768341, 8.4231595993042, -4.781153202056885, 1.161492943763733, -0.3470088243484497, -1.2552639245986938, 0.9023638367652893, -0.845947265625, 0.35107421875, 0.181396484375, 
126, 3331267968, 0.5944804549217224, -0.6080973744392395, -0.2597271800041199, -0.4575704336166382, 8.42793083190918, -4.751132011413574, 1.144505262374878, 0.024871420115232468, -1.4573603868484497, 0.9175274968147278, -0.845458984375, 0.3515625, 0.18310546875, 
127, 3331276301, 0.5945188403129578, -0.6081319451332092, -0.259732186794281, -0.45747196674346924, 8.460166931152344, -4.75546932220459, 1.144821047782898, 0.015112395398318768, -1.643985629081726, 0.9938322305679321, -0.847900390625, 0.351806640625, 0.182373046875, 
128, 3331284634, 0.5945640206336975, -0.6081574559211731, -0.25974929332733154, -0.4573696553707123, 8.491144180297852, -4.776251316070557, 1.1388970613479614, 0.15763001143932343, -1.678795576095581, 0.9355343580245972, -0.843017578125, 0.35400390625, 0.18505859375, 
129, 3331292967, 0.5946187973022461, -0.6081723570823669, -0.25978657603263855, -0.457257479429245, 8.530401229858398, -4.78676700592041, 1.173729419708252, 0.2981241047382355, -1.6889641284942627, 0.8250600695610046, -0.843994140625, 0.35205078125, 0.18115234375, 
130, 3331301300, 0.5946652293205261, -0.608184814453125, -0.2598186731338501, -0.45716220140457153, 8.559083938598633, -4.768664360046387, 1.196264624595642, 0.3449724614620209, -1.656587839126587, 0.715507984161377, -0.843505859375, 0.35107421875, 0.18115234375, 
131, 3331309633, 0.5947223901748657, -0.6081866025924683, -0.2598724067211151, -0.45705485343933105, 8.573416709899902, -4.777602672576904, 1.2367801666259766, 0.3724309504032135, -1.6114811897277832, 0.5916375517845154, -0.847412109375, 0.352294921875, 0.18359375, 
132, 3331317966, 0.5947637557983398, -0.6081929206848145, -0.2599017918109894, -0.4569760262966156, 8.574919700622559, -4.749824047088623, 1.2458322048187256, 0.2747895121574402, -1.477902889251709, 0.5487592816352844, -0.844970703125, 0.35107421875, 0.1826171875, 
133, 3331326299, 0.5947907567024231, -0.6082082390785217, -0.2599269151687622, -0.4569060504436493, 8.58073616027832, -4.741168975830078, 1.2417407035827637, 0.13124732673168182, -1.5047721862792969, 0.4575214684009552, -0.844970703125, 0.35205078125, 0.18359375, 
134, 3331334632, 0.5948231220245361, -0.6082209944725037, -0.2599412798881531, -0.4568389058113098, 8.556553840637207, -4.747478008270264, 1.2609318494796753, 0.012525361031293869, -1.3281365633010864, 0.544994056224823, -0.844970703125, 0.3525390625, 0.18310546875, 
135, 3331342965, 0.5948481559753418, -0.6082499027252197, -0.2599293887615204, -0.45677438378334045, 8.49893569946289, -4.705862998962402, 1.2363548278808594, -0.3214970529079437, -1.2105928659439087, 0.7468342781066895, -0.845458984375, 0.35107421875, 0.18212890625, 
136, 3331351298, 0.594872236251831, -0.6082852482795715, -0.25988754630088806, -0.45671984553337097, 8.46780014038086, -4.687737464904785, 1.248657464981079, -0.6390495300292969, -0.9333826899528503, 0.9400551915168762, -0.844970703125, 0.351806640625, 0.1845703125, 
137, 3331359631, 0.5948834419250488, -0.6083365082740784, -0.25982657074928284, -0.456671804189682, 8.445368766784668, -4.676214218139648, 1.2368195056915283, -0.9948952794075012, -0.8556306958198547, 1.0148615837097168, -0.845458984375, 0.35205078125, 0.18359375, 
138, 3331367964, 0.5948818325996399, -0.6083978414535522, -0.2597457766532898, -0.45663806796073914, 8.451739311218262, -4.678454399108887, 1.2366302013397217, -1.386408805847168, -0.6959003210067749, 1.0292824506759644, -0.843505859375, 0.3525390625, 0.18359375, 
139, 3331376297, 0.5948649048805237, -0.6084693670272827, -0.25964513421058655, -0.4566217064857483, 8.452107429504395, -4.677196502685547, 1.2482764720916748, -1.7296395301818848, -0.51186203956604, 0.9869164824485779, -0.844970703125, 0.353515625, 0.18505859375, 
140, 3331384630, 0.5948380827903748, -0.6085419058799744, -0.2595278024673462, -0.4566269516944885, 8.488950729370117, -4.684250354766846, 1.247223138809204, -2.0582189559936523, -0.23151426017284393, 0.8969336152076721, -0.844482421875, 0.35107421875, 0.18212890625, 
141, 3331392963, 0.5948178768157959, -0.6086022257804871, -0.25943440198898315, -0.4566260576248169, 8.481284141540527, -4.709881782531738, 1.2619800567626953, -2.1776838302612305, -0.09639916568994522, 0.6571587324142456, -0.842041015625, 0.3525390625, 0.185546875, 
142, 3331401296, 0.594772219657898, -0.6086575388908386, -0.25932708382606506, -0.4566727578639984, 8.535067558288574, -4.714727401733398, 1.2719030380249023, -2.159395217895508, 0.07312863320112228, 0.29356473684310913, -0.843994140625, 0.3544921875, 0.181640625, 
143, 3331409629, 0.594737708568573, -0.6086815595626831, -0.25926443934440613, -0.45672112703323364, 8.549457550048828, -4.730513572692871, 1.266183614730835, -1.8517426252365112, 0.16918201744556427, -0.20095646381378174, -0.843017578125, 0.353515625, 0.18408203125, 
144, 3331417962, 0.5947005152702332, -0.6086788773536682, -0.25922560691833496, -0.45679524540901184, 8.529658317565918, -4.74765682220459, 1.2555814981460571, -1.2824151515960693, 0.13567860424518585, -0.6565056443214417, -0.846435546875, 0.352783203125, 0.1845703125, 
145, 3331426295, 0.5946767330169678, -0.6086439490318298, -0.2592259645462036, -0.45687243342399597, 8.527677536010742, -4.754780292510986, 1.2595659494400024, -0.7503049373626709, 0.1672097146511078, -1.0665127038955688, -0.846435546875, 0.3525390625, 0.1826171875, 
146, 3331434628, 0.5946621298789978, -0.6085814833641052, -0.2592596709728241, -0.4569556415081024, 8.507033348083496, -4.7581281661987305, 1.2587144374847412, -0.18074683845043182, 0.0761767253279686, -1.410793662071228, -0.845458984375, 0.35498046875, 0.181640625, 
147, 3331442961, 0.5946379899978638, -0.6085096001625061, -0.2593284547328949, -0.45704376697540283, 8.487160682678223, -4.763154029846191, 1.2410613298416138, 0.19612818956375122, -0.21491622924804688, -1.8215433359146118, -0.845947265625, 0.3505859375, 0.181884765625, 
148, 3331451294, 0.5946303606033325, -0.6084141135215759, -0.259441077709198, -0.4571169316768646, 8.507107734680176, -4.77617883682251, 1.236847996711731, 0.6802372932434082, -0.4218536615371704, -2.060396432876587, -0.843505859375, 0.35205078125, 0.1826171875, 
149, 3331459627, 0.5946332216262817, -0.6083091497421265, -0.2595813572406769, -0.45717307925224304, 8.473258018493652, -4.776516914367676, 1.2434271574020386, 0.9796420931816101, -0.6032024621963501, -2.1528637409210205, -0.843994140625, 0.3525390625, 0.18359375, 
150, 3331467960, 0.5946319699287415, -0.6081941723823547, -0.2597389817237854, -0.45723843574523926, 8.477300643920898, -4.803147792816162, 1.2288094758987427, 1.2020760774612427, -0.7099881768226624, -2.4025001525878906, -0.845947265625, 0.353515625, 0.1845703125, 
151, 3331476293, 0.5946475863456726, -0.6080796718597412, -0.25989800691604614, -0.4572799801826477, 8.474129676818848, -4.784298896789551, 1.2433443069458008, 1.3409053087234497, -0.7830399870872498, -2.140979051589966, -0.843505859375, 0.3525390625, 0.181640625, 
152, 3331484626, 0.5946601629257202, -0.6079698801040649, -0.26005086302757263, -0.4573228061199188, 8.471175193786621, -4.7815680503845215, 1.2713351249694824, 1.3274321556091309, -0.8398267030715942, -2.075867176055908, -0.845947265625, 0.3515625, 0.18310546875, 
153, 3331492959, 0.5946812629699707, -0.6078580617904663, -0.2601993978023529, -0.4573594331741333, 8.475139617919922, -4.789999961853027, 1.2547420263290405, 1.3487175703048706, -0.753967821598053, -1.964829683303833, -0.846923828125, 0.3525390625, 0.1826171875, 
154, 3331501292, 0.5946990251541138, -0.6077569127082825, -0.26032206416130066, -0.45740100741386414, 8.466320991516113, -4.764822483062744, 1.2538690567016602, 1.114526629447937, -0.6409065127372742, -1.7470060586929321, -0.846923828125, 0.353271484375, 0.18359375, 
155, 3331509625, 0.5947162508964539, -0.6076675057411194, -0.2604294717311859, -0.45743608474731445, 8.454548835754395, -4.775702476501465, 1.237924337387085, 0.9199352264404297, -0.6051235198974609, -1.5448074340820312, -0.845947265625, 0.353271484375, 0.185546875, 
156, 3331517958, 0.5947369933128357, -0.60757976770401, -0.26051396131515503, -0.4574776887893677, 8.484859466552734, -4.745846748352051, 1.2414116859436035, 0.7893026471138, -0.40220752358436584, -1.3626645803451538, -0.845947265625, 0.35107421875, 0.180419921875, 
157, 3331526291, 0.5947458744049072, -0.6075088977813721, -0.26057374477386475, -0.45752590894699097, 8.481169700622559, -4.758485794067383, 1.220417857170105, 0.41392600536346436, -0.28865960240364075, -1.2311865091323853, -0.848876953125, 0.351318359375, 0.181884765625, 
158, 3331534624, 0.5947588086128235, -0.6074386239051819, -0.2606082260608673, -0.4575827717781067, 8.477599143981934, -4.791539192199707, 1.2340298891067505, 0.2114967256784439, -0.004059855826199055, -1.0564463138580322, -0.846923828125, 0.3515625, 0.180419921875, 
159, 3331542957, 0.5947767496109009, -0.607374906539917, -0.2606332004070282, -0.45762988924980164, 8.46709156036377, -4.78696870803833, 1.2479994297027588, -0.043454550206661224, 0.12013076990842819, -0.8899538516998291, -0.846923828125, 0.350341796875, 0.182861328125, 
160, 3331551290, 0.5947735905647278, -0.607322096824646, -0.26062989234924316, -0.4577060639858246, 8.485367774963379, -4.804028034210205, 1.2451812028884888, -0.37239256501197815, 0.2985594868659973, -0.9373912811279297, -0.845458984375, 0.350830078125, 0.18310546875, 
161, 3331559623, 0.5947666764259338, -0.607266366481781, -0.26062655448913574, -0.4577907621860504, 8.456127166748047, -4.8065314292907715, 1.2499521970748901, -0.44954267144203186, 0.42501702904701233, -1.0594944953918457, -0.847412109375, 0.35205078125, 0.180419921875, 
162, 3331567956, 0.5947524905204773, -0.6072230339050293, -0.2606031596660614, -0.4578801095485687, 8.467635154724121, -4.821030616760254, 1.241340160369873, -0.7162508368492126, 0.47464457154273987, -0.9126864075660706, -0.845947265625, 0.3505859375, 0.181396484375, 
163, 3331576289, 0.5947413444519043, -0.6071748733520508, -0.26057663559913635, -0.4579733908176422, 8.463529586791992, -4.8285908699035645, 1.2250745296478271, -0.6881136298179626, 0.6018832921981812, -0.9314231872558594, -0.843505859375, 0.3505859375, 0.18017578125, 
164, 3331584622, 0.5947331786155701, -0.6071274876594543, -0.2605505585670471, -0.45806166529655457, 8.497970581054688, -4.8254008293151855, 1.2153466939926147, -0.6440827250480652, 0.5369767546653748, -0.8576798439025879, -0.844482421875, 0.35107421875, 0.179443359375, 
165, 3331592955, 0.594733715057373, -0.6070824861526489, -0.2605381906032562, -0.4581277370452881, 8.500496864318848, -4.8258161544799805, 1.2029646635055542, -0.7023807168006897, 0.435749351978302, -0.7869589328765869, -0.845458984375, 0.35302734375, 0.18310546875, 
166, 3331601288, 0.594727098941803, -0.6070411801338196, -0.26050233840942383, -0.45821142196655273, 8.477770805358887, -4.833204746246338, 1.2020424604415894, -0.7268936038017273, 0.5434572100639343, -0.7080414891242981, -0.84521484375, 0.34912109375, 0.180419921875, 
167, 3331609621, 0.5947287082672119, -0.6070114374160767, -0.26045697927474976, -0.4582745134830475, 8.459037780761719, -4.8126115798950195, 1.197285771369934, -0.719170868396759, 0.42085468769073486, -0.37614503502845764, -0.844970703125, 0.3505859375, 0.180419921875, 
168, 3331617954, 0.594733715057373, -0.606987476348877, -0.2604036033153534, -0.45833009481430054, 8.431936264038086, -4.811910629272461, 1.2040737867355347, -0.7833473086357117, 0.38503316044807434, -0.19762663543224335, -0.845947265625, 0.349853515625, 0.181396484375, 
169, 3331626287, 0.5947413444519043, -0.6069713830947876, -0.2603456377983093, -0.4583744406700134, 8.41362476348877, -4.8354363441467285, 1.1945033073425293, -0.6856289505958557, 0.2433096170425415, -0.013050451874732971, -0.846435546875, 0.349365234375, 0.182373046875, 
170, 3331634620, 0.5947566032409668, -0.6069628596305847, -0.26028111577033997, -0.4584025740623474, 8.40599250793457, -4.800222873687744, 1.2034586668014526, -0.7945407032966614, 0.18662530183792114, 0.24141418933868408, -0.844970703125, 0.35205078125, 0.1796875, 
171, 3331642953, 0.5947675108909607, -0.6069719791412354, -0.2601971924304962, -0.45842379331588745, 8.415549278259277, -4.803098201751709, 1.2118703126907349, -0.7739725112915039, 0.01900576241314411, 0.5315210223197937, -0.84521484375, 0.3486328125, 0.180419921875, 
172, 3331651286, 0.5947960615158081, -0.6069784760475159, -0.26012957096099854, -0.45841675996780396, 8.433202743530273, -4.803598880767822, 1.1859912872314453, -0.6995119452476501, -0.12992820143699646, 0.6933261156082153, -0.843994140625, 0.3505859375, 0.181640625, 
173, 3331659619, 0.5948342084884644, -0.6069918274879456, -0.26006725430488586, -0.45838463306427, 8.45518970489502, -4.822554111480713, 1.1985803842544556, -0.7603200674057007, -0.24511539936065674, 0.8889163732528687, -0.846923828125, 0.348388671875, 0.178466796875, 
174, 3331667952, 0.5948682427406311, -0.6069977283477783, -0.2600061893463135, -0.45836734771728516, 8.483222007751465, -4.829291820526123, 1.1896107196807861, -0.5714919567108154, -0.24537153542041779, 0.7555686235427856, -0.845458984375, 0.3515625, 0.179931640625, 
175, 3331676285, 0.5949076414108276, -0.6069955825805664, -0.25995758175849915, -0.45834678411483765, 8.513449668884277, -4.837203025817871, 1.1903046369552612, -0.29662564396858215, -0.31798791885375977, 0.6788284182548523, -0.845458984375, 0.3515625, 0.179443359375, 
176, 3331684618, 0.5949551463127136, -0.6069830060005188, -0.2599222958087921, -0.4583219289779663, 8.486075401306152, -4.790752410888672, 1.228028655052185, -0.11904214322566986, -0.3548724055290222, 0.619454562664032, -0.844970703125, 0.349609375, 0.180908203125, 
177, 3331692951, 0.5950194001197815, -0.6069620251655579, -0.2599075436592102, -0.45827430486679077, 8.472013473510742, -4.77952241897583, 1.2181720733642578, -0.1932978332042694, -0.2943972051143646, 0.6132816672325134, -0.844482421875, 0.3515625, 0.17919921875, 
178, 3331701284, 0.5950635671615601, -0.6069508790969849, -0.2598596215248108, -0.4582589864730835, 8.46799373626709, -4.726233959197998, 1.2089592218399048, -0.2712675631046295, -0.19106937944889069, 0.6307249069213867, -0.846435546875, 0.3505859375, 0.178955078125, 
179, 3331709617, 0.5950865149497986, -0.6069592237472534, -0.2597803473472595, -0.4582631587982178, 8.463493347167969, -4.722134590148926, 1.1788597106933594, -0.5378861427307129, -0.13502545654773712, 0.7118964195251465, -0.844970703125, 0.353515625, 0.18212890625, 
180, 3331717950, 0.595111608505249, -0.606968879699707, -0.25970810651779175, -0.45825865864753723, 8.42866039276123, -4.717556953430176, 1.2028647661209106, -0.7933112978935242, -0.10136832296848297, 0.6991917490959167, -0.846435546875, 0.3505859375, 0.179443359375, 
181, 3331726283, 0.5951171517372131, -0.6070041656494141, -0.2596161365509033, -0.4582568407058716, 8.409891128540039, -4.720983505249023, 1.1939311027526855, -1.132674217224121, -0.2167092263698578, 0.8238818049430847, -0.844970703125, 0.35107421875, 0.178466796875, 
182, 3331734616, 0.5951204299926758, -0.6070488095283508, -0.2595181167125702, -0.4582490026950836, 8.43439769744873, -4.738400459289551, 1.1888227462768555, -1.410973072052002, -0.2175801396369934, 0.9299504160881042, -0.845947265625, 0.35205078125, 0.179931640625, 
183, 3331742949, 0.5951143503189087, -0.6070974469184875, -0.25942596793174744, -0.4582446217536926, 8.444496154785156, -4.753754615783691, 1.18246591091156, -1.5356245040893555, -0.24566614627838135, 0.786856472492218, -0.845458984375, 0.35107421875, 0.179443359375, 
184, 3331751282, 0.5951008200645447, -0.6071434617042542, -0.2593553364276886, -0.4582412838935852, 8.45081901550293, -4.775896072387695, 1.168660044670105, -1.4077198505401611, -0.47333824634552, 0.5625654458999634, -0.844970703125, 0.3525390625, 0.1796875, 
185, 3331759615, 0.5950988531112671, -0.6071728467941284, -0.2593146562576294, -0.4582279920578003, 8.484702110290527, -4.8008952140808105, 1.2091881036758423, -1.1027312278747559, -0.5401914119720459, 0.3682302236557007, -0.846435546875, 0.349365234375, 0.180419921875, 
186, 3331767948, 0.5951042771339417, -0.6071712970733643, -0.25929760932922363, -0.458232581615448, 8.498493194580078, -4.789007186889648, 1.22757089138031, -0.550923764705658, -0.47861483693122864, 0.0013063258957117796, -0.845947265625, 0.3505859375, 0.179931640625, 
187, 3331776281, 0.5950989127159119, -0.6071679592132568, -0.25929197669029236, -0.4582470655441284, 8.53018569946289, -4.816115856170654, 1.2139803171157837, -0.3729816973209381, -0.6092986464500427, -0.22754406929016113, -0.846435546875, 0.35205078125, 0.177978515625, 
188, 3331784614, 0.5951218008995056, -0.6071368455886841, -0.25931215286254883, -0.45824724435806274, 8.520115852355957, -4.796095848083496, 1.2166913747787476, 0.08877893537282944, -0.5710053443908691, -0.2686292827129364, -0.845458984375, 0.3525390625, 0.1796875, 
189, 3331792947, 0.5951370596885681, -0.6071121096611023, -0.25932765007019043, -0.45825159549713135, 8.501453399658203, -4.755947113037109, 1.214702844619751, 0.04684843122959137, -0.6061479449272156, -0.2853553593158722, -0.84326171875, 0.35009765625, 0.17919921875, 
190, 3331801280, 0.5951566696166992, -0.607093095779419, -0.2593393325805664, -0.4582447111606598, 8.496925354003906, -4.738973140716553, 1.220253348350525, -0.06630244851112366, -0.6478480100631714, -0.11737722903490067, -0.846435546875, 0.3515625, 0.179931640625, 
191, 3331809613, 0.5951643586158752, -0.6071000099182129, -0.259325236082077, -0.4582332372665405, 8.470003128051758, -4.742198944091797, 1.2330213785171509, -0.5005149245262146, -0.6672636270523071, 0.14154425263404846, -0.846435546875, 0.34912109375, 0.178955078125, 
192, 3331817946, 0.5951622128486633, -0.6071253418922424, -0.2592899203300476, -0.4582226872444153, 8.461255073547363, -4.757862567901611, 1.198515772819519, -0.8931298851966858, -0.6504094004631042, 0.3251214325428009, -0.846923828125, 0.35107421875, 0.181396484375, 
193, 3331826279, 0.5951315760612488, -0.60718834400177, -0.25922638177871704, -0.4582146406173706, 8.473631858825684, -4.7462358474731445, 1.2316633462905884, -1.525673508644104, -0.7663906216621399, 0.49712106585502625, -0.847412109375, 0.3525390625, 0.179443359375, 
194, 3331834612, 0.5951020121574402, -0.6072669625282288, -0.2591419816017151, -0.45819664001464844, 8.459592819213867, -4.74202823638916, 1.2465558052062988, -1.842290997505188, -0.7446697950363159, 0.8138410449028015, -0.846435546875, 0.3525390625, 0.18115234375, 
195, 3331842945, 0.5950688719749451, -0.6073548793792725, -0.25902923941612244, -0.45818719267845154, 8.459962844848633, -4.746710300445557, 1.253151535987854, -2.1085894107818604, -0.5122846364974976, 0.9848288893699646, -0.843505859375, 0.35107421875, 0.17919921875, 
196, 3331851278, 0.5950374007225037, -0.6074444055557251, -0.2589200735092163, -0.458171010017395, 8.469941139221191, -4.786128520965576, 1.2491858005523682, -2.1118810176849365, -0.60228031873703, 1.0305118560791016, -0.844970703125, 0.3525390625, 0.1787109375, 
197, 3331859611, 0.5950424671173096, -0.6075045466423035, -0.2588294744491577, -0.45813581347465515, 8.48408317565918, -4.804088115692139, 1.2525237798690796, -1.6670641899108887, -0.4068949222564697, 1.0949572324752808, -0.845947265625, 0.353515625, 0.18017578125, 
198, 3331867944, 0.5950517654418945, -0.6075559854507446, -0.25874996185302734, -0.45810043811798096, 8.478131294250488, -4.789116382598877, 1.2407110929489136, -1.2028316259384155, -0.6211580038070679, 1.0649631023406982, -0.846923828125, 0.3525390625, 0.180419921875, 
199, 3331876277, 0.5950720310211182, -0.607583224773407, -0.25867727398872375, -0.45807909965515137, 8.476969718933105, -4.777162075042725, 1.2384217977523804, -0.8047608137130737, -0.4045640230178833, 0.8779023885726929, -0.846435546875, 0.35498046875, 0.17822265625, 
200, 3331884610, 0.595102071762085, -0.6075897216796875, -0.2586268186569214, -0.45805996656417847, 8.50121784210205, -4.743658065795898, 1.249937891960144, -0.535478413105011, -0.3646314740180969, 0.658004105091095, -0.847412109375, 0.35107421875, 0.177490234375, 
201, 3331892943, 0.5951189994812012, -0.6075943112373352, -0.2585648000240326, -0.45806676149368286, 8.498865127563477, -4.739795684814453, 1.2488505840301514, -0.4993878901004791, -0.22974686324596405, 0.48705464601516724, -0.846435546875, 0.353515625, 0.18115234375, 
202, 3331901276, 0.5951411128044128, -0.6075966358184814, -0.2585090100765228, -0.4580664336681366, 8.487957000732422, -4.715518951416016, 1.2711174488067627, -0.6685442924499512, -0.16624918580055237, 0.4849286675453186, -0.846923828125, 0.35302734375, 0.18212890625, 
203, 3331909609, 0.5951133966445923, -0.6076262593269348, -0.25841522216796875, -0.4581160843372345, 8.478350639343262, -4.687107563018799, 1.233507752418518, -1.020304560661316, -0.16099826991558075, 0.27829864621162415, -0.844970703125, 0.35107421875, 0.180419921875, 
204, 3331917942, 0.5951012969017029, -0.6076400279998779, -0.2583438754081726, -0.45815393328666687, 8.454466819763184, -4.6999335289001465, 1.2367697954177856, -1.2809550762176514, 0.08562838286161423, 0.1277637928724289, -0.844482421875, 0.35302734375, 0.18017578125, 
205, 3331926275, 0.5950616598129272, -0.6076757907867432, -0.2582462430000305, -0.4582129418849945, 8.475231170654297, -4.7051615715026855, 1.2276616096496582, -1.7242351770401, 0.15073978900909424, 0.0965912863612175, -0.847412109375, 0.3525390625, 0.178955078125, 
206, 3331934608, 0.5950077772140503, -0.6077211499214172, -0.2581477761268616, -0.45827847719192505, 8.49820327758789, -4.730151176452637, 1.2170578241348267, -2.15942120552063, 0.19049307703971863, -0.023193690925836563, -0.846435546875, 0.3515625, 0.180908203125, 
207, 3331942941, 0.5949512124061584, -0.6077643036842346, -0.25804829597473145, -0.45835044980049133, 8.501531600952148, -4.730992794036865, 1.2065978050231934, -2.146409034729004, 0.26024067401885986, -0.0995241180062294, -0.845458984375, 0.3515625, 0.1806640625, 
208, 3331951274, 0.5948960185050964, -0.6078054308891296, -0.2579588294029236, -0.4584181010723114, 8.500346183776855, -4.755745887756348, 1.227327823638916, -2.086573839187622, 0.15616998076438904, -0.13945668935775757, -0.843994140625, 0.3525390625, 0.17724609375, 
209, 3331959607, 0.5948577523231506, -0.6078318357467651, -0.2578775882720947, -0.4584784507751465, 8.467601776123047, -4.726279258728027, 1.1945754289627075, -1.9413669109344482, 0.3220221698284149, -0.14186443388462067, -0.844970703125, 0.35498046875, 0.1796875, 
210, 3331967940, 0.5948164463043213, -0.607858419418335, -0.257800817489624, -0.45853981375694275, 8.462311744689941, -4.743508338928223, 1.203303337097168, -1.7473390102386475, 0.14392638206481934, -0.15876983106136322, -0.846435546875, 0.3544921875, 0.1826171875, 
211, 3331976273, 0.5947664976119995, -0.6078779101371765, -0.2577124834060669, -0.45862820744514465, 8.473944664001465, -4.757821559906006, 1.187608003616333, -1.3921722173690796, 0.19879209995269775, -0.2859188914299011, -0.849853515625, 0.349853515625, 0.179443359375, 
212, 3331984606, 0.5947415828704834, -0.6078829765319824, -0.25767022371292114, -0.4586776793003082, 8.448759078979492, -4.737191200256348, 1.1885236501693726, -1.1754757165908813, -0.04524754732847214, -0.3238023519515991, -0.845947265625, 0.35205078125, 0.178466796875, 
213, 3331992939, 0.5947226881980896, -0.6078821420669556, -0.25765982270240784, -0.45870912075042725, 8.44983959197998, -4.747528076171875, 1.1936450004577637, -0.9948441982269287, -0.2667594850063324, -0.46921440958976746, -0.846923828125, 0.35107421875, 0.178955078125, 
214, 3332001272, 0.5946912169456482, -0.6078786849975586, -0.2576581835746765, -0.45875537395477295, 8.500044822692871, -4.770495414733887, 1.1858340501785278, -0.8930530548095703, -0.3752613365650177, -0.7084000706672668, -0.844970703125, 0.3525390625, 0.1796875, 
215, 3332009605, 0.5946533679962158, -0.6078682541847229, -0.25768858194351196, -0.45880112051963806, 8.47545337677002, -4.764930725097656, 1.2058262825012207, -0.7222573161125183, -0.56931471824646, -1.0558059215545654, -0.844970703125, 0.3515625, 0.178466796875, 
216, 3332017938, 0.5946053862571716, -0.6078510284423828, -0.25773999094963074, -0.45885735750198364, 8.475982666015625, -4.781138896942139, 1.1964775323867798, -0.6200694441795349, -0.6970145106315613, -1.38539719581604, -0.846435546875, 0.3525390625, 0.178466796875, 
217, 3332026271, 0.5945552587509155, -0.6078319549560547, -0.25781333446502686, -0.458906352519989, 8.48154354095459, -4.765744686126709, 1.2140856981277466, -0.5396021604537964, -0.8585506677627563, -1.5584595203399658, -0.845458984375, 0.353515625, 0.177978515625, 
218, 3332034604, 0.5945037603378296, -0.6078029870986938, -0.25790029764175415, -0.4589625597000122, 8.465768814086914, -4.785722255706787, 1.1982566118240356, -0.3287715017795563, -0.9263771772384644, -1.7468011379241943, -0.845947265625, 0.35009765625, 0.179443359375, 
219, 3332042937, 0.5944520235061646, -0.6077747344970703, -0.25800758600234985, -0.4590066373348236, 8.459609031677246, -4.80774450302124, 1.2252706289291382, -0.22718545794487, -1.1350308656692505, -1.8408821821212769, -0.847900390625, 0.3525390625, 0.178955078125, 
220, 3332051270, 0.5944037437438965, -0.6077460646629333, -0.25811082124710083, -0.45904895663261414, 8.47675609588623, -4.8045783042907715, 1.2252451181411743, -0.1517387181520462, -1.1649608612060547, -1.746199131011963, -0.844970703125, 0.35107421875, 0.179931640625, 
221, 3332059603, 0.5943669080734253, -0.6077152490615845, -0.25821417570114136, -0.4590795040130615, 8.4818115234375, -4.794912815093994, 1.2306286096572876, -0.11462370306253433, -1.1173954010009766, -1.622380018234253, -0.844970703125, 0.3525390625, 0.1806640625, 
222, 3332067936, 0.5943308472633362, -0.6076977849006653, -0.2582879662513733, -0.4591078460216522, 8.475448608398438, -4.798656940460205, 1.2331278324127197, -0.27685144543647766, -1.0676398277282715, -1.2699921131134033, -0.846435546875, 0.349609375, 0.179931640625, 
223, 3332076269, 0.5942939519882202, -0.6076915264129639, -0.2583543658256531, -0.45912647247314453, 8.486011505126953, -4.8033127784729, 1.2480137348175049, -0.5244898796081543, -1.0600578784942627, -1.1322131156921387, -0.845947265625, 0.3486328125, 0.178466796875, 
224, 3332084602, 0.5942514538764954, -0.6076979041099548, -0.25839751958847046, -0.45914873480796814, 8.44498348236084, -4.802576065063477, 1.2190375328063965, -0.6990764737129211, -1.0434855222702026, -0.9196150898933411, -0.846923828125, 0.348388671875, 0.179931640625, 
225, 3332092935, 0.5942097902297974, -0.6077184677124023, -0.25842198729515076, -0.45916175842285156, 8.432286262512207, -4.827525615692139, 1.2565758228302002, -0.7802479863166809, -1.0867478847503662, -0.6284324526786804, -0.845458984375, 0.35107421875, 0.179931640625, 
226, 3332101268, 0.5941749215126038, -0.6077401041984558, -0.2584421634674072, -0.45916688442230225, 8.408252716064453, -4.836874485015869, 1.2587215900421143, -0.8438225984573364, -1.0681520700454712, -0.48688817024230957, -0.845947265625, 0.3515625, 0.177001953125, 
227, 3332109601, 0.5941528677940369, -0.6077609062194824, -0.2584823966026306, -0.4591451585292816, 8.446971893310547, -4.864226818084717, 1.2817896604537964, -0.7579123377799988, -1.2346444129943848, -0.41258126497268677, -0.845458984375, 0.35107421875, 0.181396484375, 
228, 3332117934, 0.5941322445869446, -0.6077820658683777, -0.25851163268089294, -0.4591275453567505, 8.476912498474121, -4.869119167327881, 1.2952511310577393, -0.583172082901001, -1.2771897315979004, -0.2879936695098877, -0.843994140625, 0.35107421875, 0.1796875, 
229, 3332126267, 0.5941202044487, -0.6077913641929626, -0.25855204463005066, -0.45910781621932983, 8.468022346496582, -4.865706920623779, 1.320472002029419, -0.39585521817207336, -1.2199676036834717, -0.37574806809425354, -0.843505859375, 0.3525390625, 0.17822265625, 
230, 3332134600, 0.5941253900527954, -0.607780933380127, -0.25859156250953674, -0.4590927064418793, 8.479630470275879, -4.86002779006958, 1.3050004243850708, -0.052829355001449585, -1.048710823059082, -0.34439617395401, -0.845947265625, 0.35009765625, 0.178466796875, 
231, 3332142933, 0.5941306948661804, -0.6077679395675659, -0.25861331820487976, -0.459090918302536, 8.497963905334473, -4.868489742279053, 1.314535140991211, 0.0988965630531311, -0.9127247929573059, -0.27851635217666626, -0.848388671875, 0.350830078125, 0.181396484375, 
232, 3332151266, 0.5941613912582397, -0.6077312231063843, -0.25865083932876587, -0.4590786099433899, 8.483285903930664, -4.8509650230407715, 1.2775192260742188, 0.3526567816734314, -0.7533786296844482, -0.2827683389186859, -0.844970703125, 0.35107421875, 0.179443359375, 
233, 3332159599, 0.5941724181175232, -0.6077029705047607, -0.25866037607192993, -0.45909643173217773, 8.461892127990723, -4.827568054199219, 1.244308590888977, 0.20778267085552216, -0.578330934047699, -0.3427056670188904, -0.846923828125, 0.3505859375, 0.179931640625, 
234, 3332167932, 0.5941928625106812, -0.607670247554779, -0.25867006182670593, -0.45910781621932983, 8.46224308013916, -4.827103137969971, 1.243743658065796, -0.02524282969534397, -0.38914430141448975, -0.29245054721832275, -0.845947265625, 0.3505859375, 0.178955078125, 
235, 3332176265, 0.5941995978355408, -0.6076503396034241, -0.25866103172302246, -0.4591304659843445, 8.467635154724121, -4.809342861175537, 1.267591118812561, -0.27662089467048645, -0.31704017519950867, -0.2644285261631012, -0.848876953125, 0.351806640625, 0.179931640625, 
236, 3332184598, 0.5942018032073975, -0.6076371669769287, -0.25862786173820496, -0.4591638147830963, 8.458959579467773, -4.8134989738464355, 1.2796293497085571, -0.6859363317489624, -0.044940169900655746, -0.16005052626132965, -0.846435546875, 0.34912109375, 0.178955078125, 
237, 3332192931, 0.5941952466964722, -0.6076352000236511, -0.2585846781730652, -0.45919927954673767, 8.47519588470459, -4.821295738220215, 1.2964671850204468, -0.8530948758125305, -0.056261662393808365, -0.11417543143033981, -0.847900390625, 0.350830078125, 0.179931640625, 
238, 3332201264, 0.5941862463951111, -0.6076399087905884, -0.2585315704345703, -0.4592345952987671, 8.447714805603027, -4.821859359741211, 1.2889063358306885, -1.059238314628601, -0.01865996979176998, -0.017532946541905403, -0.8447265625, 0.3486328125, 0.179931640625, 
239, 3332209597, 0.594184398651123, -0.6076434850692749, -0.25847089290618896, -0.4592663645744324, 8.45455265045166, -4.826838493347168, 1.2763746976852417, -1.0053715705871582, 0.06288294494152069, 0.10450607538223267, -0.847900390625, 0.350830078125, 0.181884765625, 
240, 3332217930, 0.5941919684410095, -0.6076416969299316, -0.2584190368652344, -0.4592881202697754, 8.474287986755371, -4.843175888061523, 1.241032600402832, -0.8114717602729797, -0.04184085503220558, 0.16498129069805145, -0.847900390625, 0.351318359375, 0.180908203125, 
241, 3332226263, 0.5942032933235168, -0.6076419353485107, -0.25836536288261414, -0.45930325984954834, 8.458659172058105, -4.846988201141357, 1.2433929443359375, -0.60017991065979, -0.15689998865127563, 0.279604971408844, -0.84521484375, 0.3486328125, 0.180908203125, 
242, 3332234596, 0.5942321419715881, -0.6076256632804871, -0.25832223892211914, -0.4593118131160736, 8.485474586486816, -4.852102279663086, 1.234938383102417, -0.41381075978279114, -0.05554446578025818, 0.28342151641845703, -0.845458984375, 0.34912109375, 0.179443359375, 
243, 3332242929, 0.5942649245262146, -0.6076098680496216, -0.25827643275260925, -0.4593159556388855, 8.502570152282715, -4.833483695983887, 1.2476346492767334, -0.3141457438468933, -0.07152774930000305, 0.36277440190315247, -0.846435546875, 0.349365234375, 0.180419921875, 
244, 3332251262, 0.5943099856376648, -0.6075912714004517, -0.2582346796989441, -0.45930567383766174, 8.498185157775879, -4.824199199676514, 1.252906322479248, -0.18274477124214172, -0.15129047632217407, 0.5190468430519104, -0.846923828125, 0.35009765625, 0.178955078125, 
245, 3332259595, 0.5943637490272522, -0.6075646281242371, -0.2581919729709625, -0.45929551124572754, 8.492105484008789, -4.797776699066162, 1.253035068511963, -0.04920494556427002, -0.03775538504123688, 0.5380142331123352, -0.847900390625, 0.350341796875, 0.179443359375, 
246, 3332267928, 0.5944159626960754, -0.6075411438941956, -0.25814002752304077, -0.45928820967674255, 8.484128952026367, -4.795072078704834, 1.243192434310913, -0.15816791355609894, 0.013409051112830639, 0.605174720287323, -0.846435546875, 0.3515625, 0.179931640625, 
247, 3332276261, 0.5944518446922302, -0.6075364351272583, -0.2580716907978058, -0.4592861831188202, 8.480238914489746, -4.769143581390381, 1.2447377443313599, -0.5043699145317078, 0.004956353921443224, 0.6606295108795166, -0.848388671875, 0.35009765625, 0.178466796875, 
248, 3332284594, 0.5944865942001343, -0.6075327396392822, -0.25799262523651123, -0.459290474653244, 8.492971420288086, -4.768478870391846, 1.2508108615875244, -0.6790719032287598, 0.14313235878944397, 0.6999090313911438, -0.847412109375, 0.3525390625, 0.178955078125, 
249, 3332292927, 0.594524621963501, -0.607534646987915, -0.2579211890697479, -0.4592791199684143, 8.463208198547363, -4.760868072509766, 1.21613347530365, -0.7376003265380859, 0.03593676909804344, 0.7638932466506958, -0.846923828125, 0.35205078125, 0.182373046875, 
250, 3332301260, 0.5945565700531006, -0.6075401306152344, -0.2578366994857788, -0.4592779874801636, 8.467227935791016, -4.769852161407471, 1.243751049041748, -0.7918000221252441, 0.07594621181488037, 0.804927408695221, -0.845458984375, 0.3525390625, 0.178466796875, 
251, 3332309593, 0.5945948958396912, -0.6075432896614075, -0.2577671706676483, -0.4592631161212921, 8.482584953308105, -4.778664588928223, 1.2385437488555908, -0.7289426326751709, -0.011820969171822071, 0.7813109755516052, -0.845947265625, 0.349609375, 0.180419921875, 
252, 3332317926, 0.5946327447891235, -0.607541561126709, -0.25769302248954773, -0.45925822854042053, 8.442264556884766, -4.771246910095215, 1.2320703268051147, -0.6042782664299011, 0.024973880499601364, 0.7596157789230347, -0.846923828125, 0.35107421875, 0.177490234375, 
253, 3332326259, 0.5946711897850037, -0.6075460314750671, -0.25762468576431274, -0.4592406749725342, 8.471905708312988, -4.765517234802246, 1.2301173210144043, -0.4562535583972931, -0.2017505168914795, 0.8443220257759094, -0.847412109375, 0.3515625, 0.178466796875, 
254, 3332334592, 0.5947132706642151, -0.6075441241264343, -0.2575652003288269, -0.45922189950942993, 8.478192329406738, -4.762011528015137, 1.2096956968307495, -0.42723265290260315, -0.19424556195735931, 0.7764187455177307, -0.845458984375, 0.3515625, 0.178955078125, 
255, 3332342925, 0.594753086566925, -0.607535183429718, -0.2575327455997467, -0.4592004716396332, 8.499086380004883, -4.743135929107666, 1.2344876527786255, -0.3406565487384796, -0.29798322916030884, 0.4953024387359619, -0.845458984375, 0.349609375, 0.178466796875, 
256, 3332351258, 0.5947828888893127, -0.6075298190116882, -0.2574964463710785, -0.45918935537338257, 8.568991661071777, -4.763628959655762, 1.211877703666687, -0.38053789734840393, -0.341296911239624, 0.4321378171443939, -0.845458984375, 0.35302734375, 0.177490234375, 
257, 3332359591, 0.5948057174682617, -0.6075217723846436, -0.2574743330478668, -0.4591829776763916, 8.580635070800781, -4.770516395568848, 1.2681630849838257, -0.3206646144390106, -0.41328567266464233, 0.2080516368150711, -0.844970703125, 0.35205078125, 0.178466796875, 
258, 3332367924, 0.5948301553726196, -0.6075030565261841, -0.2574528157711029, -0.45918816328048706, 8.584712982177734, -4.767634391784668, 1.2690931558609009, -0.2819230854511261, -0.26199519634246826, 0.09405545890331268, -0.845947265625, 0.35107421875, 0.179443359375, 
259, 3332376257, 0.5948449969291687, -0.6074848175048828, -0.25742852687835693, -0.45920664072036743, 8.575843811035156, -4.749852657318115, 1.2803374528884888, -0.33806946873664856, -0.18886657059192657, -0.05216338858008385, -0.844482421875, 0.35302734375, 0.17822265625, 
260, 3332384590, 0.5948612093925476, -0.6074632406234741, -0.2574005722999573, -0.45922982692718506, 8.561516761779785, -4.725117206573486, 1.2481138706207275, -0.4317151606082916, -0.07037511467933655, -0.061640664935112, -0.845947265625, 0.35302734375, 0.178466796875, 
261, 3332392923, 0.5948804616928101, -0.6074480414390564, -0.2573873698711395, -0.45923230051994324, 8.526174545288086, -4.724281311035156, 1.2759312391281128, -0.5330962538719177, -0.22718545794487, -0.03141585737466812, -0.846923828125, 0.35205078125, 0.177001953125, 
262, 3332401256, 0.5948839783668518, -0.6074498891830444, -0.257342666387558, -0.45925039052963257, 8.497878074645996, -4.709681987762451, 1.2412614822387695, -0.8167738914489746, -0.16886183619499207, 0.12261534482240677, -0.845947265625, 0.35205078125, 0.177001953125, 
263, 3332409589, 0.5948684215545654, -0.60747891664505, -0.25728195905685425, -0.4592660963535309, 8.550243377685547, -4.699747085571289, 1.2372772693634033, -1.2774204015731812, -0.2748023271560669, 0.23690608143806458, -0.846435546875, 0.3505859375, 0.181396484375, 
264, 3332417922, 0.5948227047920227, -0.6075415015220642, -0.25720322132110596, -0.4592866897583008, 8.760324478149414, -4.71731424331665, 1.2742841243743896, -1.9477832317352295, -0.42532435059547424, 0.2908111810684204, -0.847412109375, 0.35107421875, 0.177490234375, 
265, 3332426255, 0.594742476940155, -0.6076239347457886, -0.25712189078330994, -0.45932701230049133, 9.124692916870117, -4.8357133865356445, 1.3504644632339478, -2.6443495750427246, -0.37111184000968933, -0.04045768454670906, -0.845947265625, 0.353515625, 0.17919921875, 
266, 3332434588, 0.5946024060249329, -0.6077199578285217, -0.2570246160030365, -0.45943570137023926, 9.493751525878906, -4.981726169586182, 1.449833869934082, -3.4378275871276855, -0.08300293236970901, -0.753327488899231, -0.847900390625, 0.35205078125, 0.178466796875, 
267, 3332442921, 0.5944162607192993, -0.6077976822853088, -0.25693589448928833, -0.45962342619895935, 9.800629615783691, -5.130026817321777, 1.5210069417953491, -3.814638614654541, 0.43792659044265747, -1.825385570526123, -0.846435546875, 0.3515625, 0.177001953125, 
268, 3332451254, 0.5942086577415466, -0.6078434586524963, -0.2568630874156952, -0.4598720371723175, 10.092873573303223, -5.244098663330078, 1.678336262702942, -3.932131052017212, 0.9665788412094116, -2.707719326019287, -0.847412109375, 0.35205078125, 0.178466796875, 
269, 3332459587, 0.593985378742218, -0.6078493595123291, -0.25678545236587524, -0.46019574999809265, 10.28256607055664, -5.310696601867676, 1.7837953567504883, -4.094883918762207, 1.8892290592193604, -3.5435116291046143, -0.845947265625, 0.3505859375, 0.177978515625, 
270, 3332467920, 0.5937387943267822, -0.6078318953514099, -0.2566644847393036, -0.46060460805892944, 10.24309253692627, -5.277783393859863, 1.8028154373168945, -4.61065149307251, 2.9605700969696045, -4.081026077270508, -0.846435546875, 0.3515625, 0.178955078125, 
271, 3332476253, 0.5934889316558838, -0.607799768447876, -0.256489098072052, -0.461066335439682, 10.01179313659668, -5.243582725524902, 1.7711197137832642, -4.650815963745117, 3.7254626750946045, -4.075545787811279, -0.845458984375, 0.35205078125, 0.178466796875, 
272, 3332484586, 0.5932896733283997, -0.6077648997306824, -0.25627925992012024, -0.46148520708084106, 9.845965385437012, -5.1973114013671875, 1.7290560007095337, -4.672766208648682, 4.047586917877197, -3.1840927600860596, -0.84814453125, 0.347412109375, 0.179443359375, 
273, 3332492919, 0.5931280851364136, -0.6077454686164856, -0.255999356508255, -0.4618738889694214, 9.678380012512207, -5.141285419464111, 1.7011544704437256, -5.031518936157227, 4.541761875152588, -2.104785680770874, -0.848876953125, 0.348876953125, 0.178955078125, 
274, 3332501252, 0.5929814577102661, -0.6077671051025391, -0.2556299567222595, -0.46223801374435425, 9.507242202758789, -5.018787384033203, 1.6539075374603271, -5.5147833824157715, 4.717834949493408, -0.8689245581626892, -0.847900390625, 0.349609375, 0.176513671875, 
275, 3332509585, 0.5928679704666138, -0.6078187823295593, -0.25518161058425903, -0.46256303787231445, 9.458943367004395, -4.9454426765441895, 1.625641942024231, -5.961086273193359, 5.0460052490234375, 0.3960985839366913, -0.851318359375, 0.346923828125, 0.17578125, 
276, 3332517918, 0.5927712321281433, -0.6079034805297852, -0.2546643912792206, -0.4628610610961914, 9.41396427154541, -4.945312976837158, 1.5564417839050293, -6.318404674530029, 5.1451311111450195, 1.4442074298858643, -0.847412109375, 0.34765625, 0.175537109375, 
277, 3332526251, 0.5926815867424011, -0.608025312423706, -0.2541222870349884, -0.4631134569644928, 9.442587852478027, -4.964054107666016, 1.503233551979065, -6.577747821807861, 4.787274360656738, 2.185483455657959, -0.848876953125, 0.34912109375, 0.176513671875, 
278, 3332534584, 0.5925873517990112, -0.6081511378288269, -0.2536233961582184, -0.46334248781204224, 9.746577262878418, -4.949479579925537, 1.4317282438278198, -6.273657321929932, 4.165592193603516, 2.013202428817749, -0.849853515625, 0.347412109375, 0.17529296875, 
279, 3332542917, 0.5925022959709167, -0.6082288026809692, -0.25327998399734497, -0.4635368585586548, 10.30550479888916, -5.12841796875, 1.4318997859954834, -5.318296432495117, 3.3234472274780273, 0.7694772481918335, -0.849853515625, 0.347900390625, 0.17431640625, 
280, 3332551250, 0.5923862457275391, -0.6082304120063782, -0.2530863285064697, -0.46378886699676514, 10.83847713470459, -5.381441593170166, 1.5127819776535034, -3.580012321472168, 2.58701229095459, -1.3020614385604858, -0.847412109375, 0.34814453125, 0.176025390625, 
281, 3332559583, 0.592289924621582, -0.6080857515335083, -0.25314098596572876, -0.4640714228153229, 11.487992286682129, -5.6313157081604, 1.6640262603759766, -0.7064533829689026, 1.8205831050872803, -4.005336761474609, -0.848876953125, 0.348876953125, 0.177001953125, 
282, 3332567916, 0.5922783613204956, -0.6077065467834473, -0.2535139322280884, -0.4643794596195221, 12.236333847045898, -5.894453525543213, 1.8472954034805298, 3.816136360168457, 1.23358154296875, -7.154836654663086, -0.84765625, 0.347412109375, 0.177978515625, 
283, 3332576249, 0.5924454927444458, -0.6069803237915039, -0.25427865982055664, -0.46469783782958984, 12.755193710327148, -6.15254545211792, 2.069993257522583, 9.787327766418457, 1.4481778144836426, -10.72474479675293, -0.847412109375, 0.3466796875, 0.173583984375, 
284, 3332584582, 0.5927190184593201, -0.6059684753417969, -0.2552415430545807, -0.4651414155960083, 12.788392066955566, -6.21012544631958, 2.1973061561584473, 14.644072532653809, 2.5944156646728516, -13.573513984680176, -0.850830078125, 0.345458984375, 0.17236328125, 
285, 3332592915, 0.593165397644043, -0.6046984791755676, -0.2563557028770447, -0.46561241149902344, 12.469402313232422, -5.950898170471191, 2.3038415908813477, 18.96886444091797, 3.924179792404175, -14.875693321228027, -0.8505859375, 0.343994140625, 0.1748046875, 
286, 3332601248, 0.593741774559021, -0.6032622456550598, -0.25742441415786743, -0.46615079045295715, 11.950973510742188, -5.695251941680908, 2.3950111865997314, 20.969900131225586, 6.302360534667969, -14.781996726989746, -0.85107421875, 0.343017578125, 0.171875, 
287, 3332609581, 0.5944066047668457, -0.601769745349884, -0.2583003342151642, -0.4667476713657379, 11.096858978271484, -5.228995323181152, 2.312837839126587, 21.117692947387695, 8.834969520568848, -13.220911026000977, -0.8525390625, 0.340576171875, 0.169189453125, 
288, 3332617914, 0.5951159000396729, -0.6003534197807312, -0.2588953375816345, -0.46733787655830383, 10.170005798339844, -4.703853607177734, 2.1341261863708496, 18.685260772705078, 10.946120262145996, -10.358133316040039, -0.85302734375, 0.338623046875, 0.168212890625, 
289, 3332626247, 0.595772385597229, -0.5991647839546204, -0.25910404324531555, -0.46791064739227295, 9.416136741638184, -4.193065166473389, 1.971130132675171, 14.076333045959473, 12.26830005645752, -6.532029151916504, -0.8544921875, 0.338623046875, 0.164794921875, 
290, 3332634580, 0.5963423252105713, -0.5982513427734375, -0.25895342230796814, -0.46843671798706055, 9.056571960449219, -3.995026111602783, 1.9254053831100464, 8.853486061096191, 12.792342185974121, -2.7890963554382324, -0.8564453125, 0.338134765625, 0.1640625, 
291, 3332642913, 0.596808671951294, -0.5975790619850159, -0.25847750902175903, -0.4689631462097168, 8.891844749450684, -4.085116386413574, 1.9695656299591064, 4.307648658752441, 13.348246574401855, 0.15540160238742828, -0.858642578125, 0.338134765625, 0.16259765625, 
292, 3332651246, 0.597241997718811, -0.5970274209976196, -0.25782865285873413, -0.4694710671901703, 8.744453430175781, -4.377629280090332, 2.242125988006592, 1.6143887042999268, 13.910402297973633, 1.864434838294983, -0.853271484375, 0.33984375, 0.159912109375, 
293, 3332659579, 0.5977451801300049, -0.5964731574058533, -0.2570585012435913, -0.46995723247528076, 8.404095649719238, -4.624514579772949, 2.535280466079712, 1.0990558862686157, 15.231765747070312, 3.4074110984802246, -0.855224609375, 0.33935546875, 0.15673828125, 
294, 3332667912, 0.5983436107635498, -0.5958799123764038, -0.25619232654571533, -0.47042110562324524, 7.827409267425537, -4.578493118286133, 2.588717460632324, 2.0635342597961426, 16.18804359436035, 4.929178714752197, -0.857666015625, 0.339111328125, 0.1552734375, 
295, 3332676245, 0.5990725755691528, -0.5952206254005432, -0.255367636680603, -0.4707762897014618, 7.406269073486328, -4.350677967071533, 2.544839859008789, 5.040780544281006, 15.464086532592773, 6.248671054840088, -0.857177734375, 0.34033203125, 0.154296875, 
296, 3332684578, 0.6000131368637085, -0.5944076180458069, -0.25477972626686096, -0.4709242880344391, 7.4889817237854, -4.345531463623047, 2.481128215789795, 9.58520793914795, 13.935735702514648, 6.693975448608398, -0.856689453125, 0.34130859375, 0.1533203125, 
297, 3332692911, 0.6011664867401123, -0.5933549404144287, -0.2544095516204834, -0.47098127007484436, 7.731919765472412, -4.602056980133057, 2.444013833999634, 15.768436431884766, 13.292895317077637, 6.365626811981201, -0.856689453125, 0.341796875, 0.150390625, 
298, 3332701244, 0.6026284098625183, -0.5919744968414307, -0.2543397545814514, -0.4708874225616455, 7.565286159515381, -4.708756923675537, 2.3428568840026855, 22.733135223388672, 13.181580543518066, 5.851268291473389, -0.855712890625, 0.341064453125, 0.146484375, 
299, 3332709577, 0.6044057011604309, -0.5902758240699768, -0.2545621991157532, -0.47062137722969055, 7.245781421661377, -4.548586368560791, 2.1735634803771973, 29.64509391784668, 12.962325096130371, 5.664234161376953, -0.85498046875, 0.345458984375, 0.14501953125, 
300, 3332717910, 0.6063809394836426, -0.5883774757385254, -0.25496596097946167, -0.4702390432357788, 7.1418890953063965, -4.216829776763916, 1.9682283401489258, 35.27891159057617, 12.05625057220459, 5.905855655670166, -0.85595703125, 0.34619140625, 0.13916015625, 
301, 3332726243, 0.6084480285644531, -0.5863658785820007, -0.2555689513683319, -0.4697542190551758, 7.258566379547119, -3.8735158443450928, 1.8084410429000854, 38.74391555786133, 10.551926612854004, 5.3772807121276855, -0.8564453125, 0.3466796875, 0.13818359375, 
302, 3332734576, 0.6104756593704224, -0.5843068957328796, -0.2563658356666565, -0.4692544937133789, 7.474053382873535, -3.7958984375, 1.7012202739715576, 39.995784759521484, 9.044578552246094, 3.485410451889038, -0.85546875, 0.34765625, 0.1357421875, 
303, 3332742909, 0.6123443841934204, -0.5822394490242004, -0.2573443055152893, -0.46885377168655396, 7.688042640686035, -3.9095547199249268, 1.667560338973999, 40.02985763549805, 7.583592414855957, 0.24338683485984802, -0.855224609375, 0.348388671875, 0.130126953125, 
304, 3332751242, 0.6140685677528381, -0.5800990462303162, -0.2586013674736023, -0.46856021881103516, 7.947781562805176, -4.1127095222473145, 1.8601094484329224, 40.48786544799805, 6.281823635101318, -4.182900428771973, -0.856201171875, 0.350341796875, 0.13134765625, 
305, 3332759575, 0.6157200336456299, -0.5777963399887085, -0.2601810097694397, -0.46836361289024353, 8.048569679260254, -4.351892471313477, 2.0468201637268066, 42.25395584106445, 5.534887313842773, -8.802411079406738, -0.854736328125, 0.349609375, 0.127685546875, 
306, 3332767908, 0.6172427535057068, -0.5753710865974426, -0.2619413137435913, -0.46836382150650024, 7.847977638244629, -4.256830215454102, 2.1226232051849365, 43.48562240600586, 5.480815887451172, -12.990936279296875, -0.858642578125, 0.350830078125, 0.124267578125, 
307, 3332776241, 0.6186156868934631, -0.5729353427886963, -0.2637897729873657, -0.4685007929801941, 7.591441631317139, -3.879878044128418, 2.1783716678619385, 42.58284378051758, 5.281485080718994, -15.814345359802246, -0.858642578125, 0.347412109375, 0.122802734375, 
308, 3332784574, 0.6197945475578308, -0.5705819129943848, -0.2656528353691101, -0.4687623381614685, 7.606021881103516, -3.5538253784179688, 1.993429183959961, 39.877777099609375, 4.966979503631592, -17.979530334472656, -0.858642578125, 0.34716796875, 0.11669921875, 
309, 3332792907, 0.6207988262176514, -0.5683284997940063, -0.2674931287765503, -0.4691239595413208, 7.781274318695068, -3.5046370029449463, 1.7863973379135132, 37.18227767944336, 4.642050266265869, -19.395679473876953, -0.861572265625, 0.344970703125, 0.1142578125, 
310, 3332801240, 0.6216790080070496, -0.566120445728302, -0.26934200525283813, -0.4695701003074646, 7.915854454040527, -3.771639823913574, 1.685599684715271, 35.53114700317383, 4.4994797706604, -20.834407806396484, -0.861328125, 0.341064453125, 0.1162109375, 
311, 3332809573, 0.6225133538246155, -0.5639068484306335, -0.27118414640426636, -0.47006773948669434, 7.7853803634643555, -3.9933202266693115, 1.6050350666046143, 34.55582809448242, 5.053900241851807, -21.64798927307129, -0.861328125, 0.339599609375, 0.113525390625, 
312, 3332817906, 0.6232884526252747, -0.5616984367370605, -0.27295058965682983, -0.4706622064113617, 7.453004837036133, -3.9704537391662598, 1.5786471366882324, 33.63263702392578, 5.969790458679199, -22.144752502441406, -0.86474609375, 0.33544921875, 0.11083984375, 
313, 3332826239, 0.6239824891090393, -0.5595421195030212, -0.274554967880249, -0.4713772237300873, 7.238949775695801, -3.867762565612793, 1.605434775352478, 31.051740646362305, 7.653979301452637, -22.24974250793457, -0.86328125, 0.336669921875, 0.108154296875, 
314, 3332834572, 0.6244959235191345, -0.5575644969940186, -0.2757766544818878, -0.47232669591903687, 7.127240180969238, -3.6507368087768555, 1.5521509647369385, 24.7703800201416, 10.89541244506836, -21.81637191772461, -0.86669921875, 0.3330078125, 0.10546875, 
315, 3332842905, 0.6248065829277039, -0.5558029413223267, -0.27677369117736816, -0.473407506942749, 7.015614986419678, -3.456293821334839, 1.4777023792266846, 19.28868865966797, 11.722338676452637, -21.747617721557617, -0.86572265625, 0.3291015625, 0.103759765625, 
316, 3332851238, 0.6249122619628906, -0.554277777671814, -0.27766796946525574, -0.47453102469444275, 7.109405994415283, -3.5346341133117676, 1.3676179647445679, 14.974529266357422, 10.548694610595703, -21.735990524291992, -0.869140625, 0.328125, 0.101318359375, 
317, 3332859571, 0.6249391436576843, -0.5528475046157837, -0.2784155011177063, -0.47572457790374756, 7.415499687194824, -3.688063621520996, 1.46610426902771, 12.320915222167969, 11.435559272766113, -21.37034034729004, -0.86767578125, 0.32763671875, 0.098876953125, 
318, 3332867904, 0.6249296069145203, -0.5514920353889465, -0.27894777059555054, -0.4769967794418335, 7.605518341064453, -3.6768860816955566, 1.4999622106552124, 9.703676223754883, 13.242439270019531, -20.36344337463379, -0.87109375, 0.32470703125, 0.0966796875, 
319, 3332876237, 0.6248481273651123, -0.5502687096595764, -0.2792132794857025, -0.478359192609787, 7.526627063751221, -3.3861873149871826, 1.5573933124542236, 5.936076641082764, 15.079825401306152, -19.071256637573242, -0.870361328125, 0.32275390625, 0.0966796875, 
320, 3332884570, 0.6246727705001831, -0.5492178201675415, -0.27920860052108765, -0.47979652881622314, 7.317686080932617, -3.2537105083465576, 1.6796849966049194, 1.6683839559555054, 16.47096061706543, -17.636472702026367, -0.874267578125, 0.320068359375, 0.092529296875, 
321, 3332892903, 0.624390721321106, -0.548348605632782, -0.2789729833602905, -0.4812926948070526, 7.040255546569824, -3.3864190578460693, 1.7934529781341553, -2.4836978912353516, 17.317506790161133, -16.406269073486328, -0.872314453125, 0.31591796875, 0.090087890625, 
322, 3332901236, 0.6240221261978149, -0.547609269618988, -0.2785570025444031, -0.4828508794307709, 6.6470537185668945, -3.6482176780700684, 1.7973507642745972, -5.647058010101318, 18.115625381469727, -15.652290344238281, -0.876708984375, 0.313232421875, 0.087890625, 
323, 3332909569, 0.6235573887825012, -0.5469949245452881, -0.27803105115890503, -0.4844481647014618, 6.382804870605469, -3.772247076034546, 1.6266107559204102, -8.60676097869873, 18.299280166625977, -15.396587371826172, -0.877685546875, 0.312255859375, 0.08544921875, 
324, 3332917902, 0.6229726076126099, -0.5465138554573059, -0.27746033668518066, -0.4860680103302002, 6.494368553161621, -3.8334224224090576, 1.2874599695205688, -10.752514839172363, 17.362335205078125, -15.465126037597656, -0.876220703125, 0.311279296875, 0.083984375, 
325, 3332926235, 0.6222705841064453, -0.5461689233779907, -0.2768843472003937, -0.487680584192276, 6.930840969085693, -4.039912223815918, 1.1671974658966064, -12.824823379516602, 16.011531829833984, -15.626714706420898, -0.87841796875, 0.30712890625, 0.083251953125, 
326, 3332934568, 0.6215122938156128, -0.5458607077598572, -0.27641886472702026, -0.4892541170120239, 7.397791862487793, -4.100523471832275, 1.2078704833984375, -12.655295372009277, 14.296823501586914, -16.360881805419922, -0.87841796875, 0.3037109375, 0.082763671875, 
327, 3332942901, 0.6207502484321594, -0.545516848564148, -0.27607983350753784, -0.49079400300979614, 7.688661098480225, -4.25311803817749, 1.3661315441131592, -11.054302215576172, 13.038701057434082, -17.07480239868164, -0.87841796875, 0.30029296875, 0.07861328125, 
328, 3332951234, 0.6200678944587708, -0.5450406670570374, -0.2759186625480652, -0.4922741651535034, 7.819880962371826, -4.378818511962891, 1.547296404838562, -8.245007514953613, 12.418193817138672, -17.970966339111328, -0.87939453125, 0.302734375, 0.077880859375, 
329, 3332959567, 0.6194493770599365, -0.5444610714912415, -0.27587878704071045, -0.4937146306037903, 7.619876384735107, -4.3469719886779785, 1.7194679975509644, -5.383691787719727, 11.796359062194824, -18.33735466003418, -0.880859375, 0.29833984375, 0.0771484375, 
330, 3332967900, 0.6189051270484924, -0.543830931186676, -0.275981605052948, -0.49503234028816223, 7.301306247711182, -4.219395637512207, 1.8817428350448608, -3.49202823638916, 10.518539428710938, -18.213354110717773, -0.88232421875, 0.296630859375, 0.078125, 
331, 3332976233, 0.618362545967102, -0.5432393550872803, -0.2761659026145935, -0.49625566601753235, 7.0650200843811035, -4.121391773223877, 1.9569694995880127, -2.8491621017456055, 8.85779094696045, -17.847684860229492, -0.8818359375, 0.29541015625, 0.073974609375, 
332, 3332984566, 0.617805004119873, -0.5427009463310242, -0.2764229476451874, -0.4973948001861572, 7.132424354553223, -4.203323841094971, 1.9199917316436768, -2.6420962810516357, 7.196321487426758, -17.588699340820312, -0.885986328125, 0.291259765625, 0.075927734375, 
333, 3332992899, 0.6172641515731812, -0.5421760082244873, -0.2767765522003174, -0.49844101071357727, 7.378069877624512, -4.380300998687744, 1.8448981046676636, -1.7760531902313232, 5.7410993576049805, -17.409833908081055, -0.886474609375, 0.290283203125, 0.074462890625, 
334, 3333001232, 0.6167434453964233, -0.5416716933250427, -0.27717339992523193, -0.49941250681877136, 7.579383373260498, -4.49846887588501, 1.7003867626190186, -1.0631829500198364, 4.663687229156494, -16.826875686645508, -0.886474609375, 0.287353515625, 0.0712890625, 
335, 3333009565, 0.6162983775138855, -0.5411830544471741, -0.2776501476764679, -0.5002259016036987, 7.685467720031738, -4.445596694946289, 1.7129298448562622, 0.4305753707885742, 3.0486838817596436, -15.536331176757812, -0.888916015625, 0.28759765625, 0.07177734375, 
336, 3333017898, 0.6159412264823914, -0.5407005548477173, -0.2781985104084015, -0.5008822679519653, 7.738065242767334, -4.471712112426758, 1.8127858638763428, 2.212019920349121, 1.5076028108596802, -14.074625968933105, -0.88525390625, 0.283203125, 0.07275390625, 
337, 3333026231, 0.6157118082046509, -0.5401989817619324, -0.2788112163543701, -0.5013649463653564, 7.550192356109619, -4.43373441696167, 1.942529559135437, 4.4115400314331055, 0.31940957903862, -12.29228687286377, -0.88525390625, 0.28271484375, 0.0712890625, 
338, 3333034564, 0.6156137585639954, -0.5396860241889954, -0.27947476506233215, -0.5016685128211975, 7.1788225173950195, -4.363828659057617, 1.9981168508529663, 6.5427470207214355, -0.8877254128456116, -10.273882865905762, -0.88525390625, 0.2822265625, 0.07080078125, 
339, 3333042897, 0.6156222224235535, -0.5391843318939209, -0.28020143508911133, -0.5017920732498169, 6.9490966796875, -4.2300567626953125, 2.1083462238311768, 8.487687110900879, -2.461182117462158, -8.415057182312012, -0.88818359375, 0.280029296875, 0.07275390625, 
340, 3333051230, 0.6157193779945374, -0.5387112498283386, -0.2809693217277527, -0.5017515420913696, 7.025487422943115, -4.09669828414917, 2.0717058181762695, 9.69483470916748, -3.847194194793701, -6.6364569664001465, -0.88916015625, 0.279052734375, 0.071044921875, 
341, 3333059563, 0.6158527135848999, -0.5382792949676514, -0.2817404866218567, -0.5016189813613892, 7.102114200592041, -3.97318434715271, 2.0105228424072266, 9.978818893432617, -4.673765182495117, -5.49406099319458, -0.88671875, 0.277099609375, 0.073486328125, 
342, 3333067896, 0.6159992218017578, -0.5378691554069519, -0.28255215287208557, -0.501422643661499, 7.208018779754639, -3.88996958732605, 1.9696754217147827, 10.433857917785645, -5.613731861114502, -5.056058883666992, -0.888671875, 0.277587890625, 0.071044921875, 
343, 3333076229, 0.6161133050918579, -0.5374943017959595, -0.28346091508865356, -0.5011715888977051, 7.467339038848877, -3.8429760932922363, 2.037245988845825, 10.813590049743652, -7.207706451416016, -5.403388500213623, -0.888671875, 0.278564453125, 0.072021484375, 
344, 3333084562, 0.6162077784538269, -0.5371120572090149, -0.2844904363155365, -0.5008816123008728, 7.967820167541504, -4.002931594848633, 2.1867499351501465, 11.67796802520752, -8.547074317932129, -6.125248908996582, -0.8876953125, 0.278076171875, 0.073486328125, 
345, 3333092895, 0.6162737011909485, -0.5366877317428589, -0.285652756690979, -0.500593900680542, 8.490589141845703, -4.250272274017334, 2.421926498413086, 12.721542358398438, -9.455124855041504, -7.507750988006592, -0.88818359375, 0.276611328125, 0.072021484375, 
346, 3333101228, 0.61632239818573, -0.5361924767494202, -0.2868921756744385, -0.5003554821014404, 8.972465515136719, -4.399221420288086, 2.5178375244140625, 13.540993690490723, -9.345829010009766, -8.87132453918457, -0.887451171875, 0.275146484375, 0.073974609375, 
347, 3333109561, 0.616335928440094, -0.5356557369232178, -0.2881184220314026, -0.5002092719078064, 9.376395225524902, -4.413209915161133, 2.5606162548065186, 13.18457317352295, -8.390828132629395, -9.979731559753418, -0.887939453125, 0.273681640625, 0.073486328125, 
348, 3333117894, 0.6163147687911987, -0.5351276397705078, -0.2892472743988037, -0.5001489520072937, 9.663813591003418, -4.33915901184082, 2.5087246894836426, 11.839570045471191, -7.146642684936523, -10.174680709838867, -0.886962890625, 0.272705078125, 0.073974609375, 
349, 3333126227, 0.6162835359573364, -0.5346303582191467, -0.29024645686149597, -0.5001404285430908, 9.76516056060791, -4.265411376953125, 2.5113682746887207, 10.388623237609863, -5.891287803649902, -9.634783744812012, -0.888916015625, 0.271484375, 0.074951171875, 
350, 3333134560, 0.6162724494934082, -0.5341628789901733, -0.2911139130592346, -0.5001495480537415, 9.633463859558105, -4.274393081665039, 2.513629674911499, 9.326860427856445, -4.797584533691406, -8.528169631958008, -0.888427734375, 0.27001953125, 0.075927734375, 
351, 3333142893, 0.6163208484649658, -0.5337442755699158, -0.29183483123779297, -0.5001162886619568, 9.347611427307129, -4.186417102813721, 2.4881412982940674, 8.420245170593262, -3.906696319580078, -6.541377067565918, -0.890869140625, 0.267578125, 0.07275390625, 
352, 3333151226, 0.6164510846138, -0.5334157943725586, -0.29236701130867004, -0.49999552965164185, 9.099513053894043, -4.066005706787109, 2.415278673171997, 7.400516033172607, -3.2996387481689453, -3.4377248287200928, -0.889892578125, 0.26708984375, 0.076904296875, 
353, 3333159559, 0.6166496276855469, -0.533227801322937, -0.2926829755306244, -0.49976640939712524, 9.009306907653809, -3.90425968170166, 2.2712039947509766, 5.604804515838623, -2.907459020614624, 0.05875905603170395, -0.890380859375, 0.26806640625, 0.074951171875, 
354, 3333167892, 0.6168773174285889, -0.5332362055778503, -0.2927466332912445, -0.49943897128105164, 9.059347152709961, -3.763254404067993, 2.1262848377227783, 2.868691921234131, -2.768117666244507, 3.775794267654419, -0.886962890625, 0.26953125, 0.075439453125, 
355, 3333176225, 0.617089569568634, -0.5334741473197937, -0.2925693392753601, -0.4990266263484955, 9.264074325561523, -3.672682523727417, 2.038907289505005, -0.36163461208343506, -3.018599271774292, 7.10003662109375, -0.889892578125, 0.271484375, 0.074462890625, 
356, 3333184558, 0.6172649264335632, -0.5339028239250183, -0.29220253229141235, -0.4985659122467041, 9.552140235900879, -3.7074878215789795, 1.969926357269287, -3.498277187347412, -3.1876020431518555, 9.39660930633545, -0.890380859375, 0.2705078125, 0.076904296875, 
357, 3333192891, 0.6174137592315674, -0.534456193447113, -0.29169532656669617, -0.49808555841445923, 9.574103355407715, -3.849848747253418, 2.058004140853882, -5.461634635925293, -3.1483614444732666, 10.940072059631348, -0.886474609375, 0.272705078125, 0.073974609375, 
358, 3333201224, 0.6175993084907532, -0.5350576043128967, -0.2911800146102905, -0.49751102924346924, 9.248228073120117, -3.928823709487915, 2.321397542953491, -5.452208995819092, -3.907618761062622, 12.216225624084473, -0.889404296875, 0.2734375, 0.076904296875, 
359, 3333209557, 0.6178358793258667, -0.53565514087677, -0.2907711863517761, -0.4968128204345703, 8.79707145690918, -3.7949297428131104, 2.5459163188934326, -3.8736026287078857, -5.4410400390625, 12.773307800292969, -0.887939453125, 0.275146484375, 0.077880859375, 
360, 3333217890, 0.6181102991104126, -0.5362184643745422, -0.29052162170410156, -0.49600911140441895, 8.323385238647461, -3.6366446018218994, 2.752995491027832, -1.7403209209442139, -7.234318733215332, 12.662398338317871, -0.88916015625, 0.279052734375, 0.07763671875, 
361, 3333226223, 0.618446946144104, -0.5367175340652466, -0.29047805070877075, -0.495074063539505, 7.9203782081604, -3.516514301300049, 2.8324344158172607, 0.9379422068595886, -9.131669044494629, 12.320551872253418, -0.88671875, 0.279541015625, 0.07861328125, 
362, 3333234556, 0.6188160181045532, -0.5371646881103516, -0.2905832529067993, -0.49406540393829346, 7.768633842468262, -3.5436618328094482, 2.8997244834899902, 3.1829023361206055, -10.59411334991455, 11.968330383300781, -0.88671875, 0.281005859375, 0.07861328125, 
363, 3333242889, 0.6192090511322021, -0.5375527739524841, -0.29077035188674927, -0.4930400252342224, 7.80427360534668, -3.563325881958008, 2.856624126434326, 4.73069429397583, -10.99923038482666, 11.481660842895508, -0.8857421875, 0.283447265625, 0.080810546875, 
364, 3333251222, 0.619644820690155, -0.5378453135490417, -0.2910037040710449, -0.4920347034931183, 7.968497276306152, -3.5587046146392822, 2.743196964263916, 5.8487043380737305, -10.34299087524414, 10.827216148376465, -0.88720703125, 0.284912109375, 0.082763671875, 
365, 3333259555, 0.6200969219207764, -0.5380496978759766, -0.29113203287124634, -0.4911649823188782, 8.132041931152344, -3.4737048149108887, 2.609501600265503, 5.5402326583862305, -7.791173934936523, 10.202102661132812, -0.8857421875, 0.284423828125, 0.081787109375, 
366, 3333267888, 0.6205398440361023, -0.5381947159767151, -0.291109561920166, -0.49045953154563904, 8.18259048461914, -3.1791672706604004, 2.4330031871795654, 4.2273993492126465, -4.920072555541992, 9.621041297912598, -0.88330078125, 0.28759765625, 0.085205078125, 
367, 3333276221, 0.6209245920181274, -0.538383424282074, -0.2909029722213745, -0.4898877739906311, 8.03508186340332, -3.0677621364593506, 2.150521755218506, 1.552120327949524, -2.822599411010742, 9.570837020874023, -0.885986328125, 0.287353515625, 0.083251953125, 
368, 3333284554, 0.6212015151977539, -0.5386495590209961, -0.2904776632785797, -0.4894961714744568, 7.953463554382324, -3.0354552268981934, 2.010066270828247, -2.00407075881958, -0.6371924877166748, 9.290462493896484, -0.884033203125, 0.28955078125, 0.083740234375, 
369, 3333292887, 0.6213475465774536, -0.539025068283081, -0.2898421585559845, -0.48927411437034607, 7.838685512542725, -3.054678440093994, 1.9853726625442505, -6.028452396392822, 1.1901400089263916, 8.921542167663574, -0.883056640625, 0.29052734375, 0.083984375, 
370, 3333301220, 0.6213197112083435, -0.5395416617393494, -0.2889500856399536, -0.48926782608032227, 7.607882499694824, -3.091080904006958, 1.9896167516708374, -11.08111572265625, 3.3035194873809814, 8.406490325927734, -0.883544921875, 0.2919921875, 0.08349609375, 
371, 3333309553, 0.6211142539978027, -0.5402352809906006, -0.2877480983734131, -0.4894716739654541, 7.287690162658691, -3.0434727668762207, 2.0821027755737305, -16.822399139404297, 5.63431453704834, 8.39739990234375, -0.883544921875, 0.2919921875, 0.0830078125, 
372, 3333317886, 0.6207195520401001, -0.5411376357078552, -0.28617584705352783, -0.48989734053611755, 7.024243354797363, -2.9078853130340576, 2.113133668899536, -23.390230178833008, 8.271711349487305, 8.824109077453613, -0.883544921875, 0.2919921875, 0.08349609375, 
373, 3333326219, 0.6201301217079163, -0.5423040390014648, -0.28420740365982056, -0.49049922823905945, 6.7753801345825195, -2.7163937091827393, 2.1081695556640625, -30.568559646606445, 10.491498947143555, 9.940510749816895, -0.880615234375, 0.295166015625, 0.08544921875, 
374, 3333334552, 0.6193216443061829, -0.543792724609375, -0.2817919850349426, -0.49126553535461426, 6.681833744049072, -2.6184935569763184, 2.048013687133789, -38.49509048461914, 12.428123474121094, 11.709566116333008, -0.881591796875, 0.295166015625, 0.08349609375, 
375, 3333342885, 0.6182317137718201, -0.5456670522689819, -0.27891767024993896, -0.4921995997428894, 6.909557819366455, -2.5827181339263916, 1.8569926023483276, -47.560340881347656, 13.883038520812988, 13.30620288848877, -0.880615234375, 0.297119140625, 0.08251953125, 
376, 3333351218, 0.6168333888053894, -0.5478970408439636, -0.27565914392471313, -0.49331116676330566, 7.567098140716553, -2.7731986045837402, 1.6908663511276245, -56.254032135009766, 14.902576446533203, 13.957022666931152, -0.8798828125, 0.29736328125, 0.0791015625, 
377, 3333359551, 0.6151168346405029, -0.5504007339477539, -0.27207523584365845, -0.4946553111076355, 8.28565788269043, -3.25982928276062, 1.617734670639038, -62.926109313964844, 15.844900131225586, 13.63599681854248, -0.879638671875, 0.297119140625, 0.08251953125, 
378, 3333367884, 0.6132540702819824, -0.5529739856719971, -0.2683858871459961, -0.496111661195755, 8.658187866210938, -3.8524153232574463, 1.6752736568450928, -66.8935317993164, 17.072011947631836, 12.428898811340332, -0.879638671875, 0.29736328125, 0.0810546875, 
379, 3333376217, 0.6112964749336243, -0.5555045008659363, -0.2647066116333008, -0.497674822807312, 8.4832124710083, -4.202310085296631, 1.8032450675964355, -67.3809814453125, 17.67461585998535, 10.686868667602539, -0.87841796875, 0.30078125, 0.083251953125, 
380, 3333384550, 0.609323263168335, -0.5579114556312561, -0.26116812229156494, -0.4992690086364746, 8.037942886352539, -4.152867317199707, 1.9753170013427734, -65.8110122680664, 17.58214569091797, 8.754136085510254, -0.876708984375, 0.2998046875, 0.082763671875, 
381, 3333392883, 0.6073523759841919, -0.5602220296859741, -0.2578016519546509, -0.5008304119110107, 7.5605621337890625, -3.9580483436584473, 2.083984613418579, -63.86533737182617, 16.674522399902344, 7.307667255401611, -0.87841796875, 0.29931640625, 0.082763671875, 
382, 3333401216, 0.6053683757781982, -0.5624991059303284, -0.254552960395813, -0.5023397207260132, 7.030945301055908, -3.766315460205078, 2.1079328060150146, -62.512847900390625, 15.359068870544434, 6.698172569274902, -0.8779296875, 0.2998046875, 0.083251953125, 
383, 3333409549, 0.6033921241760254, -0.5647539496421814, -0.25144851207733154, -0.5037487745285034, 6.469969272613525, -3.6184685230255127, 2.0553693771362305, -61.096649169921875, 13.680379867553711, 6.319565773010254, -0.8798828125, 0.300048828125, 0.086669921875, 
384, 3333417882, 0.601416826248169, -0.5670269727706909, -0.24847716093063354, -0.5050304532051086, 5.940725326538086, -3.500016450881958, 1.987849235534668, -59.70045852661133, 11.347783088684082, 6.485673427581787, -0.878662109375, 0.299560546875, 0.085205078125, 
385, 3333426215, 0.5995129942893982, -0.5692838430404663, -0.24572911858558655, -0.5060985684394836, 5.642450332641602, -3.467313289642334, 1.8601253032684326, -56.84290313720703, 8.275368690490723, 6.897574424743652, -0.87841796875, 0.3017578125, 0.086669921875, 
386, 3333434548, 0.5976704359054565, -0.5715141892433167, -0.24325230717658997, -0.5069600343704224, 5.768473148345947, -3.58587646484375, 1.8292337656021118, -53.4443473815918, 4.728937149047852, 6.870394706726074, -0.880859375, 0.300048828125, 0.087646484375, 
387, 3333442881, 0.5958813428878784, -0.5736315250396729, -0.2411583960056305, -0.5076746344566345, 6.513840675354004, -3.9147260189056396, 1.7534599304199219, -48.9655647277832, 1.4398815631866455, 5.029365539550781, -0.876953125, 0.302734375, 0.088623046875, 
388, 3333451214, 0.5941704511642456, -0.5754914283752441, -0.23949533700942993, -0.5083614587783813, 7.523882865905762, -4.424874782562256, 1.6657531261444092, -43.10807418823242, -0.29831668734550476, 1.5820658206939697, -0.878173828125, 0.300537109375, 0.093505859375, 
389, 3333459547, 0.5925850868225098, -0.577014148235321, -0.238271564245224, -0.5090606808662415, 8.327428817749023, -4.727364540100098, 1.672050952911377, -36.38179397583008, -0.962110161781311, -2.2656712532043457, -0.877197265625, 0.300537109375, 0.092041015625, 
390, 3333467880, 0.5911600589752197, -0.5781164169311523, -0.2374875247478485, -0.5098327398300171, 9.06693172454834, -4.874394416809082, 1.6699163913726807, -28.792560577392578, -0.5556371808052063, -6.565560340881348, -0.877685546875, 0.300537109375, 0.094482421875, 
391, 3333476213, 0.5898182392120361, -0.5788787603378296, -0.2370026707649231, -0.5107464790344238, 9.589384078979492, -4.807039737701416, 1.5756988525390625, -22.872896194458008, 0.383291631937027, -10.416404724121094, -0.877197265625, 0.299072265625, 0.093017578125, 
392, 3333484546, 0.5885875821113586, -0.579398512840271, -0.23671981692314148, -0.5117071866989136, 9.842238426208496, -4.566296577453613, 1.414968729019165, -19.613840103149414, 1.5959469079971313, -12.622380256652832, -0.876708984375, 0.298095703125, 0.094482421875, 
393, 3333492879, 0.587338387966156, -0.5798327326774597, -0.23640543222427368, -0.5127947330474854, 9.905068397521973, -4.256582260131836, 1.2429612874984741, -18.4528751373291, 2.7961790561676025, -13.493136405944824, -0.880126953125, 0.294921875, 0.095947265625, 
394, 3333501212, 0.5861291289329529, -0.5802693367004395, -0.23598751425743103, -0.5138760805130005, 9.604677200317383, -3.9421353340148926, 1.0465079545974731, -20.113676071166992, 4.303065299987793, -12.642667770385742, -0.880126953125, 0.2939453125, 0.093017578125, 
395, 3333509545, 0.584818959236145, -0.5808939337730408, -0.23527169227600098, -0.514989972114563, 8.960881233215332, -3.552527666091919, 0.940537691116333, -24.715923309326172, 5.377866268157959, -10.668143272399902, -0.880859375, 0.291259765625, 0.0947265625, 
396, 3333517878, 0.583297848701477, -0.5818670392036438, -0.23419451713562012, -0.5161064863204956, 8.530403137207031, -3.2319343090057373, 1.0145554542541504, -31.701025009155273, 5.0832390785217285, -8.130784034729004, -0.88134765625, 0.289306640625, 0.0966796875, 
397, 3333526211, 0.5814722180366516, -0.5832611322402954, -0.23276567459106445, -0.5172380805015564, 8.458566665649414, -3.2486989498138428, 1.2337985038757324, -39.94634246826172, 4.038960933685303, -6.234321594238281, -0.88037109375, 0.287841796875, 0.09716796875, 
398, 3333534544, 0.5792989134788513, -0.5850666761398315, -0.23102068901062012, -0.5184184908866882, 8.547977447509766, -3.397073745727539, 1.5159928798675537, -48.541831970214844, 2.9353208541870117, -5.252991199493408, -0.8828125, 0.287841796875, 0.0966796875, 
399, 3333542877, 0.5768572092056274, -0.5871683359146118, -0.22905084490776062, -0.5196376442909241, 8.580004692077637, -3.6708624362945557, 1.865497350692749, -55.24594497680664, 2.3498051166534424, -4.859559059143066, -0.88232421875, 0.286376953125, 0.09765625, 
400, 3333551210, 0.5741453766822815, -0.5894826054573059, -0.22686122357845306, -0.5209795832633972, 8.614887237548828, -3.896064519882202, 1.9977408647537231, -60.61147689819336, 2.4413774013519287, -5.1863484382629395, -0.881591796875, 0.283203125, 0.10107421875, 
401, 3333559543, 0.571228563785553, -0.5919259786605835, -0.22455847263336182, -0.5224112272262573, 8.670754432678223, -4.010111331939697, 1.9187284708023071, -64.55836486816406, 2.6263654232025146, -6.100987911224365, -0.883056640625, 0.2841796875, 0.10302734375, 
402, 3333567876, 0.568116307258606, -0.5944809913635254, -0.22217896580696106, -0.5239189863204956, 9.096996307373047, -4.060537338256836, 1.7177927494049072, -67.63665008544922, 2.314255714416504, -7.075666904449463, -0.882080078125, 0.284423828125, 0.1064453125, 
403, 3333576209, 0.564857006072998, -0.5970945954322815, -0.21969357132911682, -0.5255167484283447, 9.730988502502441, -4.243738174438477, 1.2998206615447998, -69.55245971679688, 2.6419403553009033, -7.617487907409668, -0.883544921875, 0.278564453125, 0.10595703125, 
404, 3333584542, 0.5615856647491455, -0.5996431112289429, -0.2172147035598755, -0.527148962020874, 10.074512481689453, -4.590888500213623, 0.8521944284439087, -69.98528289794922, 3.671560525894165, -8.398547172546387, -0.8828125, 0.277587890625, 0.1083984375, 
405, 3333592875, 0.5583750009536743, -0.6021168828010559, -0.21476157009601593, -0.5287425518035889, 10.013212203979492, -4.704262733459473, 0.5354717373847961, -68.9166488647461, 4.081081867218018, -8.176956176757812, -0.8876953125, 0.274658203125, 0.111572265625, 
406, 3333601208, 0.5553207397460938, -0.6045116782188416, -0.21239003539085388, -0.5301825404167175, 9.984017372131348, -4.678226470947266, 0.4102146327495575, -65.657470703125, 3.017009735107422, -6.687684535980225, -0.88623046875, 0.27587890625, 0.111328125, 
407, 3333609541, 0.552452027797699, -0.6068029403686523, -0.21009215712547302, -0.5314759016036987, 10.19454574584961, -4.695158958435059, 0.5330547094345093, -62.3066520690918, 2.552236795425415, -5.125746250152588, -0.88427734375, 0.271728515625, 0.11376953125, 
408, 3333617874, 0.5496556162834167, -0.6090627312660217, -0.20775823295116425, -0.5327065587043762, 10.22126293182373, -4.517266273498535, 0.6749279499053955, -61.5987663269043, 2.720548152923584, -3.916339635848999, -0.88525390625, 0.271240234375, 0.1171875, 
409, 3333626207, 0.546847403049469, -0.6113966703414917, -0.20531651377677917, -0.533868670463562, 10.127513885498047, -4.318150520324707, 0.8395832180976868, -62.72393798828125, 2.370119094848633, -2.348871946334839, -0.887451171875, 0.26904296875, 0.117431640625, 
410, 3333634540, 0.5440219640731812, -0.6138446927070618, -0.2027396559715271, -0.5349298119544983, 10.092246055603027, -4.37350606918335, 0.9556524157524109, -64.56233978271484, 1.6654949188232422, -0.2778514325618744, -0.884521484375, 0.267578125, 0.1201171875, 
411, 3333642873, 0.5411497950553894, -0.6163977980613708, -0.20007582008838654, -0.5359092354774475, 9.84319019317627, -4.5268378257751465, 1.0574171543121338, -66.11006164550781, 0.7542908191680908, 1.0212945938110352, -0.885986328125, 0.2685546875, 0.1220703125, 
412, 3333651206, 0.5382953882217407, -0.619013786315918, -0.1974753737449646, -0.5367326140403748, 9.276337623596191, -4.580563068389893, 1.1580777168273926, -65.5759048461914, -1.4855928421020508, 1.9448705911636353, -0.885498046875, 0.265380859375, 0.125, 
413, 3333659539, 0.5355790257453918, -0.6216540336608887, -0.19512000679969788, -0.537259578704834, 8.641759872436523, -4.56820011138916, 1.2571206092834473, -62.65000534057617, -5.211041450500488, 3.0028693675994873, -0.885986328125, 0.266357421875, 0.1259765625, 
414, 3333667872, 0.5330144166946411, -0.6242920756340027, -0.19299933314323425, -0.5375170707702637, 8.157491683959961, -4.572356224060059, 1.558395504951477, -58.19611358642578, -9.236764907836914, 4.2312541007995605, -0.8857421875, 0.264404296875, 0.130859375, 
415, 3333676205, 0.5306950807571411, -0.6268709897994995, -0.19118644297122955, -0.5374586582183838, 7.876876354217529, -4.536011695861816, 1.823891043663025, -52.72825241088867, -12.959080696105957, 5.523159980773926, -0.88427734375, 0.265869140625, 0.13427734375, 
416, 3333684538, 0.5286518335342407, -0.6293255686759949, -0.18965882062911987, -0.5371451377868652, 7.690970420837402, -4.525697231292725, 2.0589892864227295, -46.476322174072266, -15.752339363098145, 6.678003787994385, -0.88623046875, 0.26318359375, 0.13720703125, 
417, 3333692871, 0.5268257856369019, -0.6316218376159668, -0.18836013972759247, -0.5367004871368408, 7.620187282562256, -4.507413864135742, 2.114269495010376, -40.393856048583984, -17.309961318969727, 7.011524200439453, -0.88427734375, 0.26708984375, 0.141845703125, 
418, 3333701204, 0.5252825021743774, -0.633696436882019, -0.18738442659378052, -0.5361089110374451, 7.639913082122803, -4.462564945220947, 1.8712255954742432, -34.58598709106445, -18.061504364013672, 6.610940456390381, -0.88623046875, 0.265380859375, 0.145751953125, 
419, 3333709537, 0.5239022374153137, -0.6355971097946167, -0.18672487139701843, -0.5354390740394592, 7.788598537445068, -4.508635520935059, 1.5135138034820557, -29.291563034057617, -19.3228759765625, 5.189577579498291, -0.88330078125, 0.265869140625, 0.147705078125, 
420, 3333717870, 0.5227073431015015, -0.637312650680542, -0.18652930855751038, -0.5346354246139526, 8.084909439086914, -4.63558292388916, 1.3442678451538086, -22.663789749145508, -21.999408721923828, 2.9726881980895996, -0.88232421875, 0.266845703125, 0.15185546875, 
421, 3333726203, 0.5216835141181946, -0.6388115286827087, -0.18686798214912415, -0.5337274074554443, 8.492467880249023, -4.886308193206787, 1.3375309705734253, -15.22059154510498, -24.774965286254883, -0.22941404581069946, -0.88134765625, 0.266357421875, 0.15478515625, 
422, 3333734536, 0.5208293795585632, -0.6400182843208313, -0.18779529631137848, -0.5327894687652588, 8.925440788269043, -5.181926727294922, 1.4289534091949463, -7.427608966827393, -26.628259658813477, -4.718107223510742, -0.88134765625, 0.267822265625, 0.158203125, 
423, 3333742869, 0.5200684666633606, -0.6409438848495483, -0.18923325836658478, -0.5319107174873352, 9.0758695602417, -5.405405044555664, 1.579973816871643, 0.10773355513811111, -28.01880645751953, -9.523341178894043, -0.881591796875, 0.2646484375, 0.162109375, 
424, 3333751202, 0.5194886326789856, -0.641574501991272, -0.1911938637495041, -0.531015157699585, 9.10579776763916, -5.491763591766357, 1.8126778602600098, 6.566982746124268, -28.721792221069336, -13.608354568481445, -0.882568359375, 0.26416015625, 0.1630859375, 
425, 3333759535, 0.518987774848938, -0.6419738531112671, -0.19348947703838348, -0.5301899909973145, 9.072839736938477, -5.383910179138184, 1.9724377393722534, 12.202584266662598, -29.095998764038086, -16.965314865112305, -0.882080078125, 0.262939453125, 0.16845703125, 
426, 3333767868, 0.5186583995819092, -0.6421232223510742, -0.1961747258901596, -0.5293443202972412, 8.883295059204102, -5.2934184074401855, 2.0641331672668457, 17.370805740356445, -29.280017852783203, -19.806093215942383, -0.88134765625, 0.259033203125, 0.171875, 
427, 3333776201, 0.5184563398361206, -0.642120897769928, -0.1990932673215866, -0.5284544229507446, 8.496849060058594, -5.057827949523926, 2.185791254043579, 21.401391983032227, -29.846017837524414, -21.03803825378418, -0.8828125, 0.2578125, 0.173828125, 
428, 3333784534, 0.5184175968170166, -0.641987144947052, -0.20219102501869202, -0.527478039264679, 8.128061294555664, -4.868811130523682, 2.312138795852661, 25.313053131103516, -30.525779724121094, -21.172571182250977, -0.88232421875, 0.25634765625, 0.1767578125, 
429, 3333792867, 0.5185717344284058, -0.6417147517204285, -0.20545288920402527, -0.5263962745666504, 7.812252044677734, -4.873139381408691, 2.4617691040039062, 29.49310874938965, -31.047014236450195, -20.863285064697266, -0.88427734375, 0.254638671875, 0.17724609375, 
430, 3333801200, 0.5189391374588013, -0.6412931680679321, -0.20885619521141052, -0.52520751953125, 7.444404602050781, -4.996495723724365, 2.5376200675964355, 33.757999420166016, -31.355134963989258, -20.21906280517578, -0.881591796875, 0.252685546875, 0.18310546875, 
431, 3333809533, 0.519504964351654, -0.640734076499939, -0.21238547563552856, -0.5239136219024658, 7.277223587036133, -5.045788288116455, 2.5925467014312744, 37.705142974853516, -31.58397674560547, -19.55271339416504, -0.881103515625, 0.253173828125, 0.18603515625, 
432, 3333817866, 0.5202693343162537, -0.6400434374809265, -0.2160203754901886, -0.5225113034248352, 7.337538719177246, -5.057211875915527, 2.5659449100494385, 41.468318939208984, -31.799240112304688, -18.65200424194336, -0.88134765625, 0.248046875, 0.18701171875, 
433, 3333826199, 0.5212114453315735, -0.6392196416854858, -0.21973571181297302, -0.5210292339324951, 7.641458988189697, -5.141908645629883, 2.565812349319458, 44.80240249633789, -31.563478469848633, -17.918249130249023, -0.881591796875, 0.25048828125, 0.1904296875, 
434, 3333834532, 0.5223436951637268, -0.6382387280464172, -0.2234925925731659, -0.5194975733757019, 7.985413551330566, -5.273050308227539, 2.474066972732544, 48.04438400268555, -30.625179290771484, -17.030534744262695, -0.8818359375, 0.24853515625, 0.193359375, 
435, 3333842865, 0.5236868858337402, -0.6370981931686401, -0.2272946834564209, -0.5178934931755066, 8.161383628845215, -5.335310459136963, 2.37603497505188, 51.58854675292969, -29.772153854370117, -15.907018661499023, -0.88330078125, 0.247314453125, 0.1953125, 
436, 3333851198, 0.5252653360366821, -0.6358243227005005, -0.2311192750930786, -0.5161647796630859, 8.43585205078125, -5.276031017303467, 2.4099979400634766, 55.157657623291016, -29.367761611938477, -13.93131160736084, -0.87890625, 0.24853515625, 0.197509765625, 
437, 3333859531, 0.5270603895187378, -0.6344329714775085, -0.23490390181541443, -0.5143351554870605, 9.084060668945312, -5.195367813110352, 2.370473623275757, 57.727455139160156, -28.314197540283203, -11.73363208770752, -0.87939453125, 0.246826171875, 0.197021484375, 
438, 3333867864, 0.5289813876152039, -0.6329185366630554, -0.23851683735847473, -0.512563169002533, 9.913199424743652, -5.15487003326416, 2.174974203109741, 58.52907180786133, -25.413293838500977, -10.114266395568848, -0.880859375, 0.247802734375, 0.200927734375, 
439, 3333876197, 0.5309906601905823, -0.6313020586967468, -0.24188995361328125, -0.5108956694602966, 10.354569435119629, -5.033849239349365, 1.8341842889785767, 58.0389518737793, -21.751874923706055, -8.51675033569336, -0.8779296875, 0.24951171875, 0.199462890625, 
440, 3333884530, 0.533073365688324, -0.6296181082725525, -0.24508605897426605, -0.5092790722846985, 10.452045440673828, -4.8694748878479, 1.600773572921753, 57.72404861450195, -19.296844482421875, -7.046050548553467, -0.88037109375, 0.249755859375, 0.198974609375, 
441, 3333892863, 0.5351525545120239, -0.6279563903808594, -0.24805352091789246, -0.5077109336853027, 10.431378364562988, -4.702023029327393, 1.4305448532104492, 56.2458381652832, -17.58480453491211, -5.334219932556152, -0.876953125, 0.25, 0.200439453125, 
442, 3333901196, 0.5371946096420288, -0.6263203620910645, -0.2508704662322998, -0.5061888694763184, 10.430224418640137, -4.524023532867432, 1.343504786491394, 54.04692840576172, -16.170452117919922, -4.580875396728516, -0.87841796875, 0.250244140625, 0.200927734375, 
443, 3333909529, 0.5391207933425903, -0.624741792678833, -0.25352242588996887, -0.5047687292098999, 10.373891830444336, -4.386777400970459, 1.2457891702651978, 51.117069244384766, -14.859251022338867, -4.542196273803711, -0.8779296875, 0.2529296875, 0.201171875, 
444, 3333917862, 0.5409082770347595, -0.6232284307479858, -0.25604528188705444, -0.5034520626068115, 10.095138549804688, -4.11245059967041, 1.3242056369781494, 48.19431686401367, -13.961723327636719, -4.91388463973999, -0.87744140625, 0.25244140625, 0.201171875, 
445, 3333926195, 0.5424911975860596, -0.6218034029006958, -0.25846701860427856, -0.5022719502449036, 9.95797061920166, -3.8497416973114014, 1.4156379699707031, 44.63179016113281, -13.376715660095215, -6.185273170471191, -0.8779296875, 0.2529296875, 0.2001953125, 
446, 3333934528, 0.5438576340675354, -0.6204491853713989, -0.26081979274749756, -0.5012516379356384, 10.066458702087402, -3.768031120300293, 1.5150281190872192, 41.17866897583008, -12.749289512634277, -8.013875961303711, -0.877197265625, 0.25537109375, 0.19970703125, 
447, 3333942861, 0.5450186729431152, -0.6191356778144836, -0.26308780908584595, -0.5004286170005798, 10.13821792602539, -3.716470718383789, 1.8327175378799438, 38.20668029785156, -11.613932609558105, -10.009992599487305, -0.87841796875, 0.25390625, 0.20068359375, 
