sep=,
PacketCounter,SampleTimeFine,Quat_W,Quat_X,Quat_Y,Quat_Z,Acc_X,Acc_Y,Acc_Z,Gyr_X,Gyr_Y,Gyr_Z,Mag_X,Mag_Y,Mag_Z,
0, 3824398242, 0.5513037443161011, -0.6530563831329346, -0.2379244863986969, -0.46150901913642883, 0, 0, 0, 0, 0, 0, -0.8779296875, 0.323974609375, 0.2412109375, 
1, 3824406575, 0.5511428117752075, -0.6530382037162781, -0.23794084787368774, -0.4617186188697815, 8.463704109191895, -4.847186088562012, 0.33808475732803345, -2.75648832321167, 0.8613811135292053, -2.9528729915618896, -0.87939453125, 0.324951171875, 0.240478515625, 
2, 3824414908, 0.550977885723114, -0.653022050857544, -0.23795086145401, -0.46193307638168335, 8.435917854309082, -4.861251354217529, 0.32311391830444336, -2.4917140007019043, 0.7300312519073486, -2.954179048538208, -0.87939453125, 0.324951171875, 0.240478515625, 
3, 3824423241, 0.5508350133895874, -0.6529800891876221, -0.2380007803440094, -0.462136834859848, 8.425573348999023, -4.899561882019043, 0.2821337580680847, -1.7934958934783936, 0.536618173122406, -3.153611898422241, -0.87939453125, 0.322021484375, 0.237060546875, 
4, 3824431574, 0.5507211685180664, -0.6529049873352051, -0.23809248208999634, -0.46233126521110535, 8.434378623962402, -4.88184928894043, 0.2802273631095886, -0.9999926686286926, 0.4735816419124603, -3.4037606716156006, -0.88037109375, 0.321533203125, 0.239990234375, 
5, 3824439907, 0.5506479144096375, -0.6528008580207825, -0.23825481534004211, -0.46248191595077515, 8.446708679199219, -4.845394134521484, 0.2903984785079956, -0.3443194031715393, 0.14528395235538483, -3.5499155521392822, -0.87890625, 0.322021484375, 0.241455078125, 
6, 3824448240, 0.5505552291870117, -0.6526983380317688, -0.23839861154556274, -0.462662935256958, 8.459543228149414, -4.811525344848633, 0.3037814199924469, -0.22762088477611542, 0.2019682228565216, -3.724860429763794, -0.8818359375, 0.3212890625, 0.239013671875, 
7, 3824456573, 0.5504410266876221, -0.6526021361351013, -0.23853865265846252, -0.46286237239837646, 8.46845817565918, -4.7960710525512695, 0.30046090483665466, -0.29872602224349976, 0.11426510661840439, -3.9129202365875244, -0.88037109375, 0.320068359375, 0.236572265625, 
8, 3824464906, 0.5503103137016296, -0.6525156497955322, -0.23866771161556244, -0.46307316422462463, 8.447559356689453, -4.808791160583496, 0.3050127923488617, -0.884139358997345, 0.35365575551986694, -4.0080766677856445, -0.8798828125, 0.322021484375, 0.238525390625, 
9, 3824473239, 0.5501353740692139, -0.6524630784988403, -0.23876845836639404, -0.4633030295372009, 8.467423439025879, -4.7859625816345215, 0.26877906918525696, -1.8253601789474487, 0.3822925090789795, -4.048880577087402, -0.88037109375, 0.31982421875, 0.239990234375, 
10, 3824481572, 0.5499148368835449, -0.6524581909179688, -0.238841712474823, -0.463533878326416, 8.471985816955566, -4.780045032501221, 0.2695610523223877, -2.726520299911499, 0.1413905918598175, -3.9639694690704346, -0.88037109375, 0.320556640625, 0.239501953125, 
11, 3824489905, 0.5496562719345093, -0.6524795293807983, -0.23888641595840454, -0.46378737688064575, 8.500709533691406, -4.8191375732421875, 0.25843918323516846, -3.5480968952178955, 0.26239222288131714, -4.014583110809326, -0.880126953125, 0.31787109375, 0.240966796875, 
12, 3824498238, 0.5493752360343933, -0.6525214314460754, -0.23891547322273254, -0.4640464782714844, 8.528706550598145, -4.885476112365723, 0.27678006887435913, -3.9983181953430176, 0.23178322613239288, -4.01209831237793, -0.88232421875, 0.31884765625, 0.240478515625, 
13, 3824506571, 0.5490981340408325, -0.6525722742080688, -0.23893874883651733, -0.4642908275127411, 8.518696784973145, -4.911160945892334, 0.2857631742954254, -4.015735626220703, 0.07612550258636475, -3.7722465991973877, -0.8818359375, 0.31787109375, 0.239990234375, 
14, 3824514904, 0.5488392114639282, -0.6526200771331787, -0.23896832764148712, -0.46451449394226074, 8.473307609558105, -4.938683032989502, 0.29995524883270264, -3.7252962589263916, -0.05349533259868622, -3.5885417461395264, -0.88037109375, 0.31787109375, 0.237060546875, 
15, 3824523237, 0.5485796928405762, -0.6526680588722229, -0.23899415135383606, -0.46473991870880127, 8.42627239227295, -4.950384616851807, 0.31549176573753357, -3.1081206798553467, -0.4135546386241913, -3.518537998199463, -0.880615234375, 0.31640625, 0.240966796875, 
16, 3824531570, 0.5483894348144531, -0.6526809930801392, -0.23908491432666779, -0.4648997187614441, 8.412323951721191, -4.996186256408691, 0.3277750313282013, -2.243589162826538, -0.6413164138793945, -3.331758499145508, -0.881103515625, 0.31689453125, 0.238525390625, 
17, 3824539903, 0.5482493042945862, -0.6526581645011902, -0.23923081159591675, -0.4650222361087799, 8.384525299072266, -4.999326705932617, 0.3188984990119934, -1.0864919424057007, -0.9989168643951416, -3.3253042697906494, -0.881103515625, 0.3173828125, 0.239013671875, 
18, 3824548236, 0.5481494665145874, -0.6526029109954834, -0.2394101619720459, -0.46512526273727417, 8.419966697692871, -5.020158290863037, 0.3430699408054352, -0.16578812897205353, -1.0850573778152466, -3.3434386253356934, -0.882080078125, 0.31640625, 0.23779296875, 
19, 3824556569, 0.5480943918228149, -0.6525115370750427, -0.23963817954063416, -0.4652007818222046, 8.473625183105469, -5.010982036590576, 0.37267422676086426, 0.5369768738746643, -1.1245290040969849, -3.4086530208587646, -0.883056640625, 0.31591796875, 0.2412109375, 
20, 3824564902, 0.5480292439460754, -0.6524113416671753, -0.23983749747276306, -0.46531540155410767, 8.506604194641113, -4.969248294830322, 0.35365232825279236, 0.5744503736495972, -0.7306588888168335, -3.5370824337005615, -0.882080078125, 0.314453125, 0.24169921875, 
21, 3824573235, 0.54796302318573, -0.6523110270500183, -0.24000196158885956, -0.46544909477233887, 8.558128356933594, -4.917999267578125, 0.3264288306236267, 0.09715479612350464, -0.21563345193862915, -3.365800380706787, -0.880615234375, 0.31494140625, 0.241943359375, 
22, 3824581568, 0.5478689074516296, -0.6522341370582581, -0.24008139967918396, -0.46562665700912476, 8.565787315368652, -4.9411797523498535, 0.30220744013786316, -0.8371116518974304, 0.4934070408344269, -3.0458273887634277, -0.882080078125, 0.31494140625, 0.2412109375, 
23, 3824589901, 0.5477603673934937, -0.6521820425987244, -0.24010983109474182, -0.465812623500824, 8.513917922973633, -4.929251670837402, 0.3029409945011139, -1.6973400115966797, 0.8360230326652527, -2.654031753540039, -0.882568359375, 0.3115234375, 0.23779296875, 
24, 3824598234, 0.5476129651069641, -0.6521703004837036, -0.24007421731948853, -0.4660208821296692, 8.506454467773438, -4.924468994140625, 0.3136599361896515, -2.643683433532715, 1.0401684045791626, -2.3699185848236084, -0.883544921875, 0.316162109375, 0.24169921875, 
25, 3824606567, 0.5474538207054138, -0.652184784412384, -0.23999598622322083, -0.4662277400493622, 8.457764625549316, -4.996565341949463, 0.3333713710308075, -3.3679771423339844, 1.209632158279419, -1.9569915533065796, -0.882568359375, 0.313720703125, 0.24072265625, 
26, 3824614900, 0.5472854375839233, -0.6522244811058044, -0.2398713380098343, -0.46643394231796265, 8.453095436096191, -5.01898193359375, 0.3735532760620117, -3.782031536102295, 1.2948764562606812, -1.5200384855270386, -0.882568359375, 0.31396484375, 0.23876953125, 
27, 3824623233, 0.5471169352531433, -0.6522840261459351, -0.23973815143108368, -0.4666168987751007, 8.438106536865234, -5.0311665534973145, 0.456557959318161, -4.140041828155518, 1.1324821710586548, -1.2005008459091187, -0.884521484375, 0.311767578125, 0.23974609375, 
28, 3824631566, 0.5469672083854675, -0.6523464322090149, -0.23959171772003174, -0.4667803645133972, 8.456887245178223, -5.050000190734863, 0.43596991896629333, -3.7850279808044434, 0.9924490451812744, -0.8104470372200012, -0.881591796875, 0.31201171875, 0.23876953125, 
29, 3824639899, 0.5468369722366333, -0.6524083614349365, -0.23944881558418274, -0.466919869184494, 8.47932243347168, -5.068902969360352, 0.43345484137535095, -3.431065559387207, 0.7531098127365112, -0.516703188419342, -0.882080078125, 0.3134765625, 0.236328125, 
30, 3824648232, 0.5467555522918701, -0.6524564623832703, -0.23932765424251556, -0.4670100510120392, 8.451987266540527, -5.072343826293945, 0.38618725538253784, -2.660435199737549, 0.46195268630981445, -0.09534899145364761, -0.883056640625, 0.310791015625, 0.2392578125, 
31, 3824656565, 0.546694815158844, -0.6525037884712219, -0.239189013838768, -0.46708589792251587, 8.479898452758789, -5.084670066833496, 0.3495955467224121, -2.0151360034942627, 0.2173367738723755, 0.342411071062088, -0.883544921875, 0.311767578125, 0.23974609375, 
32, 3824664898, 0.5466890931129456, -0.6525354385375977, -0.2390795350074768, -0.46710464358329773, 8.511630058288574, -5.068089485168457, 0.31064310669898987, -1.546907663345337, 0.08711400628089905, 0.7718080878257751, -0.883056640625, 0.312744140625, 0.240234375, 
33, 3824673231, 0.5467120409011841, -0.652567982673645, -0.23895126581192017, -0.46709775924682617, 8.558185577392578, -5.039144515991211, 0.3259586691856384, -1.3935039043426514, 0.09664250165224075, 1.3287895917892456, -0.883544921875, 0.313720703125, 0.240234375, 
34, 3824681564, 0.5467521548271179, -0.6526086330413818, -0.2387944459915161, -0.4670742452144623, 8.610992431640625, -5.023466110229492, 0.3019844889640808, -1.367377519607544, 0.15558086335659027, 1.8368735313415527, -0.881103515625, 0.31103515625, 0.23876953125, 
35, 3824689897, 0.5468009114265442, -0.6526625752449036, -0.23859956860542297, -0.4670411944389343, 8.633007049560547, -5.0067033767700195, 0.3316880762577057, -1.6512089967727661, 0.304963082075119, 2.359199285507202, -0.884033203125, 0.312744140625, 0.2392578125, 
36, 3824698230, 0.546852707862854, -0.6527377963066101, -0.2383500337600708, -0.4670029580593109, 8.62204360961914, -4.974005699157715, 0.3689330220222473, -2.0702064037323, 0.5372329354286194, 2.968843460083008, -0.880615234375, 0.311767578125, 0.24072265625, 
37, 3824706563, 0.5469036102294922, -0.6528314352035522, -0.23806515336036682, -0.4669577181339264, 8.63086223602295, -4.961073398590088, 0.36759212613105774, -2.486668586730957, 0.6338754892349243, 3.4015705585479736, -0.882080078125, 0.31396484375, 0.23779296875, 
38, 3824714896, 0.546944797039032, -0.6529503464698792, -0.237743079662323, -0.46690720319747925, 8.66693115234375, -4.924116611480713, 0.3471892476081848, -2.919651746749878, 0.6571587920188904, 3.7857587337493896, -0.883056640625, 0.31396484375, 0.2392578125, 
39, 3824723229, 0.5469898581504822, -0.6530867218971252, -0.23739495873451233, -0.46684110164642334, 8.695446014404297, -4.898207187652588, 0.3046603202819824, -3.4395949840545654, 0.772089958190918, 4.215539932250977, -0.883544921875, 0.313232421875, 0.240234375, 
40, 3824731562, 0.5470163226127625, -0.6532447934150696, -0.23699986934661865, -0.46678969264030457, 8.687132835388184, -4.90633487701416, 0.25077471137046814, -3.812947988510132, 0.8990597128868103, 4.484310150146484, -0.88330078125, 0.31591796875, 0.23828125, 
41, 3824739895, 0.5470449328422546, -0.6534176468849182, -0.23660141229629517, -0.46671614050865173, 8.711580276489258, -4.836421966552734, 0.17187626659870148, -4.325795650482178, 0.8927584886550903, 4.726210117340088, -0.881103515625, 0.3173828125, 0.238525390625, 
42, 3824748228, 0.5470517873764038, -0.6536204814910889, -0.2361711859703064, -0.4666421711444855, 8.711942672729492, -4.809736251831055, 0.1854795515537262, -4.479609489440918, 0.60905522108078, 4.988320827484131, -0.8818359375, 0.31884765625, 0.238037109375, 
43, 3824756561, 0.5470098257064819, -0.6538631916046143, -0.2356913536787033, -0.46659383177757263, 8.683455467224121, -4.7871270179748535, 0.1611650437116623, -4.743051528930664, 0.26953861117362976, 5.11575174331665, -0.881591796875, 0.3154296875, 0.23974609375, 
44, 3824764894, 0.546984851360321, -0.6541109085083008, -0.23524995148181915, -0.4664987623691559, 8.638188362121582, -4.770786285400391, 0.1873588114976883, -5.104597568511963, 0.11206229031085968, 5.189342021942139, -0.880615234375, 0.31689453125, 0.239990234375, 
45, 3824773227, 0.5469605922698975, -0.6543713212013245, -0.2348455786705017, -0.46636560559272766, 8.538840293884277, -4.711253643035889, 0.18148458003997803, -5.322702407836914, -0.32236796617507935, 5.175151348114014, -0.882080078125, 0.31640625, 0.240234375, 
46, 3824781560, 0.5469114184379578, -0.6546503305435181, -0.23443789780139923, -0.4662369191646576, 8.485149383544922, -4.727269649505615, 0.2128843367099762, -5.2330780029296875, -0.7214122414588928, 5.084144115447998, -0.8818359375, 0.31689453125, 0.23779296875, 
47, 3824789893, 0.5468669533729553, -0.6549404263496399, -0.2340618073940277, -0.4660705327987671, 8.409835815429688, -4.707505702972412, 0.2031191736459732, -5.269885540008545, -1.1861311197280884, 5.1451568603515625, -0.8837890625, 0.31787109375, 0.23828125, 
48, 3824798226, 0.5468036532402039, -0.655239999294281, -0.23371243476867676, -0.46589910984039307, 8.371123313903809, -4.696656703948975, 0.20800499618053436, -5.005008697509766, -1.7231335639953613, 4.855306148529053, -0.8828125, 0.3193359375, 0.239990234375, 
49, 3824806559, 0.5467467308044434, -0.655528724193573, -0.23340973258018494, -0.46571117639541626, 8.335055351257324, -4.709273815155029, 0.20017386972904205, -4.529506683349609, -2.1393651962280273, 4.57767391204834, -0.88134765625, 0.32080078125, 0.240966796875, 
50, 3824814892, 0.5466985702514648, -0.6558091044425964, -0.2331465184688568, -0.4655047655105591, 8.3449125289917, -4.709130764007568, 0.19604423642158508, -4.05938196182251, -2.513153314590454, 4.378138542175293, -0.879150390625, 0.31884765625, 0.241455078125, 
51, 3824823225, 0.5466727018356323, -0.6560518741607666, -0.2329433262348175, -0.4652947783470154, 8.310552597045898, -4.712282180786133, 0.2425966113805771, -3.330913782119751, -2.6157898902893066, 3.8924927711486816, -0.88232421875, 0.3193359375, 0.240478515625, 
52, 3824831558, 0.5466612577438354, -0.6562674641609192, -0.23277483880519867, -0.46508878469467163, 8.282012939453125, -4.700884819030762, 0.26579898595809937, -2.63533353805542, -2.688969850540161, 3.5468544960021973, -0.880859375, 0.3212890625, 0.242431640625, 
53, 3824839891, 0.546671450138092, -0.6564449071884155, -0.23267081379890442, -0.4648781716823578, 8.277198791503906, -4.711053848266602, 0.2746724784374237, -1.9160089492797852, -2.8086650371551514, 3.0212504863739014, -0.87939453125, 0.3193359375, 0.241943359375, 
54, 3824848224, 0.5466921329498291, -0.656582236289978, -0.23261551558971405, -0.46468767523765564, 8.304668426513672, -4.708934783935547, 0.3191829025745392, -1.0837510824203491, -2.797778606414795, 2.3646035194396973, -0.88134765625, 0.32177734375, 0.241455078125, 
55, 3824856557, 0.5467056632041931, -0.656684160232544, -0.23257797956466675, -0.4645463228225708, 8.34986400604248, -4.701615810394287, 0.38279277086257935, -0.4356340765953064, -2.594043016433716, 1.7118760347366333, -0.87939453125, 0.322265625, 0.245361328125, 
56, 3824864890, 0.546725869178772, -0.6567474007606506, -0.2326068878173828, -0.46441876888275146, 8.377195358276367, -4.675556182861328, 0.40786013007164, -0.195167675614357, -2.389359951019287, 0.8914778232574463, -0.880859375, 0.3203125, 0.241943359375, 
57, 3824873223, 0.5467356443405151, -0.656780481338501, -0.23266857862472534, -0.46432921290397644, 8.397043228149414, -4.656239986419678, 0.41509827971458435, -0.1826166808605194, -2.0307602882385254, 0.15178994834423065, -0.8798828125, 0.3212890625, 0.241455078125, 
58, 3824881556, 0.5466881990432739, -0.6568219065666199, -0.232725590467453, -0.464297890663147, 8.460833549499512, -4.689457893371582, 0.41892528533935547, -0.7678762674331665, -1.8091974258422852, -0.5890377163887024, -0.87841796875, 0.322021484375, 0.243408203125, 
59, 3824889889, 0.5466066002845764, -0.6568603515625, -0.23279696702957153, -0.4643039405345917, 8.477367401123047, -4.752336502075195, 0.43252602219581604, -1.2303156852722168, -1.60564124584198, -1.2188405990600586, -0.88232421875, 0.3232421875, 0.240966796875, 
60, 3824898222, 0.5464839339256287, -0.6568966507911682, -0.23286694288253784, -0.46436211466789246, 8.487528800964355, -4.789619445800781, 0.4417612850666046, -1.6124545335769653, -1.3051093816757202, -1.875051736831665, -0.87841796875, 0.321533203125, 0.241455078125, 
61, 3824906555, 0.5463772416114807, -0.656910240650177, -0.2330131083726883, -0.46439510583877563, 8.560665130615234, -4.8212103843688965, 0.44602498412132263, -1.8574036359786987, -1.2660475969314575, -2.37980580329895, -0.88134765625, 0.31982421875, 0.242919921875, 
62, 3824914888, 0.5462033748626709, -0.6569499373435974, -0.23308706283569336, -0.4645063877105713, 8.557696342468262, -4.799674034118652, 0.44650670886039734, -2.2463300228118896, -1.0444331169128418, -2.6267523765563965, -0.87841796875, 0.3203125, 0.242431640625, 
63, 3824923221, 0.5460360646247864, -0.6569784283638, -0.2331850826740265, -0.4646134376525879, 8.559183120727539, -4.834359645843506, 0.44248396158218384, -2.2611351013183594, -0.9980202317237854, -2.8042845726013184, -0.880859375, 0.32080078125, 0.243408203125, 
64, 3824931554, 0.5458618402481079, -0.6570140719413757, -0.23326075077056885, -0.4647296369075775, 8.54793643951416, -4.893118381500244, 0.44022074341773987, -2.223123788833618, -0.9872880578041077, -2.6922993659973145, -0.879150390625, 0.31884765625, 0.243408203125, 
65, 3824939887, 0.5457002520561218, -0.657049298286438, -0.23333340883255005, -0.4648333191871643, 8.568078994750977, -4.961894512176514, 0.4432835578918457, -2.1367523670196533, -1.0251970291137695, -2.478574514389038, -0.88134765625, 0.3203125, 0.243896484375, 
66, 3824948220, 0.5455635190010071, -0.6570734977722168, -0.2334049642086029, -0.46492382884025574, 8.588263511657715, -4.9538750648498535, 0.3894841969013214, -1.7435482740402222, -0.9954076409339905, -2.261826753616333, -0.880859375, 0.3203125, 0.244873046875, 
67, 3824956553, 0.5454692244529724, -0.6570727825164795, -0.23351603746414185, -0.46497946977615356, 8.598525047302246, -4.977074146270752, 0.3847261965274811, -1.2836445569992065, -1.053321361541748, -2.1698458194732666, -0.879638671875, 0.318359375, 0.242431640625, 
68, 3824964886, 0.5453841686248779, -0.657078742980957, -0.2336086630821228, -0.46502450108528137, 8.632652282714844, -4.980800151824951, 0.3706330955028534, -0.8597034215927124, -1.2829275131225586, -1.836681604385376, -0.8798828125, 0.3193359375, 0.242919921875, 
69, 3824973219, 0.5453140735626221, -0.6570689678192139, -0.23370203375816345, -0.4650734066963196, 8.642765998840332, -4.976189613342285, 0.3445289731025696, -0.48424994945526123, -1.2012947797775269, -1.8070203065872192, -0.880859375, 0.31884765625, 0.243896484375, 
70, 3824981552, 0.5452784299850464, -0.6570401787757874, -0.23383024334907532, -0.465091347694397, 8.64527416229248, -5.036073684692383, 0.33199790120124817, 0.16295775771141052, -1.4132013320922852, -1.7523082494735718, -0.88037109375, 0.31884765625, 0.242919921875, 
71, 3824989885, 0.5452736616134644, -0.6569852828979492, -0.2339865267276764, -0.4650958776473999, 8.678239822387695, -5.0383524894714355, 0.36060288548469543, 0.7412247061729431, -1.4279552698135376, -1.78168785572052, -0.880615234375, 0.31787109375, 0.243408203125, 
72, 3824998218, 0.5452903509140015, -0.6569148302078247, -0.23416389524936676, -0.4650866687297821, 8.697113037109375, -5.042691230773926, 0.3782476484775543, 1.350894808769226, -1.5918095111846924, -1.7906016111373901, -0.881103515625, 0.3173828125, 0.243896484375, 
73, 3825006551, 0.5453289747238159, -0.6568278670310974, -0.23433615267276764, -0.46507754921913147, 8.695076942443848, -5.029012680053711, 0.41391509771347046, 1.9625624418258667, -1.5861228704452515, -1.6276949644088745, -0.879638671875, 0.3173828125, 0.243408203125, 
74, 3825014884, 0.5453970432281494, -0.6567349433898926, -0.23451682925224304, -0.46503785252571106, 8.670351028442383, -4.997764587402344, 0.40869054198265076, 2.1025702953338623, -1.581973671913147, -1.336768627166748, -0.878662109375, 0.318359375, 0.246337890625, 
75, 3825023217, 0.5454829931259155, -0.6566469073295593, -0.23468613624572754, -0.4649757742881775, 8.643978118896484, -4.937889099121094, 0.4242129921913147, 1.929622769355774, -1.5222411155700684, -0.932550311088562, -0.879150390625, 0.31689453125, 0.243896484375, 
76, 3825031550, 0.545553982257843, -0.6565898656845093, -0.2347828894853592, -0.46492433547973633, 8.574664115905762, -4.892168998718262, 0.4139179289340973, 1.3598854541778564, -1.2788803577423096, -0.35712650418281555, -0.88134765625, 0.318359375, 0.242919921875, 
77, 3825039883, 0.5456177592277527, -0.6565675735473633, -0.23482480645179749, -0.4648597836494446, 8.494351387023926, -4.9145894050598145, 0.38361412286758423, 0.5695068836212158, -1.16213059425354, 0.3124936521053314, -0.88232421875, 0.31884765625, 0.242431640625, 
78, 3825048216, 0.5456753969192505, -0.6565735936164856, -0.2348063588142395, -0.46479278802871704, 8.399805068969727, -4.879025936126709, 0.3788717985153198, 0.07955781370401382, -1.0018110275268555, 0.9186545014381409, -0.8818359375, 0.3193359375, 0.244873046875, 
79, 3825056549, 0.5457230806350708, -0.6566088199615479, -0.23475027084350586, -0.46471548080444336, 8.356002807617188, -4.8672895431518555, 0.3483991324901581, -0.4407569468021393, -1.0489157438278198, 1.3811451196670532, -0.879638671875, 0.3173828125, 0.243408203125, 
80, 3825064882, 0.5457748770713806, -0.6566563248634338, -0.23467153310775757, -0.4646271765232086, 8.34048843383789, -4.869032382965088, 0.36400464177131653, -0.6006409525871277, -1.0263751745224, 1.7199701070785522, -0.8818359375, 0.3203125, 0.243896484375, 
81, 3825073215, 0.54583340883255, -0.6566922664642334, -0.2345944344997406, -0.4645465612411499, 8.337584495544434, -4.914602279663086, 0.36644574999809265, -0.4034113883972168, -0.9342151284217834, 1.6713542938232422, -0.878173828125, 0.31787109375, 0.244384765625, 
82, 3825081548, 0.5459264516830444, -0.6566996574401855, -0.23454919457435608, -0.464449942111969, 8.332799911499023, -4.965607166290283, 0.3857395350933075, 0.31451714038848877, -0.9615198969841003, 1.6139527559280396, -0.879150390625, 0.31787109375, 0.245361328125, 
83, 3825089881, 0.5460495948791504, -0.6566768884658813, -0.23454055190086365, -0.46434155106544495, 8.361130714416504, -4.990057945251465, 0.4311649799346924, 1.092600703239441, -1.0818042755126953, 1.4826287031173706, -0.880859375, 0.31982421875, 0.243408203125, 
84, 3825098214, 0.5462054014205933, -0.6566342711448669, -0.23453542590141296, -0.4642212688922882, 8.39997386932373, -4.962790489196777, 0.4422583281993866, 1.58759605884552, -0.9553213715553284, 1.6684088706970215, -0.879150390625, 0.3193359375, 0.244384765625, 
85, 3825106547, 0.5463793873786926, -0.6565662026405334, -0.23450306057929993, -0.4641290307044983, 8.40102767944336, -4.985400676727295, 0.36353519558906555, 1.8284977674484253, -0.3887600302696228, 1.758878231048584, -0.880126953125, 0.318359375, 0.243408203125, 
86, 3825114880, 0.5465748310089111, -0.6564754843711853, -0.23446866869926453, -0.4640444815158844, 8.379569053649902, -5.023391246795654, 0.41486185789108276, 2.0061070919036865, 0.02318088337779045, 1.7622851133346558, -0.878173828125, 0.318359375, 0.241943359375, 
87, 3825123213, 0.5467708110809326, -0.6563649773597717, -0.23442086577415466, -0.4639940857887268, 8.375544548034668, -4.971127986907959, 0.40749162435531616, 2.0721659660339355, 0.4710969924926758, 1.5849063396453857, -0.880859375, 0.32275390625, 0.243408203125, 
88, 3825131546, 0.5469643473625183, -0.6562339663505554, -0.23433148860931396, -0.46399667859077454, 8.48927116394043, -4.8321404457092285, 0.4889437258243561, 1.6595208644866943, 1.4718196392059326, 1.461445927619934, -0.88037109375, 0.322265625, 0.243408203125, 
89, 3825139879, 0.5470815300941467, -0.6561626195907593, -0.2341521680355072, -0.4640497863292694, 8.545270919799805, -4.766073703765869, 0.47033214569091797, -0.2801300883293152, 1.9924288988113403, 1.6071909666061401, -0.87890625, 0.31982421875, 0.242431640625, 
90, 3825148212, 0.547142744064331, -0.656143844127655, -0.2339145839214325, -0.46412399411201477, 8.536920547485352, -4.846837520599365, 0.4018380045890808, -1.555719017982483, 2.0913000106811523, 1.7777302265167236, -0.87939453125, 0.322998046875, 0.239990234375, 
91, 3825156545, 0.5471621751785278, -0.6561529040336609, -0.23363715410232544, -0.46422791481018066, 8.529582023620605, -4.905942916870117, 0.34857800602912903, -2.1994049549102783, 2.150904417037964, 1.763924479484558, -0.87939453125, 0.32080078125, 0.241943359375, 
92, 3825164878, 0.5471713542938232, -0.6561757326126099, -0.2333545982837677, -0.4643270969390869, 8.574712753295898, -4.9286699295043945, 0.2805163264274597, -2.705670118331909, 2.2213945388793945, 1.796556830406189, -0.87841796875, 0.321533203125, 0.240478515625, 
93, 3825173211, 0.5471542477607727, -0.6562292575836182, -0.23302942514419556, -0.46443450450897217, 8.554298400878906, -4.920132637023926, 0.23492173850536346, -3.336164712905884, 2.23248553276062, 2.072883367538452, -0.88134765625, 0.322265625, 0.241943359375, 
94, 3825181544, 0.5471219420433044, -0.6563184857368469, -0.232692688703537, -0.4645156264305115, 8.541557312011719, -4.846546649932861, 0.21042200922966003, -3.8666865825653076, 1.9090547561645508, 2.368138551712036, -0.880859375, 0.32177734375, 0.242431640625, 
95, 3825189877, 0.5470634698867798, -0.6564385890960693, -0.23234708607196808, -0.4645874798297882, 8.542192459106445, -4.804337501525879, 0.14575283229351044, -4.314269542694092, 1.559701919555664, 2.4681365489959717, -0.87744140625, 0.322021484375, 0.239501953125, 
96, 3825198210, 0.5469989776611328, -0.656572699546814, -0.23201142251491547, -0.46464189887046814, 8.519543647766113, -4.806239604949951, 0.1328318864107132, -4.401307106018066, 1.27151620388031, 2.499206781387329, -0.87890625, 0.321044921875, 0.239990234375, 
97, 3825206543, 0.546910285949707, -0.6567235589027405, -0.23167839646339417, -0.4646992087364197, 8.439854621887207, -4.82348108291626, 0.09627170860767365, -4.274541854858398, 0.7920690774917603, 2.3865041732788086, -0.87939453125, 0.322509765625, 0.241455078125, 
98, 3825214876, 0.5468358993530273, -0.6568709015846252, -0.23142287135124207, -0.4647059440612793, 8.418347358703613, -4.835975646972656, 0.05808955058455467, -3.9288525581359863, 0.12182130664587021, 2.1126365661621094, -0.87890625, 0.322998046875, 0.239990234375, 
99, 3825223209, 0.5467643737792969, -0.6569973826408386, -0.23125788569450378, -0.4646933674812317, 8.416705131530762, -4.8440351486206055, 0.009338834322988987, -2.7667598724365234, -0.815518856048584, 1.4241002798080444, -0.8798828125, 0.323486328125, 0.236083984375, 
100, 3825231542, 0.5467153787612915, -0.6570919156074524, -0.2312251329421997, -0.4646337628364563, 8.436910629272461, -4.835707664489746, 0.012189958244562149, -1.6674227714538574, -1.733789324760437, 0.5935842990875244, -0.87841796875, 0.321044921875, 0.240966796875, 
101, 3825239875, 0.5466635227203369, -0.6571611166000366, -0.23131781816482544, -0.4645507037639618, 8.4586820602417, -4.824417591094971, 0.08159380406141281, -0.5531010031700134, -2.802184581756592, -0.44523945450782776, -0.87890625, 0.322509765625, 0.241943359375, 
102, 3825248208, 0.5466146469116211, -0.6571992635726929, -0.2315235435962677, -0.46445178985595703, 8.51616096496582, -4.839813709259033, 0.14210796356201172, 0.40657469630241394, -3.5217649936676025, -1.4448347091674805, -0.87890625, 0.320556640625, 0.240478515625, 
103, 3825256541, 0.5465720295906067, -0.6572028994560242, -0.23183831572532654, -0.4643397927284241, 8.575803756713867, -4.876387119293213, 0.21937522292137146, 1.270568609237671, -4.124929428100586, -2.3962247371673584, -0.88037109375, 0.324462890625, 0.239501953125, 
104, 3825264874, 0.5465107560157776, -0.6571882963180542, -0.2322123646736145, -0.46424561738967896, 8.580545425415039, -4.897960186004639, 0.2726622223854065, 1.7491191625595093, -4.447105407714844, -3.2488455772399902, -0.87939453125, 0.322509765625, 0.240966796875, 
105, 3825273207, 0.5464665293693542, -0.6571421027183533, -0.23265649378299713, -0.4641406834125519, 8.544417381286621, -4.9673895835876465, 0.3052085041999817, 2.165504217147827, -4.565340518951416, -3.7982451915740967, -0.88037109375, 0.322509765625, 0.239990234375, 
106, 3825281540, 0.5464115738868713, -0.6570857167243958, -0.23310180008411407, -0.46406200528144836, 8.567317008972168, -4.9843292236328125, 0.32875630259513855, 2.5271003246307373, -4.555017471313477, -4.103386878967285, -0.88037109375, 0.322998046875, 0.242431640625, 
107, 3825289873, 0.5463804602622986, -0.6570041179656982, -0.23355305194854736, -0.4639870524406433, 8.548755645751953, -4.990766525268555, 0.32699257135391235, 2.7398009300231934, -4.222263336181641, -4.1074347496032715, -0.87939453125, 0.3212890625, 0.242431640625, 
108, 3825298206, 0.546347439289093, -0.6569239497184753, -0.23396582901477814, -0.4639315903186798, 8.566277503967285, -4.991020202636719, 0.3402927815914154, 2.623076915740967, -3.879237651824951, -3.9187347888946533, -0.8798828125, 0.3193359375, 0.242919921875, 
109, 3825306539, 0.5463070869445801, -0.6568557024002075, -0.23434767127037048, -0.4638827443122864, 8.546683311462402, -5.033580780029297, 0.3793710470199585, 2.4271795749664307, -3.8126919269561768, -3.677294969558716, -0.8798828125, 0.3193359375, 0.243896484375, 
110, 3825314872, 0.5462681651115417, -0.6568017601966858, -0.23467698693275452, -0.4638387858867645, 8.556462287902832, -4.99108362197876, 0.40454548597335815, 1.8020894527435303, -3.335242509841919, -3.2047119140625, -0.87890625, 0.320068359375, 0.238525390625, 
111, 3825323205, 0.5462363958358765, -0.6567619442939758, -0.2349439412355423, -0.46379730105400085, 8.554601669311523, -4.991304874420166, 0.4209362268447876, 1.3473856449127197, -2.927412271499634, -2.5534956455230713, -0.8798828125, 0.32080078125, 0.243896484375, 
112, 3825331538, 0.5461997985839844, -0.656743586063385, -0.23513469099998474, -0.46376949548721313, 8.549956321716309, -4.9972333908081055, 0.4280555248260498, 0.621196448802948, -2.367792844772339, -1.9454652070999146, -0.880859375, 0.3193359375, 0.242431640625, 
113, 3825339871, 0.546183705329895, -0.6567248106002808, -0.23527324199676514, -0.4637449085712433, 8.55333423614502, -5.045251846313477, 0.44114166498184204, 0.45677855610847473, -1.895389199256897, -1.354493498802185, -0.8798828125, 0.3203125, 0.244873046875, 
114, 3825348204, 0.546158492565155, -0.656728982925415, -0.23533199727535248, -0.46373894810676575, 8.582145690917969, -5.053154468536377, 0.4512585699558258, -0.3587145507335663, -1.2850532531738281, -0.7716159820556641, -0.88037109375, 0.3212890625, 0.241943359375, 
115, 3825356537, 0.5461437702178955, -0.6567398309707642, -0.23533809185028076, -0.4637378454208374, 8.568962097167969, -5.056723117828369, 0.4602067470550537, -0.6738464832305908, -0.8721774816513062, -0.22984933853149414, -0.8798828125, 0.3212890625, 0.245849609375, 
116, 3825364870, 0.5461426377296448, -0.656749427318573, -0.2352910041809082, -0.46374940872192383, 8.567710876464844, -5.070200443267822, 0.44791117310523987, -0.9138774275779724, -0.29045259952545166, 0.22348418831825256, -0.879638671875, 0.3193359375, 0.245361328125, 
117, 3825373203, 0.5461621880531311, -0.6567551493644714, -0.23521289229393005, -0.4637579619884491, 8.555472373962402, -5.055751323699951, 0.42142441868782043, -0.8946923613548279, -0.009029017761349678, 0.6596946120262146, -0.879638671875, 0.3193359375, 0.243896484375, 
118, 3825381536, 0.5461952090263367, -0.6567507982254028, -0.235117107629776, -0.4637738764286041, 8.562003135681152, -5.045322418212891, 0.4360020160675049, -0.8245861530303955, 0.3142354190349579, 0.8026476502418518, -0.8779296875, 0.322998046875, 0.241943359375, 
119, 3825389869, 0.5462543368339539, -0.6567342281341553, -0.23498842120170593, -0.4637928009033203, 8.584692001342773, -5.003077507019043, 0.3955879807472229, -0.7241784334182739, 0.7330024838447571, 1.219032645225525, -0.880859375, 0.32080078125, 0.243896484375, 
120, 3825398202, 0.5463129281997681, -0.6567248106002808, -0.2348325252532959, -0.46381595730781555, 8.55954647064209, -4.957827091217041, 0.38922908902168274, -0.9630311727523804, 0.946625292301178, 1.4393917322158813, -0.87939453125, 0.3203125, 0.243408203125, 
121, 3825406535, 0.5463794469833374, -0.6567186713218689, -0.23464730381965637, -0.46384015679359436, 8.516945838928223, -4.9194793701171875, 0.3545682430267334, -1.1160507202148438, 1.1640901565551758, 1.7684582471847534, -0.880859375, 0.31982421875, 0.243408203125, 
122, 3825414868, 0.5464480519294739, -0.6567147374153137, -0.23445327579975128, -0.4638633131980896, 8.477638244628906, -4.912153720855713, 0.3179013729095459, -1.1556247472763062, 1.2308152914047241, 1.865561604499817, -0.878173828125, 0.31982421875, 0.243896484375, 
123, 3825423201, 0.5465277433395386, -0.6567122936248779, -0.23424841463565826, -0.4638761878013611, 8.469627380371094, -4.86923885345459, 0.30130845308303833, -1.1120291948318481, 1.2277159690856934, 2.126621961593628, -0.88037109375, 0.31982421875, 0.244384765625, 
124, 3825431534, 0.5466069579124451, -0.6567144989967346, -0.23403403162956238, -0.4638882279396057, 8.458984375, -4.839190483093262, 0.2862265110015869, -1.2014230489730835, 1.2783297300338745, 2.220472812652588, -0.877685546875, 0.3203125, 0.244384765625, 
125, 3825439867, 0.5466828942298889, -0.6567215919494629, -0.23381464183330536, -0.46389883756637573, 8.44692611694336, -4.823693752288818, 0.3050079047679901, -1.3032907247543335, 1.2427258491516113, 2.2823052406311035, -0.8798828125, 0.31982421875, 0.240478515625, 
126, 3825448200, 0.5467415452003479, -0.6567409634590149, -0.23359259963035583, -0.46391433477401733, 8.397666931152344, -4.803157806396484, 0.2962286174297333, -1.5765177011489868, 1.192163348197937, 2.187455892562866, -0.87939453125, 0.321533203125, 0.241455078125, 
127, 3825456533, 0.5467973351478577, -0.6567598581314087, -0.23337647318840027, -0.4639306962490082, 8.410689353942871, -4.8160529136657715, 0.28294914960861206, -1.5697555541992188, 1.1307917833328247, 2.1186559200286865, -0.87939453125, 0.322021484375, 0.241455078125, 
128, 3825464866, 0.5468517541885376, -0.6567655205726624, -0.23317880928516388, -0.46395793557167053, 8.430163383483887, -4.8082051277160645, 0.25227856636047363, -1.393478512763977, 1.1881932020187378, 1.8083395957946777, -0.87939453125, 0.3203125, 0.241943359375, 
129, 3825473199, 0.5469037294387817, -0.6567578911781311, -0.2329959273338318, -0.4639991819858551, 8.495664596557617, -4.806843280792236, 0.20155243575572968, -1.3273423910140991, 1.2921099662780762, 1.5196155309677124, -0.8798828125, 0.321533203125, 0.239501953125, 
130, 3825481532, 0.5469405651092529, -0.6567519307136536, -0.23282574117183685, -0.46404969692230225, 8.484671592712402, -4.7799201011657715, 0.1765560805797577, -1.3638427257537842, 1.2106056213378906, 1.2341194152832031, -0.87890625, 0.321533203125, 0.240966796875, 
131, 3825489865, 0.5469595789909363, -0.6567339897155762, -0.2326630800962448, -0.4641341269016266, 8.47272777557373, -4.784537315368652, 0.1521257907152176, -1.3579002618789673, 1.373742699623108, 0.7808499932289124, -0.8779296875, 0.321533203125, 0.238037109375, 
132, 3825498198, 0.5469585061073303, -0.6567206978797913, -0.23252952098846436, -0.46422138810157776, 8.511144638061523, -4.8010573387146, 0.16122965514659882, -1.5348947048187256, 1.1912668943405151, 0.3609302043914795, -0.880859375, 0.322509765625, 0.235595703125, 
133, 3825506531, 0.5469215512275696, -0.6567188501358032, -0.23235571384429932, -0.46435439586639404, 8.512678146362305, -4.800103187561035, 0.16909244656562805, -1.632612943649292, 1.2765110731124878, 0.23772571980953217, -0.87890625, 0.321533203125, 0.238037109375, 
134, 3825514864, 0.5468886494636536, -0.6567224860191345, -0.23221226036548615, -0.4644598364830017, 8.547246932983398, -4.873934745788574, 0.16051986813545227, -2.0702061653137207, 1.221030592918396, 0.16600583493709564, -0.87890625, 0.322021484375, 0.238525390625, 
135, 3825523197, 0.546876847743988, -0.6567284464836121, -0.2320922315120697, -0.46452513337135315, 8.540116310119629, -4.938532829284668, 0.14893636107444763, -2.216182231903076, 1.0660901069641113, 0.3840598464012146, -0.880859375, 0.322509765625, 0.239990234375, 
136, 3825531530, 0.5468512773513794, -0.6567644476890564, -0.2319345772266388, -0.46458321809768677, 8.558684349060059, -5.070292949676514, 0.14248481392860413, -2.18710994720459, 0.7151238322257996, 0.7994714975357056, -0.8798828125, 0.322509765625, 0.238525390625, 
137, 3825539863, 0.5468687415122986, -0.6568186283111572, -0.23174014687538147, -0.4645829498767853, 8.63693904876709, -5.305179119110107, 0.1773008108139038, -1.9931843280792236, 0.467997670173645, 1.9185572862625122, -0.88134765625, 0.323974609375, 0.240966796875, 
138, 3825548196, 0.5469570159912109, -0.6569047570228577, -0.231469064950943, -0.46449244022369385, 8.789650917053223, -5.564728260040283, 0.2098899781703949, -1.787169337272644, 0.27151092886924744, 3.828944444656372, -0.88037109375, 0.322021484375, 0.237548828125, 
139, 3825556529, 0.5471130609512329, -0.6570321321487427, -0.23105399310588837, -0.464335173368454, 8.918246269226074, -5.675232410430908, 0.23356403410434723, -2.201453924179077, 0.684463620185852, 6.20842981338501, -0.87841796875, 0.322998046875, 0.239013671875, 
140, 3825564862, 0.5472941994667053, -0.6572397947311401, -0.23044729232788086, -0.46412938833236694, 8.984395980834961, -5.786482810974121, 0.2061082124710083, -3.6391820907592773, 1.272464394569397, 8.70820140838623, -0.8798828125, 0.322998046875, 0.239013671875, 
141, 3825573195, 0.5474063158035278, -0.6576305627822876, -0.22945648431777954, -0.46393412351608276, 9.181327819824219, -6.338165283203125, 0.14375610649585724, -8.133072853088379, 2.8555526733398438, 12.250907897949219, -0.87841796875, 0.324951171875, 0.239501953125, 
142, 3825581528, 0.5475369691848755, -0.658216118812561, -0.22793284058570862, -0.46370071172714233, 9.354864120483398, -6.900124549865723, 0.32179948687553406, -12.703475952148438, 5.351712703704834, 18.078073501586914, -0.87841796875, 0.326416015625, 0.2392578125, 
143, 3825589861, 0.5478585958480835, -0.6588853001594543, -0.22607821226119995, -0.46327832341194153, 9.372908592224121, -7.199151515960693, 0.48681116104125977, -13.130671501159668, 6.183510780334473, 23.984031677246094, -0.877197265625, 0.32861328125, 0.23876953125, 
144, 3825598194, 0.5485930442810059, -0.6594862341880798, -0.22386911511421204, -0.46262621879577637, 9.542752265930176, -7.677513122558594, 0.5489523410797119, -10.413744926452637, 8.506597518920898, 31.337482452392578, -0.876220703125, 0.332275390625, 0.23681640625, 
145, 3825606527, 0.549782931804657, -0.6600774526596069, -0.22109481692314148, -0.46170416474342346, 9.72310733795166, -8.587757110595703, 0.5550733208656311, -8.981889724731445, 11.7711181640625, 41.36741638183594, -0.87744140625, 0.337158203125, 0.23779296875, 
146, 3825614860, 0.5515896081924438, -0.6606060266494751, -0.2176961600780487, -0.46040627360343933, 9.912055015563965, -9.587279319763184, 0.08043444901704788, -5.722479343414307, 15.367227554321289, 53.60111618041992, -0.87109375, 0.34033203125, 0.234619140625, 
147, 3825623193, 0.5542453527450562, -0.6609662175178528, -0.2136911004781723, -0.45857271552085876, 10.079629898071289, -10.73134994506836, 0.17249217629432678, 0.9009333252906799, 18.77646827697754, 68.02899169921875, -0.872802734375, 0.349365234375, 0.23486328125, 
148, 3825631526, 0.557684063911438, -0.6612582802772522, -0.20892305672168732, -0.4561734199523926, 10.287121772766113, -11.020556449890137, 0.4905757009983063, 5.517497539520264, 22.11391830444336, 84.02880859375, -0.86962890625, 0.356201171875, 0.228515625, 
149, 3825639859, 0.561835527420044, -0.661618709564209, -0.2031269371509552, -0.4531644284725189, 10.455168724060059, -11.279946327209473, 1.0162233114242554, 6.769038677215576, 26.058670043945312, 102.69810485839844, -0.865966796875, 0.3681640625, 0.227783203125, 
150, 3825648192, 0.5663371086120605, -0.662298321723938, -0.19600412249565125, -0.4496918022632599, 10.555277824401855, -11.533305168151855, 1.8334063291549683, 0.5264822244644165, 31.09198760986328, 121.44793701171875, -0.860107421875, 0.383056640625, 0.221435546875, 
151, 3825656525, 0.5709078907966614, -0.6634542346000671, -0.1874554455280304, -0.4458363652229309, 10.586894989013672, -11.804293632507324, 2.4791412353515625, -10.35204029083252, 35.93914031982422, 139.0892791748047, -0.85498046875, 0.400390625, 0.218505859375, 
152, 3825664858, 0.5754461288452148, -0.6651101112365723, -0.17744070291519165, -0.4416128396987915, 10.555742263793945, -12.562055587768555, 2.89149808883667, -22.6014461517334, 40.953853607177734, 156.48419189453125, -0.84814453125, 0.414794921875, 0.21044921875, 
153, 3825673191, 0.5799258351325989, -0.6672073006629944, -0.16606706380844116, -0.43698886036872864, 10.52458381652832, -13.255366325378418, 3.1443886756896973, -33.92103576660156, 45.20378494262695, 172.7531280517578, -0.8369140625, 0.43408203125, 0.209228515625, 
154, 3825681524, 0.5844713449478149, -0.669580340385437, -0.15346942842006683, -0.43187931180000305, 10.33812427520752, -13.614274978637695, 3.5413641929626465, -41.746559143066406, 49.02244186401367, 188.93275451660156, -0.83056640625, 0.452880859375, 0.2060546875, 
155, 3825689857, 0.5894138813018799, -0.6719112992286682, -0.13980397582054138, -0.4261436462402344, 9.960421562194824, -14.343728065490723, 3.640805959701538, -42.795005798339844, 52.90384292602539, 206.00201416015625, -0.819580078125, 0.473388671875, 0.200927734375, 
156, 3825698190, 0.5951229929924011, -0.6737841963768005, -0.12544533610343933, -0.41967111825942993, 9.519091606140137, -15.841621398925781, 3.457571268081665, -34.6253547668457, 55.89674758911133, 222.05914306640625, -0.804931640625, 0.49658203125, 0.19677734375, 
157, 3825706523, 0.6019707918167114, -0.6747865676879883, -0.11073023080825806, -0.4123714566230774, 9.322004318237305, -17.2540225982666, 3.1920502185821533, -17.60909080505371, 58.108219146728516, 237.1201629638672, -0.79248046875, 0.521240234375, 0.188232421875, 
158, 3825714856, 0.6102075576782227, -0.6746354103088379, -0.09591076523065567, -0.4041435718536377, 9.296449661254883, -18.312210083007812, 3.000356674194336, 5.680932998657227, 59.04732131958008, 251.97463989257812, -0.7734375, 0.550048828125, 0.183837890625, 
159, 3825723189, 0.6197506189346313, -0.673275887966156, -0.08101900666952133, -0.39504653215408325, 9.420936584472656, -18.003013610839844, 2.9859578609466553, 28.650978088378906, 59.99629211425781, 265.5047912597656, -0.75537109375, 0.576904296875, 0.17626953125, 
160, 3825731522, 0.6304618120193481, -0.6706784963607788, -0.06618660688400269, -0.3851553201675415, 9.191554069519043, -16.399688720703125, 3.0990467071533203, 51.260746002197266, 60.19755935668945, 276.7969970703125, -0.735595703125, 0.606201171875, 0.16552734375, 
161, 3825739855, 0.6421244144439697, -0.6668904423713684, -0.051352113485336304, -0.3745841085910797, 8.347871780395508, -14.809016227722168, 3.4028327465057373, 70.92669677734375, 61.0803337097168, 286.55291748046875, -0.711669921875, 0.635498046875, 0.15087890625, 
162, 3825748188, 0.6543917059898376, -0.6620899438858032, -0.0365232490003109, -0.36344388127326965, 7.0311760902404785, -13.675704956054688, 3.717709541320801, 85.88427734375, 61.49092483520508, 294.0452880859375, -0.686279296875, 0.66552734375, 0.1376953125, 
163, 3825756521, 0.6670567393302917, -0.6562884449958801, -0.021863728761672974, -0.35193732380867004, 5.6039605140686035, -12.49709415435791, 3.938502550125122, 99.49787902832031, 61.79643249511719, 297.1614990234375, -0.66064453125, 0.6953125, 0.12109375, 
164, 3825764854, 0.6799112558364868, -0.6495386958122253, -0.007487736642360687, -0.3402664363384247, 4.206089019775391, -11.214447975158691, 3.966252326965332, 111.377685546875, 62.395484924316406, 296.8673400878906, -0.632568359375, 0.7216796875, 0.10595703125, 
165, 3825773187, 0.6926447749137878, -0.6420779824256897, 0.0067064762115478516, -0.32855933904647827, 2.9647152423858643, -10.03608226776123, 3.86775279045105, 117.7460708618164, 63.64704895019531, 294.8143615722656, -0.601318359375, 0.750244140625, 0.0849609375, 
166, 3825781520, 0.7049761414527893, -0.6341539621353149, 0.020711451768875122, -0.31693127751350403, 1.8673110008239746, -8.886771202087402, 3.7402024269104004, 119.51953125, 64.71229553222656, 290.7431640625, -0.572021484375, 0.775634765625, 0.06689453125, 
167, 3825789853, 0.7168138027191162, -0.6259114742279053, 0.034448571503162384, -0.3053571283817291, 1.0082309246063232, -8.205641746520996, 3.583418130874634, 119.42742919921875, 64.07107543945312, 285.6889343261719, -0.538330078125, 0.798583984375, 0.04736328125, 
168, 3825798186, 0.7279449701309204, -0.6175916790962219, 0.048056066036224365, -0.29391199350357056, 0.7407799363136292, -7.729442119598389, 3.5013222694396973, 114.77069091796875, 64.606201171875, 280.5037841796875, -0.50634765625, 0.819091796875, 0.029052734375, 
169, 3825806519, 0.7383482456207275, -0.6092666983604431, 0.0615033358335495, -0.28261297941207886, 0.8757285475730896, -7.0214056968688965, 3.3428242206573486, 109.31824493408203, 64.69812774658203, 274.59954833984375, -0.472412109375, 0.839111328125, 0.009521484375, 
170, 3825814852, 0.7480126619338989, -0.6009711623191833, 0.07471583038568497, -0.2715606689453125, 0.9324107766151428, -6.182473182678223, 3.1400668621063232, 104.01847839355469, 64.9393310546875, 267.37109375, -0.441162109375, 0.855712890625, -0.009521484375, 
171, 3825823185, 0.7570033073425293, -0.5926848649978638, 0.0876891165971756, -0.26076462864875793, 0.7120457291603088, -5.640646457672119, 3.0299201011657715, 99.43524169921875, 65.20813751220703, 260.0873107910156, -0.408935546875, 0.87158203125, -0.02587890625, 
172, 3825831518, 0.7653471231460571, -0.5844509601593018, 0.10033899545669556, -0.25022006034851074, 0.3576411008834839, -5.554780960083008, 2.9828457832336426, 95.15321350097656, 64.52763366699219, 252.59228515625, -0.376953125, 0.882568359375, -0.042724609375, 
173, 3825839851, 0.7731110453605652, -0.5762521028518677, 0.11260806024074554, -0.23993569612503052, 0.175296351313591, -5.577719211578369, 2.8252923488616943, 91.71633911132812, 63.2451057434082, 244.60415649414062, -0.34130859375, 0.89453125, -0.058837890625, 
174, 3825848184, 0.7804548740386963, -0.5679433941841125, 0.12431710958480835, -0.2299840748310089, 0.02747475914657116, -5.649246692657471, 2.6512069702148438, 91.99632263183594, 60.98566818237305, 235.556396484375, -0.309814453125, 0.905517578125, -0.0751953125, 
175, 3825856517, 0.7876003384590149, -0.5592753887176514, 0.13536176085472107, -0.22043360769748688, -0.12831002473831177, -6.063114166259766, 2.7416341304779053, 97.00804901123047, 58.42024230957031, 225.9013214111328, -0.27783203125, 0.910888671875, -0.0908203125, 
176, 3825864850, 0.7946541905403137, -0.5501425862312317, 0.14572766423225403, -0.21130171418190002, -0.14227302372455597, -7.31582498550415, 2.906768798828125, 104.25555419921875, 55.91067123413086, 216.8806915283203, -0.247802734375, 0.918212890625, -0.106201171875, 
177, 3825873183, 0.801605224609375, -0.5405760407447815, 0.15548214316368103, -0.2026059627532959, 0.18333709239959717, -8.15125846862793, 2.74863338470459, 110.78389739990234, 53.94963073730469, 207.91307067871094, -0.2197265625, 0.924072265625, -0.123779296875, 
178, 3825881516, 0.8084743022918701, -0.5305396318435669, 0.16463255882263184, -0.19444864988327026, 0.37266218662261963, -7.923425197601318, 2.524479866027832, 118.27320861816406, 52.824344635009766, 198.40673828125, -0.188720703125, 0.927001953125, -0.142333984375, 
179, 3825889849, 0.8152354955673218, -0.5200966000556946, 0.17322547733783722, -0.18681669235229492, 0.2017057240009308, -7.4373908042907715, 2.2935047149658203, 124.60468292236328, 51.74360656738281, 188.98748779296875, -0.162353515625, 0.92578125, -0.160400390625, 
180, 3825898182, 0.8217675685882568, -0.5094819068908691, 0.18132206797599792, -0.1796262413263321, -0.0839444100856781, -7.204924583435059, 1.9142786264419556, 127.29788208007812, 50.37097930908203, 180.45152282714844, -0.13623046875, 0.9296875, -0.178955078125, 
181, 3825906515, 0.828061580657959, -0.4987510144710541, 0.1889459639787674, -0.17285272479057312, -0.30792009830474854, -7.2082905769348145, 1.5842121839523315, 129.07492065429688, 48.78255844116211, 171.98890686035156, -0.110107421875, 0.927490234375, -0.19677734375, 
182, 3825914848, 0.8341262936592102, -0.4879545569419861, 0.1959744244813919, -0.1665683388710022, -0.5143231153488159, -7.358715057373047, 1.4107164144515991, 131.00804138183594, 46.15596389770508, 162.10020446777344, -0.088623046875, 0.925537109375, -0.215087890625, 
183, 3825923181, 0.8400132060050964, -0.47709089517593384, 0.20240235328674316, -0.1606626808643341, -0.5992939472198486, -7.202110290527344, 1.6273372173309326, 132.91323852539062, 42.3940315246582, 153.36370849609375, -0.06396484375, 0.92138671875, -0.23876953125, 
184, 3825931514, 0.8456779718399048, -0.4662524163722992, 0.20828525722026825, -0.15515141189098358, -0.7014515399932861, -6.4685587882995605, 1.9814682006835938, 133.53855895996094, 39.29596710205078, 144.80636596679688, -0.04443359375, 0.919921875, -0.253173828125, 
185, 3825939847, 0.8510231971740723, -0.45564141869544983, 0.21366143226623535, -0.1500542163848877, -1.0253088474273682, -5.754436492919922, 2.32463002204895, 131.04396057128906, 36.438148498535156, 135.27687072753906, -0.021240234375, 0.91650390625, -0.271484375, 
186, 3825948180, 0.8559377789497375, -0.445491760969162, 0.2186216115951538, -0.14535924792289734, -1.4806442260742188, -5.410495758056641, 2.629335641860962, 125.0517349243164, 34.4508056640625, 125.85000610351562, -0.001708984375, 0.91015625, -0.28759765625, 
187, 3825956513, 0.8603818416595459, -0.43595123291015625, 0.2231941670179367, -0.14103589951992035, -1.7813754081726074, -5.193741321563721, 2.7867140769958496, 116.89222717285156, 32.36262130737305, 116.32862854003906, 0.0146484375, 0.904052734375, -0.306640625, 
188, 3825964846, 0.8643131852149963, -0.4271177351474762, 0.22744795680046082, -0.13717757165431976, -1.9399293661117554, -4.97654914855957, 2.9564738273620605, 107.2696533203125, 31.055269241333008, 105.93936920166016, 0.03173828125, 0.8994140625, -0.321044921875, 
189, 3825973179, 0.8676720261573792, -0.4191938638687134, 0.23138253390789032, -0.1337946206331253, -2.037637233734131, -4.6785149574279785, 2.8734092712402344, 95.18159484863281, 30.143766403198242, 94.4875717163086, 0.047607421875, 0.892822265625, -0.334228515625, 
190, 3825981512, 0.8704689145088196, -0.4122961461544037, 0.2349391132593155, -0.13083070516586304, -2.2776269912719727, -4.093287944793701, 2.6636412143707275, 81.95638275146484, 28.460105895996094, 82.82146453857422, 0.058837890625, 0.887451171875, -0.344482421875, 
191, 3825989845, 0.8728437423706055, -0.4063100516796112, 0.23793211579322815, -0.12830209732055664, -2.683541774749756, -3.513334035873413, 2.54612135887146, 70.86050415039062, 23.481094360351562, 70.85076904296875, 0.070556640625, 0.885009765625, -0.355224609375, 
192, 3825998178, 0.8749004602432251, -0.40109682083129883, 0.2403005063533783, -0.12626725435256958, -2.916978359222412, -3.1613810062408447, 2.680732488632202, 62.73502731323242, 18.84482765197754, 58.20368194580078, 0.081787109375, 0.878662109375, -0.365478515625, 
193, 3826006511, 0.876663327217102, -0.39665234088897705, 0.2420274168252945, -0.1247728243470192, -3.0922462940216064, -3.0524799823760986, 2.753251791000366, 54.702735900878906, 13.682007789611816, 44.982566833496094, 0.08935546875, 0.87353515625, -0.369384765625, 
194, 3826014844, 0.8781368136405945, -0.39295992255210876, 0.24318036437034607, -0.12384962290525436, -3.409554958343506, -3.0175929069519043, 2.8121092319488525, 47.00608444213867, 9.61251449584961, 32.096885681152344, 0.096435546875, 0.870849609375, -0.37646484375, 
195, 3826023177, 0.8793371319770813, -0.38993191719055176, 0.24387116730213165, -0.1235455572605133, -3.644033432006836, -3.335005283355713, 3.002746820449829, 40.10942459106445, 6.671520709991455, 19.63167953491211, 0.098876953125, 0.86962890625, -0.380615234375, 
196, 3826031510, 0.8802756071090698, -0.3875366449356079, 0.24418188631534576, -0.12378551065921783, -3.41892671585083, -3.5546138286590576, 3.36761474609375, 33.77919387817383, 5.282890319824219, 8.253350257873535, 0.098388671875, 0.86474609375, -0.3916015625, 
197, 3826039843, 0.8810738325119019, -0.3855210840702057, 0.24406975507736206, -0.12461744248867035, -2.988675355911255, -3.933008909225464, 3.9535536766052246, 31.08033561706543, 3.0754780769348145, -2.8216536045074463, 0.101318359375, 0.86328125, -0.391357421875, 
198, 3826048176, 0.8817936778068542, -0.38377121090888977, 0.24348010122776031, -0.1260717213153839, -2.4322547912597656, -4.921943664550781, 4.415943622589111, 30.414989471435547, 0.4648476243019104, -13.777641296386719, 0.100341796875, 0.863525390625, -0.396484375, 
199, 3826056509, 0.8825857639312744, -0.3819345235824585, 0.24244064092636108, -0.12809443473815918, -1.9483956098556519, -5.9642815589904785, 4.616600036621094, 34.288597106933594, -2.534237861633301, -22.45694351196289, 0.096923828125, 0.859375, -0.401123046875, 
200, 3826064842, 0.8835158944129944, -0.3799302875995636, 0.2409154325723648, -0.13049718737602234, -1.7223283052444458, -6.978436470031738, 4.536518573760986, 39.41304016113281, -6.145419120788574, -28.990188598632812, 0.094482421875, 0.859375, -0.405029296875, 
201, 3826073175, 0.8846982717514038, -0.37752091884613037, 0.23885484039783478, -0.13323822617530823, -1.5369776487350464, -7.549269676208496, 4.2106523513793945, 47.503299713134766, -11.43232250213623, -33.931121826171875, 0.091064453125, 0.857421875, -0.4130859375, 
202, 3826081508, 0.8860838413238525, -0.3747502565383911, 0.23635545372962952, -0.13627520203590393, -1.215048909187317, -7.34704065322876, 4.217377662658691, 54.961517333984375, -14.79798412322998, -38.423118591308594, 0.084716796875, 0.853515625, -0.420166015625, 
203, 3826089841, 0.8875605463981628, -0.3717871904373169, 0.23352332413196564, -0.13962313532829285, -1.0743247270584106, -6.458974838256836, 3.9570493698120117, 59.189205169677734, -17.622285842895508, -42.94728088378906, 0.080078125, 0.8505859375, -0.426513671875, 
204, 3826098174, 0.8890934586524963, -0.36880090832710266, 0.2302480787038803, -0.14318469166755676, -1.1738847494125366, -5.594353199005127, 3.7986109256744385, 61.517555236816406, -21.637710571289062, -47.820499420166016, 0.072265625, 0.848876953125, -0.43310546875, 
205, 3826106507, 0.8906406760215759, -0.3658203184604645, 0.22666224837303162, -0.14688943326473236, -0.9756200909614563, -4.96405029296875, 3.8289225101470947, 62.58544158935547, -24.764598846435547, -51.135746002197266, 0.062744140625, 0.845947265625, -0.44384765625, 
206, 3826114840, 0.8920825123786926, -0.3630577623844147, 0.2228831797838211, -0.15072575211524963, -0.688601553440094, -4.682406425476074, 3.8924288749694824, 59.96697235107422, -27.046566009521484, -54.38435363769531, 0.055908203125, 0.841796875, -0.448974609375, 
207, 3826123173, 0.8932815194129944, -0.36082276701927185, 0.21902883052825928, -0.15459173917770386, -0.5936253070831299, -4.706870079040527, 4.033514499664307, 52.5478401184082, -28.136497497558594, -57.26325988769531, 0.049560546875, 0.83740234375, -0.45947265625, 
208, 3826131506, 0.8941442966461182, -0.3593638837337494, 0.21514233946800232, -0.15841272473335266, -0.43904080986976624, -4.827023506164551, 4.132664680480957, 41.479068756103516, -28.962108612060547, -60.13160705566406, 0.0400390625, 0.835693359375, -0.466796875, 
209, 3826139839, 0.8946669697761536, -0.3586471974849701, 0.21130195260047913, -0.16220931708812714, -0.29362958669662476, -5.231670379638672, 4.447183132171631, 30.310218811035156, -29.55145835876465, -62.32331848144531, 0.031005859375, 0.8349609375, -0.471923828125, 
210, 3826148172, 0.8949400782585144, -0.35856086015701294, 0.20739437639713287, -0.16589483618736267, -0.15086330473423004, -6.446136474609375, 4.69413423538208, 21.34111785888672, -31.18060302734375, -63.894493103027344, 0.021240234375, 0.831298828125, -0.474853515625, 
211, 3826156505, 0.8951051831245422, -0.35873475670814514, 0.2034151554107666, -0.16951525211334229, 0.21080872416496277, -8.156521797180176, 5.187289237976074, 17.415409088134766, -33.06684112548828, -64.23149108886719, 0.01123046875, 0.83203125, -0.47607421875, 
212, 3826164838, 0.8952323198318481, -0.35903871059417725, 0.1994253695011139, -0.1729077398777008, 0.8719330430030823, -8.822747230529785, 5.424111366271973, 15.183573722839355, -34.12260818481445, -62.13206481933594, 0.00146484375, 0.830810546875, -0.478759765625, 
213, 3826173171, 0.8953901529312134, -0.3592514991760254, 0.19546844065189362, -0.1761368364095688, 1.1674420833587646, -8.272522926330566, 5.528788089752197, 15.778772354125977, -34.7856559753418, -59.41990661621094, -0.010498046875, 0.830810546875, -0.48095703125, 
214, 3826181504, 0.8956202268600464, -0.3593593239784241, 0.19149956107139587, -0.17908218502998352, 1.0449879169464111, -7.748044490814209, 5.583609580993652, 16.846012115478516, -35.87865447998047, -55.744686126708984, -0.01904296875, 0.830078125, -0.485107421875, 
215, 3826189837, 0.8959646224975586, -0.3591368496417999, 0.18760570883750916, -0.1819048374891281, 0.9386581778526306, -7.620310306549072, 5.592134475708008, 20.935108184814453, -35.11053466796875, -52.796234130859375, -0.02880859375, 0.825439453125, -0.484375, 
216, 3826198170, 0.8963853716850281, -0.35865533351898193, 0.18381792306900024, -0.18462853133678436, 0.9704160690307617, -7.7543559074401855, 5.410840034484863, 24.017839431762695, -33.780879974365234, -50.108299255371094, -0.035888671875, 0.82275390625, -0.48974609375, 
217, 3826206503, 0.8968954086303711, -0.3579573631286621, 0.18006685376167297, -0.18718492984771729, 0.7170145511627197, -7.913852691650391, 5.137474060058594, 26.57857894897461, -33.88313293457031, -47.16702651977539, -0.046630859375, 0.822998046875, -0.489013671875, 
218, 3826214836, 0.8974743485450745, -0.35714465379714966, 0.17626093327999115, -0.1895705759525299, 0.22552184760570526, -7.913781642913818, 4.929906845092773, 28.083389282226562, -35.22209167480469, -44.79534149169922, -0.052734375, 0.8212890625, -0.4951171875, 
219, 3826223169, 0.898074209690094, -0.3563362956047058, 0.17239420115947723, -0.19179357588291168, -0.14422689378261566, -7.454418659210205, 5.029215335845947, 27.79513168334961, -37.17029571533203, -42.824684143066406, -0.060546875, 0.818115234375, -0.500244140625, 
220, 3826231502, 0.8985875844955444, -0.3558124303817749, 0.1685270518064499, -0.1937883347272873, -0.33038973808288574, -6.9854559898376465, 5.282371520996094, 23.42209243774414, -38.50248336791992, -41.12744140625, -0.071044921875, 0.81591796875, -0.50341796875, 
221, 3826239835, 0.898881196975708, -0.3558647036552429, 0.16476643085479736, -0.19555623829364777, -0.4038922190666199, -6.919863700866699, 5.686683177947998, 14.394548416137695, -39.369537353515625, -39.7858772277832, -0.076904296875, 0.814208984375, -0.504638671875, 
222, 3826248168, 0.8988102674484253, -0.3567873239517212, 0.16126799583435059, -0.1971110999584198, -0.20284472405910492, -6.8582658767700195, 5.964484214782715, 0.6855412125587463, -38.638057708740234, -38.75975799560547, -0.081787109375, 0.812255859375, -0.50830078125, 
223, 3826256501, 0.8983988761901855, -0.35847172141075134, 0.15814697742462158, -0.198454350233078, 0.03662958741188049, -6.533703804016113, 6.1834716796875, -11.910122871398926, -36.367244720458984, -36.962825775146484, -0.08935546875, 0.814453125, -0.50439453125, 
224, 3826264834, 0.8976343274116516, -0.3608766496181488, 0.15542486310005188, -0.1997019350528717, 0.10048908740282059, -6.298809051513672, 6.39202356338501, -23.83250617980957, -33.06282424926758, -36.28620529174805, -0.097900390625, 0.814208984375, -0.505126953125, 
225, 3826273167, 0.8965553045272827, -0.3638209402561188, 0.15304197371006012, -0.2010430544614792, 0.1739094853401184, -6.530750751495361, 6.307285308837891, -32.79890823364258, -29.263364791870117, -37.82968521118164, -0.103759765625, 0.81640625, -0.501220703125, 
226, 3826281500, 0.8952656984329224, -0.36703866720199585, 0.1508968323469162, -0.20255687832832336, 0.4784678518772125, -7.059680938720703, 6.310780048370361, -37.502193450927734, -25.737869262695312, -39.8715934753418, -0.1123046875, 0.81689453125, -0.49267578125, 
227, 3826289833, 0.8939361572265625, -0.3701637387275696, 0.14876380562782288, -0.2043125331401825, 0.5659074783325195, -7.5164923667907715, 6.386410713195801, -36.109310150146484, -24.066713333129883, -42.75827407836914, -0.1181640625, 0.820068359375, -0.48974609375, 
228, 3826298166, 0.8925750255584717, -0.37319082021713257, 0.14662908017635345, -0.20629042387008667, 0.6529129147529602, -7.545308589935303, 6.535126686096191, -34.589027404785156, -22.576881408691406, -45.33523178100586, -0.122314453125, 0.8212890625, -0.48486328125, 
229, 3826306499, 0.8910146355628967, -0.37644633650779724, 0.144825279712677, -0.20838472247123718, 1.0711442232131958, -6.819525718688965, 6.588186740875244, -39.13642120361328, -18.19765853881836, -46.13880920410156, -0.130615234375, 0.821044921875, -0.482666015625, 
230, 3826314832, 0.88916015625, -0.38015007972717285, 0.14349333941936493, -0.21049237251281738, 1.4963024854660034, -6.212332248687744, 6.377615451812744, -47.46017837524414, -13.01212215423584, -45.547603607177734, -0.1376953125, 0.82470703125, -0.475341796875, 
231, 3826323165, 0.8870300650596619, -0.3842522203922272, 0.14265750348567963, -0.2125895470380783, 1.6018906831741333, -6.563601493835449, 6.258509159088135, -55.24596405029297, -7.639261722564697, -44.450050354003906, -0.145751953125, 0.827392578125, -0.470947265625, 
232, 3826331498, 0.8846048712730408, -0.3887821435928345, 0.1423681378364563, -0.2146424800157547, 1.7461683750152588, -7.2401323318481445, 6.373229503631592, -63.68954086303711, -1.8498568534851074, -42.685508728027344, -0.148193359375, 0.82958984375, -0.463134765625, 
233, 3826339831, 0.8819950222969055, -0.39354240894317627, 0.14251697063446045, -0.216599240899086, 1.859002947807312, -7.6454644203186035, 6.266763210296631, -68.97876739501953, 2.625063896179199, -40.20060348510742, -0.15380859375, 0.832763671875, -0.457763671875, 
234, 3826348164, 0.879436731338501, -0.39810413122177124, 0.14285996556282043, -0.2184315025806427, 1.7063459157943726, -8.114761352539062, 6.084848880767822, -67.095703125, 4.819471836090088, -37.064876556396484, -0.1591796875, 0.83544921875, -0.44921875, 
235, 3826356497, 0.8770971298217773, -0.4021764099597931, 0.14318391680717468, -0.2201595902442932, 1.4683878421783447, -8.346417427062988, 5.857063293457031, -60.14307403564453, 5.04395055770874, -34.315879821777344, -0.163330078125, 0.838134765625, -0.4462890625, 
236, 3826364830, 0.8750360012054443, -0.4056977331638336, 0.14338357746601105, -0.2217646688222885, 1.3080964088439941, -8.301518440246582, 5.65372896194458, -51.80789566040039, 3.9992411136627197, -31.566740036010742, -0.169677734375, 0.842041015625, -0.4345703125, 
237, 3826373163, 0.8732209801673889, -0.4088088274002075, 0.14343634247779846, -0.22316743433475494, 1.2392778396606445, -8.095733642578125, 5.469728946685791, -45.461551666259766, 1.8563963174819946, -28.409576416015625, -0.1708984375, 0.844482421875, -0.4287109375, 
238, 3826381496, 0.8716592788696289, -0.4115141034126282, 0.14335308969020844, -0.22435051202774048, 1.2270793914794922, -7.747742176055908, 5.4989423751831055, -39.17026901245117, -0.25236475467681885, -24.941078186035156, -0.1748046875, 0.84619140625, -0.42529296875, 
239, 3826389829, 0.870377779006958, -0.4137705862522125, 0.14305952191352844, -0.2253609448671341, 1.1697803735733032, -7.843928337097168, 5.6934099197387695, -31.903404235839844, -2.9280054569244385, -22.324642181396484, -0.1796875, 0.845947265625, -0.41796875, 
240, 3826398162, 0.8694007396697998, -0.41560181975364685, 0.14256393909454346, -0.22607570886611938, 1.0996689796447754, -8.350637435913086, 5.737752437591553, -25.028091430664062, -6.300941467285156, -18.144207000732422, -0.18115234375, 0.849365234375, -0.413818359375, 
241, 3826406495, 0.8686449527740479, -0.41720345616340637, 0.1419563591480255, -0.22641296684741974, 1.020076036453247, -8.707367897033691, 5.936830520629883, -21.419036865234375, -9.520575523376465, -13.137794494628906, -0.182373046875, 0.851318359375, -0.416259765625, 
242, 3826414828, 0.8680108189582825, -0.4187692403793335, 0.14125271141529083, -0.2263946533203125, 1.0044105052947998, -8.455503463745117, 6.166403293609619, -20.67862892150879, -12.829627990722656, -8.988566398620605, -0.186767578125, 0.85009765625, -0.41015625, 
243, 3826423161, 0.8673518896102905, -0.42052531242370605, 0.140559583902359, -0.226096510887146, 1.0329571962356567, -7.871740341186523, 6.329855442047119, -23.67662239074707, -14.859940528869629, -6.033833980560303, -0.189208984375, 0.853271484375, -0.407470703125, 
244, 3826431494, 0.8665325045585632, -0.42265281081199646, 0.14015057682991028, -0.22552472352981567, 1.0702329874038696, -7.5528059005737305, 6.4628005027771, -30.440643310546875, -13.899311065673828, -2.3437178134918213, -0.1904296875, 0.855712890625, -0.402587890625, 
245, 3826439827, 0.8656202554702759, -0.42494383454322815, 0.13999788463115692, -0.22481626272201538, 1.1882987022399902, -8.03507137298584, 6.550727367401123, -33.99415969848633, -11.963024139404297, 0.17584188282489777, -0.189453125, 0.857666015625, -0.399169921875, 
246, 3826448160, 0.8648090362548828, -0.42697471380233765, 0.13993869721889496, -0.22412610054016113, 1.3106054067611694, -9.016634941101074, 6.801713466644287, -30.55303192138672, -10.137187957763672, 1.313550353050232, -0.1923828125, 0.857177734375, -0.401123046875, 
247, 3826456493, 0.8641983866691589, -0.4287101626396179, 0.13977672159671783, -0.2232675552368164, 0.973438560962677, -9.45504093170166, 7.184000492095947, -25.878299713134766, -11.81766128540039, 3.9093246459960938, -0.190185546875, 0.8564453125, -0.393310546875, 
248, 3826464826, 0.8637928366661072, -0.42997124791145325, 0.13976645469665527, -0.222416490316391, 0.6085997223854065, -8.996480941772461, 6.644501209259033, -19.475366592407227, -8.914332389831543, 6.2453932762146, -0.19140625, 0.861328125, -0.3896484375, 
249, 3826473159, 0.8636836409568787, -0.4306390881538391, 0.1398443877696991, -0.22149744629859924, 0.3025458753108978, -9.247143745422363, 6.653745651245117, -11.084370613098145, -7.014934539794922, 9.637435913085938, -0.19140625, 0.861328125, -0.38671875, 
250, 3826481492, 0.8638057112693787, -0.43091073632240295, 0.14001138508319855, -0.2203856110572815, 0.1794455349445343, -9.751107215881348, 6.7761030197143555, -5.644622802734375, -6.346017360687256, 13.904434204101562, -0.18994140625, 0.86279296875, -0.38623046875, 
251, 3826489825, 0.86407470703125, -0.43098151683807373, 0.14008858799934387, -0.21913978457450867, 0.11821252852678299, -9.564385414123535, 6.9096360206604, -2.379319906234741, -7.868630886077881, 15.814437866210938, -0.18994140625, 0.86279296875, -0.384521484375, 
252, 3826498158, 0.8644108772277832, -0.43092307448387146, 0.1402401477098465, -0.2178288996219635, 0.14975692331790924, -8.477208137512207, 7.099719047546387, -0.790519654750824, -7.122873306274414, 17.460769653320312, -0.18505859375, 0.862060546875, -0.384521484375, 
253, 3826506491, 0.864791750907898, -0.4307847023010254, 0.14054614305496216, -0.21638838946819305, 0.03434580937027931, -8.166175842285156, 7.358207702636719, -0.29562681913375854, -5.8895978927612305, 20.22795295715332, -0.1845703125, 0.863525390625, -0.386474609375, 
254, 3826514824, 0.8652417659759521, -0.4305071234703064, 0.14091110229492188, -0.21489951014518738, 0.06240112707018852, -8.554746627807617, 7.149922847747803, 1.5103951692581177, -5.206851005554199, 21.604129791259766, -0.181640625, 0.865478515625, -0.3837890625, 
255, 3826523157, 0.8659179210662842, -0.4298482835292816, 0.14113196730613708, -0.2133437693119049, -0.016226500272750854, -8.73015308380127, 6.652939796447754, 7.667829990386963, -6.614686965942383, 22.9765682220459, -0.178466796875, 0.8642578125, -0.38427734375, 
256, 3826531490, 0.8669121265411377, -0.4286438226699829, 0.1411893367767334, -0.21168527007102966, -0.08582235872745514, -8.630508422851562, 6.308169841766357, 16.338796615600586, -8.19900894165039, 25.203712463378906, -0.177001953125, 0.86474609375, -0.388671875, 
257, 3826539823, 0.8682631254196167, -0.4268190860748291, 0.14099791646003723, -0.20995621383190155, -0.09407315403223038, -8.553654670715332, 5.888316631317139, 26.41130828857422, -10.452607154846191, 26.847034454345703, -0.174072265625, 0.864990234375, -0.390625, 
258, 3826548156, 0.8699619770050049, -0.4243825078010559, 0.1405887007713318, -0.20812976360321045, 0.0717310681939125, -8.652666091918945, 5.747242450714111, 36.21004867553711, -12.548221588134766, 28.895986557006836, -0.167724609375, 0.86328125, -0.39111328125, 
259, 3826556489, 0.8719245791435242, -0.4214872419834137, 0.1399649977684021, -0.20621155202388763, 0.21604210138320923, -8.469795227050781, 5.6725568771362305, 43.66305923461914, -14.830001831054688, 30.411041259765625, -0.167236328125, 0.862060546875, -0.40087890625, 
260, 3826564822, 0.8739799857139587, -0.418424516916275, 0.13933993875980377, -0.20416107773780823, 0.22707079350948334, -7.950674533843994, 5.937600135803223, 45.96821594238281, -15.331536293029785, 32.54639434814453, -0.166015625, 0.858154296875, -0.404541015625, 
261, 3826573155, 0.8759822249412537, -0.4154045283794403, 0.13893090188503265, -0.2020142674446106, 0.26892784237861633, -7.678979873657227, 6.343807220458984, 44.348995208740234, -13.290969848632812, 34.74806594848633, -0.1611328125, 0.859375, -0.41064453125, 
262, 3826581488, 0.8779899477958679, -0.41230106353759766, 0.13879826664924622, -0.19973459839820862, 0.2732449471950531, -8.322714805603027, 6.6562886238098145, 44.37346267700195, -10.516582489013672, 38.070091247558594, -0.155517578125, 0.854736328125, -0.41357421875, 
263, 3826589821, 0.8801454305648804, -0.40881502628326416, 0.13888263702392578, -0.1973406821489334, 0.3361285626888275, -9.493486404418945, 6.730255126953125, 49.0069465637207, -7.756082057952881, 41.8503532409668, -0.153564453125, 0.854736328125, -0.419189453125, 
264, 3826598154, 0.882449746131897, -0.40495535731315613, 0.1392301619052887, -0.19474589824676514, 0.3675578534603119, -10.076120376586914, 6.662209987640381, 53.275691986083984, -4.990251064300537, 46.844573974609375, -0.14599609375, 0.85009765625, -0.425048828125, 
265, 3826606487, 0.8847865462303162, -0.4009857475757599, 0.13989955186843872, -0.19185493886470795, 0.3417607843875885, -9.916450500488281, 6.410120487213135, 53.35778045654297, -2.4776644706726074, 52.56609344482422, -0.14013671875, 0.8505859375, -0.43212890625, 
266, 3826614820, 0.8870843052864075, -0.3971070945262909, 0.140943706035614, -0.1885187327861786, 0.2600215673446655, -9.876348495483398, 6.20199728012085, 50.19550704956055, -0.5615565776824951, 59.7348747253418, -0.13427734375, 0.848876953125, -0.43994140625, 
267, 3826623153, 0.8893702626228333, -0.39325839281082153, 0.14230555295944214, -0.18475502729415894, 0.16526556015014648, -10.11119270324707, 5.952239036560059, 48.11621856689453, 0.9523428678512573, 66.63706970214844, -0.124755859375, 0.8466796875, -0.44287109375, 
268, 3826631486, 0.8916622400283813, -0.38940107822418213, 0.14395903050899506, -0.18054941296577454, 0.10012410581111908, -10.060384750366211, 6.035461902618408, 46.64485168457031, 2.1120612621307373, 73.60919189453125, -0.115234375, 0.84375, -0.45263671875, 
269, 3826639819, 0.893984317779541, -0.38546881079673767, 0.14582853019237518, -0.1759459674358368, 0.02325080707669258, -9.929598808288574, 6.318116188049316, 46.41264343261719, 2.787797212600708, 79.91426849365234, -0.107666015625, 0.84375, -0.453857421875, 
270, 3826648152, 0.8963329195976257, -0.381417840719223, 0.14792287349700928, -0.17100819945335388, 0.05292310565710068, -10.13009262084961, 6.696916103363037, 46.787071228027344, 3.9817659854888916, 85.47025299072266, -0.095703125, 0.83984375, -0.464111328125, 
271, 3826656485, 0.8986950516700745, -0.377250075340271, 0.15023796260356903, -0.16575738787651062, 0.08591508120298386, -10.104933738708496, 7.0858049392700195, 47.15980529785156, 5.343819618225098, 90.81005859375, -0.084228515625, 0.837646484375, -0.46533203125, 
272, 3826664818, 0.9010381102561951, -0.3730098009109497, 0.1528082638978958, -0.16019049286842346, 0.01226734183728695, -9.468268394470215, 7.371772289276123, 46.70357894897461, 7.026849746704102, 96.09355926513672, -0.073974609375, 0.837158203125, -0.472900390625, 
273, 3826673151, 0.9033150672912598, -0.3687366247177124, 0.1556633561849594, -0.15440642833709717, -0.07368141412734985, -8.707589149475098, 7.573382377624512, 45.71401596069336, 9.694093704223633, 100.22515106201172, -0.059814453125, 0.834716796875, -0.4765625, 
274, 3826681484, 0.90558922290802, -0.36425432562828064, 0.15873447060585022, -0.1484834849834442, -0.2442861646413803, -8.41884708404541, 7.656611919403076, 47.51836013793945, 12.081298828125, 103.43287658691406, -0.0458984375, 0.833740234375, -0.485595703125, 
275, 3826689817, 0.9079253673553467, -0.35937070846557617, 0.16193999350070953, -0.14253713190555573, -0.5640687942504883, -8.5582914352417, 7.682201385498047, 52.52696990966797, 14.366689682006836, 105.45914459228516, -0.034423828125, 0.827392578125, -0.490478515625, 
276, 3826698150, 0.9103233814239502, -0.35405269265174866, 0.16528885066509247, -0.13658320903778076, -0.9458093643188477, -8.609050750732422, 7.509139060974121, 57.93008041381836, 16.78973960876465, 107.29125213623047, -0.01806640625, 0.826904296875, -0.4970703125, 
277, 3826706483, 0.9127385020256042, -0.34841838479042053, 0.1687580645084381, -0.13057953119277954, -1.3908294439315796, -8.564929962158203, 7.382150650024414, 61.66609191894531, 18.655698776245117, 109.31613159179688, -0.00439453125, 0.822021484375, -0.503173828125, 
278, 3826714816, 0.9151564240455627, -0.3425174951553345, 0.17232419550418854, -0.12446765601634979, -1.740112543106079, -8.679378509521484, 7.471210956573486, 64.56902313232422, 19.77802085876465, 111.69637298583984, 0.011474609375, 0.81787109375, -0.510498046875, 
279, 3826723149, 0.9175158143043518, -0.33651795983314514, 0.17596435546875, -0.11821192502975464, -1.8656411170959473, -8.847386360168457, 7.5371222496032715, 65.10274505615234, 20.390731811523438, 114.05746459960938, 0.027099609375, 0.81103515625, -0.5234375, 
280, 3826731482, 0.9197683334350586, -0.33056381344795227, 0.17967553436756134, -0.11174929141998291, -1.956151008605957, -8.538939476013184, 7.638769149780273, 63.38361740112305, 20.463871002197266, 116.64388275146484, 0.04345703125, 0.806640625, -0.523681640625, 
281, 3826739815, 0.9219260811805725, -0.32462432980537415, 0.18340764939785004, -0.1051202043890953, -2.2173995971679688, -7.845466136932373, 7.7672553062438965, 62.364723205566406, 20.234676361083984, 118.73517608642578, 0.05908203125, 0.80029296875, -0.533447265625, 
282, 3826748148, 0.9240115880966187, -0.31861335039138794, 0.18715043365955353, -0.09838682413101196, -2.2782020568847656, -7.478832721710205, 7.972839832305908, 62.630096435546875, 20.138240814208984, 120.11016082763672, 0.074951171875, 0.796630859375, -0.5400390625, 
283, 3826756481, 0.9260469675064087, -0.31247013807296753, 0.1908673644065857, -0.09157637506723404, -2.229645013809204, -7.152674674987793, 8.026966094970703, 63.9717903137207, 19.832487106323242, 121.32083892822266, 0.092041015625, 0.790283203125, -0.547119140625, 
284, 3826764814, 0.928103506565094, -0.305960088968277, 0.19451367855072021, -0.08481618762016296, -2.3931822776794434, -6.677189826965332, 8.038840293884277, 68.90998077392578, 19.504785537719727, 121.29458618164062, 0.104248046875, 0.78369140625, -0.553955078125, 
285, 3826773147, 0.9301454424858093, -0.29914310574531555, 0.19813014566898346, -0.07812955230474472, -2.581195831298828, -6.339016437530518, 8.103632926940918, 73.04447937011719, 19.883922576904297, 121.10835266113281, 0.121826171875, 0.775390625, -0.55859375, 
286, 3826781480, 0.9321327209472656, -0.2921064496040344, 0.20175637304782867, -0.07151185721158981, -2.712878942489624, -5.948995113372803, 8.064786911010742, 75.76048278808594, 20.62226676940918, 120.73275756835938, 0.140380859375, 0.766357421875, -0.567626953125, 
287, 3826789813, 0.9340075254440308, -0.28499817848205566, 0.20542246103286743, -0.06499839574098587, -3.032529592514038, -5.648924350738525, 7.907290935516357, 76.52259826660156, 21.992399215698242, 119.7192153930664, 0.157470703125, 0.758056640625, -0.575927734375, 
288, 3826798146, 0.9357821345329285, -0.27778148651123047, 0.20913711190223694, -0.058549895882606506, -3.318937063217163, -5.600461006164551, 7.718447685241699, 77.61717224121094, 23.193756103515625, 119.21682739257812, 0.171630859375, 0.7509765625, -0.58251953125, 
289, 3826806479, 0.9374504685401917, -0.27050668001174927, 0.2128625512123108, -0.05214903503656387, -3.5344605445861816, -5.581394195556641, 7.51185417175293, 78.13395690917969, 23.924339294433594, 118.80264282226562, 0.186279296875, 0.7421875, -0.591796875, 
290, 3826814812, 0.9390463829040527, -0.263077974319458, 0.21655668318271637, -0.04585166275501251, -3.878520965576172, -5.254631519317627, 7.2922234535217285, 80.12747192382812, 24.171138763427734, 117.67407989501953, 0.204833984375, 0.732421875, -0.598388671875, 
291, 3826823145, 0.9405825138092041, -0.25547775626182556, 0.22017228603363037, -0.03971274197101593, -4.263952255249023, -4.949728012084961, 7.236809253692627, 82.69534301757812, 24.073108673095703, 115.89230346679688, 0.21875, 0.7216796875, -0.605712890625, 
292, 3826831478, 0.9420598149299622, -0.24763807654380798, 0.22377826273441315, -0.033751487731933594, -4.411785125732422, -5.165396690368652, 7.461486339569092, 86.08052825927734, 24.824190139770508, 114.17881774902344, 0.2314453125, 0.708251953125, -0.6142578125, 
293, 3826839811, 0.9434623718261719, -0.23961739242076874, 0.2273780256509781, -0.027909353375434875, -4.363671779632568, -5.4839186668396, 7.634001731872559, 88.59261322021484, 25.519458770751953, 113.20812225341797, 0.2451171875, 0.697265625, -0.6220703125, 
294, 3826848144, 0.944739580154419, -0.23158666491508484, 0.2310057133436203, -0.022103391587734222, -4.3213982582092285, -5.0223164558410645, 7.783393383026123, 88.35991668701172, 26.34048080444336, 112.7424087524414, 0.26025390625, 0.68701171875, -0.628662109375, 
295, 3826856477, 0.9458562135696411, -0.2236720621585846, 0.2346845418214798, -0.01634049415588379, -4.525783061981201, -4.404036521911621, 7.939133644104004, 86.51630401611328, 27.673175811767578, 111.99980926513672, 0.276123046875, 0.67529296875, -0.639404296875, 
296, 3826864810, 0.9467846751213074, -0.21596448123455048, 0.23846159875392914, -0.010553114116191864, -4.504039287567139, -4.04788875579834, 8.09826946258545, 83.08885955810547, 29.379615783691406, 111.83808898925781, 0.287841796875, 0.6650390625, -0.640869140625, 
297, 3826873143, 0.9475136995315552, -0.20856907963752747, 0.2423049509525299, -0.004713587462902069, -4.401366710662842, -3.7992565631866455, 8.130087852478027, 78.30702209472656, 30.75279998779297, 111.73113250732422, 0.303955078125, 0.6513671875, -0.649658203125, 
298, 3826881476, 0.9480679035186768, -0.20135602355003357, 0.24624979496002197, 0.0011381283402442932, -4.5116801261901855, -3.5452816486358643, 8.2282075881958, 75.32613372802734, 32.5540885925293, 111.49302673339844, 0.318359375, 0.639404296875, -0.654541015625, 
299, 3826889809, 0.9484580159187317, -0.1943623274564743, 0.2502376437187195, 0.0069938600063323975, -4.66426944732666, -3.4905166625976562, 8.203048706054688, 72.05519104003906, 33.7210807800293, 110.9920425415039, 0.33056640625, 0.6279296875, -0.659912109375, 
300, 3826898142, 0.9487164616584778, -0.18740586936473846, 0.2543011009693146, 0.012820541858673096, -4.735474586486816, -3.107208728790283, 7.950662612915039, 71.26922607421875, 35.1834716796875, 110.6316146850586, 0.345703125, 0.617919921875, -0.665283203125, 
301, 3826906475, 0.9488856792449951, -0.18035376071929932, 0.2583830654621124, 0.018542848527431488, -4.886255264282227, -3.2626168727874756, 8.066067695617676, 72.71051025390625, 36.04515075683594, 109.73543548583984, 0.359130859375, 0.6044921875, -0.669189453125, 
302, 3826914808, 0.9490229487419128, -0.172984778881073, 0.2624357342720032, 0.024011820554733276, -5.186399936676025, -3.302682399749756, 7.851403713226318, 77.60282897949219, 36.269290924072266, 107.423583984375, 0.373779296875, 0.591064453125, -0.671875, 
303, 3826923141, 0.9491241574287415, -0.16532236337661743, 0.26643800735473633, 0.029326409101486206, -5.159533500671387, -3.225670337677002, 7.732898712158203, 81.9439926147461, 36.067195892333984, 106.42566680908203, 0.38671875, 0.57763671875, -0.677001953125, 
304, 3826931474, 0.949149489402771, -0.15746422111988068, 0.27045223116874695, 0.034545548260211945, -4.955363750457764, -2.759815216064453, 7.576830863952637, 84.6250228881836, 36.582576751708984, 105.88833618164062, 0.402587890625, 0.563720703125, -0.68115234375, 
305, 3826939807, 0.9490872621536255, -0.14937902987003326, 0.27452823519706726, 0.03963158279657364, -5.002041339874268, -2.5546605587005615, 7.929625511169434, 87.98043060302734, 37.949790954589844, 105.23758697509766, 0.412841796875, 0.549560546875, -0.685302734375, 
306, 3826948140, 0.9489156007766724, -0.14127282798290253, 0.27862122654914856, 0.04459322243928909, -5.1654462814331055, -2.425804376602173, 7.931771755218506, 88.45122528076172, 38.77488708496094, 103.72148132324219, 0.42626953125, 0.53564453125, -0.690185546875, 
307, 3826956473, 0.9486070275306702, -0.13327866792678833, 0.2827495038509369, 0.0495121106505394, -5.167088985443115, -1.9534647464752197, 7.928233623504639, 86.96643829345703, 39.966888427734375, 102.95186614990234, 0.438720703125, 0.51953125, -0.692626953125, 
308, 3826964806, 0.9481567144393921, -0.12539643049240112, 0.2869352102279663, 0.05440553277730942, -5.260804176330566, -1.4517430067062378, 7.9118475914001465, 85.32756042480469, 41.33356475830078, 102.321044921875, 0.450439453125, 0.506103515625, -0.697998046875, 
309, 3826973139, 0.9475743174552917, -0.11772163957357407, 0.2911100387573242, 0.059301067143678665, -5.4226975440979, -1.4431146383285522, 7.768571376800537, 82.43575286865234, 41.92060470581055, 101.67301177978516, 0.46533203125, 0.49169921875, -0.700927734375, 
310, 3826981472, 0.9468616843223572, -0.11028002202510834, 0.2952801287174225, 0.06417292356491089, -5.644730567932129, -0.9959651231765747, 7.548052787780762, 79.21856689453125, 42.55474853515625, 100.46658325195312, 0.47607421875, 0.4765625, -0.703369140625, 
311, 3826989805, 0.946036696434021, -0.10289812088012695, 0.2994807958602905, 0.06895807385444641, -5.917746067047119, -0.7207714319229126, 7.607290267944336, 78.70835876464844, 43.64656448364258, 99.30023193359375, 0.486572265625, 0.4619140625, -0.7080078125, 
312, 3826998138, 0.945135772228241, -0.09554994106292725, 0.303620845079422, 0.07362399995326996, -5.8500213623046875, -0.9330013990402222, 7.528509140014648, 78.53726196289062, 43.31778335571289, 97.53760528564453, 0.496826171875, 0.44775390625, -0.70654296875, 
313, 3827006471, 0.9441693425178528, -0.08805473148822784, 0.30776241421699524, 0.07803910225629807, -5.672060012817383, -0.7701472640037537, 7.676982879638672, 81.4655532836914, 43.84286117553711, 95.01927185058594, 0.509765625, 0.4345703125, -0.7109375, 
314, 3827014804, 0.9431244134902954, -0.08048997074365616, 0.31190693378448486, 0.08227430284023285, -5.650266170501709, -0.8599267601966858, 7.81733512878418, 82.98406982421875, 44.30348587036133, 93.00569915771484, 0.519775390625, 0.41796875, -0.70947265625, 
315, 3827023137, 0.9419600963592529, -0.07303932309150696, 0.31610316038131714, 0.0864439308643341, -5.577435493469238, -0.8123626708984375, 7.684003829956055, 81.764404296875, 45.74250411987305, 91.91643524169922, 0.531982421875, 0.40283203125, -0.7138671875, 
316, 3827031470, 0.9406864047050476, -0.06569898128509521, 0.3203183114528656, 0.0905873030424118, -5.762994766235352, -0.7168689370155334, 7.5051984786987305, 80.30939483642578, 46.56761932373047, 91.18757629394531, 0.54248046875, 0.38818359375, -0.712646484375, 
317, 3827039803, 0.9393134713172913, -0.058573976159095764, 0.3245018422603607, 0.09473629295825958, -5.918734073638916, -0.18997293710708618, 7.305658340454102, 77.42572784423828, 46.91295623779297, 90.46268463134766, 0.5517578125, 0.3740234375, -0.714599609375, 
318, 3827048136, 0.937832236289978, -0.05169577896595001, 0.32867431640625, 0.09893744438886642, -5.929523468017578, 0.22310771048069, 7.28805685043335, 73.84783935546875, 47.47711944580078, 90.1117172241211, 0.562744140625, 0.35791015625, -0.712646484375, 
319, 3827056469, 0.9362431168556213, -0.04530325531959534, 0.3327920436859131, 0.10326279699802399, -5.85591983795166, 0.5476791262626648, 7.000362396240234, 66.92532348632812, 47.88618850708008, 89.68069458007812, 0.57177734375, 0.3447265625, -0.714111328125, 
320, 3827064802, 0.9345450401306152, -0.03941512107849121, 0.3368866741657257, 0.10768851637840271, -5.855323314666748, 1.126739740371704, 6.737315654754639, 59.817840576171875, 48.686222076416016, 88.75025939941406, 0.580078125, 0.330810546875, -0.711669921875, 
321, 3827073135, 0.9327828288078308, -0.03375604748725891, 0.34091728925704956, 0.11211275309324265, -6.166378498077393, 1.4787499904632568, 6.595419406890869, 56.80244064331055, 48.553279876708984, 87.78144073486328, 0.590087890625, 0.317626953125, -0.709228515625, 
322, 3827081468, 0.9310004711151123, -0.028207845985889435, 0.34482720494270325, 0.11642102152109146, -6.344958305358887, 1.510213851928711, 6.4596052169799805, 55.67755889892578, 47.27268981933594, 85.69747161865234, 0.598876953125, 0.305419921875, -0.706787109375, 
323, 3827089801, 0.9292050004005432, -0.022590534761548042, 0.34866100549697876, 0.12050066888332367, -6.332739353179932, 1.4646048545837402, 6.48520040512085, 57.567237854003906, 46.387123107910156, 83.1364517211914, 0.609130859375, 0.29296875, -0.704833984375, 
324, 3827098134, 0.9274098873138428, -0.016822898760437965, 0.3523957133293152, 0.12434814870357513, -6.405447006225586, 1.317649245262146, 6.5191121101379395, 60.38853073120117, 44.89286804199219, 80.81287384033203, 0.6171875, 0.278564453125, -0.699951171875, 
325, 3827106467, 0.9255965948104858, -0.011025309562683105, 0.3560558557510376, 0.12802600860595703, -6.342153549194336, 1.307557225227356, 6.601342678070068, 61.508033752441406, 44.06449890136719, 78.85177612304688, 0.62646484375, 0.26708984375, -0.700439453125, 
326, 3827114800, 0.923770546913147, -0.005278013646602631, 0.3596244752407074, 0.13155755400657654, -6.345922946929932, 1.4893563985824585, 6.62245512008667, 61.373409271240234, 43.027164459228516, 76.70895385742188, 0.6357421875, 0.2548828125, -0.700439453125, 
327, 3827123133, 0.921942412853241, 0.00043862685561180115, 0.3630900979042053, 0.1349247545003891, -6.407934665679932, 2.0204875469207764, 6.513473987579346, 61.65570068359375, 41.84016799926758, 74.5067138671875, 0.645263671875, 0.240966796875, -0.697509765625, 
328, 3827131466, 0.9201025366783142, 0.006049852818250656, 0.36646193265914917, 0.13819433748722076, -6.439357757568359, 2.305983781814575, 6.543996810913086, 60.588382720947266, 40.860652923583984, 72.72372436523438, 0.6474609375, 0.22802734375, -0.69384765625, 
329, 3827139799, 0.9182366132736206, 0.011323709040880203, 0.36974331736564636, 0.14149297773838043, -6.3222432136535645, 2.311807870864868, 6.529911041259766, 56.04288864135742, 40.5334587097168, 71.48744201660156, 0.65478515625, 0.217041015625, -0.69140625, 
330, 3827148132, 0.9163427948951721, 0.016205091029405594, 0.37293848395347595, 0.14487050473690033, -6.262075424194336, 2.3557467460632324, 6.441007137298584, 50.483070373535156, 40.3198356628418, 70.51673889160156, 0.66259765625, 0.204833984375, -0.69091796875, 
331, 3827156465, 0.9144437909126282, 0.02074263244867325, 0.37603119015693665, 0.14825722575187683, -6.414742469787598, 2.489581346511841, 6.286801815032959, 45.93709945678711, 39.784515380859375, 68.9369888305664, 0.6669921875, 0.193359375, -0.687744140625, 
332, 3827164798, 0.9125655293464661, 0.025097236037254333, 0.37901371717453003, 0.15152713656425476, -6.527053356170654, 2.6044812202453613, 6.206869602203369, 43.973350524902344, 38.589786529541016, 66.47587585449219, 0.67529296875, 0.18359375, -0.6845703125, 
333, 3827173131, 0.9107136130332947, 0.02924790233373642, 0.3818771243095398, 0.15470118820667267, -6.456834316253662, 2.715421438217163, 6.114884376525879, 41.69038772583008, 37.388092041015625, 64.22747039794922, 0.68017578125, 0.173583984375, -0.681884765625, 
334, 3827181464, 0.9088727831840515, 0.033247996121644974, 0.38468846678733826, 0.15772400796413422, -6.417919635772705, 2.770939588546753, 6.0365376472473145, 40.44889450073242, 36.898048400878906, 61.5093994140625, 0.68603515625, 0.16015625, -0.678466796875, 
335, 3827189797, 0.9070674180984497, 0.0371924452483654, 0.38740527629852295, 0.1605614721775055, -6.456009387969971, 2.820719003677368, 5.915670871734619, 40.543914794921875, 35.60325622558594, 58.89241027832031, 0.69287109375, 0.15234375, -0.676513671875, 
336, 3827198130, 0.9052965641021729, 0.04108363389968872, 0.3900293707847595, 0.16323222219944, -6.477136135101318, 2.9551470279693604, 5.835145950317383, 40.5139045715332, 34.25608444213867, 56.473140716552734, 0.696533203125, 0.143310546875, -0.671142578125, 
337, 3827206463, 0.9035599231719971, 0.044921744614839554, 0.39256906509399414, 0.1657354086637497, -6.441926956176758, 3.0305769443511963, 5.760168552398682, 40.570655822753906, 33.08365249633789, 54.09632110595703, 0.700439453125, 0.135498046875, -0.667236328125, 
338, 3827214796, 0.9018639922142029, 0.04867009446024895, 0.3950045108795166, 0.16811124980449677, -6.452256202697754, 3.0146725177764893, 5.6466498374938965, 39.85338592529297, 31.65838050842285, 51.97773742675781, 0.70703125, 0.12548828125, -0.664306640625, 
339, 3827223129, 0.9002034664154053, 0.05224187299609184, 0.39732858538627625, 0.1704460233449936, -6.418951511383057, 3.045480966567993, 5.559859275817871, 37.629150390625, 30.498502731323242, 50.521827697753906, 0.707763671875, 0.11669921875, -0.66748046875, 
340, 3827231462, 0.898565411567688, 0.055599793791770935, 0.39956215023994446, 0.17279018461704254, -6.382911682128906, 3.1390035152435303, 5.393199443817139, 34.67790603637695, 29.73062515258789, 49.461605072021484, 0.714599609375, 0.106201171875, -0.659912109375, 
341, 3827239795, 0.8969619870185852, 0.05886901170015335, 0.40171781182289124, 0.17502525448799133, -6.464284896850586, 3.037994861602783, 5.2600321769714355, 33.99092102050781, 28.73647117614746, 47.62068557739258, 0.716796875, 0.1015625, -0.658447265625, 
342, 3827248128, 0.8953986763954163, 0.06220129504799843, 0.40379559993743896, 0.17708346247673035, -6.557176113128662, 2.800403594970703, 5.2729997634887695, 35.505157470703125, 27.226659774780273, 45.73680114746094, 0.720703125, 0.09423828125, -0.655517578125, 
343, 3827256461, 0.8938860893249512, 0.06569778174161911, 0.4057844579219818, 0.17890673875808716, -6.546445369720459, 2.693767547607422, 5.332178592681885, 38.58960723876953, 25.276687622070312, 43.722591400146484, 0.724365234375, 0.083740234375, -0.6533203125, 
344, 3827264794, 0.8924245834350586, 0.06927484273910522, 0.40766796469688416, 0.18056422472000122, -6.486277103424072, 2.8799145221710205, 5.507853031158447, 40.18260955810547, 23.322647094726562, 42.08998107910156, 0.726806640625, 0.0751953125, -0.650390625, 
345, 3827273127, 0.89100581407547, 0.0728665143251419, 0.4094632565975189, 0.18208834528923035, -6.5082106590271, 3.198476791381836, 5.697731018066406, 40.865272521972656, 21.862140655517578, 40.52629089355469, 0.728759765625, 0.06982421875, -0.64892578125, 
346, 3827281460, 0.8896188735961914, 0.07639153301715851, 0.411192387342453, 0.18352341651916504, -6.565618991851807, 3.276092767715454, 5.802631855010986, 40.335845947265625, 20.923397064208984, 39.033203125, 0.733154296875, 0.059814453125, -0.64697265625, 
347, 3827289793, 0.8882517218589783, 0.07988741993904114, 0.4128827750682831, 0.18485647439956665, -6.558926105499268, 3.3236277103424072, 5.764743328094482, 40.452239990234375, 20.328609466552734, 37.623008728027344, 0.73486328125, 0.052734375, -0.642822265625, 
348, 3827298126, 0.886898398399353, 0.08342410624027252, 0.41454777121543884, 0.18606194853782654, -6.539114475250244, 3.2844529151916504, 5.746059417724609, 41.58161926269531, 19.672523498535156, 36.276893615722656, 0.737548828125, 0.04736328125, -0.641357421875, 
349, 3827306459, 0.885552704334259, 0.0870945006608963, 0.4161926209926605, 0.18711483478546143, -6.617978096008301, 3.203545570373535, 5.710493087768555, 44.03434753417969, 18.889238357543945, 35.190364837646484, 0.740234375, 0.038330078125, -0.641357421875, 
350, 3827314792, 0.8842125535011292, 0.09086866676807404, 0.41782256960868835, 0.18802312016487122, -6.6067423820495605, 3.1339311599731445, 5.703025817871094, 46.067359924316406, 18.212560653686523, 34.018924713134766, 0.741455078125, 0.033447265625, -0.636962890625, 
351, 3827323125, 0.8828818202018738, 0.09466174244880676, 0.4194347858428955, 0.1888134479522705, -6.5126633644104, 3.1822822093963623, 5.6731367111206055, 46.93061065673828, 17.768508911132812, 32.69757843017578, 0.74365234375, 0.02490234375, -0.63671875, 
352, 3827331458, 0.8815546631813049, 0.09851536154747009, 0.42103397846221924, 0.18948274850845337, -6.55443000793457, 3.220594882965088, 5.668918132781982, 48.31241989135742, 17.252532958984375, 31.578645706176758, 0.7490234375, 0.0166015625, -0.63671875, 
353, 3827339791, 0.8802438378334045, 0.10239409655332565, 0.42259106040000916, 0.19005368649959564, -6.585570812225342, 3.142392873764038, 5.670360088348389, 49.066795349121094, 16.47104263305664, 30.55307960510254, 0.747802734375, 0.0078125, -0.63134765625, 
354, 3827348124, 0.8789305090904236, 0.10623789578676224, 0.4241348206996918, 0.1905824840068817, -6.5476508140563965, 3.195932149887085, 5.583884239196777, 48.844112396240234, 16.335033416748047, 29.85834312438965, 0.7509765625, 0.00146484375, -0.6298828125, 
355, 3827356457, 0.8776199221611023, 0.1099594384431839, 0.4256671667098999, 0.19109411537647247, -6.560996055603027, 3.320558786392212, 5.531912326812744, 47.445987701416016, 16.497806549072266, 28.952943801879883, 0.750732421875, -0.006103515625, -0.628173828125, 
356, 3827364790, 0.8763217329978943, 0.11353525519371033, 0.4271692633628845, 0.19160783290863037, -6.644135475158691, 3.457273244857788, 5.391735076904297, 45.564300537109375, 16.42290687561035, 28.13195037841797, 0.75244140625, -0.0126953125, -0.624755859375, 
357, 3827373123, 0.87503981590271, 0.11694811284542084, 0.42863911390304565, 0.19213032722473145, -6.605504512786865, 3.547024726867676, 5.242532253265381, 43.45024108886719, 16.40289878845215, 27.294124603271484, 0.752685546875, -0.01953125, -0.62353515625, 
358, 3827381456, 0.8737727403640747, 0.12024864554405212, 0.43008220195770264, 0.19263388216495514, -6.523923397064209, 3.4855966567993164, 5.109640598297119, 42.10399627685547, 16.24106216430664, 26.402355194091797, 0.75390625, -0.026123046875, -0.62451171875, 
359, 3827389789, 0.872521162033081, 0.12348116934299469, 0.43150216341018677, 0.19308608770370483, -6.4926862716674805, 3.498994827270508, 4.981713771820068, 41.514404296875, 15.983922004699707, 25.38534164428711, 0.756591796875, -0.0322265625, -0.61962890625, 
360, 3827398122, 0.8712925314903259, 0.12664106488227844, 0.43289247155189514, 0.1934751570224762, -6.42459774017334, 3.6645615100860596, 4.890089511871338, 40.888973236083984, 15.560105323791504, 24.181411743164062, 0.7578125, -0.04052734375, -0.620361328125, 
361, 3827406455, 0.8700944781303406, 0.12970949709415436, 0.43424320220947266, 0.19380663335323334, -6.379668712615967, 3.853753089904785, 4.757535934448242, 39.987525939941406, 15.061699867248535, 22.938758850097656, 0.758056640625, -0.045654296875, -0.615966796875, 
362, 3827414788, 0.8689475655555725, 0.13261522352695465, 0.4355243742465973, 0.19411109387874603, -6.435858726501465, 3.949882984161377, 4.6555376052856445, 37.9151725769043, 14.294421195983887, 21.627458572387695, 0.75830078125, -0.0517578125, -0.611572265625, 
363, 3827423121, 0.8678566217422485, 0.13543018698692322, 0.4367290139198303, 0.19434118270874023, -6.411298751831055, 3.9686458110809326, 4.646254062652588, 36.979042053222656, 13.165240287780762, 20.1885986328125, 0.760986328125, -0.056640625, -0.611572265625, 
364, 3827431454, 0.8668361306190491, 0.13809198141098022, 0.43783247470855713, 0.1945398896932602, -6.262431621551514, 3.8545217514038086, 4.6139397621154785, 34.92955780029297, 11.871383666992188, 18.890256881713867, 0.762451171875, -0.059814453125, -0.610595703125, 
365, 3827439787, 0.8658828735351562, 0.14050690829753876, 0.43884992599487305, 0.19476306438446045, -6.094266891479492, 3.878682851791382, 4.579234600067139, 31.48768424987793, 11.160762786865234, 17.682003021240234, 0.763671875, -0.064697265625, -0.61328125, 
366, 3827448120, 0.8650081753730774, 0.1426836997270584, 0.43975839018821716, 0.19501781463623047, -6.079436779022217, 3.969212293624878, 4.515389919281006, 28.010665893554688, 10.07474136352539, 16.618927001953125, 0.762939453125, -0.06982421875, -0.60693359375, 
367, 3827456453, 0.8642251491546631, 0.14455953240394592, 0.4405444264411926, 0.1953335702419281, -6.0108208656311035, 4.09824800491333, 4.493106365203857, 23.55908203125, 9.000810623168945, 15.519074440002441, 0.765380859375, -0.07568359375, -0.60400390625, 
368, 3827464786, 0.8635367155075073, 0.14608824253082275, 0.4412086308002472, 0.19574102759361267, -5.964242935180664, 4.211595058441162, 4.4039435386657715, 18.358230590820312, 8.085175514221191, 14.49414348602295, 0.7685546875, -0.0771484375, -0.60546875, 
369, 3827473119, 0.8629378080368042, 0.14732281863689423, 0.44176024198532104, 0.19621239602565765, -5.9589433670043945, 4.204291343688965, 4.361424446105957, 13.999094009399414, 7.1347832679748535, 13.451026916503906, 0.76953125, -0.080810546875, -0.60205078125, 
370, 3827481452, 0.8624262809753418, 0.14830899238586426, 0.44220396876335144, 0.19671837985515594, -6.0246052742004395, 4.227443695068359, 4.346437931060791, 10.368427276611328, 6.054553508758545, 12.337804794311523, 0.765869140625, -0.083251953125, -0.6005859375, 
371, 3827489785, 0.8620089292526245, 0.14907598495483398, 0.4425378143787384, 0.19721686840057373, -6.124486923217773, 4.254969120025635, 4.303179740905762, 7.326762676239014, 4.763826370239258, 10.882683753967285, 0.769287109375, -0.084228515625, -0.60107421875, 
372, 3827498118, 0.861666202545166, 0.1497102677822113, 0.4427940845489502, 0.19765882194042206, -6.184263229370117, 4.292981147766113, 4.265830039978027, 5.73286247253418, 3.626783847808838, 9.364270210266113, 0.768310546875, -0.086181640625, -0.599609375, 
373, 3827506451, 0.86141037940979, 0.150289386510849, 0.44293659925460815, 0.19801393151283264, -6.252091884613037, 4.412190914154053, 4.238372802734375, 5.119043350219727, 1.7260794639587402, 7.991910457611084, 0.770263671875, -0.087646484375, -0.6005859375, 
374, 3827514784, 0.861234188079834, 0.15080803632736206, 0.44298410415649414, 0.19827988743782043, -6.312300682067871, 4.646658420562744, 4.3090410232543945, 4.522386074066162, 0.09096896648406982, 6.553262233734131, 0.76904296875, -0.09033203125, -0.6005859375, 
375, 3827523117, 0.8611372709274292, 0.15124373137950897, 0.4429452419281006, 0.1984553039073944, -6.31015682220459, 4.6683759689331055, 4.377073764801025, 3.6889753341674805, -1.3742550611495972, 4.930215835571289, 0.768798828125, -0.087890625, -0.6005859375, 
376, 3827531450, 0.8611294627189636, 0.15156342089176178, 0.4428064823150635, 0.19855543971061707, -6.34296989440918, 4.623747825622559, 4.434498310089111, 2.3202016353607178, -2.943049907684326, 3.304326057434082, 0.76953125, -0.0888671875, -0.60009765625, 
377, 3827539783, 0.8611870408058167, 0.1517478972673416, 0.44259268045425415, 0.19864130020141602, -6.529669761657715, 4.766209125518799, 4.432282447814941, 0.4558694064617157, -3.8905718326568604, 2.28029465675354, 0.7685546875, -0.0927734375, -0.600341796875, 
378, 3827548116, 0.8612958192825317, 0.15182900428771973, 0.442323237657547, 0.1987084448337555, -6.633975982666016, 4.723668098449707, 4.531171798706055, -0.9032859206199646, -4.616786479949951, 1.415250539779663, 0.76806640625, -0.091796875, -0.604248046875, 
379, 3827556449, 0.8614407181739807, 0.15181884169578552, 0.4420345425605774, 0.19872942566871643, -6.622093677520752, 4.608981132507324, 4.659604549407959, -1.8450446128845215, -4.914858818054199, 0.24293820559978485, 0.7685546875, -0.09130859375, -0.599609375, 
380, 3827564782, 0.8616052269935608, 0.15186908841133118, 0.4417303204536438, 0.1986543834209442, -6.666533946990967, 4.477067470550537, 4.94767951965332, -0.6161248683929443, -5.579446792602539, -0.5375660061836243, 0.76806640625, -0.0908203125, -0.602294921875, 
381, 3827573115, 0.8617968559265137, 0.15195228159427643, 0.44139939546585083, 0.19849541783332825, -6.716689586639404, 4.45590353012085, 5.246993541717529, 0.1405325084924698, -6.331838607788086, -1.363061547279358, 0.7685546875, -0.09130859375, -0.601806640625, 
382, 3827581448, 0.861991286277771, 0.15206849575042725, 0.44107866287231445, 0.19827544689178467, -6.674695014953613, 4.393938064575195, 5.458889484405518, 0.9373914003372192, -6.441263198852539, -1.8999104499816895, 0.767333984375, -0.090087890625, -0.607177734375, 
383, 3827589781, 0.8621732592582703, 0.15222956240177155, 0.4407972991466522, 0.19798561930656433, -6.674813747406006, 4.187768459320068, 5.514060020446777, 2.010960817337036, -6.1711859703063965, -2.5192623138427734, 0.765380859375, -0.08935546875, -0.604248046875, 
384, 3827598114, 0.8623517155647278, 0.152413472533226, 0.44053176045417786, 0.19765770435333252, -6.74905252456665, 3.988245725631714, 5.4397292137146, 2.578136920928955, -6.100491046905518, -2.8409006595611572, 0.765625, -0.091796875, -0.603759765625, 
385, 3827606447, 0.8625270128250122, 0.15259495377540588, 0.4402695596218109, 0.19733691215515137, -6.8261823654174805, 3.838625907897949, 5.2584028244018555, 2.5096702575683594, -6.023905277252197, -2.785855770111084, 0.765869140625, -0.08984375, -0.604736328125, 
386, 3827614780, 0.8626818060874939, 0.15284019708633423, 0.4400233328342438, 0.1970193237066269, -6.858921051025391, 3.7852392196655273, 5.172391891479492, 3.3452322483062744, -5.871859073638916, -2.324542999267578, 0.764404296875, -0.09033203125, -0.607177734375, 
387, 3827623113, 0.8628213405609131, 0.15317991375923157, 0.43978258967399597, 0.19668269157409668, -6.877234935760498, 3.9192686080932617, 5.276969909667969, 4.613931655883789, -6.016016006469727, -1.9608980417251587, 0.766357421875, -0.091796875, -0.608154296875, 
388, 3827631446, 0.8629456162452698, 0.15353617072105408, 0.4395633637905121, 0.19634824991226196, -6.834594249725342, 4.1689629554748535, 5.477456092834473, 4.901783466339111, -5.704648971557617, -1.8270888328552246, 0.765869140625, -0.09130859375, -0.607666015625, 
389, 3827639779, 0.863075315952301, 0.15379875898361206, 0.4393499195575714, 0.19605018198490143, -6.795968532562256, 4.359565734863281, 5.5952372550964355, 3.5609543323516846, -5.344076633453369, -1.9995239973068237, 0.762451171875, -0.091796875, -0.609375, 
390, 3827648112, 0.8632001876831055, 0.15391451120376587, 0.43915674090385437, 0.19584283232688904, -6.75532865524292, 4.521636009216309, 5.590372562408447, 1.34885835647583, -4.4802117347717285, -1.8284721374511719, 0.760498046875, -0.09130859375, -0.609375, 
391, 3827656445, 0.8633252382278442, 0.15392813086509705, 0.4389737844467163, 0.19569140672683716, -6.708261489868164, 4.508752346038818, 5.547238826751709, -0.1882646232843399, -3.973177909851074, -1.8155627250671387, 0.763916015625, -0.09033203125, -0.609619140625, 
392, 3827664778, 0.863442599773407, 0.15393707156181335, 0.4388044774532318, 0.19554677605628967, -6.682065963745117, 4.3051934242248535, 5.456887245178223, -0.21749046444892883, -3.7312512397766113, -1.758442759513855, 0.763916015625, -0.090576171875, -0.610107421875, 
393, 3827673111, 0.8635545969009399, 0.15398246049880981, 0.43863633275032043, 0.1953922063112259, -6.7062458992004395, 4.315321445465088, 5.466227054595947, 0.2752377688884735, -3.811295509338379, -1.6599047183990479, 0.763427734375, -0.09228515625, -0.6123046875, 
394, 3827681444, 0.8636680841445923, 0.15406635403633118, 0.43845516443252563, 0.19523130357265472, -6.717189788818359, 4.365910053253174, 5.494645595550537, 0.7458993792533875, -4.084292888641357, -1.4639561176300049, 0.763427734375, -0.09228515625, -0.60986328125, 
395, 3827689777, 0.8637926578521729, 0.15411555767059326, 0.4382582902908325, 0.19508349895477295, -6.708797454833984, 4.35595703125, 5.5164713859558105, 0.17552156746387482, -4.222839832305908, -1.5289137363433838, 0.761962890625, -0.0908203125, -0.60888671875, 
396, 3827698110, 0.8639200329780579, 0.15413036942481995, 0.43806150555610657, 0.19494974613189697, -6.713943958282471, 4.430485725402832, 5.541015625, -0.30877965688705444, -4.111264705657959, -1.5631344318389893, 0.762451171875, -0.0908203125, -0.60986328125, 
397, 3827706443, 0.8640629053115845, 0.15409992635250092, 0.43784472346305847, 0.19482706487178802, -6.860683441162109, 4.416168689727783, 5.467650890350342, -1.0155019760131836, -4.303755283355713, -1.7173577547073364, 0.761962890625, -0.091796875, -0.611328125, 
398, 3827714776, 0.8642222881317139, 0.15402740240097046, 0.43760883808135986, 0.19470831751823425, -6.963754177093506, 4.381781101226807, 5.411983966827393, -1.6087275743484497, -4.500933647155762, -1.9137932062149048, 0.762451171875, -0.09033203125, -0.60986328125, 
399, 3827723109, 0.8643877506256104, 0.15395230054855347, 0.43735596537590027, 0.19460156559944153, -7.007723808288574, 4.341557502746582, 5.395237445831299, -1.7859526872634888, -4.715837001800537, -1.7810090780258179, 0.759521484375, -0.09130859375, -0.611328125, 
400, 3827731442, 0.8645665049552917, 0.153859943151474, 0.43707311153411865, 0.19451585412025452, -6.950997352600098, 4.44527530670166, 5.463761806488037, -2.2128396034240723, -5.05558443069458, -1.5923089981079102, 0.762451171875, -0.09130859375, -0.6123046875, 
401, 3827739775, 0.8647558093070984, 0.15370726585388184, 0.4367768466472626, 0.19446036219596863, -6.871473789215088, 4.5845232009887695, 5.611910820007324, -3.184157133102417, -5.058812618255615, -1.609649896621704, 0.760498046875, -0.089599609375, -0.615234375, 
402, 3827748108, 0.8649493455886841, 0.1534864902496338, 0.4364832639694214, 0.19443279504776, -6.7961835861206055, 4.584807395935059, 5.741939067840576, -4.1462273597717285, -4.803335189819336, -1.6905908584594727, 0.75732421875, -0.08740234375, -0.611328125, 
403, 3827756441, 0.8651343584060669, 0.15324556827545166, 0.436212956905365, 0.19440607726573944, -6.720069885253906, 4.542723178863525, 5.787171840667725, -4.3289337158203125, -4.428368091583252, -1.8427393436431885, 0.760009765625, -0.09033203125, -0.61376953125, 
404, 3827764774, 0.8653180003166199, 0.15298707783222198, 0.4359598457813263, 0.1943608522415161, -6.703368663787842, 4.560318946838379, 5.733254909515381, -4.360311508178711, -4.200555324554443, -2.1843819618225098, 0.7607421875, -0.087158203125, -0.62109375, 
405, 3827773107, 0.8654864430427551, 0.15270739793777466, 0.4357549846172333, 0.19429023563861847, -6.706442356109619, 4.570197105407715, 5.724963665008545, -4.316792964935303, -3.537121295928955, -2.6921586990356445, 0.75927734375, -0.087158203125, -0.61474609375, 
406, 3827781440, 0.8656529188156128, 0.15239158272743225, 0.4355740547180176, 0.19420194625854492, -6.718353271484375, 4.532820224761963, 5.665204048156738, -4.556567192077637, -3.175422191619873, -3.1467087268829346, 0.75634765625, -0.08740234375, -0.61669921875, 
407, 3827789773, 0.8658155202865601, 0.1520296037197113, 0.435417115688324, 0.19411227107048035, -6.7176127433776855, 4.513370513916016, 5.601935386657715, -5.043468475341797, -2.7518398761749268, -3.4982388019561768, 0.75927734375, -0.086181640625, -0.615234375, 
408, 3827798106, 0.8659733533859253, 0.1516198366880417, 0.43529245257377625, 0.1940084993839264, -6.7484517097473145, 4.526793479919434, 5.545568943023682, -5.413261890411377, -2.2360973358154297, -3.9878551959991455, 0.7587890625, -0.086181640625, -0.61669921875, 
409, 3827806439, 0.8661472797393799, 0.15111611783504486, 0.43517255783081055, 0.19389355182647705, -6.792344093322754, 4.56008243560791, 5.456001281738281, -6.50606632232666, -2.053032159805298, -4.757408142089844, 0.75830078125, -0.084716796875, -0.6162109375, 
410, 3827814772, 0.8663417100906372, 0.15047097206115723, 0.4350539445877075, 0.1937934309244156, -6.7698822021484375, 4.565046310424805, 5.399409294128418, -8.298501014709473, -1.7468140125274658, -5.4632086753845215, 0.75927734375, -0.084716796875, -0.615234375, 
411, 3827823105, 0.8665803670883179, 0.14963185787200928, 0.4349004924297333, 0.1937202513217926, -6.768659591674805, 4.600321292877197, 5.268840789794922, -10.974804878234863, -1.861130714416504, -6.370440483093262, 0.759033203125, -0.081787109375, -0.61669921875, 
412, 3827831438, 0.8668522834777832, 0.14856910705566406, 0.43472594022750854, 0.19371351599693298, -6.720145225524902, 4.848477840423584, 5.2536115646362305, -14.142748832702637, -1.5720996856689453, -6.9383087158203125, 0.759033203125, -0.0810546875, -0.6181640625, 
413, 3827839771, 0.8671595454216003, 0.1472676694393158, 0.4345267415046692, 0.1937793642282486, -6.6389689445495605, 4.873115539550781, 5.306641578674316, -17.582000732421875, -1.3008705377578735, -7.570136070251465, 0.758544921875, -0.07763671875, -0.618408203125, 
414, 3827848104, 0.8675054311752319, 0.1457366943359375, 0.4343120753765106, 0.19386908411979675, -6.611699104309082, 4.8846845626831055, 5.244168758392334, -20.558197021484375, -1.048903465270996, -8.703694343566895, 0.759033203125, -0.07763671875, -0.616943359375, 
415, 3827856437, 0.8678860664367676, 0.14404261112213135, 0.4340898096561432, 0.1939297467470169, -6.583170413970947, 4.863490581512451, 5.273853778839111, -22.446840286254883, -0.9779263138771057, -10.128103256225586, 0.759765625, -0.072998046875, -0.622314453125, 
416, 3827864770, 0.8683311939239502, 0.1421126425266266, 0.4337981045246124, 0.19401410222053528, -6.478890419006348, 4.877323627471924, 5.239111423492432, -25.690019607543945, -1.50762939453125, -11.26146125793457, 0.75830078125, -0.07080078125, -0.617431640625, 
417, 3827873103, 0.8688702583312988, 0.13954700529575348, 0.4334030747413635, 0.19434480369091034, -6.404657363891602, 5.063742637634277, 5.241345405578613, -35.237876892089844, -1.133328914642334, -12.19218635559082, 0.7587890625, -0.067626953125, -0.61669921875, 
418, 3827881436, 0.8695025444030762, 0.13624712824821472, 0.4329269230365753, 0.19491919875144958, -6.340642929077148, 5.508401870727539, 5.159621238708496, -45.82969284057617, -0.22030845284461975, -13.718293190002441, 0.760009765625, -0.06298828125, -0.61865234375, 
419, 3827889769, 0.8702318072319031, 0.13228382170200348, 0.4323529601097107, 0.19566744565963745, -6.311682224273682, 5.563737392425537, 5.016403675079346, -55.276119232177734, 0.12880155444145203, -15.703110694885254, 0.75927734375, -0.05712890625, -0.61962890625, 
420, 3827898102, 0.8710571527481079, 0.12776052951812744, 0.4316875636577606, 0.19646763801574707, -6.2603631019592285, 5.371561050415039, 4.815005779266357, -62.67266082763672, 0.0733722522854805, -18.4659366607666, 0.758056640625, -0.049560546875, -0.619384765625, 
421, 3827906435, 0.8719768524169922, 0.12280738353729248, 0.4309377670288086, 0.19719235599040985, -6.165035724639893, 5.295298099517822, 4.676443576812744, -67.80870819091797, -0.47870662808418274, -22.073421478271484, 0.75830078125, -0.04150390625, -0.619384765625, 
422, 3827914768, 0.8729809522628784, 0.1175013929605484, 0.4301081895828247, 0.19779318571090698, -6.0843658447265625, 5.430691242218018, 4.554032325744629, -71.62251281738281, -1.1779534816741943, -25.698686599731445, 0.7578125, -0.03662109375, -0.61962890625, 
423, 3827923101, 0.874079167842865, 0.11187179386615753, 0.4291844666004181, 0.19821257889270782, -5.9443440437316895, 5.543093204498291, 4.471853733062744, -74.89112091064453, -2.289618492126465, -29.948514938354492, 0.7568359375, -0.025146484375, -0.619873046875, 
424, 3827931434, 0.8752734661102295, 0.10599341988563538, 0.42816609144210815, 0.19837522506713867, -5.811032295227051, 5.492727756500244, 4.4013824462890625, -76.72390747070312, -3.6997175216674805, -34.565677642822266, 0.758056640625, -0.01611328125, -0.620361328125, 
425, 3827939767, 0.8765915036201477, 0.09989900141954422, 0.4269983768463135, 0.19823478162288666, -5.709911346435547, 5.398651123046875, 4.349891185760498, -78.18574523925781, -6.092592239379883, -39.66826629638672, 0.75927734375, -0.0048828125, -0.62109375, 
426, 3827948100, 0.8780394792556763, 0.09353089332580566, 0.4256817698478699, 0.19776535034179688, -5.56628942489624, 5.410826683044434, 4.333941459655762, -80.07830047607422, -8.341620445251465, -45.328216552734375, 0.75732421875, 0.006103515625, -0.625732421875, 
427, 3827956433, 0.8796127438545227, 0.08698080480098724, 0.42420244216918945, 0.1969398558139801, -5.474853038787842, 5.515841484069824, 4.363321304321289, -80.86404418945312, -11.017951011657715, -50.898677825927734, 0.755615234375, 0.018310546875, -0.62060546875, 
428, 3827964766, 0.8812950253486633, 0.08025463670492172, 0.4225633442401886, 0.19579580426216125, -5.512350082397461, 5.584977149963379, 4.392372131347656, -81.62911987304688, -13.47497272491455, -55.8079833984375, 0.755615234375, 0.029541015625, -0.624267578125, 
429, 3827973099, 0.8831164836883545, 0.07323740422725677, 0.42073726654052734, 0.1942654252052307, -5.677700996398926, 5.486433506011963, 4.398327827453613, -83.64850616455078, -16.210792541503906, -62.43851089477539, 0.752197265625, 0.04296875, -0.625244140625, 
430, 3827981432, 0.8850600123405457, 0.06581030786037445, 0.41872438788414, 0.19241882860660553, -5.8085150718688965, 5.464687824249268, 4.350639343261719, -87.34065246582031, -18.390790939331055, -68.69921875, 0.751220703125, 0.057373046875, -0.62646484375, 
431, 3827989765, 0.8870785236358643, 0.05818396806716919, 0.4165615439414978, 0.1902628093957901, -5.93712043762207, 5.143254280090332, 4.34417724609375, -88.54067993164062, -20.42170524597168, -73.77487182617188, 0.748779296875, 0.073974609375, -0.625732421875, 
432, 3827998098, 0.8891730904579163, 0.05037137120962143, 0.4142446219921112, 0.18775679171085358, -6.02313756942749, 4.572490692138672, 4.379996299743652, -89.1799087524414, -22.50872039794922, -79.08760833740234, 0.745361328125, 0.08740234375, -0.62744140625, 
433, 3828006431, 0.8913083672523499, 0.042469657957553864, 0.411815345287323, 0.18490850925445557, -6.120209217071533, 4.176499843597412, 4.458728313446045, -88.73905181884766, -24.146739959716797, -83.92089080810547, 0.740478515625, 0.103759765625, -0.628173828125, 
434, 3828014764, 0.8934723138809204, 0.03444674238562584, 0.4092683494091034, 0.18176168203353882, -6.162388801574707, 3.9776439666748047, 4.659193992614746, -88.74836730957031, -25.591856002807617, -88.1575927734375, 0.73583984375, 0.12255859375, -0.630859375, 
435, 3828023097, 0.895664393901825, 0.026489723473787308, 0.4065779447555542, 0.17831242084503174, -6.168736457824707, 3.7516655921936035, 4.8314080238342285, -86.7201156616211, -27.850128173828125, -91.6279067993164, 0.732177734375, 0.1396484375, -0.632080078125, 
436, 3828031430, 0.897882342338562, 0.018504448235034943, 0.40375596284866333, 0.1745375692844391, -6.199713230133057, 3.366091251373291, 5.034970283508301, -85.46833801269531, -29.63494110107422, -95.6888198852539, 0.726806640625, 0.15380859375, -0.631103515625, 
437, 3828039763, 0.9001109600067139, 0.01048978790640831, 0.4008088707923889, 0.17046943306922913, -6.155907154083252, 3.290149211883545, 5.1608476638793945, -84.63509368896484, -31.27568244934082, -99.5877914428711, 0.722900390625, 0.17138671875, -0.6357421875, 
438, 3828048096, 0.9023333191871643, 0.0024447552859783173, 0.39775121212005615, 0.1661326289176941, -6.165604114532471, 2.955862522125244, 5.278210163116455, -83.65898895263672, -32.545570373535156, -102.9291000366211, 0.71826171875, 0.188720703125, -0.637451171875, 
439, 3828056429, 0.9045410752296448, -0.0055589377880096436, 0.39459818601608276, 0.16150608658790588, -6.260146141052246, 2.349910020828247, 5.287951946258545, -81.90874481201172, -33.78782272338867, -106.39744567871094, 0.710693359375, 0.20654296875, -0.63720703125, 
440, 3828064762, 0.9067121148109436, -0.013496965169906616, 0.3913688361644745, 0.15664872527122498, -6.361237049102783, 1.7620972394943237, 5.263596057891846, -79.88134765625, -34.63298416137695, -108.70153045654297, 0.70166015625, 0.225830078125, -0.63720703125, 
441, 3828073095, 0.908839762210846, -0.021489989012479782, 0.388074666261673, 0.1515381932258606, -6.437771320343018, 1.3960812091827393, 5.16023588180542, -79.4928970336914, -35.07957458496094, -112.2072525024414, 0.69677734375, 0.2412109375, -0.637451171875, 
442, 3828081428, 0.9109131693840027, -0.029440220445394516, 0.38473162055015564, 0.1461816430091858, -6.517382621765137, 1.1298083066940308, 5.196185111999512, -77.62288665771484, -35.379295349121094, -114.82048034667969, 0.687255859375, 0.260986328125, -0.63818359375, 
443, 3828089761, 0.9129425287246704, -0.037170253694057465, 0.3813149631023407, 0.14060717821121216, -6.44268798828125, 0.8431251049041748, 5.31957483291626, -74.01702880859375, -36.46876525878906, -116.46639251708984, 0.68115234375, 0.27685546875, -0.638671875, 
444, 3828098094, 0.9149137139320374, -0.04479225352406502, 0.3778423070907593, 0.13482974469661713, -6.2201738357543945, 0.6876754760742188, 5.5899577140808105, -71.59373474121094, -36.92361831665039, -118.22454071044922, 0.671630859375, 0.29541015625, -0.640869140625, 
445, 3828106427, 0.9167998433113098, -0.0523800253868103, 0.3743254244327545, 0.12896578013896942, -6.068319797515869, 0.7389558553695679, 5.753553867340088, -70.99267578125, -37.10165786743164, -119.14423370361328, 0.662109375, 0.314697265625, -0.642333984375, 
446, 3828114760, 0.9185736775398254, -0.06011843681335449, 0.37076082825660706, 0.12313340604305267, -6.006633281707764, 0.6844754815101624, 5.968357086181641, -73.07575988769531, -36.829261779785156, -119.21737670898438, 0.651611328125, 0.331298828125, -0.640625, 
447, 3828123093, 0.9202262759208679, -0.06798286736011505, 0.3671919107437134, 0.11725673079490662, -5.928600311279297, 0.5162298083305359, 6.1791276931762695, -74.69097900390625, -36.071720123291016, -120.36443328857422, 0.643310546875, 0.34619140625, -0.64013671875, 
448, 3828131426, 0.9217603206634521, -0.07596057653427124, 0.36360692977905273, 0.11133309453725815, -5.826901435852051, 0.2145187258720398, 6.3191375732421875, -75.88386535644531, -35.39281463623047, -121.20747375488281, 0.6337890625, 0.365966796875, -0.6435546875, 
449, 3828139759, 0.9231572151184082, -0.08401240408420563, 0.36004236340522766, 0.10540048778057098, -5.744852066040039, -0.09401357918977737, 6.443257808685303, -77.02735900878906, -34.382266998291016, -121.61710357666016, 0.621826171875, 0.383544921875, -0.639404296875, 
