sep=,
PacketCounter,SampleTimeFine,Quat_W,Quat_X,Quat_Y,Quat_Z,Acc_X,Acc_Y,Acc_Z,Gyr_X,Gyr_Y,Gyr_Z,Mag_X,Mag_Y,Mag_Z,
0, 3535651459, 0.7474474906921387, -0.5571491122245789, 0.282471626996994, -0.22613224387168884, 0, 0, 0, 0, 0, 0, -0.107666015625, 0.894775390625, -0.067626953125, 
1, 3535659792, 0.7474611401557922, -0.5571001172065735, 0.28255799412727356, -0.22610008716583252, -1.845397710800171, -9.521836280822754, 2.134308099746704, -0.2796049416065216, 0.06171749159693718, 1.0842633247375488, -0.108154296875, 0.894287109375, -0.066650390625, 
2, 3535668125, 0.7474657297134399, -0.5570496916770935, 0.2826656997203827, -0.22607466578483582, -1.8344967365264893, -9.503739356994629, 2.142963171005249, -0.3901560306549072, 0.14030198752880096, 1.1462754011154175, -0.108154296875, 0.893798828125, -0.068115234375, 
3, 3535676458, 0.747480034828186, -0.5569994449615479, 0.28274571895599365, -0.22605139017105103, -1.8349689245224, -9.48056411743164, 2.1298305988311768, -0.20588721334934235, 0.06607191264629364, 0.9510436654090881, -0.10791015625, 0.891357421875, -0.066650390625, 
4, 3535684791, 0.7475132942199707, -0.5569207072257996, 0.2828224003314972, -0.22603942453861237, -1.8088109493255615, -9.46898365020752, 2.1596221923828125, 0.26868051290512085, -0.10358396172523499, 0.9694091081619263, -0.107177734375, 0.893310546875, -0.066162109375, 
5, 3535693124, 0.7475738525390625, -0.5568154454231262, 0.28286775946617126, -0.22604182362556458, -1.8005136251449585, -9.468003273010254, 2.1578195095062256, 0.9201785922050476, -0.10335343331098557, 0.7788903713226318, -0.109130859375, 0.893310546875, -0.068603515625, 
6, 3535701457, 0.7476669549942017, -0.556670069694519, 0.2828938663005829, -0.22605901956558228, -1.8140647411346436, -9.45798110961914, 2.1381595134735107, 1.722083330154419, -0.20657879114151, 0.6768432855606079, -0.107666015625, 0.894287109375, -0.066650390625, 
7, 3535709790, 0.7477946281433105, -0.5564772486686707, 0.28290319442749023, -0.2260996699333191, -1.777950406074524, -9.42447280883789, 2.1552445888519287, 2.5962717533111572, -0.16956624388694763, 0.6599123477935791, -0.1064453125, 0.888671875, -0.062744140625, 
8, 3535718123, 0.7479414939880371, -0.5562452077865601, 0.2829187214374542, -0.22616559267044067, -1.767496109008789, -9.391382217407227, 2.1744930744171143, 3.1968486309051514, -0.1639823317527771, 0.6632934808731079, -0.106689453125, 0.89599609375, -0.068603515625, 
9, 3535726456, 0.7481070756912231, -0.5559993982315063, 0.28291040658950806, -0.22623276710510254, -1.7827397584915161, -9.355481147766113, 2.228811740875244, 3.5872607231140137, -0.13014593720436096, 0.575078010559082, -0.110107421875, 0.891357421875, -0.06787109375, 
10, 3535734789, 0.7482670545578003, -0.5557548999786377, 0.28291556239128113, -0.22629764676094055, -1.7812731266021729, -9.329610824584961, 2.2020375728607178, 3.505218744277954, -0.009656567126512527, 0.6197492480278015, -0.107666015625, 0.896484375, -0.070556640625, 
11, 3535743122, 0.7484109997749329, -0.5555185079574585, 0.2829403281211853, -0.22637112438678741, -1.7814568281173706, -9.325005531311035, 2.192986249923706, 3.2476413249969482, 0.31232714653015137, 0.6606294512748718, -0.107177734375, 0.893798828125, -0.068603515625, 
12, 3535751455, 0.7485408186912537, -0.5552861094474792, 0.28298816084861755, -0.22645291686058044, -1.8109245300292969, -9.344767570495605, 2.17301344871521, 3.0386297702789307, 0.4092002809047699, 0.6835286617279053, -0.10595703125, 0.89306640625, -0.069580078125, 
13, 3535759788, 0.7486444711685181, -0.5550899505615234, 0.28303709626197815, -0.2265298068523407, -1.804693341255188, -9.356399536132812, 2.1773953437805176, 2.462718963623047, 0.6197748184204102, 0.5251558423042297, -0.106689453125, 0.89501953125, -0.069091796875, 
14, 3535768121, 0.7486932873725891, -0.5549409985542297, 0.2831350862979889, -0.22661076486110687, -1.7903921604156494, -9.344234466552734, 2.209533214569092, 1.4077967405319214, 0.9868012070655823, 0.49610936641693115, -0.106689453125, 0.89453125, -0.069091796875, 
15, 3535776454, 0.7487064003944397, -0.5548439621925354, 0.2832447290420532, -0.22666795551776886, -1.7935539484024048, -9.350303649902344, 2.2160651683807373, 0.48494142293930054, 1.136439561843872, 0.5253095626831055, -0.106201171875, 0.89501953125, -0.071044921875, 
16, 3535784787, 0.7486812472343445, -0.5547800064086914, 0.28339502215385437, -0.22671958804130554, -1.7943264245986938, -9.38037395477295, 2.216809034347534, -0.3112129271030426, 1.3205033540725708, 0.6345542669296265, -0.10791015625, 0.891357421875, -0.069091796875, 
17, 3535793120, 0.7486454844474792, -0.5547360181808472, 0.28354498744010925, -0.22675824165344238, -1.8356502056121826, -9.382668495178223, 2.2267956733703613, -0.6304687857627869, 1.4362285137176514, 0.663600742816925, -0.106201171875, 0.8935546875, -0.068603515625, 
18, 3535801453, 0.7486022710800171, -0.5546810626983643, 0.2837250232696533, -0.22680959105491638, -1.8215506076812744, -9.3831787109375, 2.217850923538208, -0.6405608654022217, 1.6487500667572021, 0.7765596508979797, -0.106689453125, 0.892578125, -0.070068359375, 
19, 3535809786, 0.7485719323158264, -0.5546224117279053, 0.2838877737522125, -0.22684991359710693, -1.8234943151474, -9.394533157348633, 2.2139673233032227, -0.47137874364852905, 1.6056411266326904, 0.819693922996521, -0.107177734375, 0.89501953125, -0.068603515625, 
20, 3535818119, 0.7485473155975342, -0.5545353293418884, 0.2840622663497925, -0.22692567110061646, -1.8470780849456787, -9.401145935058594, 2.1665780544281006, -0.05517306178808212, 1.8074045181274414, 0.6647278070449829, -0.107177734375, 0.892578125, -0.070556640625, 
21, 3535826452, 0.7485383749008179, -0.5544467568397522, 0.28420454263687134, -0.22699305415153503, -1.8553059101104736, -9.370299339294434, 2.1641173362731934, 0.16786286234855652, 1.611122488975525, 0.5672656297683716, -0.106689453125, 0.8935546875, -0.071533203125, 
22, 3535834785, 0.748542845249176, -0.5543433427810669, 0.2843368649482727, -0.2270655333995819, -1.867943525314331, -9.352706909179688, 2.149171829223633, 0.4974924623966217, 1.5209604501724243, 0.4771803915500641, -0.107666015625, 0.8955078125, -0.072021484375, 
23, 3535843118, 0.7485554218292236, -0.5542378425598145, 0.28444361686706543, -0.22714820504188538, -1.8558909893035889, -9.370489120483398, 2.1240224838256836, 0.6772275567054749, 1.331133484840393, 0.27226653695106506, -0.106689453125, 0.896484375, -0.071533203125, 
24, 3535851451, 0.7485677599906921, -0.5541233420372009, 0.28455567359924316, -0.2272462546825409, -1.8581011295318604, -9.354924201965332, 2.1471405029296875, 0.7934137582778931, 1.2844130992889404, 0.1788514107465744, -0.1044921875, 0.8935546875, -0.070556640625, 
25, 3535859784, 0.7485828399658203, -0.5540222525596619, 0.2846442759037018, -0.22733214497566223, -1.8398184776306152, -9.321455955505371, 2.1451733112335205, 0.7207973003387451, 1.1450971364974976, 0.0908408835530281, -0.105712890625, 0.89404296875, -0.071044921875, 
26, 3535868117, 0.7485929727554321, -0.553926408290863, 0.2847302258014679, -0.22742441296577454, -1.8488596677780151, -9.296778678894043, 2.1288793087005615, 0.6422640681266785, 0.9128273725509644, -0.039292238652706146, -0.10595703125, 0.89306640625, -0.069091796875, 
27, 3535876450, 0.7485965490341187, -0.5538586378097534, 0.28480178117752075, -0.22748823463916779, -1.832329511642456, -9.302000045776367, 2.0911195278167725, 0.25748708844184875, 0.7412118911743164, 0.023885274305939674, -0.105224609375, 0.89453125, -0.071044921875, 
28, 3535884783, 0.7485859990119934, -0.5538135766983032, 0.2848643958568573, -0.227554589509964, -1.8242326974868774, -9.33326530456543, 2.077672004699707, -0.04584948346018791, 0.6530734300613403, -0.20399178564548492, -0.10546875, 0.892578125, -0.071044921875, 
29, 3535893116, 0.7485694885253906, -0.5537756681442261, 0.284926176071167, -0.22762373089790344, -1.835075855255127, -9.313746452331543, 2.062565565109253, -0.173101007938385, 0.4004657566547394, -0.2944612205028534, -0.10595703125, 0.890380859375, -0.071044921875, 
30, 3535901449, 0.7485507726669312, -0.5537438988685608, 0.28498339653015137, -0.22769083082675934, -1.8358919620513916, -9.357177734375, 2.079023599624634, -0.2457173615694046, 0.3309231102466583, -0.33869707584381104, -0.10546875, 0.89306640625, -0.071044921875, 
31, 3535909782, 0.7485358715057373, -0.5537277460098267, 0.2850109338760376, -0.22774429619312286, -1.8296972513198853, -9.377684593200684, 2.0908403396606445, -0.31912776827812195, 0.12039972096681595, -0.46615341305732727, -0.106689453125, 0.8955078125, -0.073974609375, 
32, 3535918115, 0.7485405206680298, -0.5536966323852539, 0.285020112991333, -0.22779329121112823, -1.823409914970398, -9.376276016235352, 2.100496768951416, 0.04867985472083092, -0.151943638920784, -0.5046260356903076, -0.109130859375, 0.892822265625, -0.072265625, 
33, 3535926448, 0.7485537528991699, -0.553659975528717, 0.2850119173526764, -0.22784900665283203, -1.8176164627075195, -9.381720542907715, 2.129079818725586, 0.22902967035770416, -0.2770947813987732, -0.5923036336898804, -0.106201171875, 0.8935546875, -0.071533203125, 
34, 3535934781, 0.7485801577568054, -0.5536001920700073, 0.2850004732608795, -0.227921724319458, -1.8272367715835571, -9.404156684875488, 2.1091372966766357, 0.6267932057380676, -0.40219470858573914, -0.6747813820838928, -0.107177734375, 0.8935546875, -0.07373046875, 
35, 3535943114, 0.7486323714256287, -0.5535317063331604, 0.2849520444869995, -0.22797736525535583, -1.8332736492156982, -9.420272827148438, 2.114344596862793, 0.9778618812561035, -0.7440679669380188, -0.6511395573616028, -0.105224609375, 0.8935546875, -0.073486328125, 
36, 3535951447, 0.7486866116523743, -0.5534532070159912, 0.28490328788757324, -0.22805047035217285, -1.8545104265213013, -9.384393692016602, 2.096870183944702, 1.151731252670288, -0.8327955603599548, -0.8031086325645447, -0.107177734375, 0.892578125, -0.071533203125, 
37, 3535959780, 0.7487335801124573, -0.5533967018127441, 0.2848402261734009, -0.2281123399734497, -1.8282520771026611, -9.334674835205078, 2.146939992904663, 0.8853944540023804, -0.8636093735694885, -0.890043318271637, -0.106201171875, 0.8935546875, -0.071533203125, 
38, 3535968113, 0.7487645745277405, -0.5533522963523865, 0.2847943603992462, -0.22817566990852356, -1.8711050748825073, -9.339767456054688, 2.1363682746887207, 0.5716456174850464, -0.9147611856460571, -0.8840752840042114, -0.105712890625, 0.89453125, -0.072998046875, 
39, 3535976446, 0.7487831115722656, -0.5533363223075867, 0.2847382724285126, -0.22822338342666626, -1.8703609704971313, -9.372907638549805, 2.143141746520996, 0.17490679025650024, -0.9159137606620789, -0.9386080503463745, -0.109619140625, 0.892333984375, -0.07275390625, 
40, 3535984779, 0.7487883567810059, -0.5533327460289001, 0.28470271825790405, -0.2282591164112091, -1.839925765991211, -9.363364219665527, 2.147340774536133, -0.14026354253292084, -0.8042357563972473, -0.8169915676116943, -0.107177734375, 0.89208984375, -0.072265625, 
41, 3535993112, 0.7487911581993103, -0.5533396601676941, 0.2846561074256897, -0.2282918095588684, -1.8618850708007812, -9.348215103149414, 2.1537067890167236, -0.26920560002326965, -0.9426806569099426, -0.8515452146530151, -0.106201171875, 0.89404296875, -0.073486328125, 
42, 3536001445, 0.748791515827179, -0.5533441305160522, 0.28462183475494385, -0.22832193970680237, -1.8680078983306885, -9.3200044631958, 2.1791133880615234, -0.32760608196258545, -1.073415756225586, -0.7437862157821655, -0.1083984375, 0.888427734375, -0.0693359375, 
43, 3536009778, 0.7487937808036804, -0.5533561110496521, 0.28457513451576233, -0.22834397852420807, -1.8781291246414185, -9.366140365600586, 2.1798789501190186, -0.36610427498817444, -1.0388109683990479, -0.7634322643280029, -0.107177734375, 0.892578125, -0.071533203125, 
44, 3536018111, 0.7488009333610535, -0.5533449053764343, 0.2845456898212433, -0.22838430106639862, -1.8951457738876343, -9.394686698913574, 2.173691749572754, -0.09180141240358353, -0.9265949130058289, -0.7301081418991089, -0.10791015625, 0.888916015625, -0.0712890625, 
45, 3536026444, 0.7488245368003845, -0.5533275604248047, 0.28449416160583496, -0.2284131646156311, -1.9126698970794678, -9.378242492675781, 2.2231814861297607, 0.14007145166397095, -1.0274895429611206, -0.6879470944404602, -0.108154296875, 0.891845703125, -0.0712890625, 
46, 3536034777, 0.7488595247268677, -0.5532940626144409, 0.2844420075416565, -0.22844438254833221, -1.9013477563858032, -9.306456565856934, 2.2256078720092773, 0.4028991460800171, -1.0100717544555664, -0.6191473007202148, -0.106201171875, 0.89404296875, -0.073974609375, 
47, 3536043110, 0.7488906383514404, -0.5532467365264893, 0.28441524505615234, -0.22849056124687195, -1.9191864728927612, -9.297916412353516, 2.2314438819885254, 0.47513124346733093, -0.8467809557914734, -0.5514744520187378, -0.108154296875, 0.892578125, -0.07373046875, 
48, 3536051443, 0.7489291429519653, -0.5531970262527466, 0.2843858003616333, -0.2285212278366089, -1.9190720319747925, -9.334760665893555, 2.21160888671875, 0.547824501991272, -0.7650716304779053, -0.4387975037097931, -0.107666015625, 0.892578125, -0.07275390625, 
49, 3536059776, 0.7489627003669739, -0.5531494617462158, 0.28436383605003357, -0.2285538762807846, -1.9300652742385864, -9.370174407958984, 2.2544896602630615, 0.4486973285675049, -0.6389214396476746, -0.3528873026371002, -0.108642578125, 0.890625, -0.0751953125, 
50, 3536068109, 0.7489855289459229, -0.5531067252159119, 0.2843583822250366, -0.22858913242816925, -1.9188860654830933, -9.341706275939941, 2.2497265338897705, 0.299776166677475, -0.4438946545124054, -0.38167768716812134, -0.10693359375, 0.890380859375, -0.072265625, 
51, 3536076442, 0.7489983439445496, -0.5530708432197571, 0.2843739986419678, -0.2286147177219391, -1.9258099794387817, -9.359916687011719, 2.2332892417907715, 0.02442317269742489, -0.2604711353778839, -0.10570994764566422, -0.106201171875, 0.892578125, -0.073486328125, 
52, 3536084775, 0.7489984035491943, -0.5530312061309814, 0.28441566228866577, -0.2286585569381714, -1.9083999395370483, -9.387985229492188, 2.251457452774048, -0.0647783949971199, -0.06454786658287048, -0.13716422021389008, -0.104736328125, 0.8935546875, -0.073974609375, 
53, 3536093108, 0.7490091323852539, -0.5529904961585999, 0.28444093465805054, -0.22869053483009338, -1.9083216190338135, -9.4308443069458, 2.238496780395508, 0.052214615046978, -0.09139158576726913, -0.08567962050437927, -0.108154296875, 0.89404296875, -0.071533203125, 
54, 3536101441, 0.7490203380584717, -0.5529472231864929, 0.28447532653808594, -0.22871553897857666, -1.8900530338287354, -9.42638874053955, 2.2594754695892334, 0.028418997302651405, -0.04231471195816994, 0.06663542985916138, -0.106201171875, 0.89404296875, -0.074951171875, 
55, 3536109774, 0.7490373849868774, -0.5528796911239624, 0.2845366895198822, -0.22874678671360016, -1.906296968460083, -9.413878440856934, 2.233790159225464, 0.23540762066841125, 0.05185601860284805, 0.3068969249725342, -0.107666015625, 0.8916015625, -0.07373046875, 
56, 3536118107, 0.7490555047988892, -0.5528122782707214, 0.2846032381057739, -0.2287670075893402, -1.9186712503433228, -9.394886016845703, 2.2148993015289307, 0.19168414175510406, 0.05282936245203018, 0.45402514934539795, -0.107666015625, 0.892578125, -0.07421875, 
57, 3536126440, 0.7490704655647278, -0.5527560114860535, 0.28466659784317017, -0.22877569496631622, -1.915410041809082, -9.388221740722656, 2.22483491897583, 0.03456640616059303, 0.15987125039100647, 0.5172666907310486, -0.107177734375, 0.89404296875, -0.073974609375, 
58, 3536134773, 0.7490866184234619, -0.5526914596557617, 0.28474217653274536, -0.2287847250699997, -1.909938097000122, -9.414437294006348, 2.2139837741851807, 0.07250110059976578, 0.04030400142073631, 0.6228998303413391, -0.1044921875, 0.8916015625, -0.074951171875, 
59, 3536143106, 0.7491033673286438, -0.5526303648948669, 0.2848304808139801, -0.2287673056125641, -1.894931435585022, -9.399129867553711, 2.2235615253448486, -0.08342555910348892, 0.22411173582077026, 1.0012731552124023, -0.108642578125, 0.89208984375, -0.07470703125, 
60, 3536151439, 0.7491256594657898, -0.5525649189949036, 0.28492212295532227, -0.22873803973197937, -1.9171407222747803, -9.38979434967041, 2.210092544555664, -0.028585486114025116, 0.1375100165605545, 1.105164647102356, -0.107666015625, 0.89306640625, -0.07373046875, 
61, 3536159772, 0.7491424083709717, -0.5525050759315491, 0.28501278162002563, -0.228715181350708, -1.9299583435058594, -9.365065574645996, 2.204470157623291, -0.12527921795845032, 0.2040558010339737, 1.0694071054458618, -0.10791015625, 0.890625, -0.0751953125, 
62, 3536168105, 0.7491515874862671, -0.5524566173553467, 0.28510791063308716, -0.22868385910987854, -1.9557019472122192, -9.373894691467285, 2.1722826957702637, -0.3212793469429016, 0.156669482588768, 1.0426403284072876, -0.105224609375, 0.89404296875, -0.074951171875, 
63, 3536176438, 0.7491662502288818, -0.5524039268493652, 0.2851983904838562, -0.22865024209022522, -1.9342288970947266, -9.38619613647461, 2.1844282150268555, -0.2555532157421112, 0.1057995930314064, 1.1444056034088135, -0.10400390625, 0.892578125, -0.074462890625, 
64, 3536184771, 0.749176025390625, -0.5523486733436584, 0.28529292345046997, -0.22863350808620453, -1.9047231674194336, -9.358084678649902, 2.1477270126342773, -0.23380674421787262, 0.036769237369298935, 0.9738404750823975, -0.107666015625, 0.89111328125, -0.0751953125, 
65, 3536193104, 0.7491936683654785, -0.5522981882095337, 0.2853602170944214, -0.22861383855342865, -1.9269472360610962, -9.323680877685547, 2.136089324951172, -0.1288139671087265, -0.04500420764088631, 0.8242532014846802, -0.10595703125, 0.89111328125, -0.072021484375, 
66, 3536201437, 0.7492119669914246, -0.5522395968437195, 0.28543180227279663, -0.2286057025194168, -1.9523613452911377, -9.294082641601562, 2.1479058265686035, -0.02925145998597145, -0.17881298065185547, 0.7540702223777771, -0.10546875, 0.887939453125, -0.068603515625, 
67, 3536209770, 0.7492409944534302, -0.552191436290741, 0.28547146916389465, -0.22857731580734253, -1.9325052499771118, -9.365776062011719, 2.1407809257507324, -0.014318356290459633, -0.44896626472473145, 0.7334251999855042, -0.108642578125, 0.8935546875, -0.07373046875, 
68, 3536218103, 0.7492689490318298, -0.5521453022956848, 0.28550538420677185, -0.22855515778064728, -1.8895595073699951, -9.362505912780762, 2.131568431854248, -0.017187150195240974, -0.7207332849502563, 0.5846320986747742, -0.10595703125, 0.887451171875, -0.06884765625, 
69, 3536226436, 0.7493080496788025, -0.5521004796028137, 0.2855117917060852, -0.2285272479057312, -1.896483063697815, -9.306392669677734, 2.1167125701904297, 0.13679282367229462, -0.8370220065116882, 0.49398329854011536, -0.1044921875, 0.892578125, -0.073486328125, 
70, 3536234769, 0.7493484616279602, -0.5520495772361755, 0.2855253219604492, -0.2285001575946808, -1.9125347137451172, -9.275348663330078, 2.1246447563171387, 0.16599306464195251, -1.0261574983596802, 0.5441103577613831, -0.103515625, 0.89306640625, -0.074462890625, 
71, 3536243102, 0.7493929862976074, -0.5520142316818237, 0.2855086028575897, -0.22846080362796783, -1.9045088291168213, -9.312164306640625, 2.1256747245788574, 0.1065424233675003, -1.2132694721221924, 0.4147072732448578, -0.103515625, 0.892578125, -0.074951171875, 
72, 3536251435, 0.7494334578514099, -0.5519891977310181, 0.2854982018470764, -0.22840160131454468, -1.877013087272644, -9.316020011901855, 2.120774984359741, -0.12761011719703674, -1.314958095550537, 0.6152411103248596, -0.10498046875, 0.892578125, -0.073974609375, 
73, 3536259768, 0.7494720220565796, -0.5519670844078064, 0.28548985719680786, -0.2283388376235962, -1.9002141952514648, -9.350837707519531, 2.117194652557373, -0.21006233990192413, -1.5864688158035278, 0.6209786534309387, -0.105224609375, 0.89306640625, -0.075439453125, 
74, 3536268101, 0.7495118379592896, -0.5519443154335022, 0.28548285365104675, -0.2282719612121582, -1.8916208744049072, -9.358625411987305, 2.131441831588745, -0.21287989616394043, -1.5945885181427002, 0.6768432855606079, -0.106689453125, 0.8916015625, -0.0751953125, 
75, 3536276434, 0.7495555877685547, -0.5519289970397949, 0.2854618728160858, -0.22819148004055023, -1.8758894205093384, -9.357510566711426, 2.153406858444214, -0.2536577880382538, -1.6300644874572754, 0.7258177995681763, -0.105712890625, 0.892578125, -0.07470703125, 
76, 3536284767, 0.7495939135551453, -0.5519064664840698, 0.28545424342155457, -0.22812962532043457, -1.869199514389038, -9.342439651489258, 2.1355276107788086, -0.20265983045101166, -1.5567305088043213, 0.613755464553833, -0.1044921875, 0.89111328125, -0.073974609375, 
77, 3536293100, 0.7496351003646851, -0.5518902540206909, 0.28543609380722046, -0.22805631160736084, -1.8566619157791138, -9.322211265563965, 2.120039224624634, -0.2460247278213501, -1.5340365171432495, 0.6689797639846802, -0.10400390625, 0.8916015625, -0.074951171875, 
78, 3536301433, 0.7496635913848877, -0.551871120929718, 0.2854453921318054, -0.22799745202064514, -1.8493818044662476, -9.316849708557129, 2.086498498916626, -0.3561147153377533, -1.3425958156585693, 0.6678783893585205, -0.10498046875, 0.892578125, -0.074951171875, 
79, 3536309766, 0.7496902942657471, -0.5518576502799988, 0.2854481041431427, -0.22793877124786377, -1.8472646474838257, -9.369359016418457, 2.0923280715942383, -0.3921283483505249, -1.1596332788467407, 0.6215678453445435, -0.10498046875, 0.8916015625, -0.074462890625, 
80, 3536318099, 0.749701201915741, -0.5518454313278198, 0.28547608852386475, -0.2278972715139389, -1.8558266162872314, -9.393027305603027, 2.1413395404815674, -0.5471200346946716, -0.954616904258728, 0.5458264946937561, -0.1044921875, 0.89111328125, -0.073486328125, 
81, 3536326432, 0.7496983408927917, -0.5518633127212524, 0.2854906916618347, -0.22784489393234253, -1.8514633178710938, -9.374308586120605, 2.1606807708740234, -0.9516969323158264, -0.9713173508644104, 0.4286157786846161, -0.106201171875, 0.88134765625, -0.06787109375, 
82, 3536334765, 0.7496832013130188, -0.5518862009048462, 0.2855377197265625, -0.22778016328811646, -1.8143329620361328, -9.256279945373535, 2.1632986068725586, -1.218264102935791, -0.7230385541915894, 0.6568129062652588, -0.105224609375, 0.892578125, -0.074951171875, 
83, 3536343098, 0.7496441602706909, -0.5519280433654785, 0.2856036126613617, -0.22772492468357086, -1.8857274055480957, -9.258699417114258, 2.134749412536621, -1.6438703536987305, -0.3973023593425751, 0.6422896981239319, -0.10498046875, 0.89208984375, -0.073974609375, 
84, 3536351431, 0.7495740652084351, -0.5520029664039612, 0.28568771481513977, -0.22766894102096558, -1.929587721824646, -9.321809768676758, 2.122899055480957, -2.29634165763855, -0.45903274416923523, 0.5269232988357544, -0.10400390625, 0.890625, -0.074462890625, 
85, 3536359764, 0.7495073676109314, -0.5520885586738586, 0.2857655882835388, -0.2275834083557129, -1.948014497756958, -9.36117172241211, 2.1157889366149902, -2.462808609008789, -0.5317258834838867, 0.7864722609519958, -0.10498046875, 0.890625, -0.072998046875, 
86, 3536368097, 0.7494435906410217, -0.5521621108055115, 0.2858589291572571, -0.2274971604347229, -1.9423174858093262, -9.34465217590332, 2.1370198726654053, -2.384992837905884, -0.6372821927070618, 0.9383391737937927, -0.10400390625, 0.88916015625, -0.0732421875, 
87, 3536376430, 0.7494112849235535, -0.5522187948226929, 0.28590521216392517, -0.2274082601070404, -1.9452039003372192, -9.310503959655762, 2.1417107582092285, -1.818457007408142, -0.9276963472366333, 0.8030190467834473, -0.10400390625, 0.890625, -0.071044921875, 
88, 3536384763, 0.7493973970413208, -0.5522386431694031, 0.285957396030426, -0.2273399531841278, -1.9742200374603271, -9.371171951293945, 2.171283721923828, -1.2544058561325073, -0.9588432908058167, 0.8076295852661133, -0.10595703125, 0.89208984375, -0.07421875, 
89, 3536393096, 0.7494057416915894, -0.5522404909133911, 0.28598082065582275, -0.22727826237678528, -1.9313534498214722, -9.416367530822754, 2.1691067218780518, -0.7655325531959534, -0.9447298049926758, 0.6905212998390198, -0.108642578125, 0.8916015625, -0.07373046875, 
90, 3536401429, 0.7494292259216309, -0.5522194504737854, 0.28599515557289124, -0.22723373770713806, -1.9385849237442017, -9.427132606506348, 2.1521687507629395, -0.2893896698951721, -0.924468994140625, 0.4909096658229828, -0.1025390625, 0.89111328125, -0.072021484375, 
91, 3536409762, 0.74946129322052, -0.5521839261054993, 0.28600308299064636, -0.22720485925674438, -1.9435919523239136, -9.37990951538086, 2.1568753719329834, -0.02156718634068966, -0.8311051726341248, 0.455741286277771, -0.105712890625, 0.89306640625, -0.072998046875, 
92, 3536418095, 0.7494815587997437, -0.5521498918533325, 0.28601646423339844, -0.22720369696617126, -1.9354662895202637, -9.37149715423584, 2.152261734008789, -0.050383199006319046, -0.7936570644378662, 0.133847177028656, -0.10302734375, 0.89111328125, -0.071044921875, 
93, 3536426428, 0.7494983077049255, -0.5521314144134521, 0.2860204577445984, -0.22718825936317444, -1.9101810455322266, -9.386218070983887, 2.129079580307007, -0.2483299970626831, -0.7631760239601135, 0.17185869812965393, -0.10302734375, 0.890625, -0.073486328125, 
94, 3536434761, 0.7495061755180359, -0.5521125793457031, 0.2860482335090637, -0.22717294096946716, -1.8609622716903687, -9.407025337219238, 2.1423838138580322, -0.39666202664375305, -0.7203747034072876, 0.2835111618041992, -0.104248046875, 0.886474609375, -0.067626953125, 
95, 3536443094, 0.7495147585868835, -0.5520994663238525, 0.28607434034347534, -0.22714391350746155, -1.8509125709533691, -9.403327941894531, 2.1748290061950684, -0.4892062842845917, -0.622477114200592, 0.4346863627433777, -0.10205078125, 0.89111328125, -0.072998046875, 
96, 3536451427, 0.7495150566101074, -0.5520824193954468, 0.28613710403442383, -0.22710546851158142, -1.8598178625106812, -9.386153221130371, 2.1694858074188232, -0.6830804347991943, -0.5768325924873352, 0.7696949243545532, -0.1044921875, 0.892578125, -0.072509765625, 
97, 3536459760, 0.7495171427726746, -0.5520766377449036, 0.28618621826171875, -0.22705090045928955, -1.8670707941055298, -9.398299217224121, 2.1845569610595703, -0.7878938317298889, -0.5772168040275574, 0.8226907849311829, -0.10205078125, 0.892333984375, -0.074462890625, 
98, 3536468093, 0.7495032548904419, -0.5520818829536438, 0.2862558960914612, -0.22699594497680664, -1.8502120971679688, -9.38771915435791, 2.1817963123321533, -1.1019243001937866, -0.6137683391571045, 0.8530179858207703, -0.10400390625, 0.8896484375, -0.073486328125, 
99, 3536476426, 0.7494965195655823, -0.5520889759063721, 0.2863190770149231, -0.22692136466503143, -1.8640304803848267, -9.309768676757812, 2.2107574939727783, -1.108455777168274, -0.5900750756263733, 1.0584185123443604, -0.101806640625, 0.88720703125, -0.070556640625, 
100, 3536484759, 0.7494514584541321, -0.5521227121353149, 0.2864110469818115, -0.2268718183040619, -1.8744038343429565, -9.26378059387207, 2.185622453689575, -1.6835980415344238, -0.32496777176856995, 0.7603457570075989, -0.103515625, 0.89111328125, -0.074951171875, 
101, 3536493092, 0.7494057416915894, -0.5521809458732605, 0.28646713495254517, -0.2268105149269104, -1.8764156103134155, -9.301029205322266, 2.1286561489105225, -1.8576467037200928, -0.5679444074630737, 0.5456728339195251, -0.10107421875, 0.89013671875, -0.073974609375, 
102, 3536501425, 0.7493522763252258, -0.5522441267967224, 0.28652167320251465, -0.2267644703388214, -1.8920930624008179, -9.331884384155273, 2.112283706665039, -1.914920449256897, -0.722782552242279, 0.29352638125419617, -0.103515625, 0.89208984375, -0.073486328125, 
103, 3536509758, 0.7493048906326294, -0.5523292422294617, 0.28652313351631165, -0.22671163082122803, -1.8670241832733154, -9.332318305969238, 2.099945545196533, -1.943992257118225, -1.1438292264938354, -0.07079774886369705, -0.102783203125, 0.886474609375, -0.069580078125, 
104, 3536518091, 0.7492513656616211, -0.5524228811264038, 0.28650179505348206, -0.2266872525215149, -1.844622015953064, -9.311327934265137, 2.077883243560791, -1.910437822341919, -1.4442074298858643, -0.6243982315063477, -0.103515625, 0.892578125, -0.072021484375, 
105, 3536526424, 0.7492185831069946, -0.5525166392326355, 0.28643035888671875, -0.22665762901306152, -1.8170560598373413, -9.338462829589844, 2.0744376182556152, -1.6009410619735718, -1.8047279119491577, -0.8500853180885315, -0.103515625, 0.8896484375, -0.071044921875, 
106, 3536534757, 0.7491999268531799, -0.5526045560836792, 0.2863307595252991, -0.22663024067878723, -1.7802225351333618, -9.351729393005371, 2.0522384643554688, -1.3560689687728882, -2.39844012260437, -1.056254267692566, -0.103515625, 0.89111328125, -0.070556640625, 
107, 3536543090, 0.7492112517356873, -0.5526880025863647, 0.28616631031036377, -0.22659756243228912, -1.7416536808013916, -9.36168098449707, 2.041811227798462, -0.8836910724639893, -2.926349639892578, -1.348128318786621, -0.102294921875, 0.885498046875, -0.067626953125, 
108, 3536551423, 0.7492482662200928, -0.5527666211128235, 0.2859399914741516, -0.22656938433647156, -1.7067331075668335, -9.339454650878906, 2.0758767127990723, -0.42806509137153625, -3.614809036254883, -1.7663320302963257, -0.103515625, 0.888671875, -0.071044921875, 
109, 3536559756, 0.7493026852607727, -0.55281662940979, 0.2857096195220947, -0.22655746340751648, -1.7240930795669556, -9.315850257873535, 2.1106386184692383, 0.06151258945465088, -3.8024585247039795, -1.8300092220306396, -0.10205078125, 0.89111328125, -0.071044921875, 
110, 3536568089, 0.7493643164634705, -0.552866518497467, 0.28545647859573364, -0.2265510857105255, -1.742363691329956, -9.31999683380127, 2.118347644805908, 0.20776988565921783, -4.029503345489502, -2.036510944366455, -0.1044921875, 0.89208984375, -0.071533203125, 
111, 3536576422, 0.7494438886642456, -0.552912175655365, 0.2851696014404297, -0.226537823677063, -1.7684791088104248, -9.352398872375488, 2.154355049133301, 0.4818422198295593, -4.191206455230713, -2.118783950805664, -0.10400390625, 0.89111328125, -0.072509765625, 
112, 3536584755, 0.749518096446991, -0.5529525876045227, 0.28489166498184204, -0.22654353082180023, -1.7481145858764648, -9.333083152770996, 2.1717190742492676, 0.5358369946479797, -4.163696765899658, -2.2840983867645264, -0.103515625, 0.8896484375, -0.072021484375, 
113, 3536593088, 0.7495929598808289, -0.552990198135376, 0.28460896015167236, -0.2265591323375702, -1.7449824810028076, -9.285484313964844, 2.174610137939453, 0.6301230192184448, -3.884937047958374, -2.3648855686187744, -0.10302734375, 0.892578125, -0.070556640625, 
114, 3536601421, 0.74965500831604, -0.5530251264572144, 0.2843409776687622, -0.2266048789024353, -1.753322958946228, -9.296143531799316, 2.195796489715576, 0.6148569583892822, -3.7416505813598633, -2.6264069080352783, -0.10546875, 0.888671875, -0.072265625, 
115, 3536609754, 0.7497105598449707, -0.5530648231506348, 0.2840670943260193, -0.22666847705841064, -1.7990798950195312, -9.293320655822754, 2.235095977783203, 0.6218495965003967, -3.3594350814819336, -2.861801862716675, -0.1044921875, 0.890625, -0.072509765625, 
116, 3536618087, 0.7497531175613403, -0.5530978441238403, 0.2838171422481537, -0.22675934433937073, -1.7883479595184326, -9.329889297485352, 2.2589035034179688, 0.6086582541465759, -3.122605800628662, -3.010313034057617, -0.10498046875, 0.8896484375, -0.072021484375, 
117, 3536626420, 0.749774158000946, -0.5531543493270874, 0.28357836604118347, -0.226851224899292, -1.7985321283340454, -9.304814338684082, 2.2215728759765625, 0.187637060880661, -2.7004315853118896, -3.0592100620269775, -0.10302734375, 0.89013671875, -0.072998046875, 
118, 3536634753, 0.7497717142105103, -0.5532134175300598, 0.28338372707366943, -0.22695815563201904, -1.8134585618972778, -9.308765411376953, 2.208833932876587, -0.1103973388671875, -2.324517250061035, -2.999067783355713, -0.10546875, 0.89111328125, -0.07373046875, 
119, 3536643086, 0.7497389912605286, -0.5533084273338318, 0.28320127725601196, -0.22706234455108643, -1.8147562742233276, -9.24634838104248, 2.2439091205596924, -0.7480892539024353, -1.9364869594573975, -3.0759873390197754, -0.107421875, 0.888916015625, -0.072265625, 
120, 3536651419, 0.7496649622917175, -0.553432047367096, 0.28306570649147034, -0.2271745204925537, -1.827565312385559, -9.216836929321289, 2.2651336193084717, -1.4811431169509888, -1.5884922742843628, -3.0805983543395996, -0.1044921875, 0.88916015625, -0.07275390625, 
121, 3536659752, 0.7495487332344055, -0.5536056756973267, 0.2829486131668091, -0.22728070616722107, -1.8358209133148193, -9.283000946044922, 2.2571840286254883, -2.390397310256958, -1.1677273511886597, -3.167046308517456, -0.107421875, 0.890380859375, -0.07080078125, 
122, 3536668085, 0.7494083642959595, -0.5537893772125244, 0.2828671336174011, -0.22739768028259277, -1.8381229639053345, -9.377793312072754, 2.212712287902832, -2.7584738731384277, -0.9408108592033386, -3.156442165374756, -0.1083984375, 0.890380859375, -0.072265625, 
123, 3536676418, 0.7492637038230896, -0.5539799332618713, 0.2827858328819275, -0.22751127183437347, -1.8338433504104614, -9.44767951965332, 2.2086939811706543, -2.8638763427734375, -0.6850526928901672, -3.1248342990875244, -0.10595703125, 0.890380859375, -0.069580078125, 
124, 3536684751, 0.7491116523742676, -0.5541693568229675, 0.282715380191803, -0.22763794660568237, -1.8352482318878174, -9.446934700012207, 2.1756606101989746, -2.909316062927246, -0.7508301138877869, -3.2269327640533447, -0.10888671875, 0.888427734375, -0.07177734375, 
125, 3536693084, 0.7489742040634155, -0.5543531179428101, 0.28262609243392944, -0.22775423526763916, -1.835990309715271, -9.477922439575195, 2.1810102462768555, -2.7005603313446045, -0.7527511715888977, -3.1641781330108643, -0.1083984375, 0.88623046875, -0.06689453125, 
126, 3536701417, 0.7488468289375305, -0.5545250177383423, 0.28253883123397827, -0.2278631180524826, -1.8144564628601074, -9.512207984924316, 2.195169687271118, -2.540137767791748, -0.7920945882797241, -2.995584726333618, -0.1103515625, 0.888916015625, -0.068359375, 
127, 3536709750, 0.7487344145774841, -0.5546706914901733, 0.28245991468429565, -0.22797545790672302, -1.792261004447937, -9.558244705200195, 2.1885199546813965, -2.1804373264312744, -0.9485206604003906, -2.853861093521118, -0.109375, 0.889404296875, -0.0703125, 
128, 3536718083, 0.748629629611969, -0.5548104643821716, 0.2823829650878906, -0.22807440161705017, -1.7665226459503174, -9.578886985778809, 2.191615104675293, -2.117733955383301, -1.0196771621704102, -2.658040761947632, -0.10986328125, 0.888916015625, -0.06982421875, 
129, 3536726416, 0.7485302090644836, -0.5549503564834595, 0.2823115885257721, -0.22814887762069702, -1.7666682004928589, -9.51483154296875, 2.1751184463500977, -2.17966890335083, -0.8988292217254639, -2.308662176132202, -0.112548828125, 0.890625, -0.06884765625, 
130, 3536734749, 0.7484356164932251, -0.5550794005393982, 0.282254695892334, -0.22821559011936188, -1.767203450202942, -9.493292808532715, 2.182715654373169, -2.1148905754089355, -1.0564335584640503, -2.1025705337524414, -0.1103515625, 0.88818359375, -0.06884765625, 
131, 3536743082, 0.7483373880386353, -0.5552299618721008, 0.2821851074695587, -0.2282576560974121, -1.7643109560012817, -9.463165283203125, 2.1905221939086914, -2.411375045776367, -1.165012240409851, -1.9992166757583618, -0.109375, 0.889892578125, -0.0693359375, 
132, 3536751415, 0.748231053352356, -0.5553819537162781, 0.2821366488933563, -0.22829657793045044, -1.788967251777649, -9.460678100585938, 2.1932430267333984, -2.575434684753418, -1.2128340005874634, -1.877984642982483, -0.1123046875, 0.88916015625, -0.06787109375, 
133, 3536759748, 0.7481359243392944, -0.555535078048706, 0.2820693850517273, -0.22831903398036957, -1.775909662246704, -9.448461532592773, 2.1893844604492188, -2.49772047996521, -1.311346173286438, -1.7792669534683228, -0.11083984375, 0.88818359375, -0.0654296875, 
134, 3536768081, 0.7480473518371582, -0.5556701421737671, 0.28201305866241455, -0.2283497005701065, -1.762842059135437, -9.447047233581543, 2.208406448364258, -2.280179023742676, -1.4133678674697876, -1.7219680547714233, -0.11083984375, 0.889404296875, -0.06884765625, 
135, 3536776414, 0.7479771375656128, -0.5558030605316162, 0.2819179892539978, -0.22837409377098083, -1.7851088047027588, -9.410083770751953, 2.174522638320923, -2.0049288272857666, -1.61469566822052, -1.8544962406158447, -0.109375, 0.889892578125, -0.06591796875, 
136, 3536784747, 0.7479137778282166, -0.5559144020080566, 0.28182923793792725, -0.22841954231262207, -1.7861013412475586, -9.412303924560547, 2.1603288650512695, -1.6830089092254639, -1.6574715375900269, -1.9519330263137817, -0.11181640625, 0.88916015625, -0.06884765625, 
137, 3536793080, 0.7478640079498291, -0.5560215711593628, 0.2817234992980957, -0.22845257818698883, -1.7883602380752563, -9.407685279846191, 2.1705360412597656, -1.516977310180664, -1.6576507091522217, -1.8607717752456665, -0.111328125, 0.888671875, -0.06689453125, 
138, 3536801413, 0.747821033000946, -0.5561042428016663, 0.2816276252269745, -0.2285098433494568, -1.7942899465560913, -9.414789199829102, 2.161594867706299, -1.1632962226867676, -1.6163864135742188, -1.956620454788208, -0.1142578125, 0.888671875, -0.06640625, 
139, 3536809746, 0.7477898597717285, -0.5561886429786682, 0.2814924418926239, -0.22857317328453064, -1.7770588397979736, -9.406484603881836, 2.1643660068511963, -0.9293869733810425, -1.7281925678253174, -2.252439022064209, -0.11279296875, 0.8876953125, -0.06640625, 
140, 3536818079, 0.7477564215660095, -0.556269645690918, 0.28136390447616577, -0.22864334285259247, -1.7469314336776733, -9.408060073852539, 2.1458747386932373, -0.9165542125701904, -1.859183669090271, -2.308175563812256, -0.113037109375, 0.89013671875, -0.06884765625, 
141, 3536826412, 0.7477290630340576, -0.5563555359840393, 0.2812148928642273, -0.2287076860666275, -1.7399652004241943, -9.426212310791016, 2.1386072635650635, -0.8685786724090576, -1.8835171461105347, -2.3610689640045166, -0.11279296875, 0.88916015625, -0.06787109375, 
142, 3536834745, 0.7476977109909058, -0.5564354062080383, 0.2810768187046051, -0.22878515720367432, -1.7200627326965332, -9.433444023132324, 2.097151041030884, -0.8304134011268616, -1.8996028900146484, -2.4497454166412354, -0.11376953125, 0.88916015625, -0.0654296875, 
143, 3536843078, 0.7476760149002075, -0.5565135478973389, 0.28091323375701904, -0.22886674106121063, -1.7212339639663696, -9.45118522644043, 2.0818941593170166, -0.6314677000045776, -1.898988127708435, -2.6000752449035645, -0.114013671875, 0.890625, -0.06396484375, 
144, 3536851411, 0.7476601600646973, -0.5565779805183411, 0.28074678778648376, -0.22896629571914673, -1.7208306789398193, -9.460546493530273, 2.078483819961548, -0.38621145486831665, -2.091376781463623, -2.7703590393066406, -0.1142578125, 0.88671875, -0.06689453125, 
145, 3536859744, 0.7476521730422974, -0.5566529035568237, 0.2805449366569519, -0.2290574312210083, -1.7030975818634033, -9.448464393615723, 2.068669557571411, -0.33808228373527527, -2.2611989974975586, -2.937901496887207, -0.11572265625, 0.888427734375, -0.064453125, 
146, 3536868077, 0.7476402521133423, -0.5567289590835571, 0.28034812211990356, -0.22915247082710266, -1.691532015800476, -9.450470924377441, 2.100135326385498, -0.3928454518318176, -2.4692888259887695, -2.99448299407959, -0.11669921875, 0.887939453125, -0.0634765625, 
147, 3536876410, 0.7476174235343933, -0.5568208694458008, 0.28015393018722534, -0.22924122214317322, -1.6362980604171753, -9.445993423461914, 2.1097142696380615, -0.6580295562744141, -2.197829246520996, -2.9665889739990234, -0.11328125, 0.8876953125, -0.06494140625, 
148, 3536884743, 0.7475814819335938, -0.5569133758544922, 0.27999019622802734, -0.22933393716812134, -1.63916015625, -9.440021514892578, 2.1316397190093994, -0.8610224723815918, -2.111253261566162, -2.855321168899536, -0.1142578125, 0.88720703125, -0.0673828125, 
149, 3536893076, 0.7475419044494629, -0.557016134262085, 0.27982673048973083, -0.2294125258922577, -1.6762168407440186, -9.40804672241211, 2.137662887573242, -1.0339698791503906, -1.9297764301300049, -2.7207698822021484, -0.11669921875, 0.887451171875, -0.06640625, 
150, 3536901409, 0.7474797964096069, -0.557120144367218, 0.27971315383911133, -0.22950106859207153, -1.6383944749832153, -9.409988403320312, 2.157414674758911, -1.3465917110443115, -1.529835820198059, -2.5624992847442627, -0.117919921875, 0.888916015625, -0.067138671875, 
151, 3536909742, 0.7474042177200317, -0.5572418570518494, 0.279613733291626, -0.22957302629947662, -1.657639980316162, -9.405427932739258, 2.1873035430908203, -1.7329823970794678, -1.2440322637557983, -2.3495681285858154, -0.116943359375, 0.887939453125, -0.0654296875, 
152, 3536918075, 0.747301459312439, -0.5573700070381165, 0.2795634865760803, -0.22965726256370544, -1.6916736364364624, -9.402731895446777, 2.1698157787323, -2.1279537677764893, -0.8640962243080139, -2.2457282543182373, -0.117919921875, 0.887939453125, -0.066650390625, 
153, 3536926408, 0.7471978664398193, -0.5575048327445984, 0.2795155644416809, -0.2297261655330658, -1.708926796913147, -9.451202392578125, 2.184713363647461, -2.255615234375, -0.6704269647598267, -2.061894655227661, -0.118408203125, 0.886962890625, -0.064208984375, 
154, 3536934741, 0.7470718622207642, -0.5576446652412415, 0.2795025706291199, -0.2298119068145752, -1.7374882698059082, -9.432518005371094, 2.1836423873901367, -2.5380120277404785, -0.41279903054237366, -2.0948855876922607, -0.117431640625, 0.888916015625, -0.067138671875, 
155, 3536943074, 0.7469499707221985, -0.5577784180641174, 0.2794906198978424, -0.22989815473556519, -1.7530416250228882, -9.361457824707031, 2.1846513748168945, -2.433710813522339, -0.09469582885503769, -2.020399570465088, -0.118408203125, 0.887939453125, -0.06396484375, 
156, 3536951407, 0.7468122839927673, -0.5579118132591248, 0.27949970960617065, -0.23001056909561157, -1.7445465326309204, -9.37352180480957, 2.215265989303589, -2.5262551307678223, 0.09570759534835815, -2.216681480407715, -0.115234375, 0.887939453125, -0.0634765625, 
157, 3536959740, 0.7466819882392883, -0.5580478310585022, 0.2794879972934723, -0.23011815547943115, -1.7631521224975586, -9.37407112121582, 2.1631808280944824, -2.4387826919555664, 0.09657847881317139, -2.2705483436584473, -0.118408203125, 0.887939453125, -0.06298828125, 
158, 3536968073, 0.7465593814849854, -0.5581678152084351, 0.2794770896434784, -0.23023805022239685, -1.7795556783676147, -9.402791023254395, 2.1579082012176514, -2.1714980602264404, 0.2208075374364853, -2.3050248622894287, -0.118408203125, 0.888427734375, -0.0634765625, 
159, 3536976406, 0.7464373707771301, -0.558279275894165, 0.2794751524925232, -0.23036620020866394, -1.7862107753753662, -9.407377243041992, 2.184929370880127, -2.083538770675659, 0.12027164548635483, -2.331254005432129, -0.11865234375, 0.885986328125, -0.062255859375, 
160, 3536984739, 0.7463256120681763, -0.5583856701850891, 0.27945971488952637, -0.23048856854438782, -1.7836687564849854, -9.432760238647461, 2.180640697479248, -1.932491660118103, -0.0822473093867302, -2.3253371715545654, -0.119873046875, 0.888916015625, -0.0615234375, 
161, 3536993072, 0.7462201714515686, -0.5584943294525146, 0.27942919731140137, -0.23060394823551178, -1.7596029043197632, -9.417407989501953, 2.178274631500244, -1.8772674798965454, -0.04572141170501709, -2.3120176792144775, -0.1181640625, 0.887451171875, -0.06201171875, 
162, 3537001405, 0.7461273074150085, -0.5585758686065674, 0.27940812706947327, -0.23073172569274902, -1.776557207107544, -9.397518157958984, 2.205045223236084, -1.499585509300232, -0.1288139820098877, -2.261122465133667, -0.12060546875, 0.8857421875, -0.060791015625, 
163, 3537009738, 0.7460473775863647, -0.5586574673652649, 0.2793739140033722, -0.23083415627479553, -1.7534021139144897, -9.4558744430542, 2.2095510959625244, -1.4427218437194824, -0.19541101157665253, -2.022730588912964, -0.120361328125, 0.88623046875, -0.063232421875, 
164, 3537018071, 0.7459744215011597, -0.5587232112884521, 0.27935636043548584, -0.23093214631080627, -1.7300728559494019, -9.509604454040527, 2.2172486782073975, -1.3049427270889282, -0.3163614273071289, -1.8128474950790405, -0.119873046875, 0.887451171875, -0.065185546875, 
165, 3537026404, 0.745919942855835, -0.5587760210037231, 0.27931785583496094, -0.23102672398090363, -1.7261056900024414, -9.498446464538574, 2.2228174209594727, -0.9696012735366821, -0.30708906054496765, -1.7833656072616577, -0.119873046875, 0.888427734375, -0.063720703125, 
166, 3537034737, 0.7458730936050415, -0.5588027238845825, 0.2793034017086029, -0.23113104701042175, -1.7174426317214966, -9.475284576416016, 2.1683106422424316, -0.6863077878952026, -0.19190183281898499, -1.6254537105560303, -0.122314453125, 0.8876953125, -0.062744140625, 
167, 3537043070, 0.7458314299583435, -0.558829665184021, 0.2792857587337494, -0.23122131824493408, -1.6963328123092651, -9.509069442749023, 2.188025951385498, -0.687076210975647, -0.09251861274242401, -1.4400066137313843, -0.118408203125, 0.888916015625, -0.06298828125, 
168, 3537051403, 0.7457853555679321, -0.5588439106941223, 0.2792946398258209, -0.23132498562335968, -1.6790368556976318, -9.506657600402832, 2.1830334663391113, -0.6337729692459106, 0.049909334629774094, -1.3820160627365112, -0.119384765625, 0.886962890625, -0.062744140625, 
169, 3537059736, 0.7457343339920044, -0.558871328830719, 0.27929937839508057, -0.23141750693321228, -1.6748167276382446, -9.464484214782715, 2.1811306476593018, -0.8272116184234619, 0.1891995221376419, -1.3229238986968994, -0.119140625, 0.886962890625, -0.062255859375, 
170, 3537068069, 0.7456766366958618, -0.5588954091072083, 0.2793298065662384, -0.23150858283042908, -1.6946372985839844, -9.50474739074707, 2.1951074600219727, -0.9437052607536316, 0.17306257784366608, -1.1603760719299316, -0.119384765625, 0.887939453125, -0.062255859375, 
171, 3537076402, 0.7456108927726746, -0.5589371919631958, 0.2793629765510559, -0.2315794825553894, -1.69267737865448, -9.48004150390625, 2.1718320846557617, -1.2617061138153076, 0.32623571157455444, -0.9841757416725159, -0.121337890625, 0.8876953125, -0.060791015625, 
172, 3537084735, 0.7455310821533203, -0.5589787364006042, 0.2794259190559387, -0.23166033625602722, -1.6756271123886108, -9.483325004577637, 2.175888776779175, -1.4332700967788696, 0.4696753919124603, -0.9463179111480713, -0.124267578125, 0.8857421875, -0.061279296875, 
173, 3537093068, 0.745466411113739, -0.5590182542800903, 0.2794627547264099, -0.23172861337661743, -1.6919835805892944, -9.514432907104492, 2.163391590118408, -1.2501795291900635, 0.34706005454063416, -0.9162978529930115, -0.12109375, 0.880615234375, -0.059326171875, 
174, 3537101401, 0.7454081177711487, -0.5590413212776184, 0.2795226573944092, -0.23178789019584656, -1.7061675786972046, -9.547550201416016, 2.1632556915283203, -1.1106843948364258, 0.5112985372543335, -0.6708624362945557, -0.121826171875, 0.88818359375, -0.062255859375, 
175, 3537109734, 0.7453680634498596, -0.5590472221374512, 0.279565691947937, -0.2318505495786667, -1.6955313682556152, -9.511063575744629, 2.1550657749176025, -0.7567469477653503, 0.3768750727176666, -0.6028310060501099, -0.119140625, 0.88525390625, -0.061767578125, 
176, 3537118067, 0.7453440427780151, -0.559030294418335, 0.2796068489551544, -0.23191916942596436, -1.7352081537246704, -9.471566200256348, 2.1556451320648193, -0.3736092150211334, 0.4177297353744507, -0.5402554273605347, -0.12109375, 0.88623046875, -0.061279296875, 
177, 3537126400, 0.7453218698501587, -0.5590012073516846, 0.2796601355075836, -0.23199604451656342, -1.7307233810424805, -9.446309089660645, 2.181195020675659, -0.25296616554260254, 0.32569777965545654, -0.5218132138252258, -0.122314453125, 0.88720703125, -0.060302734375, 
178, 3537134733, 0.745303750038147, -0.5589681267738342, 0.2797125577926636, -0.23207101225852966, -1.7460018396377563, -9.445686340332031, 2.183591365814209, -0.18631795048713684, 0.3003653585910797, -0.4814195930957794, -0.12158203125, 0.8857421875, -0.061767578125, 
179, 3537143066, 0.7452960014343262, -0.5589310526847839, 0.2797465920448303, -0.23214367032051086, -1.7415238618850708, -9.439912796020508, 2.1643218994140625, -0.003227393375709653, 0.3761322498321533, -0.5063165426254272, -0.123291015625, 0.88671875, -0.060302734375, 
180, 3537151399, 0.7452898025512695, -0.5588752031326294, 0.2797964811325073, -0.2322382777929306, -1.7505438327789307, -9.391561508178711, 2.130195379257202, 0.22441910207271576, 0.4668578505516052, -0.5809052586555481, -0.12060546875, 0.88671875, -0.059814453125, 
181, 3537159732, 0.7452868223190308, -0.55882728099823, 0.2798258662223816, -0.23232734203338623, -1.7537481784820557, -9.442023277282715, 2.10807204246521, 0.2233177125453949, 0.4700084328651428, -0.6528300642967224, -0.121826171875, 0.8857421875, -0.062744140625, 
182, 3537168065, 0.7452825903892517, -0.5587670803070068, 0.279869019985199, -0.2324337363243103, -1.7581686973571777, -9.47199535369873, 2.1319761276245117, 0.35218292474746704, 0.49869638681411743, -0.7326439023017883, -0.124755859375, 0.888671875, -0.059814453125, 
183, 3537176398, 0.7452757358551025, -0.5587223768234253, 0.2798914313316345, -0.2325361967086792, -1.7143504619598389, -9.452725410461426, 2.123929500579834, 0.2342037707567215, 0.5066367983818054, -0.8695777654647827, -0.12158203125, 0.8857421875, -0.059814453125, 
184, 3537184731, 0.7452601194381714, -0.5586749911308289, 0.27992862462997437, -0.23265530169010162, -1.6874271631240845, -9.4591703414917, 2.104301929473877, 0.19386133551597595, 0.5100946426391602, -0.9885044693946838, -0.120361328125, 0.88720703125, -0.061767578125, 
185, 3537193064, 0.7452571392059326, -0.558627188205719, 0.2799455225467682, -0.2327595353126526, -1.7218681573867798, -9.492623329162598, 2.11175537109375, 0.3218556344509125, 0.4599163830280304, -0.9049508571624756, -0.12158203125, 0.8837890625, -0.059814453125, 
186, 3537201397, 0.7452728748321533, -0.5585507750511169, 0.2799651324748993, -0.2328692078590393, -1.704114556312561, -9.492810249328613, 2.1167404651641846, 0.754966676235199, 0.24165748059749603, -0.8181697726249695, -0.123291015625, 0.8857421875, -0.062255859375, 
187, 3537209730, 0.7453078627586365, -0.5584572553634644, 0.27997031807899475, -0.23297536373138428, -1.7251155376434326, -9.494568824768066, 2.140237808227539, 1.1264499425888062, 0.3540271520614624, -0.7176340222358704, -0.123291015625, 0.88720703125, -0.064697265625, 
188, 3537218063, 0.7453583478927612, -0.5583361983299255, 0.2799863815307617, -0.2330843061208725, -1.7218395471572876, -9.523209571838379, 2.156524896621704, 1.4937580823898315, 0.23243635892868042, -0.5608236193656921, -0.125244140625, 0.88720703125, -0.062744140625, 
189, 3537226396, 0.7454384565353394, -0.5581933856010437, 0.2799646556377411, -0.2331964522600174, -1.7304283380508423, -9.4943208694458, 2.139435052871704, 2.0867788791656494, 0.10772065073251724, -0.6516004204750061, -0.125244140625, 0.88525390625, -0.063720703125, 
190, 3537234729, 0.7455483078956604, -0.558001697063446, 0.27994516491889954, -0.2333277314901352, -1.748858094215393, -9.493722915649414, 2.153158187866211, 2.873187303543091, 0.050549689680337906, -0.6034970283508301, -0.123291015625, 0.88525390625, -0.065185546875, 
191, 3537243062, 0.7457259297370911, -0.5577523708343506, 0.27985531091690063, -0.23346419632434845, -1.7742868661880493, -9.466727256774902, 2.0978641510009766, 4.239552974700928, -0.438310831785202, -0.7011384963989258, -0.124267578125, 0.88525390625, -0.063720703125, 
192, 3537251395, 0.7459263801574707, -0.5574544668197632, 0.279771089553833, -0.23363572359085083, -1.7543845176696777, -9.427830696105957, 2.1171231269836426, 5.02058219909668, -0.32583868503570557, -0.8120993375778198, -0.124755859375, 0.8837890625, -0.062255859375, 
193, 3537259728, 0.7461750507354736, -0.5571182370185852, 0.27962666749954224, -0.23381644487380981, -1.7396008968353271, -9.280890464782715, 2.047133684158325, 6.021049499511719, -0.6527532935142517, -1.0093803405761719, -0.126220703125, 0.884765625, -0.06689453125, 
194, 3537268061, 0.7464489936828613, -0.5567554831504822, 0.2794511020183563, -0.23401623964309692, -1.7386964559555054, -9.321011543273926, 2.0429763793945312, 6.659022808074951, -0.8370475172996521, -1.2608861923217773, -0.123779296875, 0.88525390625, -0.066162109375, 
195, 3537276394, 0.746721088886261, -0.5563859343528748, 0.27928459644317627, -0.23422560095787048, -1.7181661128997803, -9.371807098388672, 2.055490493774414, 6.7156548500061035, -0.9162467122077942, -1.326663613319397, -0.123291015625, 0.886962890625, -0.069580078125, 
196, 3537284727, 0.746970534324646, -0.5560519695281982, 0.27911558747291565, -0.2344244122505188, -1.7074395418167114, -9.362727165222168, 2.083165407180786, 6.142766952514648, -1.0695223808288574, -1.444002389907837, -0.124267578125, 0.8857421875, -0.06884765625, 
197, 3537293060, 0.7471779584884644, -0.5557772517204285, 0.27895233035087585, -0.2346091866493225, -1.6652535200119019, -9.378609657287598, 2.116410255432129, 5.14860200881958, -0.8550031185150146, -1.563620924949646, -0.123779296875, 0.885986328125, -0.069580078125, 
198, 3537301393, 0.7473291158676147, -0.5555633306503296, 0.2788318991661072, -0.23477694392204285, -1.6532456874847412, -9.420607566833496, 2.1516706943511963, 3.883899688720703, -0.8159415125846863, -1.5319362878799438, -0.122802734375, 0.88427734375, -0.066162109375, 
199, 3537309726, 0.7474267482757568, -0.5554221272468567, 0.2787413001060486, -0.23490865528583527, -1.6477526426315308, -9.449161529541016, 2.1582210063934326, 2.499603509902954, -0.5218644738197327, -1.3306083679199219, -0.12353515625, 0.88037109375, -0.0654296875, 
200, 3537318059, 0.7474668025970459, -0.555336594581604, 0.2787095308303833, -0.23502066731452942, -1.6354014873504639, -9.43106746673584, 2.200725793838501, 1.2080825567245483, -0.3818569779396057, -1.1161402463912964, -0.125244140625, 0.8857421875, -0.06982421875, 
201, 3537326392, 0.7474891543388367, -0.5552883744239807, 0.2786802649497986, -0.2350984513759613, -1.6637369394302368, -9.463905334472656, 2.1739349365234375, 0.5660361647605896, -0.3162333369255066, -0.907128095626831, -0.124267578125, 0.88427734375, -0.06982421875, 
202, 3537334725, 0.747501790523529, -0.5552440881729126, 0.278696209192276, -0.23514339327812195, -1.6531293392181396, -9.496500968933105, 2.1958799362182617, 0.16875937581062317, -0.3738653361797333, -0.3246091902256012, -0.123779296875, 0.88427734375, -0.06982421875, 
203, 3537343058, 0.7475214600563049, -0.5551971793174744, 0.27872002124786377, -0.23516333103179932, -1.6850383281707764, -9.524575233459473, 2.220893383026123, 0.1361524611711502, -0.20578475296497345, 0.07808499038219452, -0.121337890625, 0.885009765625, -0.069091796875, 
204, 3537351391, 0.747538149356842, -0.5551341772079468, 0.27878838777542114, -0.23517832159996033, -1.7229267358779907, -9.518223762512207, 2.228196382522583, 0.10620943456888199, -0.040649790316820145, 0.4740810990333557, -0.123291015625, 0.885498046875, -0.068603515625, 
205, 3537359724, 0.7475761771202087, -0.5550538301467896, 0.2788483500480652, -0.2351759672164917, -1.7544422149658203, -9.553930282592773, 2.252408742904663, 0.42000940442085266, 0.033106397837400436, 0.7725124955177307, -0.122314453125, 0.885986328125, -0.069580078125, 
206, 3537368057, 0.7476167678833008, -0.5549516081809998, 0.2789430618286133, -0.23517610132694244, -1.7652643918991089, -9.506306648254395, 2.2451343536376953, 0.5498992204666138, 0.1574891358613968, 1.0537824630737305, -0.124755859375, 0.88623046875, -0.06884765625, 
207, 3537376390, 0.7476615905761719, -0.5548546314239502, 0.279028058052063, -0.23516182601451874, -1.7721526622772217, -9.451859474182129, 2.2296411991119385, 0.5150894522666931, 0.22649385035037994, 1.169917345046997, -0.124755859375, 0.88671875, -0.068603515625, 
208, 3537384723, 0.7476966381072998, -0.5547495484352112, 0.2791444659233093, -0.23515959084033966, -1.7810648679733276, -9.411595344543457, 2.240971088409424, 0.455331414937973, 0.3756711781024933, 1.2411249876022339, -0.124267578125, 0.885498046875, -0.07177734375, 
209, 3537393056, 0.7477186918258667, -0.5546717643737793, 0.2792615294456482, -0.23513412475585938, -1.749992847442627, -9.419663429260254, 2.2701833248138428, -0.0015112399123609066, 0.49669840931892395, 1.3819009065628052, -0.123779296875, 0.8857421875, -0.068603515625, 
210, 3537401389, 0.7477165460586548, -0.5546109676361084, 0.2794075012207031, -0.23511090874671936, -1.7308235168457031, -9.403520584106445, 2.2352418899536133, -0.45798248052597046, 0.5475170612335205, 1.3821824789047241, -0.122314453125, 0.885009765625, -0.07177734375, 
211, 3537409722, 0.7476974725723267, -0.5545811057090759, 0.27954328060150146, -0.2350805401802063, -1.7482478618621826, -9.414994239807129, 2.254790782928467, -0.8868416547775269, 0.6540722250938416, 1.2602585554122925, -0.124267578125, 0.8828125, -0.0673828125, 
212, 3537418055, 0.7476662397384644, -0.5545647144317627, 0.27969104051589966, -0.23504269123077393, -1.745511770248413, -9.442584037780762, 2.2418930530548096, -1.1863744258880615, 0.7242296934127808, 1.335923194885254, -0.12109375, 0.884033203125, -0.069091796875, 
213, 3537426388, 0.7476301193237305, -0.5545424818992615, 0.27985846996307373, -0.23501093685626984, -1.742966890335083, -9.421895980834961, 2.2503857612609863, -1.215984582901001, 0.6995375156402588, 1.378032922744751, -0.124755859375, 0.885009765625, -0.07177734375, 
214, 3537434721, 0.7476027011871338, -0.5545184016227722, 0.28000956773757935, -0.23497480154037476, -1.7580989599227905, -9.423227310180664, 2.2431278228759766, -1.0910639762878418, 0.48563307523727417, 1.3309284448623657, -0.12109375, 0.884033203125, -0.068603515625, 
215, 3537443054, 0.7475951910018921, -0.5544859766960144, 0.28012746572494507, -0.234935000538826, -1.7558228969573975, -9.416861534118652, 2.239755392074585, -0.7527511715888977, 0.3637349307537079, 1.2659707069396973, -0.120849609375, 0.885498046875, -0.071533203125, 
216, 3537451387, 0.7476032972335815, -0.5544277429580688, 0.2802509665489197, -0.2348991185426712, -1.720015525817871, -9.437389373779297, 2.2681808471679688, -0.377963662147522, 0.18843112885951996, 1.35953950881958, -0.123291015625, 0.887451171875, -0.069580078125, 
217, 3537459720, 0.7476374506950378, -0.5543496012687683, 0.28034707903862, -0.23486046493053436, -1.725938081741333, -9.417876243591309, 2.22727370262146, 0.11056384444236755, 0.13505105674266815, 1.398959755897522, -0.1220703125, 0.880859375, -0.06884765625, 
218, 3537468053, 0.7476859092712402, -0.5542442798614502, 0.28044265508651733, -0.23484066128730774, -1.7262885570526123, -9.412983894348145, 2.202954053878784, 0.5596325993537903, -0.013549929484724998, 1.3018051385879517, -0.123291015625, 0.885986328125, -0.068603515625, 
219, 3537476386, 0.7477623820304871, -0.5541251301765442, 0.2805028557777405, -0.23480640351772308, -1.7354068756103516, -9.370631217956543, 2.187191963195801, 0.9877744913101196, -0.2326284795999527, 1.3756508827209473, -0.122314453125, 0.884521484375, -0.069091796875, 
220, 3537484719, 0.7478458285331726, -0.553991973400116, 0.28056758642196655, -0.23477716743946075, -1.70555579662323, -9.350281715393066, 2.192814350128174, 1.178344488143921, -0.43705567717552185, 1.380184531211853, -0.122314453125, 0.885498046875, -0.071044921875, 
221, 3537493052, 0.7479345798492432, -0.5538626313209534, 0.28061622381210327, -0.23474174737930298, -1.6695202589035034, -9.32685661315918, 2.2044994831085205, 1.2187892198562622, -0.3743264079093933, 1.3776230812072754, -0.1240234375, 0.8818359375, -0.06787109375, 
222, 3537501385, 0.748009979724884, -0.5537323951721191, 0.28069543838500977, -0.23471418023109436, -1.6641795635223389, -9.304483413696289, 2.1751961708068848, 1.0368257761001587, -0.3044251501560211, 1.4472938776016235, -0.120361328125, 0.886474609375, -0.072998046875, 
223, 3537509718, 0.7480704188346863, -0.5536316633224487, 0.28076669573783875, -0.23467376828193665, -1.631320595741272, -9.246002197265625, 2.1634631156921387, 0.6172645688056946, -0.16285529732704163, 1.4001892805099487, -0.118896484375, 0.885986328125, -0.070556640625, 
224, 3537518051, 0.7481047511100769, -0.5535534024238586, 0.2808568775653839, -0.2346412092447281, -1.652514100074768, -9.20471477508545, 2.138850212097168, 0.14119845628738403, -0.20002156496047974, 1.2413554191589355, -0.12109375, 0.8828125, -0.068115234375, 
225, 3537526384, 0.7481143474578857, -0.553513765335083, 0.28093424439430237, -0.2346114218235016, -1.6617196798324585, -9.208439826965332, 2.143871545791626, -0.3770415186882019, -0.020055945962667465, 0.9382110238075256, -0.121826171875, 0.885498046875, -0.072265625, 
226, 3537534717, 0.748093843460083, -0.5534988045692444, 0.28102797269821167, -0.23459959030151367, -1.695180892944336, -9.239985466003418, 2.172475814819336, -0.8542346954345703, 0.020811565220355988, 0.6272797584533691, -0.11865234375, 0.885498046875, -0.071044921875, 
227, 3537543050, 0.7480603456497192, -0.5535256266593933, 0.28107520937919617, -0.23458683490753174, -1.6780211925506592, -9.231552124023438, 2.1322410106658936, -1.2271779775619507, -0.24725420773029327, 0.13622929155826569, -0.119873046875, 0.885009765625, -0.070556640625, 
228, 3537551383, 0.74800705909729, -0.5535638928413391, 0.28112608194351196, -0.23460541665554047, -1.6814974546432495, -9.259398460388184, 2.0963051319122314, -1.3988444805145264, -0.2579353451728821, -0.31764209270477295, -0.1181640625, 0.884521484375, -0.070068359375, 
229, 3537559716, 0.7479653358459473, -0.5536158084869385, 0.281113862991333, -0.23463070392608643, -1.6973339319229126, -9.299810409545898, 2.095532178878784, -1.2086076736450195, -0.6187374591827393, -0.8299011588096619, -0.11865234375, 0.884521484375, -0.069580078125, 
230, 3537568049, 0.7479479312896729, -0.5536476373672485, 0.2810605764389038, -0.23467519879341125, -1.707533836364746, -9.3185453414917, 2.1191656589508057, -0.6088247895240784, -0.9232139587402344, -1.1843509674072266, -0.1201171875, 0.883056640625, -0.069091796875, 
231, 3537576382, 0.7479463815689087, -0.5536561012268066, 0.2809823155403137, -0.2347535490989685, -1.7223294973373413, -9.372024536132812, 2.1083600521087646, -0.054507091641426086, -1.2554048299789429, -1.62883460521698, -0.11865234375, 0.885009765625, -0.069091796875, 
232, 3537584715, 0.747974157333374, -0.553644597530365, 0.2808695137500763, -0.23482713103294373, -1.715389370918274, -9.431282997131348, 2.1369361877441406, 0.469342440366745, -1.6939971446990967, -1.671431064605713, -0.121337890625, 0.885986328125, -0.072509765625, 
233, 3537593048, 0.7480348944664001, -0.5536137223243713, 0.2807108759880066, -0.2348964512348175, -1.7272663116455078, -9.445530891418457, 2.1586740016937256, 1.066307783126831, -1.917942762374878, -1.7473264932632446, -0.12109375, 0.883056640625, -0.07177734375, 
234, 3537601381, 0.7481055855751038, -0.5535688996315002, 0.2805601954460144, -0.23495639860630035, -1.7414989471435547, -9.443455696105957, 2.174571990966797, 1.2141531705856323, -2.201671600341797, -1.563339352607727, -0.122802734375, 0.884033203125, -0.07177734375, 
235, 3537609714, 0.7481958866119385, -0.5535111427307129, 0.28040647506713867, -0.23498880863189697, -1.707940936088562, -9.430093765258789, 2.1657791137695312, 1.408795952796936, -2.1764161586761475, -1.1292036771774292, -0.1201171875, 0.885009765625, -0.069091796875, 
236, 3537618047, 0.7482762336730957, -0.5534494519233704, 0.2802934944629669, -0.23501302301883698, -1.72883141040802, -9.437138557434082, 2.1368367671966553, 1.1951730251312256, -2.1195266246795654, -0.8003166913986206, -0.120361328125, 0.885986328125, -0.069580078125, 
237, 3537626380, 0.7483399510383606, -0.5534216165542603, 0.28019043803215027, -0.2349987030029297, -1.7251116037368774, -9.43170166015625, 2.183432102203369, 0.5561234354972839, -2.00480055809021, -0.4657436013221741, -0.122314453125, 0.885498046875, -0.070068359375, 
238, 3537634713, 0.7483749389648438, -0.5534053444862366, 0.2801515758037567, -0.2349717617034912, -1.7258802652359009, -9.427786827087402, 2.210510730743408, -0.051766373217105865, -1.6992485523223877, -0.03560378775000572, -0.123046875, 0.882080078125, -0.0712890625, 
239, 3537643046, 0.7483867406845093, -0.5534201264381409, 0.2801266014575958, -0.234929159283638, -1.7286561727523804, -9.39508056640625, 2.234583854675293, -0.639869213104248, -1.3544551134109497, 0.08635839819908142, -0.121337890625, 0.885498046875, -0.071533203125, 
240, 3537651379, 0.7483782768249512, -0.5534359812736511, 0.2801514267921448, -0.2348889410495758, -1.7442278861999512, -9.39442253112793, 2.2369015216827393, -0.9671677947044373, -1.0775141716003418, 0.32026758790016174, -0.119873046875, 0.886474609375, -0.072509765625, 
241, 3537659712, 0.7483617663383484, -0.5534628033638, 0.28017789125442505, -0.23484696447849274, -1.7470601797103882, -9.367384910583496, 2.2219021320343018, -1.142778992652893, -0.7489089965820312, 0.3339456021785736, -0.11962890625, 0.884033203125, -0.072509765625, 
242, 3537668045, 0.748339831829071, -0.553470253944397, 0.28023871779441833, -0.23482680320739746, -1.7630831003189087, -9.366432189941406, 2.2085189819335938, -1.0240572690963745, -0.4711226522922516, 0.3731609880924225, -0.122314453125, 0.883544921875, -0.07080078125, 
243, 3537676378, 0.748322069644928, -0.553475022315979, 0.2802923023700714, -0.23480814695358276, -1.7589271068572998, -9.372991561889648, 2.1908726692199707, -0.9199864864349365, -0.21679887175559998, 0.38297122716903687, -0.121826171875, 0.884521484375, -0.07177734375, 
244, 3537684711, 0.7483041882514954, -0.5534563064575195, 0.2803756892681122, -0.23480981588363647, -1.7526825666427612, -9.359323501586914, 2.209928035736084, -0.7107694149017334, 0.010104816406965256, 0.4297940731048584, -0.123291015625, 0.886474609375, -0.07177734375, 
245, 3537693044, 0.7482903599739075, -0.5534316897392273, 0.28045687079429626, -0.23481521010398865, -1.7431764602661133, -9.36711311340332, 2.2015950679779053, -0.5857976078987122, 0.3298729360103607, 0.4703157842159271, -0.1220703125, 0.88232421875, -0.06982421875, 
246, 3537701377, 0.7482727766036987, -0.5533857345581055, 0.28057774901390076, -0.2348344326019287, -1.7012677192687988, -9.349102020263672, 2.2366080284118652, -0.48416030406951904, 0.5960305333137512, 0.6464648842811584, -0.121337890625, 0.885986328125, -0.073486328125, 
247, 3537709710, 0.748249351978302, -0.5533586144447327, 0.2807019352912903, -0.23482483625411987, -1.7053592205047607, -9.331542015075684, 2.2243192195892334, -0.8300291895866394, 0.7030211091041565, 0.9306291937828064, -0.1201171875, 0.882080078125, -0.07080078125, 
248, 3537718043, 0.7482079863548279, -0.5533354878425598, 0.28086650371551514, -0.23481422662734985, -1.7317395210266113, -9.312108993530273, 2.234744071960449, -1.155381202697754, 0.8388789892196655, 1.1190730333328247, -0.120849609375, 0.884033203125, -0.071044921875, 
249, 3537726376, 0.7481598258018494, -0.5533407926559448, 0.28101831674575806, -0.2347736954689026, -1.739040732383728, -9.328890800476074, 2.2278378009796143, -1.56070077419281, 0.7424925565719604, 1.254521131515503, -0.121826171875, 0.885498046875, -0.071044921875, 
250, 3537734709, 0.748102068901062, -0.5533442497253418, 0.2811952829360962, -0.2347375750541687, -1.733137607574463, -9.389303207397461, 2.2188029289245605, -1.687875509262085, 0.7775585055351257, 1.3133569955825806, -0.119873046875, 0.885986328125, -0.071533203125, 
251, 3537743042, 0.7480525374412537, -0.5533570051193237, 0.2813422381877899, -0.23468944430351257, -1.759749174118042, -9.394993782043457, 2.2174816131591797, -1.6630041599273682, 0.6159327030181885, 1.2627177238464355, -0.121826171875, 0.885009765625, -0.072265625, 
252, 3537751375, 0.7480054497718811, -0.5533643364906311, 0.28148847818374634, -0.23464670777320862, -1.7567355632781982, -9.412943840026855, 2.232917547225952, -1.568436622619629, 0.38558390736579895, 1.158237338066101, -0.12255859375, 0.882568359375, -0.07080078125, 
253, 3537759708, 0.7479792237281799, -0.5533596277236938, 0.2815975546836853, -0.23461054265499115, -1.7381623983383179, -9.411352157592773, 2.2274885177612305, -1.136631727218628, 0.28271713852882385, 0.9938963651657104, -0.1220703125, 0.883056640625, -0.07080078125, 
254, 3537768041, 0.747956395149231, -0.5533409118652344, 0.2817102372646332, -0.23459210991859436, -1.7258522510528564, -9.430551528930664, 2.2754766941070557, -0.919346034526825, 0.16927164793014526, 0.8456411361694336, -0.121337890625, 0.884033203125, -0.0712890625, 
255, 3537776374, 0.7479500770568848, -0.5533215999603271, 0.28178441524505615, -0.23456865549087524, -1.7395498752593994, -9.42467975616455, 2.2909412384033203, -0.6739360690116882, -0.00829901173710823, 0.7168527245521545, -0.12060546875, 0.883544921875, -0.069091796875, 
256, 3537784707, 0.7479487657546997, -0.5532886981964111, 0.28185757994651794, -0.234562486410141, -1.7278193235397339, -9.469527244567871, 2.295804977416992, -0.4376448094844818, -0.1936948299407959, 0.5438798069953918, -0.120849609375, 0.885498046875, -0.070068359375, 
257, 3537793040, 0.7479655146598816, -0.5532546639442444, 0.28189581632614136, -0.2345433533191681, -1.7541918754577637, -9.461101531982422, 2.302314281463623, -0.213059201836586, -0.387620210647583, 0.5325583219528198, -0.120361328125, 0.885009765625, -0.069580078125, 
258, 3537801373, 0.7479857206344604, -0.553206741809845, 0.2819419503211975, -0.23453640937805176, -1.729979395866394, -9.439120292663574, 2.295018196105957, -0.03253007307648659, -0.49637818336486816, 0.470136433839798, -0.119140625, 0.87890625, -0.066162109375, 
259, 3537809706, 0.7480221390724182, -0.5531622171401978, 0.2819615602493286, -0.23450201749801636, -1.7602360248565674, -9.408513069152832, 2.2809128761291504, 0.045068249106407166, -0.7366654276847839, 0.6511266827583313, -0.12060546875, 0.884033203125, -0.069091796875, 
260, 3537818039, 0.7480682134628296, -0.5531059503555298, 0.281992107629776, -0.23445075750350952, -1.8027095794677734, -9.44566535949707, 2.262902021408081, 0.1241137683391571, -1.073569416999817, 0.9249940514564514, -0.11865234375, 0.884033203125, -0.069580078125, 
261, 3537826372, 0.748145580291748, -0.5530338287353516, 0.28198981285095215, -0.2343769073486328, -1.826381802558899, -9.438986778259277, 2.2537338733673096, 0.5578908920288086, -1.3323757648468018, 1.1290884017944336, -0.1181640625, 0.883544921875, -0.072998046875, 
262, 3537834705, 0.748241662979126, -0.5529463887214661, 0.28197091817855835, -0.23429934680461884, -1.8728609085083008, -9.507037162780762, 2.2744579315185547, 0.887904703617096, -1.8563662767410278, 1.0968912839889526, -0.1171875, 0.885498046875, -0.070068359375, 
263, 3537843038, 0.748370349407196, -0.552848219871521, 0.2819136679172516, -0.23418891429901123, -1.876279592514038, -9.515640258789062, 2.316226005554199, 1.2504740953445435, -2.289681911468506, 1.3525468111038208, -0.11767578125, 0.884521484375, -0.071044921875, 
264, 3537851371, 0.7485144734382629, -0.5527281761169434, 0.2818542718887329, -0.2340831458568573, -1.873137354850769, -9.552384376525879, 2.359433174133301, 1.6053849458694458, -2.590649127960205, 1.3643550872802734, -0.119384765625, 0.885009765625, -0.073974609375, 
265, 3537859704, 0.7486920356750488, -0.5525898337364197, 0.281755268573761, -0.2339615523815155, -1.8786176443099976, -9.551286697387695, 2.3679542541503906, 2.1271722316741943, -2.8660786151885986, 1.4649674892425537, -0.1171875, 0.883056640625, -0.071533203125, 
266, 3537868037, 0.7488892078399658, -0.5524196624755859, 0.28165796399116516, -0.2338491976261139, -1.9202858209609985, -9.535752296447754, 2.4101898670196533, 2.628417491912842, -3.0200209617614746, 1.4937325716018677, -0.118408203125, 0.885498046875, -0.072021484375, 
267, 3537876370, 0.7491147518157959, -0.5522290468215942, 0.2815270721912384, -0.23373442888259888, -1.9131884574890137, -9.523284912109375, 2.3858320713043213, 3.1590166091918945, -3.160720109939575, 1.5093059539794922, -0.118896484375, 0.885986328125, -0.071533203125, 
268, 3537884703, 0.7493501305580139, -0.552013099193573, 0.28140774369239807, -0.2336335927248001, -1.9026154279708862, -9.53214168548584, 2.3774819374084473, 3.4959464073181152, -3.21128249168396, 1.51960289478302, -0.11767578125, 0.884033203125, -0.072021484375, 
269, 3537893036, 0.7496157288551331, -0.551769495010376, 0.2812592685222626, -0.23353590071201324, -1.913584589958191, -9.528985977172852, 2.3797054290771484, 4.131563663482666, -3.196016311645508, 1.534356713294983, -0.118408203125, 0.88525390625, -0.072998046875, 
270, 3537901369, 0.7498902678489685, -0.5515049695968628, 0.28112584352493286, -0.23343989253044128, -1.9166961908340454, -9.509910583496094, 2.362617254257202, 4.3573527336120605, -3.3209621906280518, 1.676464557647705, -0.11767578125, 0.883056640625, -0.072509765625, 
271, 3537909702, 0.7501820921897888, -0.5512328147888184, 0.28096815943717957, -0.23333518207073212, -1.9458403587341309, -9.498751640319824, 2.4199118614196777, 4.626584053039551, -3.3543379306793213, 1.731355905532837, -0.116455078125, 0.8857421875, -0.076904296875, 
272, 3537918035, 0.7504850625991821, -0.5509394407272339, 0.2808263599872589, -0.23322439193725586, -1.9702434539794922, -9.455573081970215, 2.444333791732788, 4.847122669219971, -3.503028631210327, 1.9598604440689087, -0.11767578125, 0.88232421875, -0.074462890625, 
273, 3537926368, 0.7508020401000977, -0.5506472587585449, 0.2806650996208191, -0.233088880777359, -2.006690740585327, -9.482398986816406, 2.410369396209717, 4.916742324829102, -3.658583641052246, 2.180142641067505, -0.1162109375, 0.88427734375, -0.075439453125, 
274, 3537934701, 0.7511290311813354, -0.5503382682800293, 0.2805129289627075, -0.23294739425182343, -2.007166624069214, -9.542580604553223, 2.4343748092651367, 5.098423957824707, -3.900663375854492, 2.3380801677703857, -0.11474609375, 0.88232421875, -0.077392578125, 
275, 3537943034, 0.751469075679779, -0.5500274896621704, 0.2803457975387573, -0.23278629779815674, -1.9977394342422485, -9.563799858093262, 2.436339855194092, 5.205004692077637, -3.9413902759552, 2.546400547027588, -0.11767578125, 0.8837890625, -0.076416015625, 
276, 3537951367, 0.7518245577812195, -0.5496810674667358, 0.2802004814147949, -0.23263147473335266, -1.9650335311889648, -9.536344528198242, 2.46262526512146, 5.616625785827637, -3.9716155529022217, 2.7725489139556885, -0.11669921875, 0.88232421875, -0.074951171875, 
277, 3537959700, 0.7522114515304565, -0.5493121147155762, 0.2800275385379791, -0.23245985805988312, -1.9738973379135132, -9.516460418701172, 2.452458143234253, 6.137850761413574, -4.075532913208008, 2.9849424362182617, -0.11572265625, 0.885009765625, -0.079833984375, 
278, 3537968033, 0.7526243925094604, -0.5489017963409424, 0.279873251914978, -0.23227831721305847, -1.9601266384124756, -9.539305686950684, 2.4363255500793457, 6.646574020385742, -4.241614818572998, 3.4021213054656982, -0.11474609375, 0.88134765625, -0.078369140625, 
279, 3537976366, 0.7530725598335266, -0.548459529876709, 0.27970385551452637, -0.23207470774650574, -1.9369109869003296, -9.496980667114258, 2.4166994094848633, 7.224174976348877, -4.280882358551025, 3.819582223892212, -0.11474609375, 0.8837890625, -0.079345703125, 
280, 3537984699, 0.7535597681999207, -0.5479587912559509, 0.27954161167144775, -0.23187154531478882, -1.9173643589019775, -9.466981887817383, 2.4141805171966553, 8.07628345489502, -4.523756504058838, 4.160943031311035, -0.1142578125, 0.883544921875, -0.081787109375, 
281, 3537993032, 0.7541552186012268, -0.5473454594612122, 0.27930811047554016, -0.23166531324386597, -1.9706833362579346, -9.452069282531738, 2.3402836322784424, 10.300034523010254, -4.985579967498779, 4.491775989532471, -0.11328125, 0.882080078125, -0.081298828125, 
282, 3538001365, 0.7549446821212769, -0.5465021133422852, 0.27896541357040405, -0.23149847984313965, -2.06169056892395, -9.621709823608398, 2.2762527465820312, 14.623722076416016, -6.1677045822143555, 4.696025848388672, -0.11279296875, 0.881591796875, -0.0830078125, 
283, 3538009698, 0.7561142444610596, -0.5452480316162109, 0.2783674895763397, -0.2313576340675354, -2.1369035243988037, -9.712985038757324, 2.246002197265625, 22.677921295166016, -8.441150665283203, 5.361408233642578, -0.1123046875, 0.8828125, -0.08740234375, 
284, 3538018031, 0.757932186126709, -0.5432431697845459, 0.2773300111293793, -0.23137159645557404, -2.2706401348114014, -10.071901321411133, 2.143824577331543, 37.316986083984375, -12.265777587890625, 5.325424671173096, -0.11279296875, 0.88330078125, -0.09130859375, 
285, 3538026364, 0.7604015469551086, -0.5404754877090454, 0.2758040428161621, -0.23157504200935364, -2.2849152088165283, -10.49992561340332, 2.2538466453552246, 52.42995071411133, -15.676925659179688, 4.7493391036987305, -0.1103515625, 0.882568359375, -0.09765625, 
286, 3538034697, 0.7634868025779724, -0.5369131565093994, 0.2738912105560303, -0.23197977244853973, -2.1228890419006348, -10.428698539733887, 2.5399222373962402, 67.29230499267578, -18.37296485900879, 4.686029434204102, -0.109375, 0.883056640625, -0.1025390625, 
287, 3538043030, 0.7671080231666565, -0.5326892733573914, 0.27155959606170654, -0.23251208662986755, -2.0107851028442383, -10.15095329284668, 2.7379167079925537, 80.03248596191406, -21.39388084411621, 4.514242172241211, -0.1103515625, 0.8798828125, -0.111083984375, 
288, 3538051363, 0.7710936665534973, -0.5279465317726135, 0.26898905634880066, -0.23313330113887787, -1.9458298683166504, -9.8700532913208, 2.9285712242126465, 89.24578094482422, -23.3551082611084, 4.891958713531494, -0.107666015625, 0.880615234375, -0.124755859375, 
289, 3538059696, 0.7752561569213867, -0.5229411125183105, 0.266237735748291, -0.2337673008441925, -1.884296178817749, -9.527024269104004, 3.0192134380340576, 93.96592712402344, -24.600858688354492, 5.019726753234863, -0.108154296875, 0.87841796875, -0.1376953125, 
290, 3538068029, 0.7794403433799744, -0.5178395509719849, 0.263454407453537, -0.23436251282691956, -1.8578591346740723, -9.206273078918457, 3.003605365753174, 95.09053039550781, -25.332666397094727, 5.581171035766602, -0.107421875, 0.874267578125, -0.149169921875, 
291, 3538076362, 0.7836830615997314, -0.512606143951416, 0.26058056950569153, -0.23493100702762604, -1.8354405164718628, -8.992161750793457, 2.920151710510254, 97.1341781616211, -25.939739227294922, 5.93326997756958, -0.107177734375, 0.875244140625, -0.16162109375, 
292, 3538084695, 0.7882946729660034, -0.5067940354347229, 0.2573486864566803, -0.23567324876785278, -1.9537670612335205, -9.4503173828125, 2.817016839981079, 107.7278823852539, -28.38710594177246, 4.774096965789795, -0.106689453125, 0.87451171875, -0.173583984375, 
293, 3538093028, 0.7936792969703674, -0.49986082315444946, 0.25343969464302063, -0.23664288222789764, -2.0728678703308105, -10.141186714172363, 2.7804224491119385, 128.2903289794922, -32.881961822509766, 4.09192419052124, -0.107666015625, 0.871337890625, -0.18798828125, 
294, 3538101361, 0.8004024624824524, -0.49088364839553833, 0.24842458963394165, -0.23810377717018127, -2.2848477363586426, -11.165417671203613, 2.7727108001708984, 165.08396911621094, -40.02643585205078, 2.621542453765869, -0.108154296875, 0.8681640625, -0.207763671875, 
295, 3538109694, 0.8086336255073547, -0.4794350564479828, 0.24210703372955322, -0.24011871218681335, -2.2635321617126465, -11.92880630493164, 3.0474822521209717, 208.65521240234375, -47.24981689453125, 1.0973196029663086, -0.109130859375, 0.86083984375, -0.230712890625, 
296, 3538118027, 0.8183963298797607, -0.46521472930908203, 0.23439809679985046, -0.24265071749687195, -2.0901243686676025, -11.666167259216309, 3.4453623294830322, 255.8800048828125, -55.69086456298828, 0.49826541543006897, -0.109375, 0.8564453125, -0.259521484375, 
297, 3538126360, 0.8292359113693237, -0.44852814078330994, 0.22552287578582764, -0.2456602156162262, -2.019834041595459, -10.65735912322998, 3.860668420791626, 295.9811706542969, -60.57390213012695, -0.8337847590446472, -0.1123046875, 0.84765625, -0.2939453125, 
298, 3538134693, 0.8409484624862671, -0.4293403625488281, 0.21544277667999268, -0.24915051460266113, -1.992195963859558, -9.476546287536621, 4.338083267211914, 335.457763671875, -66.0138931274414, -2.9765784740448, -0.11572265625, 0.83544921875, -0.3359375, 
299, 3538143026, 0.853356122970581, -0.40741756558418274, 0.2042882740497589, -0.25313907861709595, -1.9880890846252441, -9.472270011901855, 4.482215881347656, 376.3616943359375, -67.78190612792969, -4.662929534912109, -0.117919921875, 0.81689453125, -0.38037109375, 
300, 3538151359, 0.8661504983901978, -0.3827996850013733, 0.19204354286193848, -0.25765424966812134, -1.977453589439392, -9.726612091064453, 4.364660263061523, 415.4450378417969, -69.33020782470703, -8.0343656539917, -0.11962890625, 0.797119140625, -0.427734375, 
301, 3538159692, 0.8789322376251221, -0.35581594705581665, 0.1788782775402069, -0.2624776363372803, -1.9257895946502686, -9.40671443939209, 4.09133768081665, 447.6644287109375, -70.63701629638672, -10.230281829833984, -0.126220703125, 0.77490234375, -0.476318359375, 
302, 3538168025, 0.8911719918251038, -0.3276877999305725, 0.16494672000408173, -0.2669174373149872, -1.9995100498199463, -7.691289901733398, 4.320540428161621, 460.7277526855469, -76.11750030517578, -8.654536247253418, -0.132080078125, 0.742431640625, -0.52783203125, 
303, 3538176358, 0.9025054574012756, -0.2991977632045746, 0.15050390362739563, -0.2707996964454651, -1.9010165929794312, -5.587728977203369, 5.0533246994018555, 461.6227722167969, -81.32978057861328, -6.579086780548096, -0.1376953125, 0.708984375, -0.57666015625, 
304, 3538184691, 0.9124417901039124, -0.2717231810092926, 0.1361425369977951, -0.2740449905395508, -1.699641466140747, -4.421785354614258, 5.4563093185424805, 441.7279357910156, -83.96646881103516, -5.7481160163879395, -0.1455078125, 0.6728515625, -0.62353515625, 
305, 3538193024, 0.9207895398139954, -0.24647872149944305, 0.122251495718956, -0.27652978897094727, -1.296491265296936, -2.9933133125305176, 6.234916687011719, 404.5075378417969, -86.19853973388672, -4.50601863861084, -0.150634765625, 0.637939453125, -0.662353515625, 
306, 3538201357, 0.927632212638855, -0.22361522912979126, 0.10945676267147064, -0.27844762802124023, -0.9824623465538025, -2.888143539428711, 6.217930793762207, 364.1200866699219, -80.75849151611328, -3.334357500076294, -0.16064453125, 0.599609375, -0.699462890625, 
307, 3538209690, 0.9330853223800659, -0.20389696955680847, 0.09777841717004776, -0.2797078490257263, -0.9396479725837708, -2.824972152709961, 5.92348051071167, 314.53662109375, -78.59455108642578, -1.754814624786377, -0.169677734375, 0.5654296875, -0.728759765625, 
308, 3538218023, 0.9374663233757019, -0.1872285008430481, 0.08725571632385254, -0.28019261360168457, -0.5975136160850525, -1.9566705226898193, 6.248239040374756, 266.8733825683594, -76.39229583740234, 3.554485559463501, -0.176025390625, 0.539306640625, -0.750732421875, 
309, 3538226356, 0.9410659074783325, -0.17308630049228668, 0.07791110873222351, -0.27997374534606934, -0.3167092800140381, -1.7649792432785034, 6.54707145690918, 226.83978271484375, -71.54023742675781, 9.457568168640137, -0.182373046875, 0.513427734375, -0.771484375, 
310, 3538234689, 0.9440345168113708, -0.1609581857919693, 0.06957637518644333, -0.2794089913368225, -0.1101803109049797, -2.0607707500457764, 6.679576873779297, 195.07240295410156, -66.62380981445312, 11.904111862182617, -0.189453125, 0.486328125, -0.7802734375, 
311, 3538243022, 0.9465928673744202, -0.1504710167646408, 0.06178150326013565, -0.2784290313720703, -0.02148883044719696, -1.8555943965911865, 7.297615051269531, 170.3269500732422, -66.19575500488281, 15.190369606018066, -0.19580078125, 0.47265625, -0.797607421875, 
312, 3538251355, 0.948836088180542, -0.14120522141456604, 0.054464615881443024, -0.27717116475105286, 0.12709495425224304, -1.288142442703247, 7.866117000579834, 151.767822265625, -65.21286010742188, 17.761302947998047, -0.2021484375, 0.45556640625, -0.805908203125, 
313, 3538259688, 0.9508106112480164, -0.1330110728740692, 0.047468382865190506, -0.2757408022880554, 0.23445425927639008, -0.9087861776351929, 8.144129753112793, 135.85324096679688, -64.99048614501953, 18.59865379333496, -0.204833984375, 0.438720703125, -0.813232421875, 
314, 3538268021, 0.9525611996650696, -0.1256280541419983, 0.04070581495761871, -0.27423834800720215, 0.324464350938797, -0.7031355500221252, 7.956150531768799, 123.95630645751953, -65.22349548339844, 18.749834060668945, -0.212890625, 0.426513671875, -0.822509765625, 
315, 3538276354, 0.9541160464286804, -0.1190931499004364, 0.03411755710840225, -0.2726433277130127, 0.23895743489265442, -0.15636731684207916, 7.719334125518799, 111.74755096435547, -65.96234893798828, 18.89056968688965, -0.21728515625, 0.41064453125, -0.824951171875, 
316, 3538284687, 0.9554750919342041, -0.11334453523159027, 0.02776075154542923, -0.2710510194301605, -0.016171421855688095, 0.1383579969406128, 7.352794170379639, 100.2868881225586, -65.99695587158203, 18.30172348022461, -0.22412109375, 0.402099609375, -0.832763671875, 
317, 3538293020, 0.9566897749900818, -0.10816772282123566, 0.021503601223230362, -0.26944592595100403, -0.4504655599594116, 0.20356673002243042, 6.916746616363525, 92.126708984375, -66.56390380859375, 17.69794273376465, -0.230712890625, 0.39111328125, -0.83203125, 
318, 3538301353, 0.9577808976173401, -0.10352453589439392, 0.015147250145673752, -0.2678211033344269, -0.8096656203269958, 0.09237250685691833, 7.146131992340088, 85.31963348388672, -70.04463958740234, 17.320343017578125, -0.238037109375, 0.381103515625, -0.83935546875, 
319, 3538309686, 0.9587334394454956, -0.09932877868413925, 0.008681761100888252, -0.26628491282463074, -0.6884074807167053, 0.19633159041404724, 8.112144470214844, 79.61651611328125, -72.76861572265625, 15.270353317260742, -0.2451171875, 0.373046875, -0.83984375, 
320, 3538318019, 0.9595658779144287, -0.09525899589061737, 0.0022271787747740746, -0.2649022936820984, -0.12343570590019226, -0.6968209743499756, 9.308141708374023, 77.78468322753906, -73.03950500488281, 12.769787788391113, -0.251220703125, 0.36279296875, -0.842529296875, 
321, 3538326352, 0.9603081941604614, -0.0911526158452034, -0.004261894151568413, -0.263629287481308, 0.7438391447067261, -2.018498659133911, 10.46800422668457, 78.26287078857422, -73.03823852539062, 10.985864639282227, -0.260498046875, 0.3544921875, -0.840087890625, 
322, 3538334685, 0.960976779460907, -0.08705300837755203, -0.010683102533221245, -0.2623937726020813, 1.4092638492584229, -2.0924742221832275, 11.250242233276367, 77.85025787353516, -72.31639099121094, 10.366324424743652, -0.265869140625, 0.347412109375, -0.8427734375, 
323, 3538343018, 0.9615522623062134, -0.08319278061389923, -0.016809500753879547, -0.2612144947052002, 1.6315515041351318, -1.3912220001220703, 11.591050148010254, 73.48665618896484, -69.03681945800781, 9.61575984954834, -0.27490234375, 0.337158203125, -0.84619140625, 
324, 3538351351, 0.962029218673706, -0.07970365881919861, -0.02246633917093277, -0.26011812686920166, 1.8705700635910034, -0.916924238204956, 11.354838371276855, 66.76950073242188, -64.26339721679688, 8.766499519348145, -0.279296875, 0.33154296875, -0.848876953125, 
325, 3538359684, 0.9624043107032776, -0.07672830671072006, -0.027656927704811096, -0.25912368297576904, 2.0489752292633057, -0.5995243191719055, 10.621426582336426, 58.15303039550781, -59.67829895019531, 7.746521472930908, -0.2900390625, 0.32421875, -0.84814453125, 
326, 3538368017, 0.9626926183700562, -0.07435718923807144, -0.032332975417375565, -0.2582005262374878, 1.9427307844161987, -0.485797256231308, 9.985520362854004, 48.20659255981445, -55.14637756347656, 7.244931221008301, -0.296142578125, 0.3173828125, -0.84814453125, 
327, 3538376350, 0.9629166126251221, -0.07263614982366562, -0.03655169904232025, -0.257290780544281, 1.9047224521636963, -0.3673314154148102, 9.562211036682129, 37.90258026123047, -51.248817443847656, 7.617791175842285, -0.301513671875, 0.314208984375, -0.84765625, 
328, 3538384683, 0.963090717792511, -0.07124532014131546, -0.040311068296432495, -0.25646474957466125, 1.945833444595337, -0.14845609664916992, 9.842405319213867, 31.80998420715332, -46.43640899658203, 6.940055847167969, -0.305908203125, 0.3076171875, -0.845458984375, 
329, 3538393016, 0.9632042050361633, -0.07018238306045532, -0.043615564703941345, -0.2557903528213501, 1.9656670093536377, -0.08021873980760574, 10.410346984863281, 25.723190307617188, -41.29271697998047, 5.3632097244262695, -0.310791015625, 0.304931640625, -0.84619140625, 
330, 3538401349, 0.9632606506347656, -0.06947238743305206, -0.04639183729887009, -0.25528258085250854, 1.842612385749817, -0.47118332982063293, 10.982702255249023, 19.024066925048828, -35.5659065246582, 3.662187337875366, -0.313720703125, 0.30419921875, -0.845703125, 
331, 3538409682, 0.9632737636566162, -0.06894039362668991, -0.048724569380283356, -0.2549431324005127, 1.7038463354110718, -0.8817266225814819, 11.64112663269043, 14.971470832824707, -30.02800750732422, 1.8312019109725952, -0.318115234375, 0.301025390625, -0.843994140625, 
332, 3538418015, 0.9632654190063477, -0.06816504150629044, -0.050744593143463135, -0.25478875637054443, 1.6342624425888062, -1.7975751161575317, 11.876136779785156, 16.940488815307617, -25.023283004760742, -0.57319575548172, -0.322021484375, 0.300048828125, -0.846435546875, 
333, 3538426348, 0.9632540345191956, -0.06718356907367706, -0.05268362537026405, -0.2546992301940918, 1.7206820249557495, -2.2314367294311523, 11.741445541381836, 19.352144241333008, -23.017967224121094, -1.4988948106765747, -0.325439453125, 0.29638671875, -0.84130859375, 
334, 3538434681, 0.9632497429847717, -0.06624643504619598, -0.05452393740415573, -0.25457292795181274, 1.6063175201416016, -1.867505431175232, 11.328865051269531, 18.453006744384766, -22.050233840942383, -0.8141233921051025, -0.328369140625, 0.295654296875, -0.84326171875, 
335, 3538443014, 0.9632415175437927, -0.06559980660676956, -0.05618402734398842, -0.25441092252731323, 1.5501952171325684, -1.321688175201416, 10.354613304138184, 13.996713638305664, -20.56017303466797, -0.021618425846099854, -0.328125, 0.292724609375, -0.8447265625, 
336, 3538451347, 0.9632216691970825, -0.06555323302745819, -0.057568684220314026, -0.2541883587837219, 1.5847605466842651, -0.6714872717857361, 8.969704627990723, 5.114972114562988, -19.22356414794922, 1.439405083656311, -0.32861328125, 0.2890625, -0.83984375, 
337, 3538459680, 0.9632062315940857, -0.06595579534769058, -0.05864958092570305, -0.25389567017555237, 1.532536506652832, -0.7986219525337219, 8.46556282043457, -1.8287543058395386, -16.68035125732422, 3.025669574737549, -0.333251953125, 0.294189453125, -0.843505859375, 
338, 3538468013, 0.9632133841514587, -0.06657412648200989, -0.05955856293439865, -0.2534947693347931, 1.7208212614059448, -1.119410514831543, 8.843250274658203, -5.187421798706055, -15.383220672607422, 4.853271007537842, -0.334228515625, 0.29345703125, -0.843017578125, 
339, 3538476346, 0.9632453918457031, -0.06715411692857742, -0.06019096449017525, -0.2530703544616699, 2.021790027618408, -1.1589610576629639, 10.108489990234375, -5.594842433929443, -11.440755844116211, 5.487761974334717, -0.336181640625, 0.2939453125, -0.841064453125, 
340, 3538484679, 0.9632928371429443, -0.06752470135688782, -0.06052655726671219, -0.2527109682559967, 2.0306570529937744, -1.4941424131393433, 10.812076568603516, -3.9000496864318848, -6.850809574127197, 4.767539978027344, -0.337158203125, 0.2939453125, -0.840576171875, 
341, 3538493012, 0.9633554816246033, -0.06768721342086792, -0.06060222536325455, -0.2524105906486511, 1.9724026918411255, -1.5253758430480957, 11.455558776855469, -2.0750091075897217, -2.474360704421997, 4.118781566619873, -0.337158203125, 0.29638671875, -0.838623046875, 
342, 3538501345, 0.9634138941764832, -0.06790728121995926, -0.06039879098534584, -0.25217705965042114, 1.7369896173477173, -1.631950855255127, 11.786473274230957, -3.869030237197876, 0.9423605799674988, 3.514439821243286, -0.336181640625, 0.2939453125, -0.839599609375, 
343, 3538509678, 0.9634615778923035, -0.06832706183195114, -0.05995774269104004, -0.2519869804382324, 1.5021206140518188, -1.7366145849227905, 11.407130241394043, -7.382227420806885, 3.5685880184173584, 3.3002021312713623, -0.338134765625, 0.2958984375, -0.839111328125, 
344, 3538518011, 0.9635054469108582, -0.06879810988903046, -0.0594048835337162, -0.251821368932724, 1.156664252281189, -1.9354056119918823, 10.517335891723633, -8.473368644714355, 4.752375602722168, 3.099745512008667, -0.335693359375, 0.2978515625, -0.83837890625, 
345, 3538526344, 0.9635522961616516, -0.069183848798275, -0.05894042178988457, -0.25164586305618286, 0.9766061902046204, -1.8736306428909302, 9.807682991027832, -7.0243330001831055, 4.010626316070557, 3.09924578666687, -0.334228515625, 0.29736328125, -0.83642578125, 
346, 3538534677, 0.9636115431785583, -0.06944770365953445, -0.05853809788823128, -0.25144022703170776, 1.028774380683899, -1.4598263502120972, 9.276159286499023, -5.144593238830566, 3.4380576610565186, 3.4415414333343506, -0.333740234375, 0.298095703125, -0.8388671875, 
347, 3538543010, 0.963677167892456, -0.06963703036308289, -0.05821371078491211, -0.2512117922306061, 1.0389395952224731, -1.2925596237182617, 8.925559043884277, -3.8771495819091797, 2.798624038696289, 3.573275566101074, -0.3330078125, 0.29248046875, -0.8330078125, 
348, 3538551343, 0.9637326598167419, -0.0697811171412468, -0.057993076741695404, -0.25100910663604736, 1.0846760272979736, -1.0735666751861572, 8.902822494506836, -2.9084455966949463, 1.4271612167358398, 3.269670009613037, -0.3330078125, 0.301513671875, -0.837890625, 
349, 3538559676, 0.963778555393219, -0.07000953704118729, -0.05783503130078316, -0.2508060932159424, 1.2353227138519287, -0.7017236351966858, 8.92015266418457, -3.860039710998535, 0.4674213230609894, 3.041626453399658, -0.332275390625, 0.300048828125, -0.8388671875, 
350, 3538568009, 0.9638139009475708, -0.07030174881219864, -0.05762605369091034, -0.25063633918762207, 1.3313077688217163, -0.6242581605911255, 9.030632972717285, -4.911094665527344, 0.8012773394584656, 2.646552801132202, -0.33203125, 0.301025390625, -0.837890625, 
351, 3538576342, 0.9638330936431885, -0.0707034021615982, -0.05736792832612991, -0.2505091428756714, 1.3251971006393433, -0.7725334763526917, 9.110687255859375, -6.587674617767334, 1.248297095298767, 2.1779658794403076, -0.330078125, 0.302490234375, -0.8388671875, 
352, 3538584675, 0.9638428092002869, -0.07116961479187012, -0.057026319205760956, -0.2504173219203949, 1.3902089595794678, -0.8450580835342407, 9.21905517578125, -7.7630085945129395, 2.0148539543151855, 1.792778730392456, -0.33154296875, 0.302490234375, -0.8388671875, 
353, 3538593008, 0.9638526439666748, -0.07155713438987732, -0.05663897097110748, -0.2503572404384613, 1.441428542137146, -1.1166733503341675, 9.36020565032959, -6.907084941864014, 3.0684709548950195, 1.3715273141860962, -0.33056640625, 0.303466796875, -0.838134765625, 
354, 3538601341, 0.9638547897338867, -0.07188557833433151, -0.05627615377306938, -0.2503366470336914, 1.4546549320220947, -1.1773756742477417, 9.537226676940918, -6.065450668334961, 2.8285157680511475, 0.790544867515564, -0.32958984375, 0.30419921875, -0.837646484375, 
355, 3538609674, 0.9638432264328003, -0.07226816564798355, -0.05593404918909073, -0.25034767389297485, 1.4066622257232666, -1.05519437789917, 9.617642402648926, -6.7608256340026855, 2.5395870208740234, 0.3069225549697876, -0.328857421875, 0.302978515625, -0.837158203125, 
356, 3538618007, 0.9638053178787231, -0.07280948758125305, -0.055552542209625244, -0.25042152404785156, 1.3242913484573364, -1.0284080505371094, 9.549508094787598, -9.059243202209473, 2.403038263320923, -0.3798591196537018, -0.328125, 0.3046875, -0.836669921875, 
357, 3538626340, 0.9637361764907837, -0.07358413189649582, -0.05514020472764969, -0.25055259466171265, 1.2327110767364502, -0.8934444189071655, 9.423345565795898, -12.34854793548584, 2.1958959102630615, -1.1131691932678223, -0.32763671875, 0.30615234375, -0.837646484375, 
358, 3538634673, 0.9636328816413879, -0.07461108267307281, -0.054638851433992386, -0.25075575709342957, 1.2191157341003418, -0.8014470934867859, 9.247540473937988, -16.077341079711914, 2.403269052505493, -1.8643838167190552, -0.3291015625, 0.30810546875, -0.837158203125, 
359, 3538643006, 0.963482141494751, -0.07590717822313309, -0.05411313846707344, -0.2510600686073303, 1.205288052558899, -0.6955384016036987, 9.193552017211914, -19.86433219909668, 2.015469551086426, -3.182185411453247, -0.33203125, 0.306396484375, -0.835205078125, 
360, 3538651339, 0.9632905721664429, -0.07746689021587372, -0.053518373519182205, -0.2514459192752838, 1.2444722652435303, -0.549027681350708, 9.265070915222168, -23.698352813720703, 2.0755863189697266, -4.133703708648682, -0.330322265625, 0.31201171875, -0.834716796875, 
361, 3538659672, 0.963051438331604, -0.07923994213342667, -0.05281362682580948, -0.2519585192203522, 1.3528578281402588, -0.598818302154541, 9.371298789978027, -27.009639739990234, 2.718043565750122, -5.4587554931640625, -0.327880859375, 0.314453125, -0.83154296875, 
362, 3538668005, 0.9627781510353088, -0.08120416849851608, -0.052008457481861115, -0.25254350900650024, 1.3831778764724731, -0.6877135634422302, 9.383607864379883, -30.002002716064453, 3.4563236236572266, -6.421699047088623, -0.327392578125, 0.314453125, -0.8291015625, 
363, 3538676338, 0.9624655246734619, -0.0834181159734726, -0.05110090970993042, -0.25319868326187134, 1.4383209943771362, -0.7025727033615112, 9.472886085510254, -33.7744026184082, 4.154876708984375, -7.306595802307129, -0.328857421875, 0.3173828125, -0.8310546875, 
364, 3538684671, 0.9620988368988037, -0.08599531650543213, -0.050028398633003235, -0.25394314527511597, 1.4932503700256348, -0.6625995635986328, 9.644224166870117, -39.25190353393555, 4.962061405181885, -8.009966850280762, -0.328125, 0.322021484375, -0.828369140625, 
365, 3538693004, 0.961666464805603, -0.08914095163345337, -0.04873907193541527, -0.2547456622123718, 1.519152045249939, -0.5359467267990112, 9.87968921661377, -47.675228118896484, 6.045214653015137, -8.581324577331543, -0.32958984375, 0.327880859375, -0.826416015625, 
366, 3538701337, 0.9611302614212036, -0.09314613044261932, -0.047107283025979996, -0.2556413412094116, 1.5952683687210083, -0.312669575214386, 10.020391464233398, -60.406166076660156, 7.425987720489502, -8.944392204284668, -0.329345703125, 0.333251953125, -0.82275390625, 
367, 3538709670, 0.9604620933532715, -0.09837518632411957, -0.044984932988882065, -0.25657397508621216, 1.6397721767425537, 0.03492048755288124, 10.081867218017578, -78.52558135986328, 9.750919342041016, -8.711551666259766, -0.326904296875, 0.33984375, -0.819580078125, 
368, 3538718003, 0.9596086740493774, -0.10510801523923874, -0.0421023964881897, -0.25758445262908936, 1.6863003969192505, 0.2998809814453125, 10.005949020385742, -101.35006713867188, 14.290657997131348, -8.19532299041748, -0.326904296875, 0.350341796875, -0.8173828125, 
369, 3538726336, 0.958526611328125, -0.11346479505300522, -0.038350388407707214, -0.2586522698402405, 1.6765698194503784, 0.2909659743309021, 10.025810241699219, -126.24307250976562, 20.147180557250977, -7.803746700286865, -0.3271484375, 0.361572265625, -0.811279296875, 
370, 3538734669, 0.9571757912635803, -0.12325788289308548, -0.03367738425731659, -0.2598211169242859, 1.71978759765625, 0.004633858799934387, 10.138543128967285, -148.90725708007812, 26.985126495361328, -7.575434684753418, -0.3271484375, 0.3759765625, -0.804443359375, 
371, 3538743002, 0.9555605053901672, -0.1341320276260376, -0.02821602299809456, -0.261027991771698, 1.8118306398391724, -0.5059971809387207, 10.052672386169434, -166.43714904785156, 33.65023422241211, -7.5046234130859375, -0.319580078125, 0.392333984375, -0.793212890625, 
372, 3538751335, 0.9536618590354919, -0.1457962989807129, -0.02212204784154892, -0.2623019814491272, 1.820613145828247, -1.0909532308578491, 10.197750091552734, -179.64630126953125, 38.931732177734375, -7.66180419921875, -0.3154296875, 0.408447265625, -0.784423828125, 
373, 3538759668, 0.9514794945716858, -0.15808211266994476, -0.015546657145023346, -0.26358017325401306, 1.7952200174331665, -1.64560067653656, 10.277755737304688, -190.09754943847656, 43.13508605957031, -7.855022430419922, -0.31298828125, 0.42626953125, -0.7763671875, 
374, 3538768001, 0.9490201473236084, -0.17071303725242615, -0.008575540035963058, -0.26488369703292847, 1.787847638130188, -2.193636655807495, 10.131135940551758, -196.6783447265625, 46.85121154785156, -8.036218643188477, -0.3095703125, 0.451171875, -0.764892578125, 
375, 3538776334, 0.9463335871696472, -0.18340539932250977, -0.0013767685741186142, -0.26614323258399963, 1.6362744569778442, -2.767479419708252, 9.823504447937012, -198.81541442871094, 49.6747932434082, -7.9687042236328125, -0.3046875, 0.468994140625, -0.751708984375, 
376, 3538784667, 0.9434565305709839, -0.19599178433418274, 0.005896944552659988, -0.2673223316669464, 1.4183911085128784, -3.291691541671753, 9.377613067626953, -198.22244262695312, 50.62101364135742, -7.235289573669434, -0.30078125, 0.490966796875, -0.74072265625, 
377, 3538793000, 0.9403790235519409, -0.20867328345775604, 0.013215793296694756, -0.26830410957336426, 1.209882140159607, -3.433501720428467, 9.185243606567383, -200.1464385986328, 50.55289077758789, -5.49530553817749, -0.296630859375, 0.50830078125, -0.725341796875, 
378, 3538801333, 0.9370810985565186, -0.22149871289730072, 0.020712029188871384, -0.2690863013267517, 1.186765193939209, -3.4982595443725586, 9.094922065734863, -203.32972717285156, 51.78269958496094, -3.2441940307617188, -0.291259765625, 0.527587890625, -0.712646484375, 
379, 3538809666, 0.9335165023803711, -0.23459480702877045, 0.02850741520524025, -0.2696637511253357, 1.1828174591064453, -3.7716290950775146, 8.97075080871582, -208.83447265625, 53.8608283996582, -0.574397087097168, -0.287841796875, 0.54736328125, -0.6962890625, 
380, 3538817999, 0.9296340346336365, -0.24813415110111237, 0.03664019703865051, -0.26997512578964233, 1.0959659814834595, -3.922827959060669, 8.750028610229492, -216.93104553222656, 55.93344497680664, 2.34182071685791, -0.2841796875, 0.564697265625, -0.681884765625, 
381, 3538826332, 0.9253528118133545, -0.26216620206832886, 0.04521515965461731, -0.27012214064598083, 0.9888513684272766, -4.137201309204102, 8.370658874511719, -226.2532958984375, 59.5069580078125, 4.273005962371826, -0.275390625, 0.58935546875, -0.663818359375, 
382, 3538834665, 0.9205735921859741, -0.27679726481437683, 0.054386720061302185, -0.27016425132751465, 0.9191534519195557, -4.425292491912842, 7.4953932762146, -238.01925659179688, 64.7039566040039, 5.479856967926025, -0.268310546875, 0.608154296875, -0.64306640625, 
383, 3538842998, 0.9152780771255493, -0.29202142357826233, 0.0639636218547821, -0.2700319290161133, 0.721562385559082, -4.740755558013916, 6.623044013977051, -249.06634521484375, 67.45503234863281, 6.926636219024658, -0.261962890625, 0.6279296875, -0.623291015625, 
384, 3538851331, 0.9095953702926636, -0.30740490555763245, 0.07364683598279953, -0.2696920931339264, 0.4310095012187958, -5.400276184082031, 6.043188571929932, -253.26779174804688, 67.61486053466797, 8.322992324829102, -0.25537109375, 0.649658203125, -0.602294921875, 
385, 3538859664, 0.9037044048309326, -0.3224375545978546, 0.08318785578012466, -0.2691677212715149, 0.27347078919410706, -6.509084701538086, 5.835654258728027, -249.35423278808594, 66.66291046142578, 9.678563117980957, -0.249755859375, 0.666259765625, -0.57275390625, 
386, 3538867997, 0.8978106379508972, -0.33662280440330505, 0.09240464866161346, -0.26851755380630493, 0.245757594704628, -7.780440807342529, 5.897243976593018, -237.83221435546875, 65.1263198852539, 10.689995765686035, -0.245361328125, 0.6884765625, -0.55419921875, 
387, 3538876330, 0.8920807838439941, -0.34962356090545654, 0.10115950554609299, -0.2678455412387848, 0.22384706139564514, -8.451495170593262, 6.16448450088501, -220.71475219726562, 63.57626724243164, 11.004476547241211, -0.23974609375, 0.70556640625, -0.532958984375, 
388, 3538884663, 0.8866700530052185, -0.3612079620361328, 0.10937903821468353, -0.2672083079814911, 0.09153412282466888, -8.537713050842285, 6.3785881996154785, -199.82247924804688, 61.86493682861328, 11.071145057678223, -0.234130859375, 0.7158203125, -0.510498046875, 
389, 3538892996, 0.8815855383872986, -0.37154778838157654, 0.11704829335212708, -0.26660415530204773, -0.0794442743062973, -8.347570419311523, 6.538488864898682, -180.91427612304688, 59.48485565185547, 11.085055351257324, -0.2275390625, 0.733642578125, -0.49267578125, 
390, 3538901329, 0.8766856789588928, -0.38110944628715515, 0.12435946613550186, -0.2659537196159363, -0.12186844646930695, -7.826939105987549, 6.633883476257324, -169.32504272460938, 57.38617706298828, 11.660965919494629, -0.2236328125, 0.74267578125, -0.475341796875, 
391, 3538909662, 0.8717038035392761, -0.3904936611652374, 0.13158781826496124, -0.265237033367157, -0.1498064398765564, -7.251570224761963, 6.72734260559082, -167.3999481201172, 56.906497955322266, 12.112601280212402, -0.217041015625, 0.756103515625, -0.457275390625, 
392, 3538917995, 0.8664020895957947, -0.40017589926719666, 0.13899710774421692, -0.2643963098526001, -0.186104878783226, -6.852445602416992, 6.626436233520508, -173.599853515625, 57.82709503173828, 12.779359817504883, -0.213134765625, 0.765380859375, -0.440185546875, 
393, 3538926328, 0.8604875802993774, -0.41068562865257263, 0.1468529999256134, -0.26334667205810547, -0.17960011959075928, -6.486316204071045, 6.503259181976318, -188.82789611816406, 60.2366943359375, 14.002622604370117, -0.207275390625, 0.776123046875, -0.419921875, 
394, 3538934661, 0.8537668585777283, -0.4221886098384857, 0.15531666576862335, -0.2621726095676422, -0.16845360398292542, -6.334195137023926, 6.052610874176025, -207.61888122558594, 64.6865234375, 13.893062591552734, -0.203125, 0.78564453125, -0.39892578125, 
395, 3538942994, 0.8462012410163879, -0.4346218407154083, 0.16431109607219696, -0.2608985900878906, -0.236046701669693, -6.5379815101623535, 5.211215972900391, -225.54527282714844, 68.8598403930664, 13.202853202819824, -0.19970703125, 0.797607421875, -0.374755859375, 
396, 3538951327, 0.8378995656967163, -0.4476880431175232, 0.17372912168502808, -0.2594932019710541, -0.3483256995677948, -6.93100118637085, 4.244386672973633, -239.16123962402344, 72.33501434326172, 13.100419044494629, -0.193115234375, 0.809814453125, -0.3486328125, 
397, 3538959660, 0.8290842771530151, -0.46098172664642334, 0.18325167894363403, -0.25797855854034424, -0.5078520178794861, -7.502082824707031, 3.458454132080078, -245.54689025878906, 73.34253692626953, 12.719141960144043, -0.187744140625, 0.8212890625, -0.322021484375, 
398, 3538967993, 0.8200443387031555, -0.47405534982681274, 0.19259846210479736, -0.25636622309684753, -0.7006365060806274, -8.183777809143066, 3.02335262298584, -244.10960388183594, 72.01287078857422, 12.380056381225586, -0.18603515625, 0.82470703125, -0.289794921875, 
399, 3538976326, 0.8110637664794922, -0.4865237772464752, 0.20160570740699768, -0.2546456754207611, -0.8993731141090393, -8.882739067077637, 2.8790290355682373, -235.9619140625, 69.50897979736328, 13.296226501464844, -0.18310546875, 0.83447265625, -0.259765625, 
400, 3538984659, 0.8021398782730103, -0.4984123408794403, 0.2104174941778183, -0.25278496742248535, -0.9383677840232849, -9.01898193359375, 3.0210964679718018, -228.829833984375, 68.21543884277344, 15.25656795501709, -0.177978515625, 0.845947265625, -0.232177734375, 
401, 3538992992, 0.793117880821228, -0.5099354982376099, 0.21916678547859192, -0.25082826614379883, -0.8669775128364563, -8.68277359008789, 3.2064828872680664, -225.52117919921875, 68.47084045410156, 16.703006744384766, -0.173583984375, 0.85400390625, -0.206298828125, 
402, 3539001325, 0.7837196588516235, -0.5214592218399048, 0.22804096341133118, -0.2487567961215973, -0.8119908571243286, -8.376643180847168, 3.2717368602752686, -228.94696044921875, 70.11808776855469, 17.428157806396484, -0.16943359375, 0.859130859375, -0.17919921875, 
403, 3539009658, 0.7736667394638062, -0.5333144068717957, 0.23709362745285034, -0.2466195970773697, -0.7827199101448059, -8.386370658874512, 3.097332000732422, -238.0266571044922, 72.53106689453125, 16.241247177124023, -0.16650390625, 0.863525390625, -0.1494140625, 
404, 3539017991, 0.7626183032989502, -0.5458172559738159, 0.24652349948883057, -0.24442127346992493, -0.8119011521339417, -8.484306335449219, 3.0088024139404297, -253.70164489746094, 77.11192321777344, 14.065714836120605, -0.162353515625, 0.869873046875, -0.120361328125, 
405, 3539026324, 0.7504860162734985, -0.5589333176612854, 0.2564024329185486, -0.24215903878211975, -0.8964861035346985, -8.158583641052246, 2.849356174468994, -269.9941101074219, 82.9909896850586, 12.488959312438965, -0.16015625, 0.86962890625, -0.088134765625, 
406, 3539034657, 0.7372247576713562, -0.5726382732391357, 0.26674312353134155, -0.23969200253486633, -0.9066241383552551, -7.796743869781494, 2.3906657695770264, -287.0179138183594, 88.17713165283203, 12.210034370422363, -0.160400390625, 0.871337890625, -0.051513671875, 
407, 3539042990, 0.7225533127784729, -0.5870901346206665, 0.27764275670051575, -0.23701395094394684, -0.8971643447875977, -7.324657917022705, 1.6530818939208984, -308.31072998046875, 94.9206314086914, 11.469197273254395, -0.16064453125, 0.871337890625, -0.013427734375, 
408, 3539051323, 0.7062163352966309, -0.6024026274681091, 0.2891669273376465, -0.2340317666530609, -0.8169893026351929, -6.960122585296631, 0.8032123446464539, -333.5167236328125, 102.21153259277344, 10.70965576171875, -0.154541015625, 0.87109375, 0.02734375, 
409, 3539059656, 0.6882515549659729, -0.6184670925140381, 0.3010808825492859, -0.23060236871242523, -0.8430162072181702, -6.923970699310303, -0.04547862708568573, -357.3392639160156, 106.3616943359375, 10.162040710449219, -0.152099609375, 0.86865234375, 0.0673828125, 
410, 3539067989, 0.6689363718032837, -0.634878396987915, 0.3131446838378906, -0.22674408555030823, -0.9470803737640381, -7.243118762969971, -0.8667633533477783, -374.3641052246094, 108.62191009521484, 9.669401168823242, -0.156982421875, 0.8623046875, 0.11328125, 
411, 3539076322, 0.6482431292533875, -0.6513954997062683, 0.3254896402359009, -0.2225762903690338, -0.7965553998947144, -7.679126262664795, -1.2629880905151367, -389.58404541015625, 114.11448669433594, 10.327302932739258, -0.15625, 0.84765625, 0.164306640625, 
412, 3539084655, 0.6265566945075989, -0.6676292419433594, 0.33783915638923645, -0.2181321382522583, -0.7941412925720215, -7.610658645629883, -1.896747350692749, -397.1980895996094, 117.00286102294922, 10.954060554504395, -0.15966796875, 0.841064453125, 0.207763671875, 
413, 3539092988, 0.6043502688407898, -0.6832159161567688, 0.3499535918235779, -0.21337398886680603, -1.0496118068695068, -7.970882415771484, -2.5656487941741943, -397.1627502441406, 116.44271850585938, 13.054126739501953, -0.163818359375, 0.82861328125, 0.2568359375, 
414, 3539101321, 0.5814158320426941, -0.6981825828552246, 0.3621435761451721, -0.2082483470439911, -0.9754122495651245, -8.31249713897705, -3.241604804992676, -400.8158874511719, 118.95938110351562, 17.56243324279785, -0.16796875, 0.81005859375, 0.300537109375, 
415, 3539109654, 0.5584225654602051, -0.7122325897216797, 0.373737096786499, -0.20304752886295319, -1.100002408027649, -8.782394409179688, -3.8593177795410156, -392.7405700683594, 116.36775207519531, 16.937397003173828, -0.170654296875, 0.790771484375, 0.3447265625, 
416, 3539117987, 0.5350272059440613, -0.7254801392555237, 0.3851722478866577, -0.19770148396492004, -1.0144462585449219, -8.919175148010254, -4.568473815917969, -390.78106689453125, 118.06430053710938, 19.405471801757812, -0.176513671875, 0.76904296875, 0.3896484375, 
417, 3539126320, 0.5118999481201172, -0.7376709580421448, 0.39614415168762207, -0.19206468760967255, -1.4976423978805542, -8.936058044433594, -5.330786228179932, -380.64776611328125, 113.17860412597656, 23.34508514404297, -0.18212890625, 0.747314453125, 0.43115234375, 
418, 3539134653, 0.48958754539489746, -0.7486947774887085, 0.40632984042167664, -0.18621239066123962, -1.9087862968444824, -9.124659538269043, -6.361635684967041, -363.2052917480469, 104.13652801513672, 25.303415298461914, -0.18505859375, 0.72216796875, 0.47021484375, 
419, 3539142986, 0.4687526524066925, -0.7583123445510864, 0.4155834913253784, -0.1803954392671585, -2.170747756958008, -9.990678787231445, -6.862515926361084, -335.9825134277344, 93.52976989746094, 27.204727172851562, -0.19287109375, 0.69873046875, 0.504638671875, 
420, 3539151319, 0.4490620195865631, -0.7667388916015625, 0.4241703748703003, -0.17479439079761505, -1.8871365785598755, -9.70811653137207, -7.432477951049805, -313.4163513183594, 87.94306945800781, 28.4138126373291, -0.195556640625, 0.6748046875, 0.535888671875, 
421, 3539159652, 0.4314231872558594, -0.7738317847251892, 0.431729793548584, -0.16937211155891418, -2.160861015319824, -9.650447845458984, -7.764334201812744, -280.0882873535156, 74.67308807373047, 29.276994705200195, -0.201416015625, 0.650390625, 0.56201171875, 
422, 3539167985, 0.41520121693611145, -0.7799125909805298, 0.43863415718078613, -0.16420473158359528, -2.0411393642425537, -9.526802062988281, -7.650988578796387, -255.89064025878906, 67.49625396728516, 30.01262664794922, -0.203125, 0.627685546875, 0.585693359375, 
423, 3539176318, 0.40013906359672546, -0.7851970195770264, 0.4450329840183258, -0.15911951661109924, -1.911440134048462, -8.466285705566406, -7.539094924926758, -237.3373260498047, 60.23854064941406, 31.635168075561523, -0.208251953125, 0.60546875, 0.607421875, 
424, 3539184651, 0.3865088224411011, -0.7897608876228333, 0.4507090449333191, -0.15417155623435974, -2.04184889793396, -8.150489807128906, -7.422031402587891, -215.40798950195312, 50.619266510009766, 30.529111862182617, -0.209228515625, 0.579345703125, 0.628662109375, 
425, 3539192984, 0.37339621782302856, -0.7938932180404663, 0.4560784697532654, -0.14939965307712555, -1.754652500152588, -7.685676097869873, -6.932516574859619, -205.82937622070312, 48.54486083984375, 30.125228881835938, -0.212158203125, 0.5634765625, 0.64404296875, 
426, 3539201317, 0.3607979416847229, -0.7976463437080383, 0.4611413776874542, -0.14475120604038239, -1.565958023071289, -6.783005714416504, -6.90480899810791, -196.78053283691406, 45.943058013916016, 29.492042541503906, -0.215087890625, 0.549560546875, 0.65966796875, 
427, 3539209650, 0.34864771366119385, -0.8010584115982056, 0.4658921957015991, -0.14040546119213104, -1.568906545639038, -7.000629901885986, -6.920942306518555, -187.7134246826172, 45.48158645629883, 27.706912994384766, -0.218505859375, 0.530517578125, 0.6708984375, 
428, 3539217983, 0.337323397397995, -0.8040193915367126, 0.4702320694923401, -0.13662536442279816, -1.5358867645263672, -7.037829875946045, -7.291423797607422, -171.9503173828125, 45.39822769165039, 24.871139526367188, -0.21875, 0.51220703125, 0.68505859375, 
429, 3539226316, 0.32709190249443054, -0.806501030921936, 0.47407856583595276, -0.1335497498512268, -1.5384047031402588, -7.5313005447387695, -7.608903408050537, -152.24546813964844, 44.65497970581055, 21.381771087646484, -0.22119140625, 0.497802734375, 0.699462890625, 
430, 3539234649, 0.31806719303131104, -0.8085007667541504, 0.47745150327682495, -0.1312197595834732, -1.4095183610916138, -7.570898532867432, -7.714389324188232, -130.87774658203125, 43.89472198486328, 18.054410934448242, -0.224609375, 0.4833984375, 0.70654296875, 
431, 3539242982, 0.31020045280456543, -0.8100228905677795, 0.4804908335208893, -0.12956134974956512, -1.4125322103500366, -7.0854949951171875, -7.81461763381958, -110.98788452148438, 43.0790901184082, 16.714309692382812, -0.228759765625, 0.47119140625, 0.714111328125, 
432, 3539251315, 0.303178608417511, -0.8111691474914551, 0.4833425283432007, -0.12839902937412262, -1.4009302854537964, -6.621517181396484, -7.759022235870361, -96.2785415649414, 42.97859573364258, 16.417570114135742, -0.229248046875, 0.46240234375, 0.720458984375, 
433, 3539259648, 0.297037273645401, -0.8120054602622986, 0.4859447479248047, -0.1276431679725647, -1.373069167137146, -6.572829246520996, -7.603253364562988, -82.10347747802734, 41.079803466796875, 15.634806632995605, -0.237060546875, 0.4521484375, 0.722900390625, 
434, 3539267981, 0.29141321778297424, -0.8126890063285828, 0.4883008599281311, -0.12726455926895142, -1.0889623165130615, -6.304347991943359, -7.373943328857422, -72.67218780517578, 41.188575744628906, 13.197319030761719, -0.240234375, 0.44384765625, 0.7255859375, 
435, 3539276314, 0.28616905212402344, -0.8132530450820923, 0.49046993255615234, -0.12721949815750122, -0.8886632323265076, -6.147503852844238, -7.124131202697754, -65.45783233642578, 41.73540115356445, 11.313828468322754, -0.243896484375, 0.437255859375, 0.7294921875, 
436, 3539284647, 0.28091880679130554, -0.8137884140014648, 0.4925692677497864, -0.12738753855228424, -0.6475993990898132, -5.654426574707031, -7.029527187347412, -63.778995513916016, 44.0273551940918, 9.805193901062012, -0.247314453125, 0.423095703125, 0.735107421875, 
437, 3539292980, 0.27567940950393677, -0.8142696022987366, 0.4946274757385254, -0.12778228521347046, -0.6544207334518433, -5.530647277832031, -7.05280065536499, -61.915855407714844, 46.333290100097656, 8.926980972290039, -0.251220703125, 0.418212890625, 0.73876953125, 
438, 3539301313, 0.27058231830596924, -0.8146523237228394, 0.4966498613357544, -0.12839244306087494, -0.655046820640564, -5.516894817352295, -7.121401309967041, -58.34803771972656, 47.91006851196289, 8.558796882629395, -0.255859375, 0.419189453125, 0.7373046875, 
439, 3539309646, 0.2655949592590332, -0.8150163888931274, 0.4984941780567169, -0.12934450805187225, -0.6012457609176636, -5.673604965209961, -7.293179988861084, -54.473419189453125, 50.2667350769043, 5.683634281158447, -0.262939453125, 0.410888671875, 0.742919921875, 
440, 3539317979, 0.2607980966567993, -0.8153101801872253, 0.5002375245094299, -0.13051794469356537, -0.5979901552200317, -5.666202545166016, -7.7710394859313965, -50.313201904296875, 51.29316329956055, 4.4950761795043945, -0.26513671875, 0.40478515625, 0.7412109375, 
441, 3539326312, 0.2563447952270508, -0.8155010938644409, 0.5018770694732666, -0.13184691965579987, -0.568865180015564, -5.931947708129883, -8.4694185256958, -44.907005310058594, 50.39130401611328, 4.167952060699463, -0.271484375, 0.400390625, 0.743408203125, 
442, 3539334645, 0.2521930932998657, -0.8156414031982422, 0.5033823251724243, -0.1332400143146515, -0.4347149729728699, -5.865005016326904, -8.92241096496582, -40.592533111572266, 48.74394607543945, 3.265019655227661, -0.2783203125, 0.395751953125, 0.7431640625, 
443, 3539342978, 0.2483721673488617, -0.815771758556366, 0.5047187209129333, -0.1345575451850891, -0.3840312063694, -5.667542457580566, -9.010490417480469, -37.12871170043945, 44.94160079956055, 2.3750486373901367, -0.28466796875, 0.3935546875, 0.742431640625, 
444, 3539351311, 0.2447822093963623, -0.8159236907958984, 0.5058915615081787, -0.13580361008644104, -0.39633268117904663, -5.6206865310668945, -8.933958053588867, -34.734378814697266, 42.037689208984375, 0.9984325766563416, -0.2890625, 0.388916015625, 0.7431640625, 
