sep=,
PacketCounter,SampleTimeFine,Quat_W,Quat_X,Quat_Y,Quat_Z,Acc_X,Acc_Y,Acc_Z,Gyr_X,Gyr_Y,Gyr_Z,Mag_X,Mag_Y,Mag_Z,
0, 3733018564, 0.9474998116493225, -0.10249180346727371, 0.01609087362885475, -0.30248892307281494, 0, 0, 0, 0, 0, 0, -0.205078125, 0.444091796875, -0.848388671875, 
1, 3733026897, 0.9475036859512329, -0.10238725692033768, 0.015959354117512703, -0.30251914262771606, 0.23796020448207855, -2.0172855854034424, 9.554232597351074, 1.4431700706481934, -1.8948642015457153, -0.6782904863357544, -0.20654296875, 0.444580078125, -0.849365234375, 
2, 3733035230, 0.9475036859512329, -0.10228779911994934, 0.015843255445361137, -0.3025591969490051, 0.19195517897605896, -1.9600334167480469, 9.53484058380127, 1.295017123222351, -1.7258870601654053, -0.795091450214386, -0.206298828125, 0.447998046875, -0.84765625, 
3, 3733043563, 0.9474972486495972, -0.10222727060317993, 0.015732575207948685, -0.30260545015335083, 0.16359108686447144, -1.8964887857437134, 9.494725227355957, 0.7716416120529175, -1.7842875719070435, -0.9008782505989075, -0.20458984375, 0.446044921875, -0.845703125, 
4, 3733051896, 0.9474751353263855, -0.10225795209407806, 0.015641914680600166, -0.3026689887046814, 0.16799502074718475, -1.8403717279434204, 9.477273941040039, -0.5311368107795715, -1.8991420269012451, -1.1846072673797607, -0.206787109375, 0.446044921875, -0.847412109375, 
5, 3733060229, 0.9474330544471741, -0.10236990451812744, 0.01560718473047018, -0.3027651607990265, 0.1913451999425888, -1.8486387729644775, 9.495835304260254, -1.8321607112884521, -1.4339361190795898, -1.6340856552124023, -0.2060546875, 0.446044921875, -0.84765625, 
6, 3733068562, 0.9473833441734314, -0.10251051187515259, 0.01562428753823042, -0.3028722405433655, 0.1921103447675705, -2.0292468070983887, 9.487317085266113, -2.442009687423706, -0.8857402205467224, -1.7381818294525146, -0.208251953125, 0.4462890625, -0.846923828125, 
7, 3733076895, 0.9473286867141724, -0.10265874862670898, 0.01563870534300804, -0.3029920756816864, 0.16098439693450928, -2.0823380947113037, 9.5338773727417, -2.5223617553710938, -0.9112775325775146, -1.9288029670715332, -0.20654296875, 0.445556640625, -0.8466796875, 
8, 3733085228, 0.9472736120223999, -0.10278599709272385, 0.0156540609896183, -0.30312031507492065, 0.1486668735742569, -2.070207118988037, 9.586444854736328, -2.262326240539551, -0.8211923241615295, -2.0382273197174072, -0.20556640625, 0.446044921875, -0.8466796875, 
9, 3733093561, 0.9472144842147827, -0.10290117561817169, 0.015673348680138588, -0.30326470732688904, 0.17221875488758087, -2.17905855178833, 9.63003158569336, -2.112431764602661, -0.6720151305198669, -2.268627405166626, -0.20751953125, 0.44580078125, -0.845703125, 
10, 3733101894, 0.947155773639679, -0.10298684984445572, 0.015676531940698624, -0.303418904542923, 0.1686568409204483, -2.188713788986206, 9.54909896850586, -1.6711493730545044, -0.769169807434082, -2.3977739810943604, -0.20703125, 0.44384765625, -0.845458984375, 
11, 3733110227, 0.9470933675765991, -0.1030723825097084, 0.01563834585249424, -0.3035867512226105, 0.13305868208408356, -2.122692108154297, 9.521520614624023, -1.485113263130188, -1.2673922777175903, -2.6483068466186523, -0.204345703125, 0.447509765625, -0.84765625, 
12, 3733118560, 0.9470289945602417, -0.10318335890769958, 0.015571732074022293, -0.30375340580940247, 0.1466924548149109, -2.110595941543579, 9.553698539733887, -1.7149242162704468, -1.7635400295257568, -2.689929723739624, -0.205078125, 0.447021484375, -0.8466796875, 
13, 3733126893, 0.9469606280326843, -0.10327650606632233, 0.015478857792913914, -0.30393922328948975, 0.2135261744260788, -2.249959707260132, 9.54604434967041, -1.3600646257400513, -1.9839763641357422, -2.9970703125, -0.208251953125, 0.44580078125, -0.846923828125, 
14, 3733135226, 0.9469022154808044, -0.10330022871494293, 0.015336119569838047, -0.3041205406188965, 0.20822079479694366, -2.3493289947509766, 9.522560119628906, -0.24763835966587067, -2.3722362518310547, -2.9445862770080566, -0.207275390625, 0.446533203125, -0.847900390625, 
15, 3733143559, 0.94686359167099, -0.1032274067401886, 0.015124495141208172, -0.30427563190460205, 0.17363585531711578, -2.3001716136932373, 9.481202125549316, 1.3343093395233154, -2.887902021408081, -2.5955922603607178, -0.208251953125, 0.4462890625, -0.845947265625, 
16, 3733151892, 0.9468434453010559, -0.10307864099740982, 0.014867737889289856, -0.30440130829811096, 0.14498737454414368, -2.239624261856079, 9.53788948059082, 2.517251968383789, -3.2220916748046875, -2.1852784156799316, -0.208740234375, 0.44677734375, -0.845458984375, 
17, 3733160225, 0.9468406438827515, -0.10289333760738373, 0.014559341594576836, -0.30448755621910095, 0.13326555490493774, -2.184105396270752, 9.712332725524902, 3.2436203956604004, -3.7852976322174072, -1.6613649129867554, -0.209716796875, 0.44677734375, -0.845947265625, 
18, 3733168558, 0.9468480944633484, -0.10272132605314255, 0.014282514341175556, -0.3045353889465332, 0.16179651021957397, -2.0551700592041016, 9.804093360900879, 2.9265928268432617, -3.5005435943603516, -1.080920696258545, -0.20849609375, 0.44482421875, -0.846435546875, 
19, 3733176891, 0.946857750415802, -0.10258401930332184, 0.014060982502996922, -0.30456221103668213, 0.17761065065860748, -2.0007054805755615, 9.847970962524414, 2.2615957260131836, -2.9419991970062256, -0.7265733480453491, -0.208251953125, 0.4462890625, -0.846435546875, 
20, 3733185224, 0.9468728303909302, -0.10247807949781418, 0.013876689597964287, -0.3045593798160553, 0.18141430616378784, -2.0344574451446533, 9.826655387878418, 1.67848801612854, -2.646693468093872, -0.2695898413658142, -0.210693359375, 0.4453125, -0.849365234375, 
21, 3733193557, 0.9469024538993835, -0.10235598683357239, 0.013710915111005306, -0.3045159876346588, 0.20719632506370544, -2.06610107421875, 9.735593795776367, 1.8442378044128418, -2.383481502532959, 0.3476491868495941, -0.21044921875, 0.44287109375, -0.848388671875, 
22, 3733201890, 0.9469438791275024, -0.10219035297632217, 0.01355461124330759, -0.3044499158859253, 0.2286677360534668, -2.090146541595459, 9.672103881835938, 2.364539861679077, -2.1258788108825684, 0.7133949398994446, -0.210693359375, 0.4443359375, -0.845458984375, 
23, 3733210223, 0.9469969272613525, -0.1019665002822876, 0.013406503945589066, -0.3043667674064636, 0.29357072710990906, -2.143141984939575, 9.60993480682373, 3.1208255290985107, -1.7886419296264648, 1.0046286582946777, -0.21044921875, 0.44384765625, -0.845947265625, 
24, 3733218556, 0.9470561742782593, -0.10167837142944336, 0.01325394120067358, -0.3042856454849243, 0.3363906145095825, -2.080916166305542, 9.51677131652832, 3.9672484397888184, -1.588850975036621, 1.0115445852279663, -0.20849609375, 0.44189453125, -0.847900390625, 
25, 3733226889, 0.947113573551178, -0.1013578251004219, 0.013105161488056183, -0.30421969294548035, 0.33323460817337036, -2.0309770107269287, 9.53348159790039, 4.39034366607666, -1.3671342134475708, 0.8094226717948914, -0.21240234375, 0.441650390625, -0.847412109375, 
26, 3733235222, 0.9471638202667236, -0.10104221850633621, 0.012978943064808846, -0.30417364835739136, 0.3642032742500305, -2.0576088428497314, 9.572686195373535, 4.209046363830566, -1.08074152469635, 0.5599144101142883, -0.2099609375, 0.4423828125, -0.848388671875, 
27, 3733243555, 0.947203516960144, -0.10077068209648132, 0.012888403609395027, -0.3041442632675171, 0.44818344712257385, -2.030895471572876, 9.621009826660156, 3.4926671981811523, -0.7599743604660034, 0.33007779717445374, -0.2099609375, 0.440673828125, -0.845947265625, 
28, 3733251888, 0.9472312331199646, -0.10055645555257797, 0.012859600596129894, -0.3041301965713501, 0.4672226905822754, -1.9714053869247437, 9.624127388000488, 2.45516300201416, -0.18685585260391235, 0.16494286060333252, -0.20947265625, 0.439697265625, -0.846435546875, 
29, 3733260221, 0.9472461342811584, -0.10039746761322021, 0.012908917851746082, -0.30413389205932617, 0.441680908203125, -2.0060935020446777, 9.581755638122559, 1.4135342836380005, 0.6378584504127502, -0.015368540771305561, -0.2109375, 0.44140625, -0.849365234375, 
30, 3733268554, 0.9472612142562866, -0.1002267450094223, 0.012983191758394241, -0.30414026975631714, 0.424726277589798, -2.125025749206543, 9.516648292541504, 1.4433237314224243, 1.003988265991211, -0.01882646232843399, -0.208984375, 0.439453125, -0.848876953125, 
31, 3733276887, 0.9472784399986267, -0.10006944090127945, 0.013061584904789925, -0.30413493514060974, 0.3865896761417389, -2.080411195755005, 9.526548385620117, 1.2720927000045776, 0.9977641701698303, 0.15085503458976746, -0.2099609375, 0.44189453125, -0.849365234375, 
32, 3733285220, 0.9472867250442505, -0.09998073428869247, 0.013205870985984802, -0.30413204431533813, 0.42449262738227844, -1.9483486413955688, 9.577742576599121, 0.0708361566066742, 1.5621224641799927, 0.15462031960487366, -0.20947265625, 0.44091796875, -0.849853515625, 
33, 3733293553, 0.9472817182540894, -0.10000161081552505, 0.013459776528179646, -0.3041297495365143, 0.42037495970726013, -1.9001046419143677, 9.612237930297852, -1.8114899396896362, 2.5473997592926025, 0.22411173582077026, -0.2119140625, 0.43896484375, -0.8505859375, 
34, 3733301886, 0.9472689032554626, -0.10007327795028687, 0.013782854191958904, -0.30413132905960083, 0.33312124013900757, -1.9272034168243408, 9.524751663208008, -2.794795036315918, 3.2303009033203125, 0.2256229966878891, -0.2099609375, 0.439453125, -0.849853515625, 
35, 3733310219, 0.9472481608390808, -0.1001582071185112, 0.014135278761386871, -0.3041521906852722, 0.29073604941368103, -1.9913197755813599, 9.456881523132324, -3.0753731727600098, 3.5971226692199707, -0.01513801421970129, -0.208984375, 0.44091796875, -0.848876953125, 
36, 3733318552, 0.9472293257713318, -0.10019361972808838, 0.014467316679656506, -0.30418357253074646, 0.2769721448421478, -2.0348501205444336, 9.458346366882324, -2.362734079360962, 3.5400028228759766, -0.1670304536819458, -0.20947265625, 0.44287109375, -0.850341796875, 
37, 3733326885, 0.9472172856330872, -0.10014716535806656, 0.014755847863852978, -0.3042224049568176, 0.25201359391212463, -2.092599391937256, 9.458139419555664, -1.0822526216506958, 3.3390846252441406, -0.28324222564697266, -0.20849609375, 0.4423828125, -0.849365234375, 
38, 3733335218, 0.947210431098938, -0.10002958029508591, 0.014995027333498001, -0.30427104234695435, 0.24405114352703094, -2.031442880630493, 9.386312484741211, 0.03981732577085495, 2.9924728870391846, -0.44051358103752136, -0.20751953125, 0.44189453125, -0.849365234375, 
39, 3733343551, 0.9472071528434753, -0.09987147152423859, 0.015189104713499546, -0.3043234348297119, 0.2236739844083786, -1.9233312606811523, 9.426393508911133, 0.7835010886192322, 2.591097593307495, -0.5272178053855896, -0.20751953125, 0.44189453125, -0.849853515625, 
40, 3733351884, 0.9472028017044067, -0.09970369189977646, 0.015361796133220196, -0.30438336730003357, 0.20262224972248077, -1.9122252464294434, 9.393409729003906, 0.9782717823982239, 2.3511431217193604, -0.6581321954727173, -0.208984375, 0.439453125, -0.848876953125, 
41, 3733360217, 0.9472019076347351, -0.09953147917985916, 0.015501194633543491, -0.304435670375824, 0.20142702758312225, -1.9546427726745605, 9.394701957702637, 1.1972734928131104, 1.9412132501602173, -0.6035737991333008, -0.20458984375, 0.442138671875, -0.852783203125, 
42, 3733368550, 0.9472025632858276, -0.09938458353281021, 0.015624911524355412, -0.30447518825531006, 0.20436285436153412, -1.9352716207504272, 9.415777206420898, 0.913288414478302, 1.595677375793457, -0.4410259425640106, -0.20458984375, 0.442626953125, -0.852294921875, 
43, 3733376883, 0.9472059607505798, -0.0992734357714653, 0.01574564352631569, -0.3044939935207367, 0.21487866342067719, -1.9831327199935913, 9.473404884338379, 0.4804077744483948, 1.3946566581726074, -0.18905866146087646, -0.20654296875, 0.441162109375, -0.852294921875, 
44, 3733385216, 0.9472147226333618, -0.09917013347148895, 0.01583252288401127, -0.30449604988098145, 0.20409922301769257, -2.013160467147827, 9.50205135345459, 0.50235915184021, 0.8811936378479004, 0.02042734995484352, -0.2060546875, 0.439453125, -0.850341796875, 
45, 3733393549, 0.9472252130508423, -0.0990896224975586, 0.01589188538491726, -0.3044866919517517, 0.19758297502994537, -1.9180848598480225, 9.483461380004883, 0.34160423278808594, 0.42364662885665894, 0.13284821808338165, -0.20703125, 0.43994140625, -0.849853515625, 
46, 3733401882, 0.947241485118866, -0.09898477047681808, 0.015942398458719254, -0.3044678568840027, 0.20684590935707092, -1.8622355461120605, 9.425373077392578, 0.6814027428627014, 0.3841495215892792, 0.27316299080848694, -0.20458984375, 0.440673828125, -0.851318359375, 
47, 3733410215, 0.9472707509994507, -0.09880749136209488, 0.015936408191919327, -0.30443423986434937, 0.17272505164146423, -2.0059642791748047, 9.392943382263184, 1.8970284461975098, -0.05927133560180664, 0.4514124393463135, -0.20556640625, 0.438232421875, -0.853271484375, 
48, 3733418548, 0.9473185539245605, -0.09853912889957428, 0.015851642936468124, -0.30437687039375305, 0.20037086308002472, -2.0718142986297607, 9.45846939086914, 3.4103944301605225, -0.7532634139060974, 0.7609604597091675, -0.20556640625, 0.43994140625, -0.850341796875, 
49, 3733426881, 0.9473798274993896, -0.09823756664991379, 0.015743054449558258, -0.3042888641357422, 0.22910290956497192, -1.9567500352859497, 9.552655220031738, 3.978288173675537, -0.9567429423332214, 1.1842870712280273, -0.2041015625, 0.438720703125, -0.850830078125, 
50, 3733435214, 0.9474454522132874, -0.09794211387634277, 0.01564818061888218, -0.3041847348213196, 0.22122648358345032, -1.8999302387237549, 9.57746410369873, 3.8201966285705566, -0.8386356234550476, 1.4364078044891357, -0.204833984375, 0.43798828125, -0.850830078125, 
51, 3733443547, 0.9475085139274597, -0.09764339029788971, 0.015577558428049088, -0.30408814549446106, 0.22746437788009644, -1.9290766716003418, 9.581888198852539, 3.7805967330932617, -0.4869265854358673, 1.3533921241760254, -0.204345703125, 0.437255859375, -0.852294921875, 
52, 3733451880, 0.9475735425949097, -0.09732473641633987, 0.0155042028054595, -0.30399131774902344, 0.22932186722755432, -1.941222071647644, 9.514299392700195, 4.034818649291992, -0.451450914144516, 1.3719369173049927, -0.205078125, 0.4384765625, -0.850830078125, 
53, 3733460213, 0.9476361274719238, -0.09699372947216034, 0.015423308126628399, -0.3039062023162842, 0.21244695782661438, -1.9694621562957764, 9.401363372802734, 4.245598793029785, -0.4667682349681854, 1.1793947219848633, -0.204833984375, 0.4375, -0.852294921875, 
54, 3733468546, 0.94769686460495, -0.09666936844587326, 0.015344002284109592, -0.3038243055343628, 0.2355009913444519, -1.9333547353744507, 9.333656311035156, 4.131307601928711, -0.48436522483825684, 1.1532427072525024, -0.204345703125, 0.437744140625, -0.852783203125, 
55, 3733476879, 0.947750449180603, -0.09638819098472595, 0.015306757763028145, -0.3037486672401428, 0.2681325078010559, -1.833950400352478, 9.346440315246582, 3.4057586193084717, -0.09664251655340195, 1.089847445487976, -0.204833984375, 0.4375, -0.851806640625, 
56, 3733485212, 0.9477958679199219, -0.0961337462067604, 0.015293910168111324, -0.3036884367465973, 0.2638648748397827, -1.8750536441802979, 9.47446060180664, 2.9252095222473145, 0.12257690727710724, 0.8795543909072876, -0.203857421875, 0.437744140625, -0.853759765625, 
57, 3733493545, 0.9478310346603394, -0.09592276811599731, 0.015270842239260674, -0.3036460280418396, 0.3068990111351013, -1.8777763843536377, 9.517982482910156, 2.414820432662964, -0.16134408116340637, 0.5959280133247375, -0.20654296875, 0.43701171875, -0.85302734375, 
58, 3733501878, 0.9478565454483032, -0.09572439640760422, 0.015266125090420246, -0.3036292791366577, 0.3394964635372162, -1.8694522380828857, 9.543292045593262, 2.143693685531616, 0.05605674907565117, 0.22821001708507538, -0.202392578125, 0.435791015625, -0.852294921875, 
59, 3733510211, 0.9478716254234314, -0.0955715924501419, 0.015282942913472652, -0.3036297857761383, 0.32589781284332275, -1.8340530395507812, 9.586296081542969, 1.4731642007827759, 0.17941489815711975, -0.019902260974049568, -0.204833984375, 0.43359375, -0.85595703125, 
60, 3733518544, 0.9478762745857239, -0.09545847028493881, 0.015319044701755047, -0.3036489486694336, 0.31584110856056213, -1.8084461688995361, 9.565753936767578, 0.8424906730651855, 0.2834855914115906, -0.2904142141342163, -0.203857421875, 0.435302734375, -0.855224609375, 
61, 3733526877, 0.9478715658187866, -0.09537364542484283, 0.015340551733970642, -0.30368897318840027, 0.2832244038581848, -1.8577650785446167, 9.514418601989746, 0.5477732419967651, 0.01433116476982832, -0.6268571019172668, -0.205322265625, 0.43505859375, -0.85302734375, 
62, 3733535210, 0.9478607773780823, -0.09527967870235443, 0.015344418585300446, -0.30375200510025024, 0.2601698935031891, -1.932490348815918, 9.476593971252441, 0.7153671383857727, -0.15616998076438904, -0.9727004766464233, -0.203369140625, 0.43408203125, -0.852783203125, 
63, 3733543543, 0.9478452801704407, -0.09516549110412598, 0.015309523791074753, -0.30383777618408203, 0.2757728099822998, -1.9473552703857422, 9.437250137329102, 1.1637954711914062, -0.5368743538856506, -1.334885835647583, -0.203369140625, 0.43408203125, -0.852783203125, 
64, 3733551876, 0.9478280544281006, -0.09503868967294693, 0.015235013328492641, -0.30393511056900024, 0.26048406958580017, -1.942897081375122, 9.392533302307129, 1.4700138568878174, -0.9941909313201904, -1.5430015325546265, -0.204833984375, 0.4326171875, -0.85400390625, 
65, 3733560209, 0.9478045105934143, -0.09491933137178421, 0.015129444189369678, -0.3040510416030884, 0.23811981081962585, -1.9641406536102295, 9.404706954956055, 1.5217543840408325, -1.3972052335739136, -1.8442505598068237, -0.202880859375, 0.431640625, -0.853515625, 
66, 3733568542, 0.9477766752243042, -0.09481946378946304, 0.015015369281172752, -0.304174542427063, 0.24717353284358978, -1.9433882236480713, 9.396645545959473, 1.276574969291687, -1.586571216583252, -1.9844372272491455, -0.207763671875, 0.429931640625, -0.85400390625, 
67, 3733576875, 0.9477519989013672, -0.09472773224115372, 0.014898031949996948, -0.3042858839035034, 0.2198788821697235, -1.9254587888717651, 9.473943710327148, 1.2068018913269043, -1.6545770168304443, -1.8977587223052979, -0.201416015625, 0.434326171875, -0.854248046875, 
68, 3733585208, 0.9477295875549316, -0.09463988989591599, 0.014791904017329216, -0.3043881952762604, 0.22454239428043365, -1.9517571926116943, 9.507357597351074, 1.090000867843628, -1.5608032941818237, -1.6797045469284058, -0.203857421875, 0.43212890625, -0.85595703125, 
69, 3733593541, 0.947721004486084, -0.09453587234020233, 0.014702183194458485, -0.30445176362991333, 0.20280826091766357, -1.9431648254394531, 9.505093574523926, 1.262743353843689, -1.30112624168396, -1.2094528675079346, -0.207275390625, 0.43212890625, -0.85400390625, 
70, 3733601874, 0.9477139711380005, -0.09443111717700958, 0.014624420553445816, -0.3045099079608917, 0.1661742627620697, -1.8982937335968018, 9.497989654541016, 1.201397180557251, -1.1815077066421509, -0.9983916282653809, -0.204833984375, 0.4345703125, -0.85498046875, 
71, 3733610207, 0.9477072358131409, -0.09435928612947464, 0.014582137577235699, -0.30455446243286133, 0.16555255651474, -1.8639307022094727, 9.514204025268555, 0.6466185450553894, -0.8760836720466614, -0.7340782880783081, -0.203857421875, 0.43212890625, -0.85595703125, 
72, 3733618540, 0.9476982951164246, -0.09432932734489441, 0.014569619670510292, -0.3045923709869385, 0.15954414010047913, -1.8260139226913452, 9.515019416809082, -0.05179198086261749, -0.6713746786117554, -0.6727066040039062, -0.204345703125, 0.431640625, -0.853515625, 
73, 3733626873, 0.9476824402809143, -0.09433896094560623, 0.014596117660403252, -0.3046374022960663, 0.15902915596961975, -1.7902708053588867, 9.475764274597168, -0.715559184551239, -0.3096504509449005, -0.7495492696762085, -0.206298828125, 0.4326171875, -0.85498046875, 
74, 3733635206, 0.9476609230041504, -0.09434740990400314, 0.014651702716946602, -0.30469903349876404, 0.13602560758590698, -1.829210877418518, 9.43443489074707, -0.8497522473335266, 0.08835630863904953, -0.9524909257888794, -0.207763671875, 0.43310546875, -0.853515625, 
75, 3733643539, 0.947634220123291, -0.09434665739536285, 0.01468733698129654, -0.3047809898853302, 0.14415839314460754, -1.9058606624603271, 9.36424446105957, -0.6266522407531738, -0.08765190839767456, -1.3144457340240479, -0.205810546875, 0.43212890625, -0.85498046875, 
76, 3733651872, 0.9476007223129272, -0.09434989839792252, 0.014711608178913593, -0.3048829138278961, 0.18293800950050354, -1.8825305700302124, 9.39762020111084, -0.6574405431747437, -0.24261803925037384, -1.568820595741272, -0.204345703125, 0.433349609375, -0.8564453125, 
77, 3733660205, 0.9475542306900024, -0.09440214186906815, 0.014764521270990372, -0.3050086796283722, 0.22828003764152527, -1.8007816076278687, 9.411255836486816, -1.4044029712677002, -0.04341613128781319, -1.8646907806396484, -0.204345703125, 0.43310546875, -0.85498046875, 
78, 3733668538, 0.9474896788597107, -0.09452081471681595, 0.014885606244206429, -0.30516669154167175, 0.2604105770587921, -1.852091670036316, 9.410964012145996, -2.5977962017059326, 0.6141141057014465, -2.327463150024414, -0.204833984375, 0.4326171875, -0.857421875, 
79, 3733676871, 0.9474207162857056, -0.09467565268278122, 0.015031520277261734, -0.3053252398967743, 0.26794710755348206, -1.9278182983398438, 9.45849323272705, -3.1515753269195557, 0.7871894240379333, -2.299748420715332, -0.207275390625, 0.428466796875, -0.85498046875, 
80, 3733685204, 0.947349488735199, -0.09483660012483597, 0.015196814201772213, -0.3054884970188141, 0.29617270827293396, -1.963599681854248, 9.511597633361816, -3.3418383598327637, 1.022046446800232, -2.376207113265991, -0.206298828125, 0.4326171875, -0.853515625, 
81, 3733693537, 0.9472730755805969, -0.0950407162308693, 0.015408791601657867, -0.3056515157222748, 0.3589034974575043, -1.9200615882873535, 9.549065589904785, -4.082217693328857, 1.4535183906555176, -2.3411412239074707, -0.205810546875, 0.4345703125, -0.85546875, 
82, 3733701870, 0.947196900844574, -0.09529375284910202, 0.015669286251068115, -0.30579525232315063, 0.3212845027446747, -1.892537236213684, 9.543688774108887, -4.950847148895264, 1.8500521183013916, -2.0366647243499756, -0.204833984375, 0.43359375, -0.853515625, 
83, 3733710203, 0.9471173882484436, -0.09557453542947769, 0.01595831662416458, -0.3059388995170593, 0.2899579405784607, -1.922202467918396, 9.532709121704102, -5.410495758056641, 2.1089866161346436, -2.0093088150024414, -0.208251953125, 0.43408203125, -0.8544921875, 
84, 3733718536, 0.9470411539077759, -0.09585409611463547, 0.01625148206949234, -0.3060716688632965, 0.2738923728466034, -1.9558205604553223, 9.52673625946045, -5.437134265899658, 2.1494827270507812, -1.8573139905929565, -0.203857421875, 0.43359375, -0.85302734375, 
85, 3733726869, 0.9469687938690186, -0.09612278640270233, 0.016530819237232208, -0.30619674921035767, 0.2507442533969879, -2.020073890686035, 9.472484588623047, -5.208322048187256, 2.007887125015259, -1.7446881532669067, -0.203369140625, 0.434814453125, -0.8564453125, 
86, 3733735202, 0.9469060897827148, -0.09634152799844742, 0.01677786558866501, -0.3063082695007324, 0.25254112482070923, -2.0564398765563965, 9.387145042419434, -4.438153266906738, 1.7742083072662354, -1.5707417726516724, -0.204833984375, 0.435791015625, -0.8564453125, 
87, 3733743535, 0.9468587040901184, -0.09650003910064697, 0.016957838088274002, -0.3063948452472687, 0.2438523769378662, -2.055698871612549, 9.40512466430664, -3.3300294876098633, 1.1265524625778198, -1.2756145000457764, -0.203857421875, 0.43310546875, -0.8525390625, 
88, 3733751868, 0.9468255639076233, -0.09659761190414429, 0.0170823335647583, -0.30645987391471863, 0.23481032252311707, -1.9514001607894897, 9.368426322937012, -2.3149890899658203, 0.6204664707183838, -0.975543737411499, -0.207763671875, 0.4326171875, -0.8525390625, 
89, 3733760201, 0.9467970132827759, -0.09669596701860428, 0.017171166837215424, -0.30651170015335083, 0.23166464269161224, -1.8989256620407104, 9.381884574890137, -2.1467034816741943, 0.16286812722682953, -0.9454726576805115, -0.203369140625, 0.436767578125, -0.854736328125, 
90, 3733768534, 0.9467728137969971, -0.09680009633302689, 0.017241034656763077, -0.3065500259399414, 0.2338801473379135, -1.9197254180908203, 9.436677932739258, -2.1665031909942627, -0.1560419201850891, -0.6637672781944275, -0.205322265625, 0.43359375, -0.85107421875, 
91, 3733776867, 0.9467588663101196, -0.09687864035367966, 0.017291216179728508, -0.30656522512435913, 0.25676631927490234, -2.002760410308838, 9.451306343078613, -1.7123627662658691, -0.32642778754234314, -0.3734811544418335, -0.204833984375, 0.4345703125, -0.85302734375, 
92, 3733785200, 0.9467616081237793, -0.09692220389842987, 0.017297834157943726, -0.3065429925918579, 0.2093064934015274, -1.9463458061218262, 9.552971839904785, -1.0892196893692017, -0.8117662072181702, 0.1685800701379776, -0.202880859375, 0.43408203125, -0.849853515625, 
93, 3733793533, 0.9467664957046509, -0.09697972983121872, 0.017302200198173523, -0.3065090775489807, 0.19276195764541626, -1.9076560735702515, 9.644256591796875, -1.2306616306304932, -0.9206011891365051, 0.3701641261577606, -0.205322265625, 0.43701171875, -0.852294921875, 
94, 3733801866, 0.9467762112617493, -0.09705717861652374, 0.01729656010866165, -0.30645498633384705, 0.1996546983718872, -1.954663872718811, 9.653240203857422, -1.476455569267273, -1.1583524942398071, 0.587936282157898, -0.204833984375, 0.437255859375, -0.854736328125, 
95, 3733810199, 0.9467951059341431, -0.09713242202997208, 0.01726553402841091, -0.3063746988773346, 0.1813373863697052, -1.9884142875671387, 9.62541389465332, -1.3060953617095947, -1.50516939163208, 0.9045794606208801, -0.203857421875, 0.43505859375, -0.854248046875, 
96, 3733818532, 0.9468216300010681, -0.09719398617744446, 0.017196517437696457, -0.306276798248291, 0.1765490025281906, -1.951366901397705, 9.652482032775879, -0.9906818270683289, -1.9788790941238403, 1.149041771888733, -0.203857421875, 0.437255859375, -0.852294921875, 
97, 3733826865, 0.9468520283699036, -0.0972205325961113, 0.017109990119934082, -0.30617934465408325, 0.17930032312870026, -1.9277147054672241, 9.6475191116333, -0.4277833104133606, -2.0569255352020264, 1.1506811380386353, -0.205322265625, 0.43603515625, -0.8544921875, 
98, 3733835198, 0.9468902349472046, -0.09718175232410431, 0.017002210021018982, -0.3060796558856964, 0.179752379655838, -1.926813006401062, 9.590750694274902, 0.494674950838089, -2.0658392906188965, 1.1913820505142212, -0.202880859375, 0.435302734375, -0.852783203125, 
99, 3733843531, 0.9469313621520996, -0.09710433334112167, 0.016871429979801178, -0.30598393082618713, 0.16244545578956604, -1.8889377117156982, 9.56489372253418, 1.1288065910339355, -2.198444366455078, 1.1465059518814087, -0.207275390625, 0.43359375, -0.8525390625, 
100, 3733851864, 0.9469789266586304, -0.0969916507601738, 0.016722697764635086, -0.30588072538375854, 0.17316119372844696, -1.7909104824066162, 9.554165840148926, 1.6407840251922607, -2.2950611114501953, 1.2403565645217896, -0.205078125, 0.437744140625, -0.854736328125, 
101, 3733860197, 0.9470183253288269, -0.096877820789814, 0.016573935747146606, -0.30580267310142517, 0.19375818967819214, -1.8675463199615479, 9.513836860656738, 1.678385615348816, -2.253899097442627, 0.8848053812980652, -0.203857421875, 0.436279296875, -0.853759765625, 
102, 3733868530, 0.9470559358596802, -0.09674342721700668, 0.016445327550172806, -0.30573570728302, 0.20222525298595428, -1.8665083646774292, 9.495028495788574, 1.8358618021011353, -1.891021966934204, 0.7579379677772522, -0.2060546875, 0.4375, -0.852783203125, 
103, 3733876863, 0.9470903873443604, -0.09661726653575897, 0.016316158697009087, -0.3056755065917969, 0.17804837226867676, -1.8246631622314453, 9.591848373413086, 1.7523082494735718, -1.9116929769515991, 0.611885666847229, -0.203857421875, 0.437255859375, -0.853759765625, 
104, 3733885196, 0.947112500667572, -0.09651512652635574, 0.0162014402449131, -0.3056459426879883, 0.22319507598876953, -1.7912713289260864, 9.716248512268066, 1.3430696725845337, -1.792356014251709, 0.21632499992847443, -0.206298828125, 0.435546875, -0.85205078125, 
105, 3733893529, 0.947120189666748, -0.09645620733499527, 0.016132064163684845, -0.30564430356025696, 0.2590688169002533, -1.7452938556671143, 9.702568054199219, 0.604790449142456, -1.3436458110809326, -0.15032994747161865, -0.208251953125, 0.4345703125, -0.85107421875, 
106, 3733901862, 0.9471116662025452, -0.096461720764637, 0.016096806153655052, -0.30567100644111633, 0.23675194382667542, -1.758733868598938, 9.675965309143066, -0.4207138121128082, -1.1285889148712158, -0.56346195936203, -0.20654296875, 0.4365234375, -0.8544921875, 
107, 3733910195, 0.9470892548561096, -0.09652583301067352, 0.016097422689199448, -0.3057195544242859, 0.23134134709835052, -1.765685796737671, 9.668610572814941, -1.3220787048339844, -0.8728307485580444, -0.876288652420044, -0.208251953125, 0.4326171875, -0.8525390625, 
108, 3733918528, 0.9470548033714294, -0.0966363251209259, 0.01611841283738613, -0.3057907223701477, 0.21652843058109283, -1.8392398357391357, 9.637226104736328, -2.0493180751800537, -0.773088812828064, -1.2000523805618286, -0.208740234375, 0.432861328125, -0.85009765625, 
109, 3733926861, 0.9470183253288269, -0.09675732254981995, 0.016161717474460602, -0.30586302280426025, 0.22339025139808655, -1.8935624361038208, 9.6290922164917, -2.2577922344207764, -0.5079559683799744, -1.2669570446014404, -0.205322265625, 0.43603515625, -0.853271484375, 
110, 3733935194, 0.9469805359840393, -0.09685074537992477, 0.016217317432165146, -0.30594760179519653, 0.20320187509059906, -1.9732906818389893, 9.581917762756348, -1.9731159210205078, -0.23178322613239288, -1.338830590248108, -0.204833984375, 0.435546875, -0.853271484375, 
111, 3733943527, 0.9469538331031799, -0.09689503908157349, 0.016253415495157242, -0.30601435899734497, 0.19710558652877808, -2.0004217624664307, 9.513530731201172, -1.2229772806167603, -0.2456149458885193, -1.3548908233642578, -0.205322265625, 0.43359375, -0.85205078125, 
112, 3733951860, 0.9469311833381653, -0.09688236564397812, 0.016256634145975113, -0.30608826875686646, 0.18777643144130707, -1.9693207740783691, 9.452131271362305, -0.35383501648902893, -0.4846212863922119, -1.1829421520233154, -0.205322265625, 0.43408203125, -0.85302734375, 
113, 3733960193, 0.94691401720047, -0.0968330055475235, 0.01625940389931202, -0.30615678429603577, 0.19404232501983643, -1.9158532619476318, 9.456279754638672, 0.158974751830101, -0.3558073341846466, -1.0257476568222046, -0.205322265625, 0.436767578125, -0.854248046875, 
114, 3733968526, 0.9468992948532104, -0.09677194058895111, 0.016264162957668304, -0.306221604347229, 0.21012191474437714, -1.8477152585983276, 9.426517486572266, 0.27838829159736633, -0.27560916543006897, -1.0167826414108276, -0.203369140625, 0.43408203125, -0.851318359375, 
115, 3733976859, 0.9468783140182495, -0.0967399850487709, 0.0162830613553524, -0.3062953054904938, 0.22402703762054443, -1.8654471635818481, 9.4327974319458, -0.13985371589660645, -0.213904470205307, -1.0783592462539673, -0.204345703125, 0.43505859375, -0.853759765625, 
116, 3733985192, 0.9468482732772827, -0.09673240780830383, 0.016298744827508926, -0.30638983845710754, 0.2182403951883316, -1.9064830541610718, 9.474284172058105, -0.47734686732292175, -0.3149782419204712, -1.4665685892105103, -0.206298828125, 0.435546875, -0.85205078125, 
117, 3733993525, 0.9468079209327698, -0.09673220664262772, 0.016308065503835678, -0.3065136671066284, 0.25610119104385376, -1.94654381275177, 9.55821418762207, -0.526372492313385, -0.40462803840637207, -1.820198655128479, -0.206787109375, 0.4345703125, -0.8505859375, 
118, 3734001858, 0.9467517137527466, -0.09674520790576935, 0.01633027195930481, -0.30668216943740845, 0.266824871301651, -1.897621512413025, 9.648987770080566, -0.7909932732582092, -0.21252132952213287, -2.5368082523345947, -0.206298828125, 0.4326171875, -0.8525390625, 
119, 3734010191, 0.9466773271560669, -0.09681063890457153, 0.0163724347949028, -0.3068889379501343, 0.2684078514575958, -1.8131544589996338, 9.68000316619873, -1.5477144718170166, -0.1249462366104126, -3.0679705142974854, -0.205322265625, 0.43408203125, -0.853515625, 
120, 3734018524, 0.9465880990028381, -0.09694384783506393, 0.016457606106996536, -0.30711761116981506, 0.2402908205986023, -1.802080750465393, 9.637907981872559, -2.6520979404449463, 0.18761147558689117, -3.402569532394409, -0.204345703125, 0.43505859375, -0.8544921875, 
121, 3734026857, 0.9464848637580872, -0.09716466814279556, 0.016583099961280823, -0.30735859274864197, 0.20548714697360992, -1.8092423677444458, 9.586487770080566, -3.9533774852752686, 0.36475950479507446, -3.603256940841675, -0.207763671875, 0.431640625, -0.853515625, 
122, 3734035190, 0.9463728666305542, -0.09741518646478653, 0.016750887036323547, -0.30761533975601196, 0.2261950969696045, -1.8271676301956177, 9.518515586853027, -4.553544998168945, 0.8106265068054199, -3.780174732208252, -0.206298828125, 0.435546875, -0.8515625, 
123, 3734043523, 0.9462680816650391, -0.09766481071710587, 0.01692931540310383, -0.30784863233566284, 0.22486183047294617, -1.924815058708191, 9.463248252868652, -4.557515621185303, 0.9322172999382019, -3.4960100650787354, -0.206298828125, 0.4345703125, -0.85107421875, 
124, 3734051856, 0.9461732506752014, -0.09787965565919876, 0.017103813588619232, -0.3080623149871826, 0.22922638058662415, -1.9836106300354004, 9.418362617492676, -4.104091644287109, 0.9862377047538757, -3.1273696422576904, -0.210693359375, 0.433349609375, -0.849609375, 
125, 3734060189, 0.9460909962654114, -0.09804321825504303, 0.017240513116121292, -0.3082549571990967, 0.21992476284503937, -1.9969978332519531, 9.420365333557129, -3.241071939468384, 0.6916483640670776, -2.8950235843658447, -0.206298828125, 0.435546875, -0.850830078125, 
126, 3734068522, 0.9460223317146301, -0.09815167635679245, 0.017357613891363144, -0.30842456221580505, 0.2385021150112152, -2.082261323928833, 9.443284034729004, -2.4500784873962402, 0.6241805553436279, -2.496337890625, -0.20703125, 0.43701171875, -0.850341796875, 
127, 3734076855, 0.9459620714187622, -0.09820541739463806, 0.017452534288167953, -0.3085871934890747, 0.22409719228744507, -2.0890543460845947, 9.492969512939453, -1.6070371866226196, 0.5247460007667542, -2.240374803543091, -0.20703125, 0.43798828125, -0.851806640625, 
128, 3734085188, 0.9459162950515747, -0.09825398772954941, 0.017537521198391914, -0.3087071180343628, 0.21912027895450592, -2.0347580909729004, 9.541852951049805, -1.5184117555618286, 0.38955408334732056, -1.7820847034454346, -0.205322265625, 0.4365234375, -0.848876953125, 
129, 3734093521, 0.9458733201026917, -0.09834548830986023, 0.017649216577410698, -0.3088032901287079, 0.2351437658071518, -1.989549160003662, 9.508376121520996, -2.163839101791382, 0.526026725769043, -1.4666454792022705, -0.206787109375, 0.4365234375, -0.85205078125, 
130, 3734101854, 0.9458281397819519, -0.09849713742733002, 0.017790773883461952, -0.3088855445384979, 0.18071630597114563, -1.9913978576660156, 9.464311599731445, -3.1066479682922363, 0.6355787515640259, -1.238627552986145, -0.20751953125, 0.43603515625, -0.85400390625, 
131, 3734110187, 0.9457868337631226, -0.09867314994335175, 0.017936166375875473, -0.3089469373226166, 0.17588156461715698, -1.9883061647415161, 9.460678100585938, -3.411022424697876, 0.5392180681228638, -0.8927842378616333, -0.207275390625, 0.4365234375, -0.850830078125, 
132, 3734118520, 0.9457491040229797, -0.09886536747217178, 0.018076423555612564, -0.3089925944805145, 0.18953226506710052, -1.9899818897247314, 9.430607795715332, -3.6282050609588623, 0.39447203278541565, -0.7415320873260498, -0.20751953125, 0.43896484375, -0.851318359375, 
133, 3734126853, 0.9457167387008667, -0.0990748479962349, 0.018189899623394012, -0.3090183734893799, 0.16256621479988098, -1.9718130826950073, 9.412025451660156, -3.706968307495117, -0.061294857412576675, -0.48054859042167664, -0.205078125, 0.43896484375, -0.850341796875, 
134, 3734135186, 0.945692777633667, -0.09924418479204178, 0.01827250048518181, -0.3090320825576782, 0.16963674128055573, -1.9856675863265991, 9.4072265625, -3.0748097896575928, -0.3047325611114502, -0.3397216200828552, -0.20947265625, 0.436767578125, -0.8486328125, 
135, 3734143519, 0.9456831216812134, -0.0993901789188385, 0.01830582320690155, -0.309012770652771, 0.1409546434879303, -2.042665481567383, 9.374748229980469, -2.524590253829956, -0.874674916267395, -0.017878737300634384, -0.203857421875, 0.435546875, -0.850341796875, 
136, 3734151852, 0.9456830024719238, -0.09947420656681061, 0.018261438235640526, -0.30898892879486084, 0.1350359320640564, -2.0072877407073975, 9.289319038391113, -1.4014570713043213, -1.650478720664978, 0.09660407900810242, -0.20703125, 0.439453125, -0.850341796875, 
137, 3734160185, 0.945698082447052, -0.09951382130384445, 0.018143201246857643, -0.3089372217655182, 0.14895088970661163, -2.013803720474243, 9.339268684387207, -0.47022607922554016, -2.4541256427764893, 0.3725462555885315, -0.20361328125, 0.438720703125, -0.851318359375, 
138, 3734168518, 0.9457281231880188, -0.09951145201921463, 0.01796961948275566, -0.30885618925094604, 0.19875429570674896, -2.0938239097595215, 9.385075569152832, 0.296676903963089, -3.0502712726593018, 0.8150065541267395, -0.205810546875, 0.435546875, -0.850341796875, 
139, 3734176851, 0.9457736015319824, -0.09949252754449844, 0.01775495335459709, -0.30873504281044006, 0.24433667957782745, -2.0876426696777344, 9.456742286682129, 0.7275081872940063, -3.57920503616333, 1.3657892942428589, -0.2060546875, 0.439453125, -0.850341796875, 
140, 3734185184, 0.9458280801773071, -0.09948717802762985, 0.017536453902721405, -0.30858278274536133, 0.26589301228523254, -1.98757803440094, 9.510054588317871, 0.5429577231407166, -3.7239511013031006, 1.7811241149902344, -0.205810546875, 0.43505859375, -0.85205078125, 
141, 3734193517, 0.9458832144737244, -0.09953830391168594, 0.017317481338977814, -0.3084093928337097, 0.2622808516025543, -1.9455360174179077, 9.545831680297852, -0.16436655819416046, -4.0048627853393555, 2.0513291358947754, -0.20751953125, 0.43798828125, -0.850341796875, 
142, 3734201850, 0.945932149887085, -0.09962902218103409, 0.017130214720964432, -0.30824029445648193, 0.31669241189956665, -1.9864901304244995, 9.56606674194336, -0.8511866927146912, -3.7474396228790283, 1.9988197088241577, -0.20654296875, 0.439453125, -0.849853515625, 
143, 3734210183, 0.9459853172302246, -0.09972870349884033, 0.016963224858045578, -0.30805402994155884, 0.32692036032676697, -2.028730630874634, 9.524846076965332, -1.0238778591156006, -3.5363526344299316, 2.2014026641845703, -0.20654296875, 0.4384765625, -0.849853515625, 
144, 3734218516, 0.9460425972938538, -0.09978776425123215, 0.01678294688463211, -0.30786895751953125, 0.27838224172592163, -2.043238878250122, 9.489078521728516, -0.4614148736000061, -3.545778751373291, 2.2573444843292236, -0.20849609375, 0.439453125, -0.849853515625, 
145, 3734226849, 0.946107029914856, -0.09978292137384415, 0.016548490151762962, -0.30768534541130066, 0.2478303164243698, -2.0456297397613525, 9.474818229675293, 0.6402662396430969, -3.9865739345550537, 2.2189486026763916, -0.2080078125, 0.43994140625, -0.847900390625, 
146, 3734235182, 0.946172833442688, -0.09975124895572662, 0.016260460019111633, -0.30750831961631775, 0.23131440579891205, -2.006014585494995, 9.403932571411133, 1.1881290674209595, -4.5543131828308105, 2.061753749847412, -0.21044921875, 0.435302734375, -0.84912109375, 
147, 3734243515, 0.9462372064590454, -0.09971316903829575, 0.01595168560743332, -0.3073386549949646, 0.26090067625045776, -1.9785445928573608, 9.438277244567871, 1.3889957666397095, -4.781767845153809, 1.8889344930648804, -0.205810546875, 0.43603515625, -0.848388671875, 
148, 3734251848, 0.9462921619415283, -0.09969384968280792, 0.015612681396305561, -0.30719318985939026, 0.22749543190002441, -1.991796612739563, 9.506603240966797, 1.2363094091415405, -5.225431442260742, 1.5338443517684937, -0.2099609375, 0.43896484375, -0.849853515625, 
149, 3734260181, 0.9463290572166443, -0.09969727694988251, 0.015233105048537254, -0.30709773302078247, 0.21401378512382507, -2.058804750442505, 9.491841316223145, 1.1263219118118286, -5.780799388885498, 0.7493059039115906, -0.2080078125, 0.43798828125, -0.848388671875, 
150, 3734268514, 0.9463605284690857, -0.09964270889759064, 0.014812547713518143, -0.3070385456085205, 0.2776748538017273, -2.2279717922210693, 9.523900032043457, 2.026021957397461, -6.013966083526611, 0.2066684514284134, -0.21044921875, 0.437255859375, -0.8486328125, 
151, 3734276847, 0.9464024901390076, -0.09947960078716278, 0.014326795935630798, -0.3069847524166107, 0.32408323884010315, -2.218820333480835, 9.581880569458008, 3.759158134460449, -6.394824981689453, 0.07091300934553146, -0.2099609375, 0.4384765625, -0.84912109375, 
152, 3734285180, 0.9464478492736816, -0.09924430400133133, 0.013837292790412903, -0.3069441020488739, 0.40021926164627075, -1.96367347240448, 9.63173770904541, 4.689748764038086, -6.1247735023498535, -0.03427184745669365, -0.2109375, 0.435791015625, -0.84716796875, 
153, 3734293513, 0.9464800357818604, -0.09902714192867279, 0.013418000191450119, -0.30693331360816956, 0.4223041832447052, -1.750737190246582, 9.741047859191895, 4.179897308349609, -5.258935451507568, -0.34205248951911926, -0.2109375, 0.435791015625, -0.85009765625, 
154, 3734301846, 0.9464931488037109, -0.09891600906848907, 0.013097668997943401, -0.306942880153656, 0.4563921391963959, -1.6757200956344604, 9.775065422058105, 2.3262975215911865, -4.373349189758301, -0.6168932318687439, -0.2138671875, 0.437255859375, -0.84765625, 
155, 3734310179, 0.946488082408905, -0.09891071170568466, 0.012890108861029148, -0.3069688677787781, 0.4103897213935852, -1.6737784147262573, 9.749042510986328, 0.48035648465156555, -3.325214147567749, -0.7982931733131409, -0.21142578125, 0.435302734375, -0.84912109375, 
156, 3734318512, 0.9464742541313171, -0.09897835552692413, 0.012765467166900635, -0.30699509382247925, 0.36175623536109924, -1.7080258131027222, 9.725974082946777, -0.8599467873573303, -2.553406238555908, -0.7127673625946045, -0.2109375, 0.436767578125, -0.84765625, 
157, 3734326845, 0.9464596509933472, -0.09905273467302322, 0.01268771942704916, -0.30701950192451477, 0.31404536962509155, -1.8305939435958862, 9.610952377319336, -1.121596097946167, -1.9528805017471313, -0.7459889650344849, -0.2177734375, 0.431640625, -0.848876953125, 
158, 3734335178, 0.9464477300643921, -0.09909875690937042, 0.012616786174476147, -0.30704420804977417, 0.26297053694725037, -1.8445265293121338, 9.637439727783203, -0.8038771152496338, -1.7652561664581299, -0.6075440049171448, -0.21728515625, 0.431640625, -0.848388671875, 
159, 3734343511, 0.9464446306228638, -0.09912548214197159, 0.012541227042675018, -0.3070477247238159, 0.2736916244029999, -1.7795934677124023, 9.667330741882324, -0.49755650758743286, -1.7666906118392944, -0.3561915457248688, -0.212158203125, 0.434326171875, -0.84716796875, 
160, 3734351844, 0.9464442729949951, -0.09913904219865799, 0.012478218413889408, -0.3070470690727234, 0.25318917632102966, -1.7924237251281738, 9.674213409423828, -0.4030144214630127, -1.5617256164550781, -0.2130592316389084, -0.216552734375, 0.4306640625, -0.847900390625, 
161, 3734360177, 0.9464375376701355, -0.09917780011892319, 0.012437338009476662, -0.3070572018623352, 0.2587970197200775, -1.8378372192382812, 9.57837200164795, -0.8013157248497009, -1.383040428161621, -0.2893384099006653, -0.21337890625, 0.437255859375, -0.84814453125, 
162, 3734368510, 0.9464311599731445, -0.09921253472566605, 0.012412420473992825, -0.30706655979156494, 0.28484052419662476, -1.8454906940460205, 9.578479766845703, -0.8448342680931091, -1.140524983406067, -0.3211768567562103, -0.212890625, 0.434814453125, -0.85009765625, 
163, 3734376843, 0.9464335441589355, -0.0992560088634491, 0.012396172620356083, -0.30704614520072937, 0.2897617220878601, -1.8308130502700806, 9.611260414123535, -0.9768756628036499, -1.0278223752975464, -0.28826257586479187, -0.21435546875, 0.435791015625, -0.8486328125, 
164, 3734385176, 0.9464220404624939, -0.09930220246315002, 0.012408309616148472, -0.3070659637451172, 0.3218707740306854, -1.8458411693572998, 9.620988845825195, -1.1551251411437988, -0.6918148398399353, -0.42888474464416504, -0.21240234375, 0.436767578125, -0.8486328125, 
165, 3734393509, 0.9464057087898254, -0.09934328496456146, 0.012451749294996262, -0.30710113048553467, 0.3300967216491699, -1.867721676826477, 9.670845031738281, -1.195621371269226, -0.2757115960121155, -0.46584606170654297, -0.21484375, 0.43603515625, -0.8466796875, 
166, 3734401842, 0.9463933706283569, -0.09937605261802673, 0.012506077997386456, -0.307126522064209, 0.33767104148864746, -1.8476868867874146, 9.648470878601074, -1.1600942611694336, -0.07781604677438736, -0.4458925724029541, -0.212890625, 0.434814453125, -0.84912109375, 
167, 3734410175, 0.9463783502578735, -0.09939005970954895, 0.012570047751069069, -0.30716586112976074, 0.35455965995788574, -1.851505994796753, 9.66988468170166, -0.9293868541717529, 0.12851941585540771, -0.5711973905563354, -0.2138671875, 0.433837890625, -0.85009765625, 
168, 3734418508, 0.9463642835617065, -0.09939634054899216, 0.012637939304113388, -0.3072041869163513, 0.32589107751846313, -1.8613412380218506, 9.722972869873047, -0.8730355501174927, 0.22908088564872742, -0.5981179475784302, -0.2119140625, 0.435302734375, -0.8486328125, 
169, 3734426841, 0.946357250213623, -0.09935673326253891, 0.012681165710091591, -0.30723702907562256, 0.28461864590644836, -1.9189720153808594, 9.702688217163086, -0.13703615963459015, 0.08366890251636505, -0.5123615264892578, -0.2177734375, 0.4345703125, -0.847900390625, 
170, 3734435174, 0.946357011795044, -0.09926889091730118, 0.012700498104095459, -0.3072653114795685, 0.2797548472881317, -1.935194492340088, 9.681609153747559, 0.5747193694114685, -0.022284382954239845, -0.45849475264549255, -0.21337890625, 0.436279296875, -0.84814453125, 
171, 3734443507, 0.9463651776313782, -0.09914073348045349, 0.012698349542915821, -0.3072813153266907, 0.278238445520401, -1.918843150138855, 9.664578437805176, 1.224065899848938, -0.15783491730690002, -0.27571162581443787, -0.215087890625, 0.4326171875, -0.84765625, 
172, 3734451840, 0.9463802576065063, -0.0989568680524826, 0.012677076272666454, -0.3072948753833771, 0.266948938369751, -1.8915475606918335, 9.631818771362305, 2.014982223510742, -0.16810621321201324, -0.24115799367427826, -0.2138671875, 0.435791015625, -0.84814453125, 
173, 3734460173, 0.9464057087898254, -0.0987582802772522, 0.01264781504869461, -0.3072816729545593, 0.27747178077697754, -1.831843614578247, 9.63702392578125, 2.2719955444335938, -0.2508145868778229, 0.1299794316291809, -0.216796875, 0.43310546875, -0.847900390625, 
174, 3734468506, 0.9464296102523804, -0.09857139736413956, 0.012643332593142986, -0.3072681128978729, 0.292788565158844, -1.7967230081558228, 9.614691734313965, 1.9898289442062378, 0.02419264242053032, 0.17362608015537262, -0.2119140625, 0.435791015625, -0.85009765625, 
175, 3734476839, 0.9464541077613831, -0.09840881824493408, 0.012669879011809826, -0.30724412202835083, 0.29778000712394714, -1.857729196548462, 9.574816703796387, 1.5626347064971924, 0.32236790657043457, 0.26458224654197693, -0.213134765625, 0.433837890625, -0.84765625, 
176, 3734485172, 0.9464800357818604, -0.09823751449584961, 0.012724089436233044, -0.30721667408943176, 0.3157691955566406, -1.9296128749847412, 9.568035125732422, 1.5398380756378174, 0.7041481137275696, 0.4384772479534149, -0.212890625, 0.433837890625, -0.85009765625, 
177, 3734493505, 0.946513831615448, -0.09801201522350311, 0.012757356278598309, -0.3071834444999695, 0.3049667179584503, -2.003153085708618, 9.514382362365723, 2.367100954055786, 0.641239583492279, 0.5405499935150146, -0.21240234375, 0.433837890625, -0.85009765625, 
178, 3734501838, 0.9465588331222534, -0.09772542119026184, 0.012758919037878513, -0.3071363568305969, 0.29197603464126587, -2.0108814239501953, 9.525110244750977, 3.2845005989074707, 0.47559231519699097, 0.7238454818725586, -0.213134765625, 0.433349609375, -0.84814453125, 
179, 3734510171, 0.9466103911399841, -0.0974096804857254, 0.012756872922182083, -0.3070771098136902, 0.3134935200214386, -1.929100751876831, 9.576306343078613, 3.709184169769287, 0.5386033058166504, 0.8559123873710632, -0.21435546875, 0.433837890625, -0.8505859375, 
180, 3734518504, 0.946670413017273, -0.09706796705722809, 0.012759136967360973, -0.30700021982192993, 0.28135621547698975, -1.9303290843963623, 9.623684883117676, 4.012662410736084, 0.675255298614502, 1.1874375343322754, -0.209228515625, 0.433349609375, -0.85205078125, 
181, 3734526837, 0.946725070476532, -0.09675108641386032, 0.012764330953359604, -0.3069314658641815, 0.2590014338493347, -1.911181092262268, 9.640600204467773, 3.698810338973999, 0.6058918833732605, 1.0879517793655396, -0.212158203125, 0.430908203125, -0.849609375, 
182, 3734535170, 0.9467753767967224, -0.09648429602384567, 0.012800263240933418, -0.3068590760231018, 0.23937252163887024, -1.8512967824935913, 9.559074401855469, 2.8830227851867676, 0.8046583533287048, 1.1180229187011719, -0.211181640625, 0.430908203125, -0.85302734375, 
183, 3734543503, 0.946815550327301, -0.09629075229167938, 0.012865275144577026, -0.30679333209991455, 0.2114700973033905, -1.8678959608078003, 9.534075736999512, 1.821825385093689, 0.8749695420265198, 1.02173912525177, -0.212158203125, 0.433837890625, -0.8505859375, 
184, 3734551836, 0.9468506574630737, -0.09613442420959473, 0.012962755747139454, -0.30673009157180786, 0.21628743410110474, -1.9494699239730835, 9.47188949584961, 1.1672790050506592, 1.1552915573120117, 0.9971493482589722, -0.211181640625, 0.429443359375, -0.8505859375, 
185, 3734560169, 0.9468847513198853, -0.095958411693573, 0.013036416843533516, -0.30667635798454285, 0.1988091617822647, -2.1029469966888428, 9.403816223144531, 1.549674153327942, 0.93990159034729, 0.7996636629104614, -0.213134765625, 0.430419921875, -0.851806640625, 
186, 3734568502, 0.9469242691993713, -0.09565654397010803, 0.01306065358221531, -0.30664780735969543, 0.21228422224521637, -2.20548152923584, 9.414969444274902, 3.383423089981079, 0.860395073890686, 0.49313807487487793, -0.215576171875, 0.4267578125, -0.850830078125, 
187, 3734576835, 0.9469864368438721, -0.09520416706800461, 0.01301626954227686, -0.3065982162952423, 0.2468721568584442, -2.2212493419647217, 9.358165740966797, 5.670543193817139, 0.6574021577835083, 0.31873074173927307, -0.209228515625, 0.430419921875, -0.8515625, 
188, 3734585168, 0.9470530152320862, -0.0946294516324997, 0.012888681143522263, -0.306576132774353, 0.22827427089214325, -2.125955820083618, 9.332098960876465, 7.613563060760498, 0.036948543041944504, 0.3723669946193695, -0.209228515625, 0.427490234375, -0.853759765625, 
189, 3734593501, 0.9471325874328613, -0.09395613521337509, 0.012727129273116589, -0.3065440356731415, 0.24639002978801727, -2.048591136932373, 9.332413673400879, 9.080286026000977, 0.013229754753410816, 0.3871464133262634, -0.210693359375, 0.428466796875, -0.853271484375, 
190, 3734601834, 0.9472149610519409, -0.09323561191558838, 0.01252707839012146, -0.30651772022247314, 0.24732694029808044, -1.9646748304367065, 9.253493309020996, 9.837646484375, -0.2995072603225708, 0.42462000250816345, -0.210205078125, 0.428466796875, -0.855712890625, 
191, 3734610167, 0.9472906589508057, -0.09257866442203522, 0.01232999749481678, -0.30649083852767944, 0.2378842681646347, -1.7650798559188843, 9.28653621673584, 9.020628929138184, -0.5548555850982666, 0.4720832109451294, -0.2099609375, 0.424072265625, -0.855712890625, 
192, 3734618500, 0.9473534822463989, -0.09211573749780655, 0.012191405519843102, -0.3064415454864502, 0.2662471830844879, -1.596423625946045, 9.380871772766113, 6.193356037139893, -0.6110532879829407, 0.6782010197639465, -0.208984375, 0.424072265625, -0.854736328125, 
193, 3734626833, 0.9473970532417297, -0.09190628677606583, 0.012181217782199383, -0.30637019872665405, 0.28498807549476624, -1.5062642097473145, 9.455127716064453, 2.350425958633423, -0.025255635380744934, 0.920409083366394, -0.2099609375, 0.424072265625, -0.855224609375, 
194, 3734635166, 0.9474189877510071, -0.09191901236772537, 0.012264523655176163, -0.30629509687423706, 0.2332896590232849, -1.602136492729187, 9.488947868347168, -0.9935247898101807, 0.24880383908748627, 1.0428451299667358, -0.2099609375, 0.422607421875, -0.855224609375, 
195, 3734643499, 0.9474166631698608, -0.0921318382024765, 0.012428184039890766, -0.3062317669391632, 0.21006064116954803, -1.72655189037323, 9.572994232177734, -3.939136266708374, 0.46260589361190796, 0.8505334258079529, -0.2099609375, 0.422119140625, -0.855712890625, 
196, 3734651832, 0.94740229845047, -0.09244638681411743, 0.012657825835049152, -0.3061720132827759, 0.24045602977275848, -1.8676069974899292, 9.619156837463379, -5.584928035736084, 0.9098560214042664, 0.8232543468475342, -0.212158203125, 0.42529296875, -0.853271484375, 
197, 3734660165, 0.9473913908004761, -0.09274872392416, 0.012905722483992577, -0.3061038851737976, 0.25754237174987793, -2.0090322494506836, 9.590157508850098, -5.4762468338012695, 1.2013205289840698, 0.8497907519340515, -0.208251953125, 0.427978515625, -0.855224609375, 
198, 3734668498, 0.9473872184753418, -0.09293653070926666, 0.013114970177412033, -0.3060513734817505, 0.22869093716144562, -2.079713821411133, 9.538329124450684, -3.8324780464172363, 1.1856698989868164, 0.7683116793632507, -0.210205078125, 0.426513671875, -0.854248046875, 
199, 3734676831, 0.9473900198936462, -0.09303265810012817, 0.013256322592496872, -0.30600714683532715, 0.22515423595905304, -1.9708493947982788, 9.520401000976562, -2.3152709007263184, 0.6855266690254211, 0.6147032380104065, -0.2080078125, 0.427490234375, -0.85400390625, 
200, 3734685164, 0.9473994374275208, -0.0930682122707367, 0.01333730947226286, -0.3059636652469635, 0.2573592960834503, -1.923649787902832, 9.506092071533203, -1.290573239326477, 0.16468672454357147, 0.5710309147834778, -0.206787109375, 0.428466796875, -0.85400390625, 
201, 3734693497, 0.9474092721939087, -0.09304304420948029, 0.013383965939283371, -0.3059390187263489, 0.24173033237457275, -2.0042481422424316, 9.427082061767578, -0.31661754846572876, -0.056607455015182495, 0.5018468499183655, -0.2099609375, 0.425048828125, -0.853759765625, 
202, 3734701830, 0.9474325180053711, -0.0930040031671524, 0.013384465128183365, -0.30587875843048096, 0.21547938883304596, -1.9044090509414673, 9.467840194702148, 0.03402851149439812, -0.5944551229476929, 0.7594236135482788, -0.2099609375, 0.424560546875, -0.853271484375, 
203, 3734710163, 0.9474591016769409, -0.09300605207681656, 0.013390673324465752, -0.30579569935798645, 0.2234262079000473, -1.6732144355773926, 9.458833694458008, -0.49998992681503296, -0.7056465744972229, 0.9180783033370972, -0.206787109375, 0.427734375, -0.85546875, 
204, 3734718496, 0.9474695920944214, -0.09311104565858841, 0.013439388945698738, -0.30572909116744995, 0.24306178092956543, -1.6212520599365234, 9.500515937805176, -2.0629446506500244, -0.5769093036651611, 0.8235616087913513, -0.20654296875, 0.42626953125, -0.856201171875, 
205, 3734726829, 0.9474680423736572, -0.09332926571369171, 0.01354081742465496, -0.30566269159317017, 0.24761149287223816, -1.6276776790618896, 9.512004852294922, -3.7459025382995605, -0.3785015344619751, 0.8225370645523071, -0.211669921875, 0.426513671875, -0.853271484375, 
206, 3734735162, 0.9474612474441528, -0.09361575543880463, 0.013695508241653442, -0.30558910965919495, 0.22386068105697632, -1.6419950723648071, 9.514969825744629, -4.89587926864624, 0.033900436013936996, 0.9439229965209961, -0.20654296875, 0.42822265625, -0.8544921875, 
207, 3734743495, 0.9474595189094543, -0.09390491247177124, 0.013854415155947208, -0.3054986298084259, 0.19623474776744843, -1.8142870664596558, 9.541570663452148, -4.923978328704834, 0.08320785313844681, 0.9875696897506714, -0.20654296875, 0.427490234375, -0.85400390625, 
208, 3734751828, 0.9474648237228394, -0.09410381317138672, 0.013989721424877644, -0.3054150342941284, 0.20940229296684265, -1.941864013671875, 9.595854759216309, -3.661119222640991, 0.13523033261299133, 1.1164090633392334, -0.20654296875, 0.427978515625, -0.8525390625, 
209, 3734760161, 0.9474809765815735, -0.09421103447675705, 0.01408056728541851, -0.3053276538848877, 0.2385568469762802, -1.933227777481079, 9.627764701843262, -2.2384281158447266, -0.06821071356534958, 1.110748529434204, -0.206787109375, 0.4306640625, -0.85546875, 
210, 3734768494, 0.9475019574165344, -0.09422526508569717, 0.014126220718026161, -0.30525586009025574, 0.2043352574110031, -1.955515742301941, 9.577327728271484, -0.8555666208267212, -0.2458197921514511, 0.9494300484657288, -0.208740234375, 0.427978515625, -0.853759765625, 
211, 3734776827, 0.947526216506958, -0.09418225288391113, 0.014142013154923916, -0.3051932156085968, 0.2170172482728958, -1.941131353378296, 9.557271003723145, 0.05357217416167259, -0.40954604744911194, 0.8754562139511108, -0.20751953125, 0.427490234375, -0.85400390625, 
212, 3734785160, 0.9475604891777039, -0.09408707916736603, 0.014122670516371727, -0.30511707067489624, 0.236258402466774, -1.9144154787063599, 9.535133361816406, 0.8600875735282898, -0.6419183015823364, 0.9983019828796387, -0.208251953125, 0.428955078125, -0.85498046875, 
213, 3734793493, 0.947591245174408, -0.09400568902492523, 0.014101982116699219, -0.30504751205444336, 0.2245420515537262, -1.8286457061767578, 9.515226364135742, 0.7120117545127869, -0.7263684868812561, 0.9143897891044617, -0.208251953125, 0.427490234375, -0.853515625, 
214, 3734801826, 0.9476154446601868, -0.09399627894163132, 0.014104277826845646, -0.30497539043426514, 0.24426957964897156, -1.764513373374939, 9.5399751663208, -0.3618522882461548, -0.7126904726028442, 0.9150814414024353, -0.208251953125, 0.427978515625, -0.8544921875, 
215, 3734810159, 0.9476285576820374, -0.09408547729253769, 0.01416569110006094, -0.30490410327911377, 0.24295197427272797, -1.7943060398101807, 9.527732849121094, -1.879931092262268, -0.3615705370903015, 0.8888523578643799, -0.207275390625, 0.42919921875, -0.85546875, 
216, 3734818492, 0.9476304650306702, -0.09422826021909714, 0.014247971586883068, -0.3048505187034607, 0.25283652544021606, -1.8398891687393188, 9.518031120300293, -2.7042741775512695, -0.2795025110244751, 0.6526634693145752, -0.212158203125, 0.426025390625, -0.855712890625, 
217, 3734826825, 0.947637140750885, -0.0943656638264656, 0.014336426742374897, -0.3047829270362854, 0.23924614489078522, -1.8972516059875488, 9.421615600585938, -2.63570499420166, -0.16249671578407288, 0.6241036057472229, -0.208740234375, 0.428466796875, -0.853515625, 
218, 3734835158, 0.9476425647735596, -0.0944511666893959, 0.014403913170099258, -0.30473610758781433, 0.2463178038597107, -1.9605239629745483, 9.41478157043457, -1.889946460723877, -0.22435510158538818, 0.571978747844696, -0.2060546875, 0.427001953125, -0.8544921875, 
219, 3734843491, 0.9476537108421326, -0.09448926895856857, 0.014446076937019825, -0.3046879172325134, 0.2806420922279358, -1.9889767169952393, 9.46238899230957, -1.1271032094955444, -0.39607295393943787, 0.6991277933120728, -0.207275390625, 0.43115234375, -0.85400390625, 
220, 3734851824, 0.9476692080497742, -0.09452193975448608, 0.014476415701210499, -0.30462783575057983, 0.28042006492614746, -1.986716389656067, 9.517765998840332, -1.035737156867981, -0.5064958930015564, 0.7492291331291199, -0.20751953125, 0.427978515625, -0.8525390625, 
221, 3734860157, 0.9476855993270874, -0.09456689655780792, 0.01451520249247551, -0.3045613467693329, 0.26030662655830383, -1.926525354385376, 9.606340408325195, -1.201666235923767, -0.47178858518600464, 0.8493039608001709, -0.207763671875, 0.429443359375, -0.853515625, 
222, 3734868490, 0.9476974010467529, -0.09463635832071304, 0.014550188556313515, -0.30450117588043213, 0.27472344040870667, -1.907914638519287, 9.612210273742676, -1.5390571355819702, -0.5992450714111328, 0.7331435084342957, -0.208251953125, 0.428955078125, -0.8544921875, 
223, 3734876823, 0.947704553604126, -0.09472815692424774, 0.014587544836103916, -0.30444857478141785, 0.27463963627815247, -1.9555482864379883, 9.555849075317383, -1.814025640487671, -0.6670970916748047, 0.6182634830474854, -0.205322265625, 0.4296875, -0.85302734375, 
224, 3734885156, 0.947710394859314, -0.09482882171869278, 0.014632564038038254, -0.3043968975543976, 0.2794555425643921, -2.012212038040161, 9.490434646606445, -1.9952976703643799, -0.5866684317588806, 0.6043806672096252, -0.207763671875, 0.430419921875, -0.8525390625, 
225, 3734893489, 0.9477192759513855, -0.0949404239654541, 0.014677685685455799, -0.30433234572410583, 0.25411292910575867, -2.0136029720306396, 9.524800300598145, -2.105464220046997, -0.6686851382255554, 0.8069636225700378, -0.207275390625, 0.429443359375, -0.85400390625, 
226, 3734901822, 0.9477370381355286, -0.09499315917491913, 0.014708703383803368, -0.3042590320110321, 0.27324822545051575, -2.0266757011413574, 9.522523880004883, -1.299820065498352, -0.5997316241264343, 0.9293740391731262, -0.207275390625, 0.43212890625, -0.85205078125, 
227, 3734910155, 0.9477609395980835, -0.0950082540512085, 0.014726484194397926, -0.30417880415916443, 0.27974769473075867, -1.975400686264038, 9.572678565979004, -0.7124343514442444, -0.6561598777770996, 1.1154614686965942, -0.213134765625, 0.427001953125, -0.854736328125, 
228, 3734918488, 0.9477905631065369, -0.09500528872013092, 0.014731076546013355, -0.30408743023872375, 0.2644191384315491, -1.86216402053833, 9.537522315979004, -0.45273157954216003, -0.7374082207679749, 1.1904855966567993, -0.205810546875, 0.43212890625, -0.85302734375, 
229, 3734926821, 0.9478248953819275, -0.09496098756790161, 0.014720472507178783, -0.303994357585907, 0.2366304248571396, -1.8851819038391113, 9.50472640991211, 0.19345152378082275, -0.8185284733772278, 1.4118438959121704, -0.205322265625, 0.42919921875, -0.85302734375, 
230, 3734935154, 0.9478681683540344, -0.09487349539995193, 0.014685794711112976, -0.3038886785507202, 0.21960590779781342, -1.9249920845031738, 9.50232219696045, 0.829734742641449, -0.9178348779678345, 1.4000869989395142, -0.206787109375, 0.43115234375, -0.8525390625, 
231, 3734943487, 0.9479197859764099, -0.09474634379148483, 0.014641795307397842, -0.30376961827278137, 0.24019064009189606, -1.8515599966049194, 9.528664588928223, 1.4268795251846313, -0.9172714948654175, 1.6569465398788452, -0.206787109375, 0.43017578125, -0.8544921875, 
232, 3734951820, 0.9479756951332092, -0.09461371600627899, 0.01460852287709713, -0.3036381006240845, 0.26840102672576904, -1.8184574842453003, 9.651906967163086, 1.4230116605758667, -0.7465780973434448, 1.8004118204116821, -0.205810546875, 0.43115234375, -0.8525390625, 
233, 3734960153, 0.9480353593826294, -0.0944882184267044, 0.014591013081371784, -0.30349186062812805, 0.29298222064971924, -1.8571912050247192, 9.711182594299316, 1.2952477931976318, -0.5829544067382812, 1.913882851600647, -0.205810546875, 0.4326171875, -0.85498046875, 
234, 3734968486, 0.9480946660041809, -0.09433946013450623, 0.014594515785574913, -0.303352952003479, 0.29372039437294006, -1.8358441591262817, 9.758703231811523, 1.4813610315322876, -0.20998550951480865, 1.9621914625167847, -0.206787109375, 0.4306640625, -0.853515625, 
235, 3734976819, 0.9481528997421265, -0.09418638050556183, 0.014619139954447746, -0.3032166361808777, 0.26923346519470215, -1.8401130437850952, 9.745736122131348, 1.4832308292388916, 0.07227056473493576, 1.9501782655715942, -0.207763671875, 0.42919921875, -0.8564453125, 
236, 3734985152, 0.9482119679450989, -0.09402047842741013, 0.01465616375207901, -0.3030818700790405, 0.2505436837673187, -1.8268710374832153, 9.75333309173584, 1.5652986764907837, 0.30384886264801025, 1.9539179801940918, -0.206298828125, 0.43017578125, -0.85400390625, 
237, 3734993485, 0.9482694268226624, -0.09386108070611954, 0.01470374595373869, -0.30294886231422424, 0.24566979706287384, -1.7756317853927612, 9.6881742477417, 1.467913269996643, 0.40661314129829407, 1.914728045463562, -0.203369140625, 0.4306640625, -0.85498046875, 
238, 3735001818, 0.9483271241188049, -0.0936865359544754, 0.014780708588659763, -0.3028183579444885, 0.20279096066951752, -1.8246774673461914, 9.618697166442871, 1.5123798847198486, 0.8668754696846008, 1.9449785947799683, -0.2119140625, 0.42236328125, -0.853271484375, 
239, 3735010151, 0.9484134912490845, -0.09346321225166321, 0.01483884733170271, -0.3026140034198761, 0.19094757735729218, -1.8394547700881958, 9.544231414794922, 2.2484302520751953, 0.9515560269355774, 1.7915492057800293, -0.209228515625, 0.427490234375, -0.854248046875, 
240, 3735018484, 0.9484790563583374, -0.09318757057189941, 0.01485856156796217, -0.3024924397468567, 0.18658308684825897, -1.7756271362304688, 9.480547904968262, 3.0816359519958496, 0.5502834916114807, 1.8083010911941528, -0.208984375, 0.426025390625, -0.85107421875, 
241, 3735026817, 0.9485499858856201, -0.0928790494799614, 0.014844100922346115, -0.30236586928367615, 0.1918664276599884, -1.6126008033752441, 9.503275871276855, 3.6840054988861084, 0.2484196424484253, 1.7091737985610962, -0.205078125, 0.42724609375, -0.85693359375, 
242, 3735035150, 0.948616087436676, -0.09260179102420807, 0.014834463596343994, -0.3022444248199463, 0.2082597315311432, -1.4191945791244507, 9.555948257446289, 3.224665641784668, 0.17480434477329254, 1.771467685699463, -0.2041015625, 0.42724609375, -0.857421875, 
243, 3735043483, 0.9486741423606873, -0.09233807772397995, 0.01487234141677618, -0.3021402955055237, 0.24695460498332977, -1.396201729774475, 9.649199485778809, 2.871445417404175, 0.7664163112640381, 1.4614843130111694, -0.20361328125, 0.42919921875, -0.8564453125, 
244, 3735051816, 0.9487164616584778, -0.09210657328367233, 0.014921554364264011, -0.3020760416984558, 0.22613663971424103, -1.5224248170852661, 9.642804145812988, 2.3644628524780273, 0.830375075340271, 0.9919241666793823, -0.203125, 0.427734375, -0.85400390625, 
245, 3735060149, 0.9487342834472656, -0.09193749725818634, 0.014981062151491642, -0.30206844210624695, 0.2150246500968933, -1.6417593955993652, 9.56793212890625, 1.5168620347976685, 0.7531737089157104, 0.21071550250053406, -0.20166015625, 0.42919921875, -0.8544921875, 
246, 3735068482, 0.9487295746803284, -0.09175273776054382, 0.015063134022057056, -0.3021354675292969, 0.22220119833946228, -1.9842791557312012, 9.596343040466309, 1.586866021156311, 1.2399979829788208, -0.8832557201385498, -0.20556640625, 0.426025390625, -0.85498046875, 
247, 3735076815, 0.9487267732620239, -0.09149006754159927, 0.015127060934901237, -0.3022204339504242, 0.22522172331809998, -2.0732510089874268, 9.587188720703125, 2.7093074321746826, 1.3428903818130493, -1.1682652235031128, -0.20263671875, 0.4267578125, -0.8583984375, 
248, 3735085148, 0.9486965537071228, -0.09123116731643677, 0.015189961530268192, -0.3023903965950012, 0.23506800830364227, -1.693086862564087, 9.696415901184082, 2.622013568878174, 1.4329242706298828, -2.3417556285858154, -0.20263671875, 0.427734375, -0.8564453125, 
249, 3735093481, 0.9485850930213928, -0.0912003219127655, 0.015413177199661732, -0.3027381896972656, 0.24668538570404053, -1.4240564107894897, 9.72341251373291, -1.0558189153671265, 2.7964982986450195, -4.832586765289307, -0.2021484375, 0.42578125, -0.8583984375, 
250, 3735101814, 0.9483859539031982, -0.09152592718601227, 0.015792427584528923, -0.3032437860965729, 0.20340240001678467, -1.9857133626937866, 9.46450424194336, -6.458989143371582, 3.5842130184173584, -7.149369239807129, -0.20556640625, 0.424560546875, -0.855712890625, 
251, 3735110147, 0.9480841159820557, -0.0922376960515976, 0.01619734801352024, -0.30395010113716125, 0.062337737530469894, -2.6972403526306152, 9.047026634216309, -11.65688705444336, 2.5180718898773193, -10.001079559326172, -0.2041015625, 0.42431640625, -0.859130859375, 
252, 3735118480, 0.9477109909057617, -0.09309229999780655, 0.016688229516148567, -0.3048253059387207, 0.057706527411937714, -3.227349042892456, 8.996729850769043, -13.962708473205566, 3.3363699913024902, -12.668599128723145, -0.203125, 0.42529296875, -0.85498046875, 
253, 3735126813, 0.94733726978302, -0.09402347356081009, 0.017111558467149734, -0.30567651987075806, 0.028842313215136528, -2.734266996383667, 9.262197494506836, -14.646839141845703, 2.055504560470581, -12.30131721496582, -0.20361328125, 0.425537109375, -0.853515625, 
254, 3735135146, 0.9468520283699036, -0.0953054204583168, 0.017681507393717766, -0.3067488372325897, 0.078664131462574, -1.4954835176467896, 9.46731948852539, -19.96323013305664, 2.8534910678863525, -15.704888343811035, -0.203125, 0.4296875, -0.85498046875, 
255, 3735143479, 0.9461580514907837, -0.09720016270875931, 0.018667791038751602, -0.3082330524921417, 0.061202723532915115, -2.173645257949829, 9.168808937072754, -29.83354949951172, 6.250149726867676, -21.50233268737793, -0.207275390625, 0.43212890625, -0.85205078125, 
256, 3735151812, 0.9453763961791992, -0.09928131103515625, 0.01990373805165291, -0.3098865747451782, -0.032769955694675446, -4.683096408843994, 9.135961532592773, -33.428062438964844, 8.986859321594238, -23.840618133544922, -0.205810546875, 0.4345703125, -0.848876953125, 
257, 3735160145, 0.9446336627006531, -0.10100355744361877, 0.02083577588200569, -0.31152909994125366, -0.41998493671417236, -6.125781059265137, 9.474246978759766, -27.376758575439453, 6.541563510894775, -23.94439697265625, -0.2080078125, 0.4384765625, -0.850341796875, 
258, 3735168478, 0.9438411593437195, -0.10273798555135727, 0.021509144455194473, -0.31331372261047363, -0.3542384207248688, -4.915226936340332, 10.077122688293457, -26.495243072509766, 3.3384993076324463, -26.27083969116211, -0.2080078125, 0.439453125, -0.847412109375, 
259, 3735176811, 0.9428948760032654, -0.10508972406387329, 0.022404208779335022, -0.3153136372566223, -0.3835379481315613, -3.1465654373168945, 10.981110572814941, -35.5556755065918, 3.881575584411621, -29.586135864257812, -0.20703125, 0.4404296875, -0.845458984375, 
260, 3735185144, 0.9417312145233154, -0.10802703350782394, 0.02356855571269989, -0.31770452857017517, -0.6146540641784668, -2.2699928283691406, 11.090108871459961, -44.569210052490234, 5.490901470184326, -35.40028762817383, -0.21142578125, 0.443115234375, -0.843017578125, 
261, 3735193477, 0.9403178095817566, -0.11157118529081345, 0.02488408237695694, -0.32055312395095825, -0.5264151692390442, -1.0690512657165527, 10.801112174987793, -53.25103759765625, 5.530994415283203, -42.382381439208984, -0.213134765625, 0.44873046875, -0.843505859375, 
262, 3735201810, 0.9387238025665283, -0.11513509601354599, 0.026329128071665764, -0.323832243680954, -0.5730663537979126, -0.018875816836953163, 10.270936012268066, -54.267520904541016, 7.8678460121154785, -48.561279296875, -0.213623046875, 0.450439453125, -0.83935546875, 
263, 3735210143, 0.9369693994522095, -0.11833582073450089, 0.027659956365823746, -0.3276263475418091, -0.81331866979599, -0.025412542745471, 10.289206504821777, -49.08618927001953, 8.854052543640137, -55.96779251098633, -0.2177734375, 0.456787109375, -0.8369140625, 
264, 3735218476, 0.9350106716156006, -0.1213923767209053, 0.028586307540535927, -0.33199542760849, -1.032514214515686, 0.42114076018333435, 10.272908210754395, -45.57294845581055, 5.335871696472168, -64.9058609008789, -0.2197265625, 0.457275390625, -0.83349609375, 
265, 3735226809, 0.9327585697174072, -0.1240755021572113, 0.02963223122060299, -0.3372056484222412, -0.6573694348335266, 0.5661137104034424, 10.422978401184082, -41.437068939208984, 10.064836502075195, -76.71764373779297, -0.222412109375, 0.46044921875, -0.83056640625, 
266, 3735235142, 0.9301257729530334, -0.12698844075202942, 0.031187433749437332, -0.3432001769542694, -0.4389892816543579, 0.4317711889743805, 10.710411071777344, -47.11537170410156, 17.057580947875977, -87.76348114013672, -0.226806640625, 0.459716796875, -0.8271484375, 
267, 3735243475, 0.9271628856658936, -0.13035918772220612, 0.033326514065265656, -0.3496910333633423, -0.13323599100112915, 0.8194284439086914, 11.2843599319458, -56.06731414794922, 23.341808319091797, -94.87086486816406, -0.22998046875, 0.462158203125, -0.82421875, 
268, 3735251808, 0.9238219857215881, -0.13456261157989502, 0.035987839102745056, -0.35660895705223083, 0.3751441240310669, 1.4212583303451538, 11.22375774383545, -69.70085906982422, 26.967056274414062, -101.55548858642578, -0.23193359375, 0.467041015625, -0.8193359375, 
269, 3735260141, 0.9202009439468384, -0.1396418809890747, 0.03932293504476547, -0.36359769105911255, 0.8772565126419067, 1.0084176063537598, 10.673234939575195, -84.60997009277344, 31.464086532592773, -103.02265167236328, -0.235595703125, 0.46875, -0.8173828125, 
270, 3735268474, 0.9165065288543701, -0.1452765017747879, 0.04300707206130028, -0.3702434003353119, 1.0260006189346313, -0.4378601908683777, 9.69551944732666, -93.71418762207031, 32.522682189941406, -98.67216491699219, -0.240234375, 0.4755859375, -0.811279296875, 
271, 3735276807, 0.9129593968391418, -0.15098422765731812, 0.04668761044740677, -0.37622886896133423, 0.821308970451355, -1.668619155883789, 8.50335693359375, -94.7258529663086, 30.666217803955078, -89.65984344482422, -0.2412109375, 0.47802734375, -0.807861328125, 
272, 3735285140, 0.9096121788024902, -0.15648549795150757, 0.05015935003757477, -0.3816032111644745, 0.8058152198791504, -2.62536358833313, 8.061396598815918, -91.01741790771484, 27.74763298034668, -81.24420166015625, -0.244384765625, 0.486328125, -0.802734375, 
273, 3735293473, 0.906526505947113, -0.1612451821565628, 0.05325668305158615, -0.38651320338249207, 0.7827631235122681, -3.632019519805908, 8.326992988586426, -79.54715728759766, 25.746471405029297, -74.36625671386719, -0.2490234375, 0.489990234375, -0.79638671875, 
274, 3735301806, 0.9036620259284973, -0.16527460515499115, 0.05593324452638626, -0.3911135196685791, 0.7396700382232666, -4.117190837860107, 8.131282806396484, -67.93083953857422, 23.563112258911133, -69.71891021728516, -0.251953125, 0.4951171875, -0.791015625, 
275, 3735310139, 0.9010075926780701, -0.1685389280319214, 0.05814995616674423, -0.3954966068267822, 0.5726447105407715, -3.9786593914031982, 7.675535678863525, -55.647491455078125, 21.281902313232422, -66.35612487792969, -0.255615234375, 0.4970703125, -0.7890625, 
276, 3735318472, 0.8985954523086548, -0.17111115157604218, 0.06000138074159622, -0.3995826840400696, 0.8729172348976135, -3.9901270866394043, 7.9964799880981445, -44.754817962646484, 19.665729522705078, -61.642333984375, -0.253173828125, 0.501953125, -0.786865234375, 
277, 3735326805, 0.8963487148284912, -0.17330312728881836, 0.061641987413167953, -0.40341559052467346, 0.9840366244316101, -3.4827070236206055, 8.147212028503418, -38.71795654296875, 18.391599655151367, -57.795352935791016, -0.260498046875, 0.499755859375, -0.78369140625, 
278, 3735335138, 0.8941895961761475, -0.17535646259784698, 0.06329455226659775, -0.4070475101470947, 0.9150838851928711, -3.3242526054382324, 8.249138832092285, -37.035037994384766, 18.780193328857422, -54.677757263183594, -0.277099609375, 0.484619140625, -0.782470703125, 
279, 3735343471, 0.8920961022377014, -0.17731213569641113, 0.06508466601371765, -0.41049724817276, 1.0125091075897217, -3.5009093284606934, 8.510597229003906, -36.615230560302734, 20.628515243530273, -51.97494125366211, -0.26416015625, 0.501220703125, -0.78369140625, 
280, 3735351804, 0.8900606632232666, -0.17895203828811646, 0.06692175567150116, -0.4138946235179901, 0.8792243599891663, -4.343158721923828, 8.745389938354492, -32.9014778137207, 22.701684951782227, -50.28822708129883, -0.263671875, 0.505126953125, -0.78076171875, 
281, 3735360137, 0.8881691694259644, -0.17991004884243011, 0.06854269653558731, -0.4172635078430176, 0.7732884883880615, -5.124658584594727, 8.688815116882324, -22.996198654174805, 23.715665817260742, -49.028690338134766, -0.263916015625, 0.507568359375, -0.781494140625, 
282, 3735368470, 0.8864681124687195, -0.18000821769237518, 0.06987075507640839, -0.4206050634384155, 0.6737477779388428, -5.190556049346924, 8.193260192871094, -10.367823600769043, 24.842914581298828, -47.50999069213867, -0.263671875, 0.508056640625, -0.777099609375, 
283, 3735376803, 0.884992241859436, -0.1793668270111084, 0.07100307941436768, -0.4237854778766632, 0.5928558111190796, -4.7046685218811035, 7.993641376495361, 0.18953295052051544, 26.106510162353516, -44.02553939819336, -0.2646484375, 0.504638671875, -0.77978515625, 
284, 3735385136, 0.8836554884910583, -0.17857971787452698, 0.07209858298301697, -0.4267120659351349, 0.5935375094413757, -3.973876953125, 8.153621673583984, 2.2639312744140625, 25.7581729888916, -40.065834045410156, -0.2646484375, 0.503662109375, -0.78173828125, 
285, 3735393469, 0.8823809027671814, -0.17823879420757294, 0.07332640886306763, -0.4292753040790558, 0.41229701042175293, -3.668637752532959, 8.313202857971191, -4.126203536987305, 23.78143310546875, -35.4088134765625, -0.265625, 0.5009765625, -0.78271484375, 
286, 3735401802, 0.8810825943946838, -0.17835675179958344, 0.07498228549957275, -0.4316006302833557, 0.4685371220111847, -3.928151845932007, 8.205765724182129, -12.534679412841797, 25.71999740600586, -32.07099533081055, -0.26708984375, 0.49853515625, -0.782470703125, 
287, 3735410135, 0.8797665238380432, -0.17883461713790894, 0.07693937420845032, -0.43373778462409973, 0.3313469886779785, -4.132839202880859, 8.247246742248535, -18.90292739868164, 26.780122756958008, -29.53538703918457, -0.26708984375, 0.50146484375, -0.7841796875, 
288, 3735418468, 0.8785011172294617, -0.17964687943458557, 0.07884445786476135, -0.43562090396881104, 0.25929462909698486, -4.1622843742370605, 8.078736305236816, -22.80105972290039, 23.489301681518555, -26.635210037231445, -0.26513671875, 0.50048828125, -0.78173828125, 
289, 3735426801, 0.8773599863052368, -0.18032951653003693, 0.08068406581878662, -0.4372982680797577, 0.5104044079780579, -4.540346145629883, 8.346039772033691, -20.73685073852539, 22.820175170898438, -23.430267333984375, -0.263671875, 0.5, -0.7822265625, 
290, 3735435134, 0.8763831853866577, -0.1805962473154068, 0.08222367614507675, -0.4388572573661804, 0.22294403612613678, -5.276137828826904, 8.971294403076172, -13.660930633544922, 21.236900329589844, -21.29277801513672, -0.26904296875, 0.49951171875, -0.781982421875, 
291, 3735443467, 0.8755654096603394, -0.18043678998947144, 0.08336126804351807, -0.44033825397491455, 0.14665652811527252, -5.175743103027344, 9.28199577331543, -5.763923645019531, 18.580154418945312, -19.913644790649414, -0.26220703125, 0.500732421875, -0.783203125, 
292, 3735451800, 0.8748178482055664, -0.18027284741401672, 0.0843241885304451, -0.44170594215393066, 0.10863218456506729, -4.7247233390808105, 9.134052276611328, -4.635077476501465, 16.153072357177734, -18.548301696777344, -0.266845703125, 0.49560546875, -0.781494140625, 
293, 3735460133, 0.874144434928894, -0.18028299510478973, 0.08519722521305084, -0.4428656995296478, 0.05851628631353378, -4.483004093170166, 9.001620292663574, -6.208687782287598, 13.404356956481934, -16.026269912719727, -0.261474609375, 0.49755859375, -0.78173828125, 
294, 3735468466, 0.8735504150390625, -0.18051281571388245, 0.08598078787326813, -0.44379162788391113, 0.009957126341760159, -4.410554885864258, 8.768475532531738, -8.414841651916504, 10.326726913452148, -13.204090118408203, -0.262451171875, 0.498779296875, -0.783203125, 
295, 3735476799, 0.8730384111404419, -0.18095536530017853, 0.08662399649620056, -0.44449353218078613, 0.013643728569149971, -4.393318176269531, 8.6381196975708, -10.138704299926758, 6.6801557540893555, -10.619202613830566, -0.26171875, 0.501220703125, -0.78271484375, 
296, 3735485132, 0.8725703954696655, -0.18168066442012787, 0.08716276288032532, -0.44501081109046936, -0.0705873966217041, -4.112971782684326, 8.300008773803711, -13.040107727050781, 3.1948256492614746, -8.723339080810547, -0.260498046875, 0.500732421875, -0.78369140625, 
297, 3735493465, 0.8721849322319031, -0.18252292275428772, 0.0875474214553833, -0.4453463554382324, -0.03712514787912369, -4.3092145919799805, 8.16275691986084, -13.474422454833984, 0.06753195077180862, -6.568695545196533, -0.2685546875, 0.50244140625, -0.78125, 
298, 3735501798, 0.8719279766082764, -0.18318945169448853, 0.08775333315134048, -0.44553497433662415, 0.07480965554714203, -4.476737022399902, 8.227397918701172, -10.164549827575684, -1.5123158693313599, -4.254652976989746, -0.26220703125, 0.501708984375, -0.78125, 
299, 3735510131, 0.8718165159225464, -0.18354174494743347, 0.08776576071977615, -0.4456060826778412, 0.0432589128613472, -4.570966720581055, 8.482030868530273, -4.94359827041626, -2.3902437686920166, -2.065916061401367, -0.263671875, 0.503662109375, -0.78173828125, 
300, 3735518464, 0.8718587160110474, -0.18349170684814453, 0.08758209645748138, -0.4455801248550415, 0.08468858897686005, -4.611992359161377, 8.719016075134277, 1.3080036640167236, -2.695488452911377, 0.03577028214931488, -0.265625, 0.504638671875, -0.78076171875, 
301, 3735526797, 0.8720505237579346, -0.18307305872440338, 0.087266705930233, -0.4454387426376343, 0.04384545236825943, -4.493664264678955, 8.857259750366211, 6.819932460784912, -2.49833607673645, 2.441126823425293, -0.26318359375, 0.505126953125, -0.783203125, 
302, 3735535130, 0.8724040389060974, -0.18236760795116425, 0.08685857057571411, -0.4451158046722412, 0.06294567883014679, -4.264021396636963, 8.850807189941406, 10.970848083496094, -2.4945452213287354, 5.726588249206543, -0.2626953125, 0.503173828125, -0.7822265625, 
303, 3735543463, 0.8730043768882751, -0.18119651079177856, 0.08626921474933624, -0.44453108310699463, 0.092134490609169, -4.415070533752441, 8.865591049194336, 18.02075958251953, -2.7802982330322266, 10.473855972290039, -0.26806640625, 0.49853515625, -0.783935546875, 
304, 3735551796, 0.8739067316055298, -0.17947891354560852, 0.08540628850460052, -0.4436204731464386, 0.06844677031040192, -4.334643840789795, 8.950176239013672, 26.57111358642578, -3.8825061321258545, 16.20269203186035, -0.26123046875, 0.501220703125, -0.78271484375, 
305, 3735560129, 0.8751173615455627, -0.17729172110557556, 0.08434192091226578, -0.4423155188560486, 0.11130403727293015, -3.900392770767212, 8.997628211975098, 33.790870666503906, -4.785130500793457, 22.87196922302246, -0.266845703125, 0.49462890625, -0.786376953125, 
306, 3735568462, 0.8765968680381775, -0.17490430176258087, 0.08316381275653839, -0.4405558705329895, 0.14986789226531982, -3.5977373123168945, 8.847983360290527, 36.97026443481445, -6.346092700958252, 29.939809799194336, -0.261962890625, 0.4921875, -0.788330078125, 
307, 3735576795, 0.8782435059547424, -0.17298758029937744, 0.0821065679192543, -0.4382249116897583, 0.09406369924545288, -3.173896312713623, 8.432222366333008, 30.363441467285156, -9.317503929138184, 37.58610916137695, -0.260986328125, 0.493896484375, -0.791259765625, 
308, 3735585128, 0.8801087141036987, -0.1710827350616455, 0.08105301111936569, -0.4354180097579956, -0.03528093546628952, -3.956625461578369, 8.176276206970215, 30.129985809326172, -10.71143913269043, 44.65196228027344, -0.2607421875, 0.488525390625, -0.793701171875, 
309, 3735593461, 0.8822129368782043, -0.1687643826007843, 0.07974553108215332, -0.43229466676712036, 0.2158244401216507, -4.88886022567749, 7.971200466156006, 36.915279388427734, -12.332145690917969, 49.77249526977539, -0.26025390625, 0.486083984375, -0.79541015625, 
310, 3735601794, 0.8845852017402649, -0.16575957834720612, 0.07806830108165741, -0.4289025664329529, 0.41928631067276, -4.592812538146973, 7.986881732940674, 47.71702194213867, -13.642794609069824, 54.52587890625, -0.25048828125, 0.490478515625, -0.7978515625, 
311, 3735610127, 0.88724285364151, -0.16193106770515442, 0.07606292515993118, -0.42521971464157104, 0.5851262211799622, -4.0350022315979, 8.45290470123291, 60.0696907043457, -13.75595760345459, 59.87709426879883, -0.25048828125, 0.487548828125, -0.799560546875, 
312, 3735618460, 0.8901069760322571, -0.15726765990257263, 0.07380075752735138, -0.42136552929878235, 0.6208322644233704, -3.772470712661743, 9.076945304870605, 71.97953033447266, -12.594749450683594, 63.48162841796875, -0.245849609375, 0.481201171875, -0.804443359375, 
313, 3735626793, 0.8930578231811523, -0.15223443508148193, 0.0714193731546402, -0.4173614978790283, 0.4671819806098938, -3.2997891902923584, 9.598518371582031, 77.29310607910156, -12.331010818481445, 65.92927551269531, -0.24609375, 0.475830078125, -0.8095703125, 
314, 3735635126, 0.8960403203964233, -0.1467697024345398, 0.06892863661050797, -0.4133260250091553, 0.217752143740654, -2.9388535022735596, 10.315213203430176, 83.19606018066406, -11.28625774383545, 66.69945526123047, -0.242431640625, 0.469482421875, -0.8134765625, 
315, 3735643459, 0.8989994525909424, -0.1410088986158371, 0.066289983689785, -0.40931785106658936, 0.13054241240024567, -2.67093563079834, 11.341962814331055, 87.72052001953125, -11.35762882232666, 66.20855712890625, -0.23876953125, 0.46533203125, -0.8173828125, 
316, 3735651792, 0.9017858505249023, -0.13560743629932404, 0.0637027695775032, -0.40540581941604614, -0.12541143596172333, -1.5850776433944702, 11.336019515991211, 82.68396759033203, -12.390750885009766, 63.821998596191406, -0.2353515625, 0.45947265625, -0.825439453125, 
317, 3735660125, 0.9042631387710571, -0.1311575174331665, 0.061470262706279755, -0.4016793370246887, -0.5674486756324768, -0.7388320565223694, 10.742594718933105, 68.5418930053711, -12.689332962036133, 59.62128829956055, -0.233642578125, 0.453125, -0.8310546875, 
318, 3735668458, 0.9064968824386597, -0.12736576795578003, 0.05957377701997757, -0.39813515543937683, -0.7777631878852844, -1.1545659303665161, 9.85649299621582, 58.167633056640625, -11.602904319763184, 56.06351852416992, -0.232421875, 0.44384765625, -0.83154296875, 
319, 3735676791, 0.9086083173751831, -0.12359119206666946, 0.05776003375649452, -0.394764244556427, -0.7095705270767212, -1.6995315551757812, 9.026464462280273, 57.465633392333984, -10.27577018737793, 53.36211013793945, -0.230224609375, 0.4423828125, -0.83642578125, 
320, 3735685124, 0.9106903076171875, -0.119319386780262, 0.05561452358961105, -0.39157649874687195, -0.5049648880958557, -1.7716457843780518, 8.87768268585205, 65.5372314453125, -11.373147010803223, 50.74617004394531, -0.231689453125, 0.43505859375, -0.840087890625, 
321, 3735693457, 0.9128172397613525, -0.11451061815023422, 0.05312480032444, -0.38839250802993774, -0.2113151252269745, -1.0838477611541748, 9.511784553527832, 74.2255630493164, -12.838024139404297, 50.785030364990234, -0.22607421875, 0.4345703125, -0.842041015625, 
322, 3735701790, 0.9149488806724548, -0.10954111814498901, 0.05046900734305382, -0.38515061140060425, 0.027992071583867073, 0.1790747344493866, 9.925741195678711, 77.06071472167969, -14.141012191772461, 51.395835876464844, -0.221435546875, 0.427001953125, -0.849609375, 
323, 3735710123, 0.9170426726341248, -0.10471417754888535, 0.04793264716863632, -0.38182324171066284, 0.04499328136444092, 0.5305730700492859, 10.358037948608398, 74.5438461303711, -13.513351440429688, 52.34858703613281, -0.220703125, 0.419677734375, -0.8525390625, 
324, 3735718456, 0.9191015958786011, -0.10006402432918549, 0.045761190354824066, -0.378370463848114, -0.11373095214366913, -0.2928776144981384, 10.169526100158691, 70.23917388916016, -9.979862213134766, 54.158077239990234, -0.22119140625, 0.412109375, -0.854736328125, 
325, 3735726789, 0.9211658239364624, -0.09573087096214294, 0.04390811547636986, -0.3746735751628876, -0.649799644947052, -2.9192023277282715, 9.30880355834961, 64.4436264038086, -7.9629292488098145, 57.506858825683594, -0.215087890625, 0.407958984375, -0.863037109375, 
326, 3735735122, 0.9232792258262634, -0.09203953295946121, 0.04195501282811165, -0.3705978989601135, -1.0340962409973145, -4.494363784790039, 8.628521919250488, 56.650169372558594, -13.047229766845703, 62.04343032836914, -0.21240234375, 0.405029296875, -0.863525390625, 
327, 3735743455, 0.9254315495491028, -0.08907779306173325, 0.03998182713985443, -0.3661448359489441, -1.1723847389221191, -4.111417770385742, 8.540360450744629, 47.34296417236328, -17.542043685913086, 66.5865478515625, -0.21240234375, 0.401123046875, -0.86474609375, 
328, 3735751788, 0.9276344180107117, -0.08666092157363892, 0.0382605604827404, -0.3613024652004242, -1.0681328773498535, -4.569904327392578, 8.221565246582031, 38.968467712402344, -17.562583923339844, 71.80319213867188, -0.209228515625, 0.397216796875, -0.86572265625, 
329, 3735760121, 0.929917573928833, -0.08404985815286636, 0.03627663478255272, -0.3562188744544983, -0.8119766712188721, -5.353191375732422, 8.291284561157227, 42.75190353393555, -20.30605697631836, 75.06608581542969, -0.208251953125, 0.393798828125, -0.865234375, 
330, 3735768454, 0.9322272539138794, -0.08073902130126953, 0.03368031606078148, -0.351167231798172, -0.43188831210136414, -4.814948558807373, 8.718411445617676, 54.7138671875, -24.65753746032715, 74.43172454833984, -0.20654296875, 0.390869140625, -0.8701171875, 
331, 3735776787, 0.9345670938491821, -0.07673601061105728, 0.030554627999663353, -0.34609454870224, 0.09348680078983307, -2.438058853149414, 9.471030235290527, 66.21651458740234, -28.17067527770996, 74.5836410522461, -0.208984375, 0.386962890625, -0.873779296875, 
332, 3735785120, 0.9368736147880554, -0.07308543473482132, 0.02749500796198845, -0.3408661484718323, -0.03296942263841629, 0.7201747894287109, 10.287931442260742, 61.22274398803711, -29.116199493408203, 76.34415435791016, -0.202880859375, 0.38427734375, -0.875732421875, 
333, 3735793453, 0.939056396484375, -0.07064308971166611, 0.025607507675886154, -0.33547866344451904, -0.33688902854919434, 1.8138900995254517, 9.891969680786133, 40.022621154785156, -19.827661514282227, 78.5486068725586, -0.201416015625, 0.38134765625, -0.878173828125, 
334, 3735801786, 0.9411361217498779, -0.06895597279071808, 0.024523718282580376, -0.3300386667251587, -0.19169315695762634, -0.8491584658622742, 8.85425090789795, 26.398670196533203, -12.912933349609375, 79.25333404541016, -0.1982421875, 0.3798828125, -0.875, 
335, 3735810119, 0.9431673288345337, -0.06707874685525894, 0.02335295081138611, -0.3246685862541199, -0.0494195893406868, -3.560983419418335, 8.76863956451416, 29.265199661254883, -13.127197265625, 78.1052017211914, -0.19384765625, 0.37890625, -0.87841796875, 
336, 3735818452, 0.9451672434806824, -0.06517788767814636, 0.021738417446613312, -0.31930750608444214, -0.11429193615913391, -2.326260566711426, 10.034687995910645, 31.494915008544922, -18.724483489990234, 77.45021057128906, -0.19189453125, 0.380126953125, -0.8779296875, 
337, 3735826785, 0.9471215009689331, -0.06386125832796097, 0.02025032788515091, -0.31383365392684937, -0.18109363317489624, -0.1295398324728012, 10.915611267089844, 23.31162452697754, -19.74114227294922, 78.45677185058594, -0.1904296875, 0.378662109375, -0.88134765625, 
338, 3735835118, 0.9490011930465698, -0.06310876458883286, 0.019090132787823677, -0.3083321750164032, -0.12937676906585693, -1.355410099029541, 10.617940902709961, 14.434127807617188, -17.901893615722656, 78.82378387451172, -0.18896484375, 0.38037109375, -0.880859375, 
339, 3735843451, 0.9508326053619385, -0.06201089918613434, 0.017669465392827988, -0.3029506206512451, -0.16635015606880188, -3.7230024337768555, 9.943305015563965, 20.072650909423828, -19.7556095123291, 76.91127014160156, -0.185546875, 0.38037109375, -0.8798828125, 
340, 3735851784, 0.9525711536407471, -0.06009780988097191, 0.01556847058236599, -0.2979486286640167, -0.18270303308963776, -4.031435966491699, 9.488921165466309, 33.54161834716797, -24.872722625732422, 71.18743896484375, -0.1865234375, 0.37939453125, -0.880859375, 
341, 3735860117, 0.9542746543884277, -0.057558100670576096, 0.012885321862995625, -0.2930869162082672, -0.06904125213623047, -2.1414434909820557, 9.255069732666016, 44.18655014038086, -29.888044357299805, 69.17378234863281, -0.181396484375, 0.37841796875, -0.881591796875, 
342, 3735868450, 0.9559199810028076, -0.055377297103405, 0.010209799744188786, -0.2882101833820343, 0.10191742330789566, 0.056456901133060455, 9.478724479675293, 39.347843170166016, -31.155118942260742, 68.76329040527344, -0.190673828125, 0.36865234375, -0.885009765625, 
343, 3735876783, 0.957506000995636, -0.05383605509996414, 0.007896305061876774, -0.2832677364349365, 0.21637719869613647, 0.22798652946949005, 9.476499557495117, 29.49840545654297, -29.009309768676758, 69.54227447509766, -0.181396484375, 0.373046875, -0.8828125, 
344, 3735885116, 0.9589590430259705, -0.0524054653942585, 0.005784953478723764, -0.2786339819431305, 0.20989860594272614, -1.6438109874725342, 8.53665542602539, 27.1420955657959, -26.499853134155273, 65.13377380371094, -0.1875, 0.366943359375, -0.888427734375, 
345, 3735893449, 0.9603414535522461, -0.0509319081902504, 0.003529710229486227, -0.27414748072624207, 0.1702868938446045, -1.7766412496566772, 8.389007568359375, 28.26560401916504, -28.163368225097656, 62.843780517578125, -0.185546875, 0.368896484375, -0.885986328125, 
346, 3735901782, 0.9617111682891846, -0.049834221601486206, 0.0014544595032930374, -0.2695279121398926, 0.36587169766426086, -1.0245566368103027, 9.202510833740234, 22.563392639160156, -27.254133224487305, 64.63855743408203, -0.182373046875, 0.3720703125, -0.88720703125, 
347, 3735910115, 0.9631290435791016, -0.049216605722904205, -0.00027670804411172867, -0.2645358443260193, 0.23654234409332275, -1.4133576154708862, 9.831233024597168, 15.004701614379883, -24.754638671875, 69.74342346191406, -0.17919921875, 0.37158203125, -0.88671875, 
348, 3735918448, 0.9645824432373047, -0.04855897277593613, -0.0020488030277192593, -0.25930193066596985, -0.05611658841371536, -3.17311954498291, 10.163037300109863, 15.668814659118652, -25.298755645751953, 73.27424621582031, -0.177734375, 0.37060546875, -0.884765625, 
349, 3735926781, 0.9660359621047974, -0.04740019515156746, -0.004307866096496582, -0.25402432680130005, -0.24108891189098358, -3.408658742904663, 10.413219451904297, 24.106201171875, -30.04852294921875, 73.57150268554688, -0.17724609375, 0.37109375, -0.88330078125, 
350, 3735935114, 0.9675002694129944, -0.04556165263056755, -0.00724100461229682, -0.24866428971290588, -0.1287418007850647, -2.5350632667541504, 9.751457214355469, 35.451107025146484, -36.63304901123047, 74.1678466796875, -0.17626953125, 0.370361328125, -0.8857421875, 
351, 3735943447, 0.968964695930481, -0.04335411265492439, -0.010717028751969337, -0.24317091703414917, 0.06001481041312218, -0.5116332769393921, 8.350299835205078, 42.28866958618164, -42.721107482910156, 75.53520965576172, -0.18115234375, 0.36865234375, -0.88671875, 
352, 3735951780, 0.9704890847206116, -0.04127299413084984, -0.014394884929060936, -0.23719088733196259, 0.01230840478092432, 0.33248046040534973, 7.1734137535095215, 41.32712173461914, -46.071144104003906, 82.1480712890625, -0.181640625, 0.36767578125, -0.888916015625, 
353, 3735960113, 0.9719737768173218, -0.039333827793598175, -0.01835678145289421, -0.23108890652656555, 0.07183950394392014, -0.9166655540466309, 6.324113368988037, 40.416900634765625, -50.45071029663086, 83.50910949707031, -0.18212890625, 0.364990234375, -0.887939453125, 
354, 3735968446, 0.9733729958534241, -0.03786736726760864, -0.022400667890906334, -0.22500789165496826, 0.534345805644989, -0.5180535912513733, 7.342228889465332, 34.252262115478516, -53.01026153564453, 83.03612518310547, -0.18359375, 0.364013671875, -0.887451171875, 
355, 3735976779, 0.974704384803772, -0.03732096776366234, -0.026007382199168205, -0.21886342763900757, 0.9329439997673035, 0.35870450735092163, 8.681607246398926, 20.623851776123047, -50.10966491699219, 84.1801528930664, -0.18701171875, 0.362060546875, -0.89013671875, 
356, 3735985112, 0.9759413599967957, -0.0372445248067379, -0.029228929430246353, -0.212876096367836, 1.1666780710220337, -0.8171356916427612, 9.975443840026855, 13.00512981414795, -46.26426315307617, 82.16232299804688, -0.18896484375, 0.364013671875, -0.888671875, 
357, 3735993445, 0.9770787954330444, -0.03707018122076988, -0.032290421426296234, -0.20716935396194458, 1.3582044839859009, -1.7889924049377441, 11.062958717346191, 13.738844871520996, -43.774478912353516, 78.14240264892578, -0.185546875, 0.364501953125, -0.886962890625, 
358, 3736001778, 0.9781471490859985, -0.0368184931576252, -0.035225193947553635, -0.20162039995193481, 1.3705086708068848, -1.3400053977966309, 11.727258682250977, 14.26001262664795, -41.75332260131836, 75.86023712158203, -0.189453125, 0.3662109375, -0.885986328125, 
359, 3736010111, 0.9791654944419861, -0.036556851118803024, -0.038055162876844406, -0.1961362063884735, 1.1529169082641602, -1.6573522090911865, 11.63277816772461, 14.102303504943848, -40.35444259643555, 74.89136505126953, -0.18798828125, 0.366943359375, -0.885498046875, 
360, 3736018444, 0.9801533222198486, -0.03607068955898285, -0.04103502631187439, -0.1906137466430664, 1.0053904056549072, -2.3605215549468994, 11.132031440734863, 17.477798461914062, -41.754913330078125, 75.13933563232422, -0.192626953125, 0.3681640625, -0.88623046875, 
361, 3736026777, 0.9810927510261536, -0.034951116889715195, -0.044403817504644394, -0.18515545129776, 0.9086072444915771, -2.27036714553833, 10.026668548583984, 27.035804748535156, -45.381141662597656, 73.59016418457031, -0.193603515625, 0.36669921875, -0.88427734375, 
362, 3736035110, 0.9820005893707275, -0.033097490668296814, -0.04816373810172081, -0.17966240644454956, 1.0650640726089478, -0.9234598278999329, 9.158848762512207, 37.879520416259766, -48.77653121948242, 73.35069274902344, -0.192626953125, 0.36572265625, -0.8837890625, 
363, 3736043443, 0.9828632473945618, -0.030851464718580246, -0.052050188183784485, -0.17417776584625244, 1.316840648651123, -0.38123756647109985, 9.078083992004395, 43.53095626831055, -49.591556549072266, 72.79778289794922, -0.195556640625, 0.365966796875, -0.8837890625, 
364, 3736051776, 0.9836541414260864, -0.028725482523441315, -0.05576786771416664, -0.1688443273305893, 1.612339973449707, 0.007779084146022797, 9.275923728942871, 41.30131912231445, -47.53516387939453, 70.74822998046875, -0.1982421875, 0.359619140625, -0.884033203125, 
365, 3736060109, 0.9843604564666748, -0.02705809846520424, -0.059029869735240936, -0.163819819688797, 1.8515419960021973, 0.6391006708145142, 9.327539443969727, 33.82944107055664, -42.427059173583984, 66.89574432373047, -0.19921875, 0.3603515625, -0.884033203125, 
366, 3736068442, 0.9849822521209717, -0.026017677038908005, -0.06173358112573624, -0.15918898582458496, 2.0225906372070312, 0.9438049793243408, 9.736419677734375, 23.673397064208984, -36.156803131103516, 62.10340118408203, -0.2021484375, 0.35888671875, -0.888427734375, 
367, 3736076775, 0.9855234622955322, -0.025645000860095024, -0.06383796781301498, -0.15501423180103302, 1.9907046556472778, 0.9666222929954529, 10.237954139709473, 12.956814765930176, -29.451683044433594, 56.52076721191406, -0.201416015625, 0.362548828125, -0.886474609375, 
368, 3736085108, 0.9859772324562073, -0.02571774274110794, -0.06547664105892181, -0.1513911485671997, 1.8684312105178833, 0.6876718401908875, 10.691459655761719, 5.35729455947876, -23.92690658569336, 49.4228515625, -0.20703125, 0.356201171875, -0.8837890625, 
369, 3736093441, 0.986361026763916, -0.0261041559278965, -0.06677591800689697, -0.1482246220111847, 1.6144201755523682, 0.4806089997291565, 10.755237579345703, 0.010156064294278622, -19.922561645507812, 43.48082733154297, -0.201416015625, 0.3623046875, -0.884033203125, 
370, 3736101774, 0.9866870641708374, -0.026372848078608513, -0.06805706024169922, -0.14539766311645508, 1.246873140335083, 0.01468503288924694, 10.156933784484863, 1.1877213716506958, -19.32284927368164, 38.663055419921875, -0.202392578125, 0.36376953125, -0.881591796875, 
371, 3736110107, 0.9869685173034668, -0.026165671646595, -0.06953529268503189, -0.14280220866203308, 1.0882606506347656, -0.2980176508426666, 9.848936080932617, 7.852146148681641, -21.04878807067871, 34.908607482910156, -0.201416015625, 0.3642578125, -0.882568359375, 
372, 3736118440, 0.9872090816497803, -0.025275541469454765, -0.0713576078414917, -0.1403796523809433, 1.065892219543457, -0.2488282322883606, 9.757165908813477, 17.570663452148438, -24.309894561767578, 31.713716506958008, -0.200439453125, 0.364501953125, -0.885009765625, 
373, 3736126773, 0.9874106645584106, -0.023887280374765396, -0.07343216985464096, -0.13811726868152618, 1.1079267263412476, 0.2263144850730896, 9.210213661193848, 24.69328498840332, -26.801841735839844, 28.878583908081055, -0.203857421875, 0.36279296875, -0.882568359375, 
374, 3736135106, 0.9875867366790771, -0.02247413992881775, -0.0755876898765564, -0.1359151303768158, 1.1229311227798462, 0.7381024360656738, 8.240729331970215, 25.073143005371094, -27.814239501953125, 27.968862533569336, -0.205810546875, 0.361328125, -0.885009765625, 
375, 3736143439, 0.9877449870109558, -0.021689582616090775, -0.07758943736553192, -0.13374784588813782, 1.3419911861419678, 1.2426892518997192, 8.319450378417969, 16.24568748474121, -26.954851150512695, 28.15596580505371, -0.208251953125, 0.360595703125, -0.88427734375, 
376, 3736151772, 0.9878876805305481, -0.02166963368654251, -0.0792694017291069, -0.13169629871845245, 1.8236931562423706, 1.1467068195343018, 8.904817581176758, 5.10096549987793, -23.925437927246094, 27.474384307861328, -0.207763671875, 0.357666015625, -0.8828125, 
377, 3736160105, 0.9879977107048035, -0.022147677838802338, -0.0805307924747467, -0.130014106631279, 2.182154655456543, 0.7563039660453796, 9.721210479736328, -2.8011488914489746, -19.112714767456055, 23.059268951416016, -0.210693359375, 0.360595703125, -0.8828125, 
378, 3736168438, 0.9880766868591309, -0.022859517484903336, -0.08143719285726547, -0.12872114777565002, 2.153843641281128, 0.5534913539886475, 10.397660255432129, -7.085848808288574, -14.577657699584961, 18.087873458862305, -0.214111328125, 0.3603515625, -0.880859375, 
379, 3736176771, 0.9881184697151184, -0.023637298494577408, -0.08201097697019577, -0.12789277732372284, 2.119014263153076, 0.35894736647605896, 10.505213737487793, -9.075177192687988, -10.114372253417969, 11.882587432861328, -0.21533203125, 0.36279296875, -0.88037109375, 
380, 3736185104, 0.9881272912025452, -0.024262715131044388, -0.08236552774906158, -0.12747803330421448, 1.8937649726867676, 0.1241413801908493, 10.235876083374023, -7.895204544067383, -6.726426601409912, 6.110775470733643, -0.21044921875, 0.363525390625, -0.881591796875, 
381, 3736193437, 0.9881133437156677, -0.024637944996356964, -0.08264412730932236, -0.1273348480463028, 1.7605581283569336, 0.31817495822906494, 9.79916763305664, -4.9189581871032715, -5.232706546783447, 2.117260217666626, -0.212890625, 0.364013671875, -0.879150390625, 
382, 3736201770, 0.9880905151367188, -0.0248703695833683, -0.08291944116353989, -0.12728716433048248, 1.5377641916275024, 0.38542503118515015, 9.571144104003906, -3.1207613945007324, -4.874286651611328, 0.6471819877624512, -0.21484375, 0.365966796875, -0.8798828125, 
383, 3736210103, 0.9880526661872864, -0.02492637187242508, -0.08321463316679001, -0.12737664580345154, 1.4869306087493896, -0.32419851422309875, 9.537141799926758, -0.8276470899581909, -4.8478779792785645, -1.4560155868530273, -0.21533203125, 0.367431640625, -0.879150390625, 
384, 3736218436, 0.9879919290542603, -0.02498835325241089, -0.08351720124483109, -0.12763845920562744, 1.457887887954712, 0.10075633972883224, 9.605270385742188, -1.1245673894882202, -4.883456230163574, -3.82656192779541, -0.21630859375, 0.3662109375, -0.8779296875, 
385, 3736226769, 0.9879124760627747, -0.025236308574676514, -0.0837332159280777, -0.1280616670846939, 1.5074390172958374, 0.3727133274078369, 9.571613311767578, -3.9711804389953613, -4.042900562286377, -5.816046237945557, -0.216796875, 0.36474609375, -0.87841796875, 
386, 3736235102, 0.9878147840499878, -0.02559051290154457, -0.08388388156890869, -0.12864528596401215, 1.542796015739441, 0.3254021108150482, 9.470016479492188, -5.744172096252441, -3.264406442642212, -7.875635147094727, -0.21728515625, 0.36376953125, -0.87744140625, 
387, 3736243435, 0.9877073764801025, -0.02606876939535141, -0.08394373208284378, -0.1293325126171112, 1.660558819770813, 0.6118683815002441, 9.534581184387207, -7.693183898925781, -2.2691650390625, -9.12983512878418, -0.216796875, 0.3662109375, -0.87890625, 
388, 3736251768, 0.9875856041908264, -0.026646969839930534, -0.08390574902296066, -0.13016636669635773, 1.7688415050506592, 0.26125362515449524, 9.62166690826416, -9.419225692749023, -1.0373766422271729, -10.991863250732422, -0.219482421875, 0.36865234375, -0.87744140625, 
389, 3736260101, 0.9874535799026489, -0.027460774406790733, -0.08370693773031235, -0.1311238557100296, 1.8471177816390991, 0.30803388357162476, 10.024957656860352, -13.03685474395752, 0.7149319052696228, -12.36233139038086, -0.21923828125, 0.36669921875, -0.87744140625, 
390, 3736268434, 0.9873034358024597, -0.02841894142329693, -0.08337502181529999, -0.1322566717863083, 1.7793387174606323, -0.06418265402317047, 10.041937828063965, -15.461142539978027, 2.3501453399658203, -14.556575775146484, -0.222900390625, 0.366943359375, -0.8779296875, 
391, 3736276767, 0.98713219165802, -0.029175616800785065, -0.08307365328073502, -0.13355378806591034, 1.7303649187088013, -0.42766398191452026, 9.690252304077148, -12.853178024291992, 2.2990195751190186, -17.07007598876953, -0.218017578125, 0.37060546875, -0.876708984375, 
392, 3736285100, 0.9869544506072998, -0.029690604656934738, -0.08289004117250443, -0.13486234843730927, 1.6263126134872437, -0.27862071990966797, 9.370992660522461, -9.386825561523438, 1.1854655742645264, -17.558563232421875, -0.220458984375, 0.3701171875, -0.874267578125, 
393, 3736293433, 0.9867758750915527, -0.030122339725494385, -0.08278238773345947, -0.13613222539424896, 1.576915979385376, -0.5494152903556824, 9.369338035583496, -8.056113243103027, 0.24859900772571564, -17.164743423461914, -0.220458984375, 0.36767578125, -0.87548828125, 
394, 3736301766, 0.9865849018096924, -0.030615003779530525, -0.08269217610359192, -0.13745498657226562, 1.5875474214553833, -0.564099133014679, 9.42075252532959, -8.930765151977539, -0.05171516537666321, -17.838937759399414, -0.224853515625, 0.369873046875, -0.8720703125, 
395, 3736310099, 0.9863836169242859, -0.03129824250936508, -0.08255207538604736, -0.13882334530353546, 1.595141053199768, -0.1927497535943985, 9.40211296081543, -11.650997161865234, 0.23038730025291443, -18.244205474853516, -0.225341796875, 0.369873046875, -0.8740234375, 
396, 3736318432, 0.986167848110199, -0.03209022805094719, -0.08236083388328552, -0.14028149843215942, 1.6534982919692993, -0.3104745149612427, 9.386116027832031, -13.34837818145752, 0.781196117401123, -19.340038299560547, -0.226318359375, 0.369384765625, -0.87353515625, 
397, 3736326765, 0.9859322905540466, -0.032903511077165604, -0.08211245387792587, -0.14188531041145325, 1.7612757682800293, -0.40729162096977234, 9.479443550109863, -13.905668258666992, 1.5147114992141724, -21.30785369873047, -0.226318359375, 0.371826171875, -0.8740234375, 
398, 3736335098, 0.9856799244880676, -0.03384263068437576, -0.08176810294389725, -0.1436060220003128, 1.8283346891403198, -0.032266560941934586, 9.699647903442383, -15.951326370239258, 2.6451709270477295, -22.737106323242188, -0.228271484375, 0.370849609375, -0.87255859375, 
399, 3736343431, 0.9854193329811096, -0.034858670085668564, -0.08129089325666428, -0.14541135728359222, 1.9118760824203491, -0.053572945296764374, 9.800426483154297, -17.344484329223633, 4.284278392791748, -23.755170822143555, -0.2294921875, 0.372314453125, -0.87353515625, 
400, 3736351764, 0.985136091709137, -0.03565831482410431, -0.08076679706573486, -0.1474144458770752, 1.9618619680404663, -0.5928316116333008, 9.746089935302734, -14.75014877319336, 5.462764739990234, -26.69620132446289, -0.22509765625, 0.374267578125, -0.869873046875, 
401, 3736360097, 0.9848192930221558, -0.03612418472766876, -0.0802343413233757, -0.1496913880109787, 1.8029143810272217, -0.8023865222930908, 9.752716064453125, -10.552485466003418, 6.309777736663818, -30.84410285949707, -0.22802734375, 0.375732421875, -0.87353515625, 
402, 3736368430, 0.9844526648521423, -0.03637028485536575, -0.07971994578838348, -0.15229469537734985, 1.6552420854568481, -0.9512365460395813, 9.754071235656738, -7.938014507293701, 6.664818286895752, -35.61468505859375, -0.22998046875, 0.3740234375, -0.86962890625, 
403, 3736376763, 0.9840343594551086, -0.03654763102531433, -0.07919245213270187, -0.15520310401916504, 1.6257669925689697, -0.5698025226593018, 9.595930099487305, -7.37883186340332, 7.041940689086914, -39.924659729003906, -0.22802734375, 0.372802734375, -0.8720703125, 
404, 3736385096, 0.9835669994354248, -0.03687301650643349, -0.078611359000206, -0.15835259854793549, 1.5220005512237549, -0.1477484256029129, 9.476736068725586, -9.799382209777832, 7.559144496917725, -43.101985931396484, -0.23486328125, 0.37109375, -0.871826171875, 
405, 3736393429, 0.9830369353294373, -0.03737055882811546, -0.07796375453472137, -0.1618102639913559, 1.465262770652771, -0.28557491302490234, 9.368900299072266, -12.622542381286621, 8.133267402648926, -47.188716888427734, -0.24462890625, 0.36328125, -0.86962890625, 
406, 3736401762, 0.9824255704879761, -0.03811722248792648, -0.07723566144704819, -0.16565276682376862, 1.541671633720398, -0.42837318778038025, 9.699110984802246, -16.638029098510742, 8.8162260055542, -52.26118469238281, -0.23681640625, 0.373046875, -0.86962890625, 
407, 3736410095, 0.9817403554916382, -0.03931792825460434, -0.07633175700902939, -0.16980046033859253, 1.6082823276519775, 0.06321439892053604, 9.994955062866211, -23.51996612548828, 10.199275970458984, -55.97893142700195, -0.23876953125, 0.370849609375, -0.870361328125, 
408, 3736418428, 0.9809830784797668, -0.04066542163491249, -0.07516339421272278, -0.17432090640068054, 1.732871651649475, -0.03164006024599075, 9.9360990524292, -26.566604614257812, 13.592620849609375, -60.88017654418945, -0.239990234375, 0.373291015625, -0.868408203125, 
409, 3736426761, 0.9801543951034546, -0.04171847179532051, -0.07383845001459122, -0.17923110723495483, 1.832326054573059, -0.48890456557273865, 9.807403564453125, -23.396509170532227, 16.51535415649414, -66.53020477294922, -0.2431640625, 0.3701171875, -0.870361328125, 
410, 3736435094, 0.9792805910110474, -0.04230821877717972, -0.0725056603550911, -0.18434083461761475, 1.7220230102539062, -0.3392912745475769, 9.677816390991211, -17.41612434387207, 17.87163543701172, -69.79266357421875, -0.244873046875, 0.37255859375, -0.868896484375, 
411, 3736443427, 0.9783594608306885, -0.04237384721636772, -0.07122276723384857, -0.18964070081710815, 1.466553807258606, -0.41553884744644165, 9.583399772644043, -10.43285846710205, 18.552982330322266, -73.02806091308594, -0.24462890625, 0.36767578125, -0.86767578125, 
412, 3736451760, 0.9773881435394287, -0.04198937490582466, -0.06999575346708298, -0.19511286914348602, 1.4209694862365723, -0.9739267230033875, 9.411504745483398, -4.4447855949401855, 19.064664840698242, -75.9476318359375, -0.248046875, 0.367431640625, -0.8681640625, 
413, 3736460093, 0.976362943649292, -0.041654013097286224, -0.06872308254241943, -0.20069006085395813, 1.4018189907073975, -1.062476396560669, 9.5687255859375, -5.343594551086426, 19.51773452758789, -77.43266296386719, -0.24951171875, 0.364990234375, -0.87060546875, 
414, 3736468426, 0.9752922654151917, -0.04176909476518631, -0.06725458055734634, -0.2062917798757553, 1.4402521848678589, -0.8400216698646545, 9.573861122131348, -11.996393203735352, 20.911338806152344, -77.3455581665039, -0.2509765625, 0.361328125, -0.869384765625, 
415, 3736476759, 0.9741581082344055, -0.04266005754470825, -0.06556002795696259, -0.21193647384643555, 1.3773150444030762, -0.8425605893135071, 9.68437385559082, -23.10108184814453, 21.67217254638672, -77.26014709472656, -0.25341796875, 0.3603515625, -0.871337890625, 
416, 3736485092, 0.9729680418968201, -0.04429920017719269, -0.0636412501335144, -0.21757635474205017, 1.397298812866211, -1.037879228591919, 10.271247863769531, -33.823970794677734, 22.478696823120117, -76.54767608642578, -0.255859375, 0.355712890625, -0.869140625, 
417, 3736493425, 0.9717411994934082, -0.04646829143166542, -0.06129402667284012, -0.22320818901062012, 1.4506444931030273, -1.0936697721481323, 10.635807037353516, -42.192989349365234, 26.552274703979492, -75.82936096191406, -0.25341796875, 0.3603515625, -0.870361328125, 
418, 3736501758, 0.9704793691635132, -0.04876815900206566, -0.058604173362255096, -0.2288583517074585, 1.5533286333084106, -1.0183618068695068, 10.957503318786621, -45.048362731933594, 30.747835159301758, -75.84954833984375, -0.25634765625, 0.36181640625, -0.868408203125, 
419, 3736510091, 0.9691885709762573, -0.05106406658887863, -0.05594560503959656, -0.2344251573085785, 1.4064866304397583, -1.0617820024490356, 11.161538124084473, -44.826759338378906, 30.227880477905273, -74.85645294189453, -0.256103515625, 0.3642578125, -0.865478515625, 
420, 3736518424, 0.9678821563720703, -0.05303705111145973, -0.053516656160354614, -0.2398882806301117, 1.2151758670806885, -1.1701806783676147, 11.01059341430664, -39.736942291259766, 28.15926742553711, -73.930908203125, -0.254638671875, 0.365234375, -0.864501953125, 
421, 3736526757, 0.9665668606758118, -0.05466214567422867, -0.05127251148223877, -0.24525660276412964, 1.0168211460113525, -1.470863938331604, 10.862661361694336, -34.40879440307617, 26.735092163085938, -73.09223175048828, -0.256103515625, 0.365234375, -0.866943359375, 
422, 3736535090, 0.9652626514434814, -0.05605948343873024, -0.04894324764609337, -0.25049781799316406, 0.8758412003517151, -1.7900089025497437, 10.252764701843262, -31.59555435180664, 28.583702087402344, -71.45867156982422, -0.258056640625, 0.365234375, -0.865478515625, 
423, 3736543423, 0.9639398455619812, -0.057928889989852905, -0.0466482900083065, -0.2555526793003082, 0.3521949350833893, -1.255202293395996, 9.541046142578125, -37.60307312011719, 26.308856964111328, -68.7658462524414, -0.259521484375, 0.364990234375, -0.864013671875, 
424, 3736551756, 0.9625493884086609, -0.06087973341345787, -0.04424319416284561, -0.26048803329467773, 0.0821256935596466, -0.7959707975387573, 8.909725189208984, -52.332183837890625, 23.866159439086914, -66.62916564941406, -0.260009765625, 0.3701171875, -0.862060546875, 
425, 3736560089, 0.9611120820045471, -0.06492806226015091, -0.04143086075782776, -0.26523613929748535, 0.16678670048713684, -1.753066062927246, 8.800435066223145, -68.21109771728516, 25.099681854248047, -63.30885314941406, -0.2607421875, 0.372314453125, -0.86083984375, 
426, 3736568422, 0.9596127867698669, -0.06986482441425323, -0.03840788081288338, -0.2698255777359009, 0.38048550486564636, -2.2750508785247803, 9.2108793258667, -80.71812438964844, 24.50650978088379, -60.74497604370117, -0.26123046875, 0.37451171875, -0.859375, 
427, 3736576755, 0.9580423831939697, -0.07493370026350021, -0.03515191003680229, -0.2744503617286682, 0.7405261397361755, -2.5064263343811035, 10.200304985046387, -83.38379669189453, 27.055015563964844, -61.26214599609375, -0.261474609375, 0.38671875, -0.854248046875, 
428, 3736585088, 0.9564108848571777, -0.08001870661973953, -0.03179989755153656, -0.2790752351284027, 0.9163109064102173, -2.6890039443969727, 11.644866943359375, -84.05122375488281, 28.2628116607666, -61.30678939819336, -0.26220703125, 0.392333984375, -0.8525390625, 
429, 3736593421, 0.954675555229187, -0.08483411371707916, -0.02853544056415558, -0.28390586376190186, 1.0848215818405151, -2.15509033203125, 12.403847694396973, -80.33267211914062, 28.286710739135742, -64.65980529785156, -0.261474609375, 0.399658203125, -0.8505859375, 
430, 3736601754, 0.9528341293334961, -0.08880172669887543, -0.025443661957979202, -0.28912490606307983, 1.0620280504226685, -1.5323638916015625, 12.56257152557373, -68.84551239013672, 29.781322479248047, -70.67391967773438, -0.261962890625, 0.400146484375, -0.8466796875, 
431, 3736610087, 0.9508965015411377, -0.09163182228803635, -0.022654570639133453, -0.2947975695133209, 0.6677443981170654, -2.217688798904419, 12.508673667907715, -52.99044418334961, 30.851369857788086, -77.99234771728516, -0.26513671875, 0.405029296875, -0.845458984375, 
432, 3736618420, 0.9487624764442444, -0.09456820785999298, -0.020055102184414864, -0.30087143182754517, 0.16545654833316803, -1.9484611749649048, 11.836089134216309, -54.00626754760742, 28.39209747314453, -84.01616668701172, -0.26416015625, 0.407958984375, -0.843505859375, 
433, 3736626753, 0.9463773965835571, -0.09778416901826859, -0.0176825150847435, -0.30743199586868286, 0.21738189458847046, 0.8343724012374878, 10.868492126464844, -57.135738372802734, 24.80249786376953, -91.68013000488281, -0.265625, 0.409912109375, -0.841552734375, 
434, 3736635086, 0.9434564709663391, -0.10222665965557098, -0.014860644936561584, -0.3150203227996826, 0.32030734419822693, 4.25934362411499, 9.146127700805664, -76.00981903076172, 26.7523250579834, -106.36009216308594, -0.269775390625, 0.41357421875, -0.838134765625, 
435, 3736643419, 0.940083384513855, -0.10896561294794083, -0.010678177699446678, -0.3229164183139801, 0.7439536452293396, 5.726911544799805, 9.01158332824707, -112.36815643310547, 34.743778228759766, -109.91455841064453, -0.272216796875, 0.4150390625, -0.833251953125, 
436, 3736651752, 0.9364670515060425, -0.11773031949996948, -0.005187146365642548, -0.33039551973342896, 1.5391039848327637, 4.280331611633301, 9.331549644470215, -144.69960021972656, 42.05787658691406, -103.36323547363281, -0.27490234375, 0.423095703125, -0.82470703125, 
437, 3736660085, 0.9326793551445007, -0.12647555768489838, 0.0007072873413562775, -0.337833434343338, 1.667723536491394, -0.38975849747657776, 7.855573654174805, -146.55906677246094, 47.21010208129883, -102.93983459472656, -0.272705078125, 0.43603515625, -0.81689453125, 
438, 3736668418, 0.9289520382881165, -0.13355325162410736, 0.005957845598459244, -0.34524643421173096, 1.4455794095993042, -3.3240034580230713, 6.444990158081055, -122.07227325439453, 46.70700454711914, -103.4616928100586, -0.27880859375, 0.443115234375, -0.810546875, 
439, 3736676751, 0.9254796504974365, -0.13831427693367004, 0.01021207869052887, -0.3525211811065674, 1.0829826593399048, -3.541883707046509, 5.757659435272217, -87.29182434082031, 44.66375732421875, -102.13817596435547, -0.27734375, 0.4541015625, -0.806640625, 
440, 3736685084, 0.9222738146781921, -0.14119338989257812, 0.013651536777615547, -0.35959428548812866, 1.0348368883132935, -2.722743034362793, 6.2609734535217285, -58.91108703613281, 43.0347900390625, -99.55266571044922, -0.28076171875, 0.455078125, -0.809326171875, 
441, 3736693417, 0.9192384481430054, -0.14293895661830902, 0.01678479090332985, -0.36647817492485046, 1.3036284446716309, -1.958954095840454, 7.0233259201049805, -42.719478607177734, 44.32057571411133, -96.70076751708984, -0.2802734375, 0.45703125, -0.80615234375, 
442, 3736701750, 0.9162828326225281, -0.14400143921375275, 0.019726555794477463, -0.37325501441955566, 1.3037618398666382, -1.653526782989502, 7.24764347076416, -32.993690490722656, 45.1504020690918, -95.15392303466797, -0.28125, 0.45458984375, -0.805908203125, 
443, 3736710083, 0.9134458899497986, -0.14505217969417572, 0.02265229821205139, -0.37958192825317383, 1.1616309881210327, -1.8813520669937134, 8.00540828704834, -32.64250564575195, 44.05225372314453, -88.9123306274414, -0.28125, 0.45361328125, -0.802978515625, 
