sep=,
PacketCounter,SampleTimeFine,Quat_W,Quat_X,Quat_Y,Quat_Z,Acc_X,Acc_Y,Acc_Z,Gyr_X,Gyr_Y,Gyr_Z,Mag_X,Mag_Y,Mag_Z,
0, 3185407136, 0.8047371506690979, -0.5520087480545044, 0.20619109272956848, -0.07201193273067474, 0, 0, 0, 0, 0, 0, -0.313720703125, 0.30224609375, -0.390380859375, 
1, 3185415469, 0.8047479391098022, -0.552016019821167, 0.20616520941257477, -0.07191033661365509, -2.376077890396118, -8.990167617797852, 2.939469575881958, -0.716609537601471, -1.8188669681549072, 0.8458205461502075, -0.3134765625, 0.303955078125, -0.391357421875, 
2, 3185423802, 0.8047560453414917, -0.5520267486572266, 0.20613443851470947, -0.071825310587883, -2.386547327041626, -8.94232177734375, 2.9979910850524902, -0.7567980885505676, -1.7136434316635132, 0.5533058643341064, -0.310791015625, 0.303466796875, -0.3896484375, 
3, 3185432135, 0.8047504425048828, -0.5520583391189575, 0.20609700679779053, -0.07175144553184509, -2.444457769393921, -8.943331718444824, 3.020426034927368, -1.0193185806274414, -1.7133619785308838, 0.36527183651924133, -0.3125, 0.302978515625, -0.390869140625, 
4, 3185440468, 0.8047442436218262, -0.5520914196968079, 0.20605717599391937, -0.07168179750442505, -2.4400272369384766, -8.957878112792969, 3.0538170337677, -1.0605828762054443, -1.6780396699905396, 0.2364834100008011, -0.3125, 0.304931640625, -0.38916015625, 
5, 3185448801, 0.8047247529029846, -0.5521422028541565, 0.206021249294281, -0.07161208987236023, -2.44256591796875, -8.906759262084961, 3.0178589820861816, -1.3265868425369263, -1.6445618867874146, 0.26230254769325256, -0.31298828125, 0.304443359375, -0.390625, 
6, 3185457134, 0.8046925067901611, -0.5522044897079468, 0.20599952340126038, -0.07155691087245941, -2.4139695167541504, -8.909490585327148, 2.992154121398926, -1.5594971179962158, -1.322949767112732, 0.10618381202220917, -0.3134765625, 0.303955078125, -0.390869140625, 
7, 3185465467, 0.8046442270278931, -0.5522841811180115, 0.20598964393138885, -0.07151360809803009, -2.3740313053131104, -9.012701034545898, 3.00264048576355, -1.8147684335708618, -1.103999137878418, 0.05659464746713638, -0.31103515625, 0.304931640625, -0.3916015625, 
8, 3185473800, 0.8046067953109741, -0.5523444414138794, 0.2059876173734665, -0.07147552073001862, -2.361222743988037, -9.102259635925293, 2.956820487976074, -1.5480986833572388, -0.9590738415718079, 0.06773684173822403, -0.31298828125, 0.30419921875, -0.388671875, 
9, 3185482133, 0.8045752048492432, -0.5523891448974609, 0.205994114279747, -0.07146716117858887, -2.3532209396362305, -9.119059562683105, 2.9462058544158936, -1.2196985483169556, -0.6681985259056091, -0.08862524479627609, -0.31201171875, 0.305419921875, -0.39013671875, 
10, 3185490466, 0.8045503497123718, -0.5524194240570068, 0.20600923895835876, -0.07146918773651123, -2.3389010429382324, -9.049190521240234, 2.9886293411254883, -1.0215981006622314, -0.47209596633911133, -0.1497408151626587, -0.310302734375, 0.304443359375, -0.388671875, 
11, 3185498799, 0.8045247197151184, -0.5524473190307617, 0.20602965354919434, -0.0714825987815857, -2.3658599853515625, -9.066893577575684, 3.004859209060669, -0.9406827092170715, -0.35009536147117615, -0.16982237994670868, -0.3115234375, 0.304443359375, -0.388671875, 
12, 3185507132, 0.8045088052749634, -0.5524563193321228, 0.2060571312904358, -0.07151293754577637, -2.403262138366699, -9.074339866638184, 3.0102739334106445, -0.650985836982727, -0.12276903539896011, -0.30048057436943054, -0.3125, 0.304443359375, -0.3896484375, 
13, 3185515465, 0.8045000433921814, -0.5524546504020691, 0.2060837596654892, -0.0715479850769043, -2.4133403301239014, -8.983141899108887, 3.0094449520111084, -0.43101072311401367, -0.13501262664794922, -0.2605479955673218, -0.3115234375, 0.304931640625, -0.3896484375, 
14, 3185523798, 0.8045008182525635, -0.5524377822875977, 0.20611384510993958, -0.07158353924751282, -2.390165328979492, -8.931883811950684, 3.0216684341430664, -0.22544367611408234, -0.07680428773164749, -0.2486501783132553, -0.310791015625, 0.302978515625, -0.39013671875, 
15, 3185532131, 0.8045031428337097, -0.5524160265922546, 0.20614992082118988, -0.07161904871463776, -2.439913511276245, -8.957562446594238, 2.995875358581543, -0.13293787837028503, -0.0391385555267334, -0.12625256180763245, -0.31396484375, 0.304931640625, -0.389892578125, 
16, 3185540464, 0.8045204877853394, -0.5523741841316223, 0.20618748664855957, -0.07163891196250916, -2.456193447113037, -8.973213195800781, 2.979323625564575, 0.12429308891296387, -0.13642142713069916, 0.06958106905221939, -0.3125, 0.305419921875, -0.38916015625, 
17, 3185548797, 0.8045409321784973, -0.5523257255554199, 0.20622676610946655, -0.07167056202888489, -2.454855442047119, -9.022666931152344, 2.9345035552978516, 0.28553467988967896, -0.058502912521362305, 0.03267095610499382, -0.31396484375, 0.306396484375, -0.38916015625, 
18, 3185557130, 0.8045740127563477, -0.5522637367248535, 0.20625358819961548, -0.07170005142688751, -2.4378461837768555, -9.071142196655273, 2.9434592723846436, 0.5056890845298767, -0.2064763605594635, -0.045747023075819016, -0.311279296875, 0.3037109375, -0.3876953125, 
19, 3185565463, 0.8046313524246216, -0.5521634221076965, 0.20627860724925995, -0.07175704836845398, -2.3695223331451416, -9.109831809997559, 3.0194296836853027, 1.2268577814102173, -0.07617674022912979, -0.17187151312828064, -0.3134765625, 0.305419921875, -0.3896484375, 
20, 3185573796, 0.804715633392334, -0.5520206093788147, 0.206304669380188, -0.07183626294136047, -2.338361978530884, -9.103074073791504, 3.048555850982666, 1.9293280839920044, 0.09665530920028687, -0.32181721925735474, -0.3134765625, 0.302734375, -0.388916015625, 
21, 3185582129, 0.8048533797264099, -0.5518026351928711, 0.20631568133831024, -0.07193586230278015, -2.3080217838287354, -9.106725692749023, 3.1360199451446533, 3.274075746536255, -0.018877694383263588, -0.3366479277610779, -0.31298828125, 0.30322265625, -0.390380859375, 
22, 3185590462, 0.8050702214241028, -0.5514690279960632, 0.206318661570549, -0.0720587819814682, -2.246755599975586, -9.162618637084961, 3.141385793685913, 5.1933369636535645, -0.013460280373692513, -0.3083825707435608, -0.310546875, 0.304443359375, -0.390625, 
23, 3185598795, 0.8052831888198853, -0.5511190891265869, 0.20635968446731567, -0.07223965227603912, -2.195533037185669, -9.012779235839844, 3.2122485637664795, 5.505805969238281, 0.8455003499984741, -0.559145987033844, -0.312255859375, 0.30126953125, -0.389404296875, 
24, 3185607128, 0.805454432964325, -0.5508112907409668, 0.20643869042396545, -0.07245190441608429, -2.2240355014801025, -8.817117691040039, 3.221268892288208, 4.739721775054932, 1.6085866689682007, -0.8402237296104431, -0.311279296875, 0.30126953125, -0.389892578125, 
25, 3185615461, 0.8055222034454346, -0.5506293177604675, 0.20657630264759064, -0.07268841564655304, -2.280585527420044, -8.737593650817871, 3.20281982421875, 2.6040327548980713, 2.5832595825195312, -1.0621709823608398, -0.310302734375, 0.30029296875, -0.389892578125, 
26, 3185623794, 0.8054942488670349, -0.5505732893943787, 0.20675596594810486, -0.07291260361671448, -2.3702731132507324, -8.786760330200195, 3.1541531085968018, 0.376939058303833, 3.129214286804199, -1.1239142417907715, -0.311767578125, 0.298828125, -0.391357421875, 
27, 3185632127, 0.8054336309432983, -0.550559937953949, 0.20694687962532043, -0.07314048707485199, -2.4281444549560547, -8.89801025390625, 3.1103274822235107, -0.31452998518943787, 3.305081367492676, -1.1711980104446411, -0.310791015625, 0.29638671875, -0.389892578125, 
28, 3185640460, 0.805386483669281, -0.5505300760269165, 0.20712722837924957, -0.07337349653244019, -2.459089517593384, -9.004524230957031, 3.0240585803985596, -0.034989044070243835, 3.2311718463897705, -1.3100401163101196, -0.311279296875, 0.2978515625, -0.390380859375, 
29, 3185648793, 0.8053916096687317, -0.5504220128059387, 0.20730352401733398, -0.07363006472587585, -2.489466905593872, -9.124686241149902, 2.962768793106079, 1.3295193910598755, 3.268439769744873, -1.2650612592697144, -0.312255859375, 0.29736328125, -0.391357421875, 
30, 3185657126, 0.8054447770118713, -0.5502524375915527, 0.2074531763792038, -0.07389368116855621, -2.554422616958618, -9.152032852172852, 2.925682306289673, 2.389590263366699, 2.9780516624450684, -1.381939172744751, -0.311279296875, 0.29638671875, -0.390869140625, 
31, 3185665459, 0.805539608001709, -0.5500246286392212, 0.20759589970111847, -0.07415397465229034, -2.567418336868286, -9.064939498901367, 2.918565511703491, 3.37760853767395, 2.789710521697998, -1.126488447189331, -0.3115234375, 0.29541015625, -0.390380859375, 
32, 3185673792, 0.8056445717811584, -0.5497865080833435, 0.20772460103034973, -0.07441824674606323, -2.502898693084717, -9.1195707321167, 2.9033362865448, 3.5668208599090576, 2.674344062805176, -1.298359990119934, -0.30859375, 0.29541015625, -0.389892578125, 
33, 3185682125, 0.805761456489563, -0.5495375990867615, 0.20783671736717224, -0.0746784508228302, -2.5248069763183594, -9.082659721374512, 2.8768579959869385, 3.809438943862915, 2.4096462726593018, -1.2752048969268799, -0.3125, 0.29248046875, -0.390869140625, 
34, 3185690458, 0.8058691620826721, -0.5492984652519226, 0.20796097815036774, -0.07492786645889282, -2.5576579570770264, -9.093083381652832, 2.8431270122528076, 3.5596232414245605, 2.505725383758545, -1.1616312265396118, -0.3134765625, 0.292724609375, -0.39111328125, 
35, 3185698791, 0.8059474229812622, -0.5491053462028503, 0.20808491110801697, -0.07515868544578552, -2.5641932487487793, -8.999465942382812, 2.8034610748291016, 2.804745674133301, 2.3693292140960693, -1.059660792350769, -0.31103515625, 0.2919921875, -0.390380859375, 
36, 3185707124, 0.8059803247451782, -0.548987865447998, 0.2082054167985916, -0.07533121109008789, -2.5780417919158936, -8.897857666015625, 2.811298131942749, 1.430286169052124, 1.970874547958374, -0.7638421654701233, -0.310546875, 0.29296875, -0.390869140625, 
37, 3185715457, 0.8059698343276978, -0.5489540696144104, 0.2082892656326294, -0.07545565068721771, -2.556776523590088, -8.958935737609863, 2.802626848220825, 0.10563310235738754, 1.2115788459777832, -0.7309662103652954, -0.3134765625, 0.291748046875, -0.39111328125, 
38, 3185723790, 0.8059342503547668, -0.5489715933799744, 0.2083556354045868, -0.07552638649940491, -2.5025076866149902, -9.01014232635498, 2.8206663131713867, -0.8174654841423035, 0.6589261293411255, -0.502640962600708, -0.310546875, 0.2919921875, -0.391845703125, 
39, 3185732123, 0.8058884143829346, -0.5490203499794006, 0.208389014005661, -0.07556889951229095, -2.473510265350342, -9.0147705078125, 2.809894323348999, -1.2566726207733154, 0.04902564361691475, -0.4774877429008484, -0.3095703125, 0.29150390625, -0.391357421875, 
40, 3185740456, 0.8058599233627319, -0.5490583181381226, 0.2083868533372879, -0.07560259103775024, -2.4415013790130615, -9.047480583190918, 2.827082395553589, -1.0275150537490845, -0.42148229479789734, -0.659873902797699, -0.3115234375, 0.291259765625, -0.387939453125, 
41, 3185748789, 0.8058416843414307, -0.5490962862968445, 0.20835499465465546, -0.07560896873474121, -2.5381288528442383, -9.07951831817627, 2.8006174564361572, -0.9618914127349854, -1.0151433944702148, -0.5112089514732361, -0.310546875, 0.288818359375, -0.390380859375, 
42, 3185757122, 0.8058338165283203, -0.5491322875022888, 0.20828068256378174, -0.07563623785972595, -2.492696523666382, -9.020970344543457, 2.7739017009735107, -0.792350709438324, -1.3265100717544556, -1.1062531471252441, -0.3125, 0.290283203125, -0.39013671875, 
43, 3185765455, 0.8058496713638306, -0.5491446852684021, 0.2081746757030487, -0.07566836476325989, -2.474522829055786, -9.02033805847168, 2.809232234954834, -0.27169016003608704, -1.7147961854934692, -1.2469009160995483, -0.310546875, 0.29150390625, -0.390380859375, 
44, 3185773788, 0.8059068322181702, -0.5491117238998413, 0.2080288976430893, -0.07570020854473114, -2.5060131549835205, -8.996639251708984, 2.8682432174682617, 0.5515128374099731, -2.1988027095794678, -1.4323480129241943, -0.31103515625, 0.291015625, -0.390380859375, 
45, 3185782121, 0.805984377861023, -0.5490480065345764, 0.20787741243839264, -0.07575228810310364, -2.460845470428467, -8.981138229370117, 2.8987274169921875, 1.1428686380386353, -2.163839101791382, -1.5296565294265747, -0.3115234375, 0.291259765625, -0.389404296875, 
46, 3185790454, 0.8060773611068726, -0.5489681363105774, 0.2077116221189499, -0.0757969468832016, -2.46543550491333, -9.026337623596191, 2.925271987915039, 1.3982170820236206, -2.377436399459839, -1.5540668964385986, -0.31396484375, 0.289306640625, -0.39111328125, 
47, 3185798787, 0.806171178817749, -0.5488936901092529, 0.20752814412117004, -0.07584191858768463, -2.414820909500122, -8.945799827575684, 2.945060968399048, 1.3974231481552124, -2.607170820236206, -1.6470210552215576, -0.31298828125, 0.289794921875, -0.39013671875, 
48, 3185807120, 0.8062475919723511, -0.5488441586494446, 0.20735347270965576, -0.07586684823036194, -2.3795993328094482, -8.974430084228516, 2.9476277828216553, 0.8893133997917175, -2.610013723373413, -1.5054510831832886, -0.3125, 0.290771484375, -0.389404296875, 
49, 3185815453, 0.806293785572052, -0.5488306283950806, 0.20720133185386658, -0.07588721811771393, -2.3982622623443604, -8.983848571777344, 2.9622645378112793, 0.2618158757686615, -2.373671054840088, -1.3591680526733398, -0.3115234375, 0.2900390625, -0.39208984375, 
50, 3185823786, 0.8063101768493652, -0.5488603711128235, 0.20706431567668915, -0.07587230205535889, -2.4140422344207764, -8.95932674407959, 3.041064739227295, -0.595582127571106, -2.4044079780578613, -1.0682159662246704, -0.31396484375, 0.291259765625, -0.390625, 
51, 3185832119, 0.806287407875061, -0.5489456653594971, 0.20693634450435638, -0.0758466124534607, -2.3663899898529053, -9.063626289367676, 3.085768222808838, -1.5119826793670654, -2.3587636947631836, -1.0197794437408447, -0.31396484375, 0.292236328125, -0.392578125, 
52, 3185840452, 0.8062640428543091, -0.549030601978302, 0.20681177079677582, -0.07582078874111176, -2.3779282569885254, -9.174007415771484, 3.1261022090911865, -1.5506346225738525, -2.292192220687866, -1.051156997680664, -0.314453125, 0.290771484375, -0.39208984375, 
53, 3185848785, 0.8062697052955627, -0.5490713715553284, 0.20668810606002808, -0.07580062747001648, -2.3618392944335938, -9.146841049194336, 3.1522202491760254, -0.7917360067367554, -2.305896043777466, -0.8919132351875305, -0.31396484375, 0.293212890625, -0.390869140625, 
54, 3185857118, 0.8063101768493652, -0.5490515828132629, 0.20658144354820251, -0.07580456137657166, -2.3332269191741943, -9.073335647583008, 3.1277925968170166, 0.1576940417289734, -1.9429422616958618, -0.8829483985900879, -0.3134765625, 0.290283203125, -0.3896484375, 
55, 3185865451, 0.8063664436340332, -0.549005389213562, 0.20647788047790527, -0.075823113322258, -2.3471286296844482, -8.995627403259277, 3.0978734493255615, 0.6430838108062744, -1.8438149690628052, -0.8700898885726929, -0.31396484375, 0.289794921875, -0.3916015625, 
56, 3185873784, 0.8064267635345459, -0.5489484667778015, 0.20638667047023773, -0.07584220170974731, -2.3554320335388184, -8.945974349975586, 3.1226720809936523, 0.7473849058151245, -1.6734548807144165, -0.8072325587272644, -0.31396484375, 0.292724609375, -0.390625, 
57, 3185882117, 0.8064698576927185, -0.5489112138748169, 0.20630814135074615, -0.07586635649204254, -2.3697657585144043, -8.935003280639648, 3.160681962966919, 0.43338003754615784, -1.4965884685516357, -0.7823867797851562, -0.3125, 0.29345703125, -0.393310546875, 
58, 3185890450, 0.8065034747123718, -0.5488825440406799, 0.20623879134655, -0.0759056806564331, -2.359379529953003, -8.920589447021484, 3.126622200012207, 0.2649408280849457, -1.2314298152923584, -0.9758509993553162, -0.31396484375, 0.289794921875, -0.390625, 
59, 3185898783, 0.8065136075019836, -0.5488784313201904, 0.20618712902069092, -0.0759686529636383, -2.324552297592163, -8.937971115112305, 3.1427230834960938, -0.10197027027606964, -0.8441940546035767, -1.1374515295028687, -0.31494140625, 0.289794921875, -0.39111328125, 
60, 3185907116, 0.806520938873291, -0.5488709211349487, 0.20614874362945557, -0.0760481059551239, -2.3191518783569336, -8.969278335571289, 3.145319700241089, -0.08414275199174881, -0.5342360138893127, -1.2736420631408691, -0.314453125, 0.291259765625, -0.39306640625, 
61, 3185915449, 0.806536853313446, -0.548845112323761, 0.20612072944641113, -0.07614138722419739, -2.2903690338134766, -9.033611297607422, 3.121464967727661, 0.24315594136714935, -0.3476235866546631, -1.2267041206359863, -0.31494140625, 0.290283203125, -0.39208984375, 
62, 3185923782, 0.8065745234489441, -0.5487783551216125, 0.20610938966274261, -0.07625457644462585, -2.319051742553711, -9.065442085266113, 3.165147304534912, 0.8681944608688354, -0.002907215617597103, -1.245300054550171, -0.31640625, 0.289306640625, -0.39111328125, 
63, 3185932115, 0.8066061735153198, -0.5487064123153687, 0.20612865686416626, -0.07638439536094666, -2.3295235633850098, -9.059154510498047, 3.1729795932769775, 0.9273889064788818, 0.45483195781707764, -1.1281148195266724, -0.3154296875, 0.290283203125, -0.39306640625, 
64, 3185940448, 0.8066251873970032, -0.5486391186714172, 0.2061803936958313, -0.07652854919433594, -2.292586326599121, -9.025435447692871, 3.17333722114563, 0.7549155354499817, 0.9839580059051514, -1.1293572187423706, -0.3125, 0.2900390625, -0.3935546875, 
65, 3185948781, 0.8066028356552124, -0.5486173629760742, 0.20626910030841827, -0.07668140530586243, -2.318131446838379, -8.974509239196777, 3.1231091022491455, -0.046592291444540024, 1.5007764101028442, -1.0585339069366455, -0.314453125, 0.287353515625, -0.39208984375, 
66, 3185957114, 0.8065851926803589, -0.5485871434211731, 0.20636895298957825, -0.0768144428730011, -2.414228677749634, -9.01321029663086, 3.072312355041504, -0.0134474728256464, 1.4986248016357422, -0.7872791290283203, -0.31640625, 0.289794921875, -0.3935546875, 
67, 3185965447, 0.8065573573112488, -0.5485719442367554, 0.20646314322948456, -0.0769619345664978, -2.4262897968292236, -9.0304594039917, 3.0250885486602783, -0.18201474845409393, 1.530975580215454, -0.9819473028182983, -0.3125, 0.287353515625, -0.3935546875, 
68, 3185973780, 0.8065314292907715, -0.5485564470291138, 0.20655836164951324, -0.07708856463432312, -2.3944427967071533, -9.056257247924805, 3.0009396076202393, -0.25437498092651367, 1.4067208766937256, -0.8014694452285767, -0.3125, 0.289794921875, -0.39013671875, 
69, 3185982113, 0.8064902424812317, -0.5485650300979614, 0.2066582292318344, -0.07719078660011292, -2.450120449066162, -8.98046588897705, 2.9473719596862793, -0.6782392859458923, 1.2660218477249146, -0.5192261338233948, -0.31591796875, 0.288330078125, -0.3916015625, 
70, 3185990446, 0.8064440488815308, -0.5485904216766357, 0.20674282312393188, -0.07726682722568512, -2.473381757736206, -9.008662223815918, 2.933180809020996, -0.9929614067077637, 0.9219203591346741, -0.45852041244506836, -0.314453125, 0.285888671875, -0.39404296875, 
71, 3185998779, 0.8064131736755371, -0.5486025214195251, 0.20680610835552216, -0.07733210921287537, -2.451143264770508, -9.07919692993164, 2.9416067600250244, -0.7060307860374451, 0.5462875366210938, -0.384879469871521, -0.3154296875, 0.287109375, -0.3896484375, 
72, 3186007112, 0.8064174652099609, -0.5485755205154419, 0.20684386789798737, -0.077378049492836, -2.4772298336029053, -9.070892333984375, 2.9400830268859863, -0.06858210265636444, 0.0882154181599617, -0.2745717763900757, -0.31494140625, 0.286376953125, -0.390625, 
73, 3186015445, 0.8064400553703308, -0.5485299229621887, 0.20685788989067078, -0.07742910087108612, -2.4993319511413574, -9.04908275604248, 2.9191970825195312, 0.35049235820770264, -0.19973979890346527, -0.3788089156150818, -0.314453125, 0.286376953125, -0.392578125, 
74, 3186023778, 0.8064823746681213, -0.5484674572944641, 0.20684747397899628, -0.07745863497257233, -2.5191097259521484, -9.048439025878906, 2.8740909099578857, 0.6170085072517395, -0.6415085196495056, -0.31523436307907104, -0.31494140625, 0.288330078125, -0.3935546875, 
75, 3186032111, 0.8065201044082642, -0.5484180450439453, 0.20681993663311005, -0.07748858630657196, -2.527393341064453, -8.969042778015137, 2.8785479068756104, 0.49003875255584717, -0.8578720092773438, -0.4301142692565918, -0.3154296875, 0.288818359375, -0.39111328125, 
76, 3186040444, 0.8065428733825684, -0.5484014749526978, 0.20677253603935242, -0.07749614119529724, -2.5214486122131348, -8.944480895996094, 2.874591588973999, -0.06212732195854187, -1.2097729444503784, -0.5019493103027344, -0.31591796875, 0.28515625, -0.39111328125, 
77, 3186048777, 0.8065403699874878, -0.5484251379966736, 0.20672184228897095, -0.07748937606811523, -2.5151827335357666, -8.920581817626953, 2.8032705783843994, -0.7029827237129211, -1.3541990518569946, -0.4504519999027252, -0.314453125, 0.285888671875, -0.39013671875, 
78, 3186057110, 0.8065321445465088, -0.5484684109687805, 0.20664943754673004, -0.07746157050132751, -2.479264497756958, -8.995866775512695, 2.805535316467285, -1.0323817729949951, -1.7296781539916992, -0.5022439360618591, -0.31640625, 0.286865234375, -0.39306640625, 
79, 3186065443, 0.8065276741981506, -0.5485183000564575, 0.20655113458633423, -0.07741686701774597, -2.452082872390747, -9.07646369934082, 2.8658225536346436, -1.0657827854156494, -2.192399501800537, -0.4642580449581146, -0.314453125, 0.287841796875, -0.39208984375, 
80, 3186073776, 0.8065089583396912, -0.5485886931419373, 0.20645447075366974, -0.07737128436565399, -2.3899075984954834, -9.067535400390625, 2.894308567047119, -1.437368392944336, -2.13120698928833, -0.5754237771034241, -0.31396484375, 0.286865234375, -0.392578125, 
81, 3186082109, 0.806480348110199, -0.548682689666748, 0.20634107291698456, -0.0773056149482727, -2.3690457344055176, -9.04369831085205, 2.9351558685302734, -1.7790879011154175, -2.495800018310547, -0.4983249604701996, -0.31640625, 0.288330078125, -0.39208984375, 
82, 3186090442, 0.806454062461853, -0.5487792491912842, 0.2062242478132248, -0.0772058367729187, -2.352811813354492, -9.044974327087402, 2.9889674186706543, -1.9164828062057495, -2.7706918716430664, -0.20775707066059113, -0.3154296875, 0.287353515625, -0.3935546875, 
83, 3186098775, 0.8064563870429993, -0.5488431453704834, 0.2060820311307907, -0.07710784673690796, -2.3240270614624023, -9.150960922241211, 3.008512496948242, -1.2725409269332886, -3.116971015930176, -0.2402871549129486, -0.3173828125, 0.288818359375, -0.3916015625, 
84, 3186107108, 0.8064896464347839, -0.5488646626472473, 0.20593710243701935, -0.07699364423751831, -2.3024239540100098, -9.182097434997559, 3.0696098804473877, -0.6481682062149048, -3.2791855335235596, 0.01681574434041977, -0.3173828125, 0.289306640625, -0.392578125, 
85, 3186115441, 0.806547224521637, -0.5488569736480713, 0.2057706117630005, -0.0768890231847763, -2.299041509628296, -9.12520694732666, 3.0443310737609863, -0.0538923554122448, -3.515195369720459, -0.08765190839767456, -0.31689453125, 0.288330078125, -0.39404296875, 
86, 3186123774, 0.8066207766532898, -0.5488251447677612, 0.2056073397397995, -0.07678130269050598, -2.2882697582244873, -9.082037925720215, 2.9541375637054443, 0.28763502836227417, -3.4925007820129395, -0.00128071173094213, -0.31689453125, 0.289306640625, -0.392578125, 
87, 3186132107, 0.8066768646240234, -0.5488141775131226, 0.2054556906223297, -0.07667748630046844, -2.3231987953186035, -9.003352165222168, 2.960116147994995, -0.04377472773194313, -3.337918996810913, 0.02552458643913269, -0.31396484375, 0.290771484375, -0.392578125, 
88, 3186140440, 0.806697428226471, -0.5488522052764893, 0.20531915128231049, -0.07655349373817444, -2.3455593585968018, -8.955424308776855, 3.0060677528381348, -0.9610205292701721, -3.2435309886932373, 0.12718749046325684, -0.31591796875, 0.288818359375, -0.3935546875, 
89, 3186148773, 0.8066728115081787, -0.5489506125450134, 0.20519153773784637, -0.07645030319690704, -2.3393919467926025, -8.990011215209961, 3.027672052383423, -1.8879740238189697, -2.9515535831451416, -0.19356675446033478, -0.31494140625, 0.291015625, -0.3955078125, 
90, 3186157106, 0.8066253662109375, -0.5490771532058716, 0.20507456362247467, -0.07635791599750519, -2.3910505771636963, -8.999354362487793, 2.931915521621704, -2.3891680240631104, -2.689418077468872, -0.39740487933158875, -0.31787109375, 0.290771484375, -0.392578125, 
91, 3186165439, 0.8065717816352844, -0.5492189526557922, 0.20493949949741364, -0.07626524567604065, -2.3917384147644043, -9.020540237426758, 2.8745052814483643, -2.5501019954681396, -2.917999267578125, -0.519892156124115, -0.31787109375, 0.289794921875, -0.392578125, 
92, 3186173772, 0.8065341114997864, -0.5493454337120056, 0.20478613674640656, -0.07616576552391052, -2.388972282409668, -9.09598445892334, 2.8098669052124023, -2.296238899230957, -3.1729376316070557, -0.5817248821258545, -0.31787109375, 0.291259765625, -0.390625, 
93, 3186182105, 0.8065065145492554, -0.5494743585586548, 0.20458941161632538, -0.07605551183223724, -2.4070870876312256, -9.133532524108887, 2.9114327430725098, -2.195575475692749, -3.796952247619629, -0.7275979518890381, -0.317626953125, 0.293212890625, -0.39501953125, 
94, 3186190438, 0.8064869046211243, -0.5495984554290771, 0.20438218116760254, -0.07592418789863586, -2.4044153690338135, -9.043210983276367, 3.056792974472046, -2.1662216186523438, -4.060317516326904, -0.6114630103111267, -0.31396484375, 0.2919921875, -0.3935546875, 
95, 3186198771, 0.8064684867858887, -0.5497235059738159, 0.2041722536087036, -0.07577937841415405, -2.3553342819213867, -9.019929885864258, 3.170121192932129, -2.1677584648132324, -4.226861476898193, -0.4237362742424011, -0.317626953125, 0.2958984375, -0.39404296875, 
96, 3186207104, 0.8064620494842529, -0.5498298406600952, 0.20396336913108826, -0.07563804090023041, -2.3541181087493896, -9.068748474121094, 3.1619393825531006, -1.8949668407440186, -4.1725850105285645, -0.4484284520149231, -0.318603515625, 0.292724609375, -0.3955078125, 
97, 3186215437, 0.8064759969711304, -0.5499026775360107, 0.20376183092594147, -0.07550419867038727, -2.4044625759124756, -9.051793098449707, 3.113842487335205, -1.3207980394363403, -4.088800430297852, -0.30071115493774414, -0.315673828125, 0.29443359375, -0.39306640625, 
98, 3186223770, 0.806516706943512, -0.5499404072761536, 0.20355045795440674, -0.0753629058599472, -2.394475221633911, -8.99071979522705, 3.0529730319976807, -0.7759576439857483, -4.260287761688232, -0.22555896639823914, -0.316162109375, 0.293212890625, -0.3935546875, 
99, 3186232103, 0.8065793514251709, -0.5499477982521057, 0.20332983136177063, -0.0752350389957428, -2.3763444423675537, -9.039836883544922, 2.9616143703460693, -0.19144080579280853, -4.320583343505859, -0.2798099219799042, -0.317138671875, 0.29541015625, -0.3955078125, 
100, 3186240436, 0.8066487908363342, -0.5499448180198669, 0.20311009883880615, -0.07510583102703094, -2.407590389251709, -8.972676277160645, 2.979671001434326, -0.06398436427116394, -4.299221515655518, -0.28093695640563965, -0.317626953125, 0.294189453125, -0.392578125, 
101, 3186248769, 0.806724488735199, -0.5499382019042969, 0.2028743177652359, -0.0749773234128952, -2.4134106636047363, -8.883038520812988, 3.0781924724578857, 0.07595901191234589, -4.518095016479492, -0.33242157101631165, -0.315673828125, 0.29443359375, -0.39404296875, 
102, 3186257102, 0.8067789077758789, -0.5499622821807861, 0.20263564586639404, -0.07486143708229065, -2.4075000286102295, -8.885457992553711, 3.1057040691375732, -0.4223531484603882, -4.396274089813232, -0.6626915335655212, -0.317626953125, 0.293701171875, -0.3935546875, 
103, 3186265435, 0.8068357110023499, -0.5499824285507202, 0.20239394903182983, -0.07475580275058746, -2.3519065380096436, -8.95729923248291, 3.091364860534668, -0.2932317554950714, -4.384004592895508, -0.7261379957199097, -0.314697265625, 0.29736328125, -0.392333984375, 
104, 3186273768, 0.8069428205490112, -0.5499320030212402, 0.20214469730854034, -0.07464492321014404, -2.3580374717712402, -8.998796463012695, 3.1700592041015625, 0.8284796476364136, -4.545246124267578, -0.5365926623344421, -0.316162109375, 0.2978515625, -0.393310546875, 
105, 3186282101, 0.8070868253707886, -0.5498275756835938, 0.20188933610916138, -0.07454755902290344, -2.3346660137176514, -8.990494728088379, 3.2632534503936768, 1.7838650941848755, -4.586971759796143, -0.48521050810813904, -0.315673828125, 0.29833984375, -0.392333984375, 
106, 3186290434, 0.8072233200073242, -0.5497065186500549, 0.20169870555400848, -0.07447856664657593, -2.2061944007873535, -8.989694595336914, 3.3315138816833496, 1.8915470838546753, -3.5868892669677734, -0.3319092392921448, -0.317138671875, 0.29833984375, -0.3935546875, 
107, 3186298767, 0.8072950839996338, -0.549640953540802, 0.20160265266895294, -0.07444369792938232, -2.1787943840026855, -8.951014518737793, 3.4029688835144043, 0.8170685172080994, -2.185316801071167, -0.1570793092250824, -0.318115234375, 0.296142578125, -0.39404296875, 
108, 3186307100, 0.8073137998580933, -0.5496214032173157, 0.20159246027469635, -0.07441285252571106, -2.234619617462158, -9.029877662658691, 3.4152679443359375, -0.2066812664270401, -1.0725703239440918, 0.20753931999206543, -0.319091796875, 0.296630859375, -0.39404296875, 
109, 3186315433, 0.807277262210846, -0.5496527552604675, 0.201654851436615, -0.07440842688083649, -2.2667860984802246, -9.064396858215332, 3.3388969898223877, -1.1567131280899048, 0.005929695442318916, 0.3240841329097748, -0.31689453125, 0.2998046875, -0.39501953125, 
110, 3186323766, 0.80720454454422, -0.5497104525566101, 0.2017829269170761, -0.07442401349544525, -2.228685140609741, -9.045242309570312, 3.2900476455688477, -1.7670235633850098, 0.9874927401542664, 0.4282315671443939, -0.317138671875, 0.298828125, -0.39453125, 
111, 3186332099, 0.807098388671875, -0.5497868061065674, 0.20198234915733337, -0.07447098195552826, -2.2144577503204346, -9.021148681640625, 3.319093942642212, -2.1807706356048584, 2.063521385192871, 0.5925213098526001, -0.3173828125, 0.29931640625, -0.39453125, 
112, 3186340432, 0.8069722652435303, -0.5498706102371216, 0.20223195850849152, -0.07454173266887665, -2.2201223373413086, -8.975348472595215, 3.287459135055542, -2.432225227355957, 2.874877691268921, 0.6089912056922913, -0.315185546875, 0.29833984375, -0.392822265625, 
113, 3186348765, 0.8068423867225647, -0.549949586391449, 0.20249806344509125, -0.07464145123958588, -2.2414355278015137, -8.965080261230469, 3.2446818351745605, -2.3120172023773193, 3.266108989715576, 0.4815859794616699, -0.316650390625, 0.29736328125, -0.392578125, 
114, 3186357098, 0.8067260980606079, -0.5500012636184692, 0.20277506113052368, -0.07476580142974854, -2.2188944816589355, -8.929222106933594, 3.1815385818481445, -1.88082754611969, 3.5904107093811035, 0.31944793462753296, -0.317138671875, 0.2978515625, -0.396484375, 
115, 3186365431, 0.8065987229347229, -0.5500555634498596, 0.20307430624961853, -0.07492652535438538, -2.228874444961548, -8.922916412353516, 3.1526246070861816, -1.8853358030319214, 4.112429618835449, 0.12680327892303467, -0.316650390625, 0.295654296875, -0.39208984375, 
116, 3186373764, 0.8064640760421753, -0.5501238703727722, 0.20336028933525085, -0.07510049641132355, -2.2740237712860107, -8.93616771697998, 3.0848588943481445, -2.0739591121673584, 4.099161624908447, -0.22901688516139984, -0.316650390625, 0.29638671875, -0.39453125, 
117, 3186382097, 0.8063215613365173, -0.5501998662948608, 0.2036413848400116, -0.07531081140041351, -2.3159193992614746, -8.96977424621582, 3.0494203567504883, -2.083564281463623, 4.304843425750732, -0.6360015273094177, -0.317626953125, 0.295654296875, -0.392578125, 
118, 3186390430, 0.80616694688797, -0.5503020286560059, 0.2039007991552353, -0.07551848888397217, -2.3380343914031982, -8.969346046447754, 2.9734153747558594, -2.478971242904663, 4.080796241760254, -0.9178093671798706, -0.314697265625, 0.29541015625, -0.39404296875, 
119, 3186398763, 0.806006133556366, -0.5504181385040283, 0.20415085554122925, -0.07571142911911011, -2.381779432296753, -8.939992904663086, 2.9057505130767822, -2.683040142059326, 3.840867757797241, -0.8113052845001221, -0.316650390625, 0.2958984375, -0.39404296875, 
120, 3186407096, 0.805850088596344, -0.5505411028862, 0.20437288284301758, -0.07588130235671997, -2.456336498260498, -9.040992736816406, 2.854029655456543, -2.7874693870544434, 3.362316846847534, -0.8412995934486389, -0.316650390625, 0.29638671875, -0.39453125, 
121, 3186415429, 0.8057131767272949, -0.5506540536880493, 0.2045506089925766, -0.07603690028190613, -2.4875645637512207, -9.151853561401367, 2.7831919193267822, -2.4973878860473633, 2.690659761428833, -0.9100737571716309, -0.316162109375, 0.29345703125, -0.3955078125, 
122, 3186423762, 0.8056207299232483, -0.5507238507270813, 0.20468416810035706, -0.07615083456039429, -2.515209913253784, -9.145418167114258, 2.7529420852661133, -1.7805219888687134, 1.835913062095642, -0.6755497455596924, -0.315673828125, 0.294189453125, -0.39306640625, 
123, 3186432095, 0.8055797815322876, -0.5507411956787109, 0.20476853847503662, -0.07623228430747986, -2.503373384475708, -9.117929458618164, 2.7165210247039795, -0.8216277360916138, 0.9239181280136108, -0.42637452483177185, -0.317626953125, 0.294189453125, -0.3916015625, 
124, 3186440428, 0.8055826425552368, -0.5507142543792725, 0.20481285452842712, -0.07627719640731812, -2.4862351417541504, -9.13553237915039, 2.7379724979400635, -0.0882154256105423, 0.15741227567195892, -0.21418622136116028, -0.31494140625, 0.288818359375, -0.392578125, 
125, 3186448761, 0.8056063055992126, -0.5506725311279297, 0.20482611656188965, -0.07629132270812988, -2.4890527725219727, -9.1408109664917, 2.7635791301727295, 0.2078210860490799, -0.4933301508426666, 0.015330119989812374, -0.316162109375, 0.293212890625, -0.3916015625, 
126, 3186457094, 0.805633008480072, -0.5506390929222107, 0.20481950044631958, -0.07626871764659882, -2.46315336227417, -9.103251457214355, 2.812161922454834, 0.026677224785089493, -0.9792065620422363, 0.190352201461792, -0.314453125, 0.291748046875, -0.3916015625, 
127, 3186465427, 0.8056361675262451, -0.550646185874939, 0.2048080414533615, -0.07621510326862335, -2.4654133319854736, -9.054411888122559, 2.8355729579925537, -0.6501404643058777, -1.2724382877349854, 0.41829320788383484, -0.3154296875, 0.292236328125, -0.39208984375, 
128, 3186473760, 0.8056280612945557, -0.5506796836853027, 0.2047840654850006, -0.07612235844135284, -2.485217571258545, -8.991539001464844, 2.8272740840911865, -1.1568924188613892, -1.674043893814087, 0.611885666847229, -0.31689453125, 0.291748046875, -0.39111328125, 
129, 3186482093, 0.805616557598114, -0.5507243871688843, 0.20474828779697418, -0.0760183185338974, -2.4706878662109375, -9.053226470947266, 2.8745951652526855, -1.2948508262634277, -1.9240132570266724, 0.6715668439865112, -0.314453125, 0.292236328125, -0.39111328125, 
130, 3186490426, 0.8056156039237976, -0.5507587194442749, 0.20470499992370605, -0.07589592039585114, -2.453355550765991, -9.09107494354248, 2.896433115005493, -1.175744652748108, -2.1354587078094482, 0.7972045540809631, -0.317138671875, 0.293701171875, -0.39501953125, 
131, 3186498759, 0.8056301474571228, -0.5507768988609314, 0.2046416997909546, -0.07577994465827942, -2.4254748821258545, -9.054618835449219, 2.950458288192749, -0.8078985810279846, -2.3628876209259033, 0.6978470087051392, -0.314697265625, 0.294921875, -0.39306640625, 
132, 3186507092, 0.8056640028953552, -0.5507736802101135, 0.20456084609031677, -0.07566289603710175, -2.396087646484375, -9.023176193237305, 2.9728026390075684, -0.44228097796440125, -2.567084312438965, 0.596440315246582, -0.3173828125, 0.29052734375, -0.38818359375, 
133, 3186515425, 0.8057074546813965, -0.5507640838623047, 0.20445574820041656, -0.07555349171161652, -2.3626646995544434, -9.00721549987793, 2.9840359687805176, -0.2190273255109787, -2.8326525688171387, 0.415578156709671, -0.316162109375, 0.294189453125, -0.392578125, 
134, 3186523758, 0.8057646751403809, -0.550739049911499, 0.2043352872133255, -0.07545274496078491, -2.3559000492095947, -9.001181602478027, 2.9970576763153076, 0.06304944306612015, -2.926708221435547, 0.20251895487308502, -0.316650390625, 0.293212890625, -0.39306640625, 
135, 3186532091, 0.805841863155365, -0.5506826043128967, 0.2042142152786255, -0.07536660134792328, -2.3165252208709717, -9.044137954711914, 3.0239665508270264, 0.6376022696495056, -2.8768112659454346, 0.20254454016685486, -0.315185546875, 0.294189453125, -0.392578125, 
136, 3186540424, 0.8059315085411072, -0.5506059527397156, 0.20409192144870758, -0.0753009170293808, -2.2949111461639404, -9.039130210876465, 3.089674949645996, 0.9813966751098633, -2.7189509868621826, -0.021720873191952705, -0.316650390625, 0.295166015625, -0.392578125, 
137, 3186548757, 0.806004524230957, -0.5505440831184387, 0.20398874580860138, -0.07525050640106201, -2.3430659770965576, -8.930977821350098, 3.1631805896759033, 0.746309220790863, -2.3911914825439453, -0.04595194384455681, -0.317138671875, 0.293212890625, -0.392578125, 
138, 3186557090, 0.806035041809082, -0.5505368113517761, 0.20391257107257843, -0.07518291473388672, -2.3771228790283203, -8.92123794555664, 3.1690587997436523, -0.2883906662464142, -2.1290295124053955, 0.09217282384634018, -0.315673828125, 0.296142578125, -0.391357421875, 
139, 3186565423, 0.8060189485549927, -0.5505889058113098, 0.20386123657226562, -0.0751129537820816, -2.312946081161499, -8.998627662658691, 3.1354966163635254, -1.2996917963027954, -1.831315279006958, 0.1506757289171219, -0.316162109375, 0.294677734375, -0.39208984375, 
140, 3186573756, 0.8059751987457275, -0.5506690740585327, 0.20384220778942108, -0.07504525780677795, -2.305966377258301, -9.057826042175293, 3.099935531616211, -1.878675937652588, -1.3778921365737915, 0.2046961635351181, -0.317626953125, 0.296142578125, -0.39111328125, 
141, 3186582089, 0.8059183955192566, -0.5507594347000122, 0.2038467824459076, -0.07498115301132202, -2.3504912853240967, -9.059910774230957, 3.0496838092803955, -2.0738308429718018, -1.0921396017074585, 0.36002087593078613, -0.317138671875, 0.296630859375, -0.39111328125, 
142, 3186590422, 0.805864691734314, -0.5508397221565247, 0.2038642019033432, -0.07492093741893768, -2.356696128845215, -9.100733757019043, 3.0316317081451416, -1.9718605279922485, -0.88947993516922, 0.3869670331478119, -0.318603515625, 0.295654296875, -0.39208984375, 
143, 3186598755, 0.8058182597160339, -0.5509034395217896, 0.20388785004615784, -0.07488805055618286, -2.3377177715301514, -9.111786842346191, 3.0441179275512695, -1.631754994392395, -0.6479633450508118, 0.24429577589035034, -0.316162109375, 0.29541015625, -0.39306640625, 
144, 3186607088, 0.8057886958122253, -0.5509424209594727, 0.20391128957271576, -0.07485520839691162, -2.300318479537964, -9.053918838500977, 3.021632671356201, -1.2622694969177246, -0.6399203538894653, 0.2709089517593384, -0.316162109375, 0.295166015625, -0.392578125, 
145, 3186615421, 0.8057727217674255, -0.5509625673294067, 0.20392684638500214, -0.07483610510826111, -2.2940168380737305, -8.989399909973145, 2.989459276199341, -0.8708584904670715, -0.6750119924545288, 0.18420477211475372, -0.315673828125, 0.29638671875, -0.39453125, 
146, 3186623754, 0.8057779669761658, -0.550952672958374, 0.20393505692481995, -0.07483017444610596, -2.3019421100616455, -9.071328163146973, 3.0057029724121094, -0.36538705229759216, -0.6524969935417175, 0.029597247019410133, -0.320068359375, 0.295654296875, -0.3916015625, 
147, 3186632087, 0.805787980556488, -0.5509376525878906, 0.20393240451812744, -0.07484029233455658, -2.307335376739502, -9.016243934631348, 3.007155418395996, -0.1838589757680893, -0.6897913217544556, -0.15217415988445282, -0.316162109375, 0.296630859375, -0.391357421875, 
148, 3186640420, 0.8058022260665894, -0.5509154796600342, 0.20393049716949463, -0.07485459744930267, -2.327749729156494, -8.935181617736816, 3.0490639209747314, -0.09360720962285995, -0.625076949596405, -0.22821001708507538, -0.315185546875, 0.2958984375, -0.392822265625, 
149, 3186648753, 0.8058044910430908, -0.5509095191955566, 0.20393411815166473, -0.07486449182033539, -2.292893648147583, -8.851572036743164, 3.0463101863861084, -0.3494037687778473, -0.6110787391662598, -0.1351919174194336, -0.317138671875, 0.294677734375, -0.39306640625, 
150, 3186657086, 0.8057894110679626, -0.5509240031242371, 0.2039509266614914, -0.07487326860427856, -2.3369767665863037, -8.97351360321045, 3.0583767890930176, -0.757643461227417, -0.41338813304901123, -0.15663105249404907, -0.315673828125, 0.2958984375, -0.39306640625, 
151, 3186665419, 0.8057589530944824, -0.5509591698646545, 0.203971266746521, -0.07488894462585449, -2.4072604179382324, -9.077874183654785, 3.0491857528686523, -1.0564333200454712, -0.3319604694843292, -0.22192172706127167, -0.314697265625, 0.295166015625, -0.390380859375, 
152, 3186673752, 0.8057243824005127, -0.5509947538375854, 0.20399866998195648, -0.07492434978485107, -2.4060590267181396, -9.046164512634277, 3.0518105030059814, -1.0741841793060303, -0.062268201261758804, -0.4518863260746002, -0.319580078125, 0.294677734375, -0.392578125, 
153, 3186682085, 0.8056896328926086, -0.5510240793228149, 0.20404072105884552, -0.07496732473373413, -2.4463510513305664, -8.941282272338867, 3.017984628677368, -0.967552125453949, 0.13377034664154053, -0.34789255261421204, -0.316162109375, 0.296875, -0.3935546875, 
154, 3186690418, 0.8056609630584717, -0.5510473847389221, 0.2040729969739914, -0.07501599192619324, -2.454970121383667, -8.95927906036377, 2.9711623191833496, -0.8616884350776672, 0.08858682215213776, -0.5212496519088745, -0.316650390625, 0.293212890625, -0.39306640625, 
155, 3186698751, 0.8056379556655884, -0.551066517829895, 0.20409005880355835, -0.07507511973381042, -2.4523308277130127, -9.08952522277832, 2.9041900634765625, -0.6969119906425476, -0.04216102883219719, -0.6759083867073059, -0.318603515625, 0.295166015625, -0.39111328125, 
156, 3186707084, 0.8056380748748779, -0.551063597202301, 0.2040824592113495, -0.0751175731420517, -2.4508070945739746, -9.100855827331543, 2.870457410812378, -0.3291045129299164, -0.4537433981895447, -0.6516645550727844, -0.318603515625, 0.296142578125, -0.39306640625, 
157, 3186715417, 0.8056656122207642, -0.5510308742523193, 0.20404364168643951, -0.07516686618328094, -2.439934492111206, -9.118409156799316, 2.922400951385498, 0.29181018471717834, -0.8248808979988098, -0.7928886413574219, -0.317138671875, 0.294189453125, -0.392578125, 
158, 3186723750, 0.8057141900062561, -0.5509739518165588, 0.20398962497711182, -0.0752096176147461, -2.3748157024383545, -9.06213665008545, 2.9692811965942383, 0.685705840587616, -1.0463415384292603, -0.8048505187034607, -0.317138671875, 0.295166015625, -0.39208984375, 
159, 3186732083, 0.805772602558136, -0.5509034991264343, 0.20393605530261993, -0.07524648308753967, -2.335439443588257, -9.05084228515625, 2.9826645851135254, 0.9244048595428467, -1.1293315887451172, -0.6301870346069336, -0.3173828125, 0.291259765625, -0.39306640625, 
160, 3186740416, 0.8058397173881531, -0.5508222579956055, 0.20388415455818176, -0.07526320219039917, -2.345810651779175, -9.048367500305176, 2.989015817642212, 1.019869089126587, -1.2473106384277344, -0.4116975665092468, -0.316650390625, 0.292724609375, -0.3916015625, 
161, 3186748749, 0.8058961033821106, -0.5507562160491943, 0.20384153723716736, -0.07525831460952759, -2.3477704524993896, -9.027996063232422, 2.9912688732147217, 0.732246994972229, -1.3225910663604736, -0.09846112132072449, -0.319091796875, 0.293701171875, -0.392578125, 
162, 3186757082, 0.8059333562850952, -0.55071622133255, 0.2038116604089737, -0.07523277401924133, -2.3323705196380615, -9.00789737701416, 2.9980783462524414, 0.1948474794626236, -1.2823381423950195, 0.07551076263189316, -0.318603515625, 0.294677734375, -0.39111328125, 
163, 3186765415, 0.8059399724006653, -0.5507169961929321, 0.20379383862018585, -0.07520398497581482, -2.3469908237457275, -9.044755935668945, 2.9548752307891846, -0.47815370559692383, -1.1590057611465454, 0.11557141691446304, -0.317626953125, 0.293701171875, -0.39306640625, 
164, 3186773748, 0.8059282302856445, -0.5507428646087646, 0.20378054678440094, -0.07517705857753754, -2.328507900238037, -9.105697631835938, 2.915699005126953, -0.9269022345542908, -1.0379656553268433, -0.018237333744764328, -0.316650390625, 0.295654296875, -0.392578125, 
165, 3186782081, 0.805908739566803, -0.5507795810699463, 0.20376726984977722, -0.07515157759189606, -2.370645046234131, -9.096413612365723, 2.843047857284546, -1.0673964023590088, -1.0494663715362549, -0.014190285466611385, -0.317138671875, 0.292724609375, -0.3916015625, 
166, 3186790414, 0.8059043288230896, -0.5508009195327759, 0.20373407006263733, -0.07513241469860077, -2.354930877685547, -9.089397430419922, 2.8357086181640625, -0.7809779644012451, -1.216983437538147, -0.23475445806980133, -0.317626953125, 0.294677734375, -0.39111328125, 
167, 3186798747, 0.8059132099151611, -0.5508137345314026, 0.20367532968521118, -0.07510310411453247, -2.3680498600006104, -9.075289726257324, 2.875189781188965, -0.5510902404785156, -1.6346749067306519, -0.21989819407463074, -0.320068359375, 0.295166015625, -0.390625, 
168, 3186807080, 0.805952250957489, -0.550796389579773, 0.2035762071609497, -0.07508032023906708, -2.375101327896118, -9.059182167053223, 2.919018268585205, 0.03638501465320587, -2.0571556091308594, -0.5409982204437256, -0.316650390625, 0.294189453125, -0.39111328125, 
169, 3186815413, 0.8060194849967957, -0.5507494807243347, 0.2034444659948349, -0.07505959272384644, -2.3417201042175293, -9.015256881713867, 2.878894567489624, 0.649769127368927, -2.481660842895508, -0.6397411227226257, -0.320556640625, 0.295654296875, -0.39306640625, 
170, 3186823746, 0.8061164021492004, -0.5506666302680969, 0.20329497754573822, -0.07503266632556915, -2.334040641784668, -9.052505493164062, 2.889346122741699, 1.2418932914733887, -2.741107225418091, -0.6340804100036621, -0.317626953125, 0.294189453125, -0.3935546875, 
171, 3186832079, 0.806236743927002, -0.5505583882331848, 0.20311923325061798, -0.0750083178281784, -2.3700287342071533, -9.047883987426758, 2.9932379722595215, 1.770007848739624, -3.0841846466064453, -0.7050318717956543, -0.318115234375, 0.296630859375, -0.3935546875, 
172, 3186840412, 0.8063471913337708, -0.5504666566848755, 0.20294371247291565, -0.07497072219848633, -2.363529682159424, -9.009310722351074, 3.0151073932647705, 1.439507246017456, -3.1392040252685547, -0.6740899085998535, -0.319580078125, 0.297607421875, -0.392578125, 
173, 3186848745, 0.8064356446266174, -0.5504106879234314, 0.2027639001607895, -0.0749167650938034, -2.365190029144287, -8.917271614074707, 3.026730537414551, 0.8691038489341736, -3.3164031505584717, -0.587283194065094, -0.317138671875, 0.294189453125, -0.39208984375, 
174, 3186857078, 0.8064886331558228, -0.5504058003425598, 0.20259630680084229, -0.0748351663351059, -2.39768648147583, -8.976062774658203, 3.0035951137542725, -0.08900947123765945, -3.314328670501709, -0.4283469021320343, -0.316650390625, 0.29638671875, -0.3955078125, 
175, 3186865411, 0.806510329246521, -0.5504480600357056, 0.20243221521377563, -0.07473500072956085, -2.4288463592529297, -9.01038932800293, 2.9813759326934814, -0.8713195323944092, -3.4071545600891113, -0.2991742789745331, -0.318115234375, 0.296142578125, -0.3916015625, 
176, 3186873744, 0.8065205812454224, -0.5505108833312988, 0.2022630274295807, -0.07461918890476227, -2.4504003524780273, -9.016438484191895, 2.9854815006256104, -1.2564294338226318, -3.5400664806365967, -0.2918485701084137, -0.320068359375, 0.297119140625, -0.39404296875, 
177, 3186882077, 0.8065375089645386, -0.5505624413490295, 0.20209906995296478, -0.0745009183883667, -2.4193363189697266, -9.120340347290039, 2.9659531116485596, -1.0602627992630005, -3.5396182537078857, -0.12800714373588562, -0.320068359375, 0.296142578125, -0.3916015625, 
178, 3186890410, 0.8065901398658752, -0.550561785697937, 0.20193296670913696, -0.07438492774963379, -2.428790330886841, -9.160621643066406, 3.031184673309326, -0.23531800508499146, -3.5603020191192627, -0.04766809567809105, -0.318603515625, 0.2978515625, -0.3955078125, 
179, 3186898743, 0.8066651821136475, -0.5505252480506897, 0.20177260041236877, -0.07427635788917542, -2.3926165103912354, -9.095833778381348, 3.097227096557617, 0.3807428479194641, -3.497828960418701, 0.09386337548494339, -0.317626953125, 0.297119140625, -0.39208984375, 
180, 3186907076, 0.8067435026168823, -0.550480306148529, 0.20161934196949005, -0.07417404651641846, -2.315183401107788, -9.05911922454834, 3.1302285194396973, 0.47633519768714905, -3.34114670753479, 0.04796265810728073, -0.317626953125, 0.296875, -0.39404296875, 
181, 3186915409, 0.8068099021911621, -0.5504445433616638, 0.20148512721061707, -0.0740833729505539, -2.294168710708618, -8.987446784973145, 3.177737236022949, 0.32790061831474304, -3.0483500957489014, 0.08387380838394165, -0.318115234375, 0.298828125, -0.3935546875, 
182, 3186923742, 0.8068664073944092, -0.5504128336906433, 0.20137713849544525, -0.07399779558181763, -2.2505061626434326, -8.903810501098633, 3.1590731143951416, 0.16396953165531158, -2.663496255874634, 0.14685921370983124, -0.3193359375, 0.2978515625, -0.396484375, 
183, 3186932075, 0.8069066405296326, -0.5503934025764465, 0.2012956440448761, -0.0739252120256424, -2.243272066116333, -8.893871307373047, 3.191039562225342, -0.05422533303499222, -2.2704200744628906, 0.208333358168602, -0.3193359375, 0.2978515625, -0.39453125, 
184, 3186940408, 0.8069363832473755, -0.5503828525543213, 0.20123006403446198, -0.07385912537574768, -2.2568325996398926, -8.964034080505371, 3.222491502761841, -0.2644157111644745, -1.9940423965454102, 0.16504532098770142, -0.318115234375, 0.298583984375, -0.3916015625, 
185, 3186948741, 0.8069518804550171, -0.5503823757171631, 0.2011815756559372, -0.07382284104824066, -2.2348198890686035, -8.970809936523438, 3.2303311824798584, -0.3841623365879059, -1.5806546211242676, -0.02036331780254841, -0.3193359375, 0.29833984375, -0.39404296875, 
186, 3186957074, 0.8069653511047363, -0.5503793954849243, 0.20114172995090485, -0.07380706071853638, -2.248753786087036, -9.013983726501465, 3.2173774242401123, -0.3587658107280731, -1.2900993824005127, -0.2356637865304947, -0.316650390625, 0.29833984375, -0.392333984375, 
187, 3186965407, 0.8069841861724854, -0.550353467464447, 0.20112700760364532, -0.07383358478546143, -2.220399856567383, -9.027667045593262, 3.1872639656066895, 0.06199926137924194, -0.7153286933898926, -0.3873897194862366, -0.3193359375, 0.2978515625, -0.39501953125, 
188, 3186973740, 0.8070049285888672, -0.550320565700531, 0.2011181265115738, -0.07387685775756836, -2.229848623275757, -9.011852264404297, 3.1775503158569336, 0.15987125039100647, -0.48961612582206726, -0.5674065351486206, -0.3203125, 0.299072265625, -0.39208984375, 
189, 3186982073, 0.8070060014724731, -0.5503016710281372, 0.2011425793170929, -0.07393959164619446, -2.2512428760528564, -9.027789115905762, 3.1152849197387695, -0.0907256156206131, 0.040124695748090744, -0.529753565788269, -0.31787109375, 0.29931640625, -0.392822265625, 
190, 3186990406, 0.8069850206375122, -0.5503055453300476, 0.20119234919548035, -0.07400453090667725, -2.3037734031677246, -9.071764945983887, 3.066938877105713, -0.5621556043624878, 0.40259167551994324, -0.5087499022483826, -0.31884765625, 0.298828125, -0.39306640625, 
191, 3186998739, 0.806941568851471, -0.5503420829772949, 0.20124420523643494, -0.07406628131866455, -2.330460548400879, -9.085469245910645, 2.999680519104004, -1.076284408569336, 0.4018232524394989, -0.5109783411026001, -0.317626953125, 0.298828125, -0.39453125, 
192, 3187007072, 0.8068978190422058, -0.550373911857605, 0.20131278038024902, -0.0741187036037445, -2.335939645767212, -9.07848834991455, 2.9912545680999756, -1.096801519393921, 0.5518971085548401, -0.32581308484077454, -0.3193359375, 0.298583984375, -0.3935546875, 
193, 3187015405, 0.8068544864654541, -0.550405740737915, 0.2013780176639557, -0.07417643070220947, -2.3445160388946533, -9.086356163024902, 3.0058319568634033, -1.046392798423767, 0.5245923399925232, -0.35076138377189636, -0.31884765625, 0.30078125, -0.39501953125, 
194, 3187023738, 0.8068270087242126, -0.5504143834114075, 0.20144122838974, -0.07424095273017883, -2.366246461868286, -9.078653335571289, 2.9753966331481934, -0.6782905459403992, 0.5621939897537231, -0.42189204692840576, -0.318603515625, 0.296630859375, -0.39404296875, 
195, 3187032071, 0.8068037033081055, -0.550421953201294, 0.20149357616901398, -0.07429495453834534, -2.3831913471221924, -9.027917861938477, 2.9738802909851074, -0.6225923895835876, 0.32015231251716614, -0.31985771656036377, -0.316162109375, 0.2978515625, -0.3955078125, 
196, 3187040404, 0.8067952394485474, -0.5504178404808044, 0.20152504742145538, -0.07433246076107025, -2.3792788982391357, -8.954357147216797, 2.9781293869018555, -0.43703004717826843, -0.03368271887302399, -0.3075501024723053, -0.317626953125, 0.298095703125, -0.3916015625, 
197, 3187048737, 0.8067847490310669, -0.5504283308982849, 0.20153537392616272, -0.07434111833572388, -2.4044573307037354, -8.909801483154297, 2.9656612873077393, -0.6402022242546082, -0.5239647626876831, -0.12953118979930878, -0.3203125, 0.298095703125, -0.39208984375, 
198, 3187057070, 0.806784987449646, -0.5504363775253296, 0.20151659846305847, -0.07433055341243744, -2.4017457962036133, -8.98654556274414, 2.962128162384033, -0.5860151648521423, -0.9915141463279724, -0.17867209017276764, -0.3173828125, 0.2998046875, -0.393798828125, 
199, 3187065403, 0.8067839741706848, -0.5504516363143921, 0.20148655772209167, -0.07430893182754517, -2.3939850330352783, -9.114853858947754, 2.9212281703948975, -0.6662262082099915, -1.2337353229522705, -0.10366080701351166, -0.317626953125, 0.298828125, -0.392822265625, 
200, 3187073736, 0.8067584037780762, -0.5505171418190002, 0.20143669843673706, -0.07423615455627441, -2.435645580291748, -9.11531925201416, 2.809096336364746, -1.5592151880264282, -1.7949942350387573, 0.09071281552314758, -0.3203125, 0.298828125, -0.39453125, 
201, 3187082069, 0.8066586256027222, -0.5507007241249084, 0.20138408243656158, -0.07410162687301636, -2.4556009769439697, -9.243325233459473, 2.617964029312134, -3.567422866821289, -2.2387354373931885, 0.4111725091934204, -0.315673828125, 0.29931640625, -0.394287109375, 
202, 3187090402, 0.806466281414032, -0.5510307550430298, 0.20133459568023682, -0.07387541234493256, -2.4557430744171143, -9.224995613098145, 2.495943546295166, -6.183480739593506, -2.7611632347106934, 0.8921054005622864, -0.3193359375, 0.29931640625, -0.39501953125, 
203, 3187098735, 0.8061954975128174, -0.5514976978302002, 0.2012699842453003, -0.07352255284786224, -2.499601364135742, -9.253591537475586, 2.370278835296631, -8.595677375793457, -3.841444492340088, 1.7833786010742188, -0.31787109375, 0.30224609375, -0.390869140625, 
204, 3187107068, 0.8058944344520569, -0.552038311958313, 0.2011728286743164, -0.07303033769130707, -2.54641056060791, -9.421208381652832, 2.2547876834869385, -10.031250953674316, -5.218080520629883, 2.787686586380005, -0.3173828125, 0.30126953125, -0.394775390625, 
205, 3187115401, 0.8056188225746155, -0.5525809526443481, 0.20101411640644073, -0.07240289449691772, -2.5695016384124756, -9.47329044342041, 2.185548782348633, -10.134735107421875, -7.034234046936035, 3.897475481033325, -0.31689453125, 0.3056640625, -0.391357421875, 
206, 3187123734, 0.8054066300392151, -0.5530738830566406, 0.2007829248905182, -0.0716361403465271, -2.6026220321655273, -9.586162567138672, 2.054504871368408, -9.451014518737793, -8.986116409301758, 5.032443523406982, -0.314453125, 0.303466796875, -0.393310546875, 
207, 3187132067, 0.8053458333015442, -0.5534114241600037, 0.20040950179100037, -0.07075051963329315, -2.6104962825775146, -9.651020050048828, 1.9210902452468872, -6.726299285888672, -11.766925811767578, 5.9045305252075195, -0.315673828125, 0.309814453125, -0.39306640625, 
208, 3187140400, 0.8054456114768982, -0.5535813570022583, 0.1999037265777588, -0.06970956921577454, -2.688821315765381, -9.637767791748047, 1.8388636112213135, -3.989468812942505, -14.658209800720215, 7.176482200622559, -0.314697265625, 0.31201171875, -0.39453125, 
209, 3187148733, 0.8056544065475464, -0.5536636114120483, 0.19924598932266235, -0.06851702928543091, -2.696037769317627, -9.644709587097168, 1.76316237449646, -2.4120161533355713, -17.74997901916504, 8.101540565490723, -0.315673828125, 0.314453125, -0.3935546875, 
210, 3187157066, 0.8059152960777283, -0.5537407398223877, 0.1984398514032364, -0.06715352833271027, -2.670815944671631, -9.471614837646484, 1.6571110486984253, -2.3338162899017334, -20.794925689697266, 8.871148109436035, -0.312255859375, 0.31689453125, -0.391845703125, 
211, 3187165399, 0.8061727285385132, -0.55389803647995, 0.19747254252433777, -0.06559917330741882, -2.7459821701049805, -9.250954627990723, 1.471707820892334, -3.5700883865356445, -24.139484405517578, 9.595110893249512, -0.31494140625, 0.31982421875, -0.39208984375, 
212, 3187173732, 0.8064087629318237, -0.5541777610778809, 0.1963072270154953, -0.06380724906921387, -2.831052541732788, -9.215457916259766, 1.2891639471054077, -5.606935024261475, -28.155729293823242, 10.310647964477539, -0.310546875, 0.32568359375, -0.395751953125, 
213, 3187182065, 0.8066540956497192, -0.5545408129692078, 0.19492468237876892, -0.06175786256790161, -2.8358030319213867, -9.331473350524902, 1.0902918577194214, -6.907346248626709, -32.671939849853516, 11.350974082946777, -0.309326171875, 0.3330078125, -0.39453125, 
214, 3187190398, 0.8069559335708618, -0.5549297332763672, 0.19328217208385468, -0.059438690543174744, -2.851468563079834, -9.448253631591797, 0.9339460134506226, -7.3241705894470215, -37.73971176147461, 12.282005310058594, -0.310546875, 0.338134765625, -0.39453125, 
215, 3187198731, 0.8073355555534363, -0.5553169250488281, 0.19135476648807526, -0.056847959756851196, -2.846911668777466, -9.513443946838379, 0.9234501719474792, -7.13457727432251, -43.225921630859375, 13.243313789367676, -0.30810546875, 0.3427734375, -0.395751953125, 
216, 3187207064, 0.8077831268310547, -0.5557085871696472, 0.18914304673671722, -0.05399240553379059, -2.7990851402282715, -9.481704711914062, 0.9208617210388184, -7.203123569488525, -48.5390625, 13.999916076660156, -0.308349609375, 0.349609375, -0.397216796875, 
217, 3187215397, 0.8083298206329346, -0.5560468435287476, 0.18665887415409088, -0.05088441073894501, -2.728957414627075, -9.526741027832031, 0.8891160488128662, -6.2368268966674805, -53.76703643798828, 14.98742961883545, -0.306640625, 0.356201171875, -0.39599609375, 
218, 3187223730, 0.808981716632843, -0.5563103556632996, 0.18391947448253632, -0.047507524490356445, -2.759519100189209, -9.699562072753906, 0.8148918747901917, -5.184260845184326, -58.823974609375, 16.2386474609375, -0.307373046875, 0.36572265625, -0.39892578125, 
219, 3187232063, 0.8097265958786011, -0.5565100908279419, 0.1809086799621582, -0.04390247166156769, -2.665513038635254, -9.79325008392334, 0.7658727169036865, -4.08143949508667, -63.83932113647461, 16.971864700317383, -0.30419921875, 0.3740234375, -0.3984375, 
220, 3187240396, 0.8105890154838562, -0.5565944910049438, 0.17765310406684875, -0.04004371166229248, -2.584141731262207, -9.727363586425781, 0.7893701791763306, -2.4639978408813477, -68.67146301269531, 18.231998443603516, -0.306884765625, 0.38427734375, -0.3994140625, 
221, 3187248729, 0.811552882194519, -0.5565725564956665, 0.174163356423378, -0.03594683110713959, -2.575709581375122, -9.631909370422363, 0.9350032210350037, -0.8627686500549316, -73.3614273071289, 19.460474014282227, -0.302978515625, 0.3955078125, -0.401611328125, 
222, 3187257062, 0.8125904202461243, -0.5564641952514648, 0.17047427594661713, -0.0316048264503479, -2.5102052688598633, -9.646330833435059, 1.0620315074920654, 0.08551360666751862, -77.52857971191406, 20.862104415893555, -0.3037109375, 0.406494140625, -0.40234375, 
223, 3187265395, 0.8136812448501587, -0.5562722682952881, 0.1666359156370163, -0.027064770460128784, -2.385913610458374, -9.563982009887695, 0.9882990121841431, 1.1271485090255737, -80.87301635742188, 22.201005935668945, -0.301025390625, 0.415283203125, -0.403076171875, 
224, 3187273728, 0.8148489594459534, -0.5559490919113159, 0.16267617046833038, -0.022236168384552002, -2.392108201980591, -9.58143424987793, 0.9333757758140564, 2.4694337844848633, -84.49307250976562, 24.782041549682617, -0.300048828125, 0.4287109375, -0.40478515625, 
225, 3187282061, 0.8160992860794067, -0.5554802417755127, 0.15857701003551483, -0.017117172479629517, -2.4263734817504883, -9.588871002197266, 1.3567150831222534, 4.231593132019043, -88.49468994140625, 27.370771408081055, -0.29931640625, 0.43896484375, -0.409423828125, 
226, 3187290394, 0.8173901438713074, -0.5549023747444153, 0.15438897907733917, -0.01169779896736145, -2.299823760986328, -9.486835479736328, 1.9630348682403564, 5.0246195793151855, -91.76985168457031, 30.260665893554688, -0.295654296875, 0.451171875, -0.41162109375, 
227, 3187298727, 0.8186113834381104, -0.5543270111083984, 0.15025365352630615, -0.006080418825149536, -1.9571831226348877, -9.588983535766602, 2.423921823501587, 4.1519365310668945, -92.6220703125, 32.91748046875, -0.294189453125, 0.465576171875, -0.410888671875, 
228, 3187307060, 0.819703996181488, -0.5538039803504944, 0.14629651606082916, -0.0002728402614593506, -1.654417872428894, -9.807110786437988, 2.8368945121765137, 2.0566742420196533, -91.72415924072266, 36.252384185791016, -0.292236328125, 0.479248046875, -0.416015625, 
229, 3187315393, 0.8206653594970703, -0.553356409072876, 0.14243856072425842, 0.005683615803718567, -2.0047008991241455, -9.55610179901123, 3.0615813732147217, 0.02611393854022026, -91.56217956542969, 38.58173751831055, -0.29248046875, 0.493896484375, -0.415283203125, 
230, 3187323726, 0.8215281963348389, -0.5530079007148743, 0.13839933276176453, 0.011638879776000977, -2.246074914932251, -9.242621421813965, 2.9084055423736572, -1.9700852632522583, -93.31314086914062, 36.95402526855469, -0.287109375, 0.508544921875, -0.418212890625, 
231, 3187332059, 0.8223448991775513, -0.552623450756073, 0.13439001142978668, 0.01764926314353943, -1.7252358198165894, -9.703190803527832, 2.8500759601593018, -1.896751046180725, -93.40000915527344, 37.925758361816406, -0.283447265625, 0.522705078125, -0.41845703125, 
232, 3187340392, 0.8230777382850647, -0.5522301197052002, 0.130516916513443, 0.023799076676368713, -1.5721248388290405, -9.482927322387695, 2.9016306400299072, -2.7786319255828857, -92.67672729492188, 40.53022003173828, -0.281005859375, 0.538818359375, -0.421875, 
233, 3187348725, 0.8237017393112183, -0.5519078969955444, 0.126607745885849, 0.02999141812324524, -1.827998161315918, -8.83752155303955, 2.9533181190490723, -4.376078128814697, -93.28223419189453, 40.69197463989258, -0.278564453125, 0.551513671875, -0.419189453125, 
234, 3187357058, 0.8241867423057556, -0.5516860485076904, 0.12272953987121582, 0.036225393414497375, -1.6907854080200195, -9.000836372375488, 2.8965511322021484, -6.748695373535156, -92.87262725830078, 41.23275375366211, -0.276123046875, 0.569091796875, -0.421630859375, 
235, 3187365391, 0.8245372772216797, -0.5515556335449219, 0.11887931823730469, 0.04252779483795166, -1.6454510688781738, -9.094321250915527, 3.003936529159546, -8.783995628356934, -92.89430236816406, 42.18191909790039, -0.267578125, 0.583251953125, -0.420654296875, 
236, 3187373724, 0.8248054385185242, -0.5514481663703918, 0.11500699818134308, 0.048891663551330566, -1.7061724662780762, -9.009105682373047, 3.303380250930786, -9.904912948608398, -93.37118530273438, 42.673858642578125, -0.267578125, 0.598388671875, -0.419921875, 
237, 3187382057, 0.8249377608299255, -0.5514279007911682, 0.11119306087493896, 0.05529148876667023, -1.6250286102294922, -8.868995666503906, 3.715827226638794, -11.818467140197754, -92.8026123046875, 43.52524948120117, -0.26708984375, 0.616455078125, -0.420654296875, 
238, 3187390390, 0.8249462246894836, -0.5514835119247437, 0.10742312669754028, 0.06169426441192627, -1.6352843046188354, -8.850878715515137, 4.05460786819458, -13.71245002746582, -91.98430633544922, 43.82224655151367, -0.263427734375, 0.62939453125, -0.418212890625, 
239, 3187398723, 0.8249701857566833, -0.551423192024231, 0.10365618765354156, 0.06802982091903687, -1.592750906944275, -9.303153991699219, 4.391664981842041, -12.057242393493652, -91.65730285644531, 43.28843688964844, -0.257080078125, 0.64501953125, -0.414306640625, 
240, 3187407056, 0.8251140713691711, -0.5510836839675903, 0.09995780885219574, 0.07428151369094849, -1.582892894744873, -9.643543243408203, 4.519808292388916, -7.917891979217529, -90.58003997802734, 43.096038818359375, -0.2548828125, 0.65966796875, -0.4130859375, 
241, 3187415389, 0.82546466588974, -0.5503623485565186, 0.0963350236415863, 0.08028106391429901, -1.52876615524292, -9.495122909545898, 4.627242565155029, -1.476852297782898, -88.58294677734375, 41.16912078857422, -0.24951171875, 0.67333984375, -0.412109375, 
242, 3187423722, 0.8260205984115601, -0.549244225025177, 0.09285472333431244, 0.08611011505126953, -1.5286089181900024, -9.118298530578613, 4.588293075561523, 4.846802711486816, -86.28659057617188, 40.563446044921875, -0.245849609375, 0.6875, -0.41064453125, 
243, 3187432055, 0.8267012238502502, -0.5478556752204895, 0.08951780200004578, 0.0917709469795227, -1.4759467840194702, -8.835413932800293, 4.371628761291504, 9.35944938659668, -83.9652099609375, 39.98101806640625, -0.2412109375, 0.699462890625, -0.408935546875, 
244, 3187440388, 0.8274308443069458, -0.546317458152771, 0.08631487190723419, 0.09726874530315399, -1.4728118181228638, -8.55920696258545, 4.25797700881958, 11.685159683227539, -81.3648452758789, 39.212032318115234, -0.239013671875, 0.709228515625, -0.40771484375, 
245, 3187448721, 0.8280897736549377, -0.5448176860809326, 0.0832265317440033, 0.1026172786951065, -1.5016660690307617, -8.25981330871582, 4.46946907043457, 11.159392356872559, -78.90032958984375, 38.47140121459961, -0.232421875, 0.7197265625, -0.40673828125, 
246, 3187457054, 0.8285010457038879, -0.5436367988586426, 0.08026725053787231, 0.10778819024562836, -1.4039579629898071, -8.13004207611084, 4.7421183586120605, 5.945087909698486, -75.2701187133789, 37.352230072021484, -0.229736328125, 0.7314453125, -0.405029296875, 
247, 3187465387, 0.8285479545593262, -0.5429471731185913, 0.07750241458415985, 0.11280956864356995, -1.4193848371505737, -7.9119873046875, 4.929108619689941, -1.8131394386291504, -70.90042114257812, 37.15131378173828, -0.224609375, 0.740478515625, -0.4033203125, 
248, 3187473720, 0.8282040357589722, -0.542797863483429, 0.07489892840385437, 0.11770641803741455, -1.5961791276931763, -7.982367515563965, 5.023253917694092, -10.613851547241211, -66.78475189208984, 36.91551971435547, -0.222412109375, 0.7509765625, -0.400634765625, 
249, 3187482053, 0.8274847865104675, -0.5431860089302063, 0.07240785658359528, 0.12243755161762238, -1.707051157951355, -8.218372344970703, 4.9270830154418945, -19.078935623168945, -63.098751068115234, 35.97026062011719, -0.2177734375, 0.761474609375, -0.394287109375, 
250, 3187490386, 0.8265374302864075, -0.5438899397850037, 0.06998145580291748, 0.12703661620616913, -1.836963176727295, -8.446579933166504, 4.708606243133545, -24.24081039428711, -60.529258728027344, 34.971214294433594, -0.214599609375, 0.771484375, -0.3896484375, 
251, 3187498719, 0.8255281448364258, -0.5446548461914062, 0.06758804619312286, 0.13153783977031708, -1.9801942110061646, -8.708428382873535, 4.442943096160889, -25.144329071044922, -59.344329833984375, 34.20470428466797, -0.209716796875, 0.778564453125, -0.38671875, 
252, 3187507052, 0.8246204257011414, -0.5452343225479126, 0.06523002684116364, 0.13594776391983032, -2.0348947048187256, -8.952078819274902, 4.179781913757324, -22.230615615844727, -58.601192474365234, 33.37184524536133, -0.20556640625, 0.7900390625, -0.378662109375, 
253, 3187515385, 0.8239040374755859, -0.5454877018928528, 0.06292293965816498, 0.14029324054718018, -1.9952510595321655, -9.013031005859375, 3.887256622314453, -16.846515655517578, -58.408348083496094, 33.007564544677734, -0.201171875, 0.796142578125, -0.373779296875, 
254, 3187523718, 0.8233970403671265, -0.545382559299469, 0.060684412717819214, 0.14459843933582306, -1.9651789665222168, -8.901459693908691, 3.805659532546997, -11.144721031188965, -58.11570358276367, 32.92198944091797, -0.195556640625, 0.80615234375, -0.3681640625, 
255, 3187532051, 0.8230705857276917, -0.5449655652046204, 0.0584687739610672, 0.14887842535972595, -2.001628875732422, -8.715208053588867, 3.9165115356445312, -6.097083568572998, -58.527687072753906, 32.75929260253906, -0.191650390625, 0.812255859375, -0.364501953125, 
256, 3187540384, 0.8228006362915039, -0.5444343686103821, 0.05625970661640167, 0.15310561656951904, -1.9657541513442993, -8.515373229980469, 4.047839641571045, -4.4208807945251465, -58.24656295776367, 32.138858795166016, -0.1875, 0.81982421875, -0.363037109375, 
257, 3187548717, 0.822476327419281, -0.5439679026603699, 0.05404731631278992, 0.1572466492652893, -1.9701894521713257, -8.323888778686523, 4.079012870788574, -5.403164863586426, -57.55038833618164, 31.250164031982422, -0.18505859375, 0.827392578125, -0.3603515625, 
258, 3187557050, 0.8219935297966003, -0.5437251925468445, 0.05180133879184723, 0.16131365299224854, -1.9936256408691406, -8.051565170288086, 4.07093620300293, -9.235937118530273, -56.68553161621094, 30.29192352294922, -0.179931640625, 0.833740234375, -0.351806640625, 
259, 3187565383, 0.8212981224060059, -0.5437941551208496, 0.04949742555618286, 0.16529732942581177, -1.9451639652252197, -7.945914268493652, 3.8827664852142334, -14.320664405822754, -55.96371841430664, 29.213176727294922, -0.173583984375, 0.837890625, -0.3505859375, 
260, 3187573716, 0.8204429745674133, -0.5440897345542908, 0.047125160694122314, 0.16921758651733398, -1.9673573970794678, -8.155303955078125, 3.69529390335083, -18.282535552978516, -55.54786682128906, 28.146854400634766, -0.168701171875, 0.845458984375, -0.34326171875, 
261, 3187582049, 0.8194917440414429, -0.5445175766944885, 0.04469956457614899, 0.1730661690235138, -2.0236709117889404, -8.238424301147461, 3.647228240966797, -20.476734161376953, -55.33086395263672, 27.125354766845703, -0.16748046875, 0.851318359375, -0.3388671875, 
262, 3187590382, 0.818493664264679, -0.5449913144111633, 0.042221784591674805, 0.1768781840801239, -2.0275189876556396, -8.27271842956543, 3.6514780521392822, -21.541086196899414, -55.42061996459961, 26.356849670410156, -0.16259765625, 0.85693359375, -0.33447265625, 
263, 3187598715, 0.8174929022789001, -0.5454459190368652, 0.03969021141529083, 0.18065062165260315, -2.0784213542938232, -8.361970901489258, 3.664825677871704, -21.36037826538086, -55.8618278503418, 25.573694229125977, -0.15966796875, 0.863525390625, -0.328857421875, 
264, 3187607048, 0.8165117502212524, -0.5458415150642395, 0.037096261978149414, 0.18440571427345276, -2.1771223545074463, -8.448450088500977, 3.686798095703125, -20.787818908691406, -56.502593994140625, 24.846933364868164, -0.155517578125, 0.870361328125, -0.32275390625, 
265, 3187615381, 0.8155929446220398, -0.546127200126648, 0.034418582916259766, 0.18810799717903137, -2.2040154933929443, -8.580291748046875, 3.738719940185547, -19.178333282470703, -57.44816970825195, 23.57192039489746, -0.153076171875, 0.875, -0.318603515625, 
266, 3187623714, 0.8147857189178467, -0.5462191700935364, 0.031656816601753235, 0.19178840517997742, -2.1609303951263428, -8.680469512939453, 3.755290985107422, -16.46796417236328, -58.68870162963867, 22.450382232666016, -0.148681640625, 0.87744140625, -0.31103515625, 
267, 3187632047, 0.8141138553619385, -0.5460771322250366, 0.028865590691566467, 0.19545084238052368, -2.15739369392395, -8.723928451538086, 3.801203727722168, -12.806243896484375, -59.65103530883789, 21.819528579711914, -0.147216796875, 0.88525390625, -0.305908203125, 
268, 3187640380, 0.8135625123977661, -0.5457166433334351, 0.026035770773887634, 0.19911673665046692, -2.095296859741211, -8.697047233581543, 3.971440076828003, -9.653246879577637, -60.653350830078125, 21.282909393310547, -0.14306640625, 0.890380859375, -0.3017578125, 
269, 3187648713, 0.8130815029144287, -0.5452165603637695, 0.023200377821922302, 0.20276859402656555, -1.9801316261291504, -8.67440128326416, 4.090450286865234, -7.482022285461426, -61.109134674072266, 20.99031639099121, -0.140625, 0.894287109375, -0.297119140625, 
270, 3187657046, 0.8126563429832458, -0.5446001887321472, 0.020384103059768677, 0.20639914274215698, -1.918555498123169, -8.726433753967285, 4.197505950927734, -5.795677661895752, -60.986568450927734, 20.72856330871582, -0.138671875, 0.897216796875, -0.29052734375, 
271, 3187665379, 0.8122100830078125, -0.54399573802948, 0.01762041449546814, 0.20997345447540283, -1.8726104497909546, -8.648241996765137, 4.2474141120910645, -5.829385280609131, -60.02837371826172, 20.59661865234375, -0.135009765625, 0.8974609375, -0.2890625, 
272, 3187673712, 0.8116851449012756, -0.5434991121292114, 0.01490679383277893, 0.213470458984375, -1.8191125392913818, -8.551807403564453, 4.352442741394043, -7.552742004394531, -58.47010040283203, 20.262889862060547, -0.128662109375, 0.90234375, -0.285400390625, 
273, 3187682045, 0.8110275864601135, -0.5431958436965942, 0.012217223644256592, 0.21688544750213623, -1.7907154560089111, -8.501012802124023, 4.432383060455322, -10.520874977111816, -57.08401870727539, 19.923290252685547, -0.12890625, 0.9052734375, -0.2802734375, 
274, 3187690378, 0.8102213144302368, -0.5431131720542908, 0.009590834379196167, 0.22021286189556122, -1.7663054466247559, -8.466955184936523, 4.500107765197754, -13.982507705688477, -54.952392578125, 19.77883529663086, -0.1259765625, 0.910400390625, -0.274658203125, 
275, 3187698711, 0.809285044670105, -0.5432340502738953, 0.007026836276054382, 0.22343029081821442, -1.7443995475769043, -8.48672103881836, 4.568099021911621, -16.927885055541992, -52.89048385620117, 19.433979034423828, -0.1220703125, 0.909912109375, -0.269775390625, 
276, 3187707044, 0.8083111643791199, -0.54342120885849, 0.0045145004987716675, 0.22654400765895844, -1.7722183465957642, -8.595670700073242, 4.6260085105896, -17.865720748901367, -51.244441986083984, 18.727041244506836, -0.117431640625, 0.913330078125, -0.2646484375, 
277, 3187715377, 0.8074100017547607, -0.5435143113136292, 0.002084195613861084, 0.2295496165752411, -1.826537013053894, -8.71756362915039, 4.731624603271484, -15.928729057312012, -49.90976333618164, 17.96502685546875, -0.114990234375, 0.915283203125, -0.260498046875, 
278, 3187723710, 0.8067490458488464, -0.5432581305503845, -0.0002757757902145386, 0.23247075080871582, -1.755449652671814, -8.735747337341309, 4.9984917640686035, -10.116353988647461, -49.518775939941406, 16.75761604309082, -0.1123046875, 0.9189453125, -0.25732421875, 
279, 3187732043, 0.8064137101173401, -0.5425562858581543, -0.0024738609790802, 0.2352435439825058, -1.600245475769043, -8.836715698242188, 5.2424468994140625, -2.140291690826416, -48.12411880493164, 15.326080322265625, -0.109619140625, 0.91943359375, -0.2548828125, 
280, 3187740376, 0.8064265251159668, -0.541409969329834, -0.004435881972312927, 0.2377977818250656, -1.4476312398910522, -8.592668533325195, 5.445620059967041, 6.0604047775268555, -45.215877532958984, 13.474151611328125, -0.107666015625, 0.92041015625, -0.253173828125, 
281, 3187748709, 0.8067439198493958, -0.5398906469345093, -0.0061561912298202515, 0.24012544751167297, -1.439571738243103, -8.260744094848633, 5.718200206756592, 13.319552421569824, -42.12794494628906, 11.792787551879883, -0.103759765625, 0.9208984375, -0.248779296875, 
282, 3187757042, 0.8072548508644104, -0.5381665229797363, -0.007660165429115295, 0.24222639203071594, -1.3903990983963013, -7.970972061157227, 5.949774265289307, 17.641897201538086, -38.62653350830078, 10.177000045776367, -0.100830078125, 0.920654296875, -0.252197265625, 
283, 3187765375, 0.8078065514564514, -0.5364924073219299, -0.00896233320236206, 0.2440492808818817, -1.3164317607879639, -7.762848377227783, 6.064102649688721, 18.10738182067871, -34.231502532958984, 8.505078315734863, -0.101318359375, 0.919189453125, -0.253173828125, 
284, 3187773708, 0.8082873821258545, -0.5350423455238342, -0.010104238986968994, 0.24559125304222107, -1.3594002723693848, -7.521157741546631, 6.171233177185059, 15.523995399475098, -29.562036514282227, 6.780850410461426, -0.09912109375, 0.918701171875, -0.253173828125, 
285, 3187782041, 0.8086625337600708, -0.5338876247406006, -0.011113345623016357, 0.2468225657939911, -1.4125981330871582, -7.361984729766846, 6.221961975097656, 11.936919212341309, -24.880020141601562, 4.751507759094238, -0.097412109375, 0.921630859375, -0.25390625, 
286, 3187790374, 0.8089309930801392, -0.5330318808555603, -0.01197350025177002, 0.24775052070617676, -1.4958374500274658, -7.387423515319824, 6.275416374206543, 8.22095775604248, -19.93572235107422, 2.8307971954345703, -0.096435546875, 0.92138671875, -0.258056640625, 
287, 3187798707, 0.8090969324111938, -0.5324845910072327, -0.012670397758483887, 0.24835053086280823, -1.5251548290252686, -7.415224075317383, 6.273548603057861, 4.599305629730225, -14.735564231872559, 0.8304264545440674, -0.094482421875, 0.921875, -0.255859375, 
288, 3187807040, 0.8091902732849121, -0.5321952104568481, -0.013187482953071594, 0.24863936007022858, -1.5511822700500488, -7.426740646362305, 6.2670817375183105, 1.698121428489685, -9.535168647766113, -1.0743508338928223, -0.097900390625, 0.921142578125, -0.255126953125, 
289, 3187815373, 0.8092450499534607, -0.5321084260940552, -0.013536527752876282, 0.24862773716449738, -1.668106198310852, -7.560335159301758, 6.2890191078186035, -0.26941052079200745, -4.824466705322266, -2.969406843185425, -0.09521484375, 0.9208984375, -0.25537109375, 
290, 3187823706, 0.8093283772468567, -0.5321146249771118, -0.013703659176826477, 0.24833375215530396, -1.7411576509475708, -7.7648234367370605, 6.314847946166992, -0.5733490586280823, -0.36769235134124756, -4.909890651702881, -0.09814453125, 0.918701171875, -0.256591796875, 
291, 3187832039, 0.80949467420578, -0.5321304202079773, -0.013668537139892578, 0.24775931239128113, -1.6981399059295654, -7.971161365509033, 6.261613368988037, 0.6078258752822876, 3.94966459274292, -6.784993648529053, -0.100830078125, 0.919189453125, -0.256591796875, 
292, 3187840372, 0.8097676634788513, -0.5320989489555359, -0.01341235637664795, 0.24694737792015076, -1.6598701477050781, -8.050931930541992, 6.120197296142578, 2.5799684524536133, 8.042512893676758, -8.231058120727539, -0.101318359375, 0.921142578125, -0.256591796875, 
293, 3187848705, 0.810145914554596, -0.5320202708244324, -0.01294487714767456, 0.24589931964874268, -1.6416752338409424, -8.0777006149292, 5.946694374084473, 4.5862040519714355, 11.952091217041016, -9.633323669433594, -0.100830078125, 0.919189453125, -0.258056640625, 
294, 3187857038, 0.810585081577301, -0.5319635272026062, -0.012292250990867615, 0.2446054220199585, -1.63359797000885, -8.042173385620117, 5.759987831115723, 5.332974910736084, 15.929049491882324, -11.267372131347656, -0.105712890625, 0.91796875, -0.25927734375, 
295, 3187865371, 0.811017632484436, -0.5320135354995728, -0.011490419507026672, 0.24309653043746948, -1.5965101718902588, -7.901601314544678, 5.58575963973999, 4.590316295623779, 19.497140884399414, -12.4845609664917, -0.106689453125, 0.91650390625, -0.259765625, 
296, 3187873704, 0.8113751411437988, -0.5322584509849548, -0.010554403066635132, 0.2414039820432663, -1.5995999574661255, -7.780609130859375, 5.476860523223877, 2.2567052841186523, 23.00212287902832, -13.315311431884766, -0.110595703125, 0.91796875, -0.2607421875, 
297, 3187882037, 0.8116270899772644, -0.5327410697937012, -0.009509742259979248, 0.23952850699424744, -1.633802056312561, -7.920470714569092, 5.344751358032227, -0.8077967166900635, 26.310924530029297, -14.130077362060547, -0.109619140625, 0.91748046875, -0.263916015625, 
298, 3187890370, 0.811791181564331, -0.5334243178367615, -0.008359760046005249, 0.2374865859746933, -1.6667665243148804, -8.12523365020752, 5.336461544036865, -3.3930439949035645, 29.371347427368164, -14.948098182678223, -0.115234375, 0.916015625, -0.264404296875, 
299, 3187898703, 0.8119605779647827, -0.5341546535491943, -0.007111117243766785, 0.235295832157135, -1.6985162496566772, -8.379324913024902, 5.332675457000732, -3.552339553833008, 31.707698822021484, -15.847952842712402, -0.11572265625, 0.915771484375, -0.263916015625, 
300, 3187907036, 0.8122367262840271, -0.5347712635993958, -0.005721881985664368, 0.23296914994716644, -1.6372392177581787, -8.687161445617676, 5.327975273132324, -1.0784244537353516, 33.92916488647461, -16.739830017089844, -0.11767578125, 0.913818359375, -0.265625, 
301, 3187915369, 0.8126591444015503, -0.5352159142494202, -0.004155158996582031, 0.230494886636734, -1.5460853576660156, -8.74511432647705, 5.334252834320068, 2.4931397438049316, 36.44923782348633, -17.515642166137695, -0.1240234375, 0.913818359375, -0.270263671875, 
302, 3187923702, 0.8132199048995972, -0.5354921221733093, -0.002414494752883911, 0.22788578271865845, -1.4861057996749878, -8.586132049560547, 5.397731781005859, 5.91929292678833, 38.86734390258789, -18.239465713500977, -0.12646484375, 0.911865234375, -0.273193359375, 
303, 3187932035, 0.8138870596885681, -0.5356588959693909, -0.0004919916391372681, 0.22510765492916107, -1.4059041738510132, -8.387813568115234, 5.446202754974365, 8.503006935119629, 41.80249786376953, -19.073829650878906, -0.1298828125, 0.9111328125, -0.27490234375, 
304, 3187940368, 0.814580500125885, -0.5358427166938782, 0.0016028136014938354, 0.22213712334632874, -1.3708696365356445, -8.20116138458252, 5.429133415222168, 9.0267972946167, 45.2050666809082, -20.094003677368164, -0.1328125, 0.9091796875, -0.28076171875, 
305, 3187948701, 0.8152503967285156, -0.5361120700836182, 0.0038429200649261475, 0.2189789116382599, -1.4526020288467407, -8.094039916992188, 5.398940086364746, 8.350632667541504, 48.48026657104492, -21.00108528137207, -0.13525390625, 0.90625, -0.282958984375, 
306, 3187957034, 0.8158225417137146, -0.5365824103355408, 0.0062081217765808105, 0.215615913271904, -1.5352232456207275, -7.956047534942627, 5.328049182891846, 5.757776737213135, 52.00154495239258, -22.14300537109375, -0.1396484375, 0.902099609375, -0.2880859375, 
307, 3187965367, 0.8162406086921692, -0.5373380184173584, 0.008664488792419434, 0.21203765273094177, -1.4843190908432007, -7.81254768371582, 5.249251365661621, 1.7076934576034546, 55.47416305541992, -23.39982795715332, -0.14208984375, 0.900146484375, -0.290771484375, 
308, 3187973700, 0.8164563179016113, -0.5384400486946106, 0.011200547218322754, 0.20825889706611633, -1.511154294013977, -7.834368705749512, 5.162436008453369, -3.4180779457092285, 58.881919860839844, -24.56580352783203, -0.146728515625, 0.899658203125, -0.295654296875, 
309, 3187982033, 0.8164961934089661, -0.5398362874984741, 0.013827785849571228, 0.20429283380508423, -1.6453731060028076, -7.902768135070801, 5.139307975769043, -7.737502098083496, 62.17238998413086, -25.481246948242188, -0.1474609375, 0.89453125, -0.2978515625, 
310, 3187990366, 0.8164150714874268, -0.541427493095398, 0.016545698046684265, 0.2001628577709198, -1.6522902250289917, -8.090806007385254, 5.187399864196777, -10.537589073181152, 64.96575927734375, -26.400196075439453, -0.155517578125, 0.893310546875, -0.299560546875, 
311, 3187998699, 0.8162835836410522, -0.5430893301963806, 0.019386261701583862, 0.195896714925766, -1.6072853803634644, -8.330819129943848, 5.144923210144043, -11.344189643859863, 67.57906341552734, -26.838443756103516, -0.158447265625, 0.891845703125, -0.302734375, 
312, 3188007032, 0.8162153959274292, -0.5446409583091736, 0.022391319274902344, 0.19150325655937195, -1.6310269832611084, -8.691298484802246, 5.151834011077881, -9.149476051330566, 70.0458984375, -27.235855102539062, -0.160400390625, 0.887451171875, -0.3056640625, 
313, 3188015365, 0.8162923455238342, -0.5459464192390442, 0.025551974773406982, 0.18700891733169556, -1.6548559665679932, -9.027379035949707, 5.1409382820129395, -4.870879650115967, 71.87625885009766, -27.451866149902344, -0.170654296875, 0.884521484375, -0.3076171875, 
314, 3188023698, 0.8165526390075684, -0.5469409227371216, 0.028882071375846863, 0.182425856590271, -1.6103017330169678, -9.119213104248047, 4.912015914916992, 0.47533875703811646, 73.56006622314453, -27.594825744628906, -0.1708984375, 0.876708984375, -0.31201171875, 
315, 3188032031, 0.8169649243354797, -0.5476676225662231, 0.032334282994270325, 0.17776145040988922, -1.640067458152771, -9.044389724731445, 4.6563920974731445, 4.947686195373535, 74.83300018310547, -27.805355072021484, -0.17578125, 0.872802734375, -0.318359375, 
316, 3188040364, 0.8174294829368591, -0.5482673048973083, 0.03589130938053131, 0.17303194105625153, -1.6456021070480347, -8.829794883728027, 4.471263408660889, 7.070121765136719, 76.14479064941406, -27.8780574798584, -0.18017578125, 0.86767578125, -0.322021484375, 
317, 3188048697, 0.817848265171051, -0.5488833785057068, 0.03951731324195862, 0.16824325919151306, -1.6132378578186035, -8.617091178894043, 4.436305522918701, 6.712647438049316, 77.45167541503906, -27.861848831176758, -0.18408203125, 0.861572265625, -0.328125, 
318, 3188057030, 0.818145751953125, -0.5496345162391663, 0.04324460029602051, 0.16335774958133698, -1.4797756671905518, -8.627270698547363, 4.367773056030273, 4.585886478424072, 79.676025390625, -28.039335250854492, -0.188232421875, 0.854248046875, -0.333740234375, 
319, 3188065363, 0.818289041519165, -0.5505693554878235, 0.04706659913063049, 0.1583571583032608, -1.4153398275375366, -8.651512145996094, 4.357693672180176, 1.611107587814331, 82.14081573486328, -28.318286895751953, -0.190673828125, 0.84814453125, -0.33837890625, 
320, 3188073696, 0.8182697892189026, -0.5516931414604187, 0.05098670721054077, 0.15325039625167847, -1.4821114540100098, -8.678183555603027, 4.299715995788574, -1.438454270362854, 84.5414810180664, -28.600440979003906, -0.19580078125, 0.839111328125, -0.34375, 
321, 3188082029, 0.8181183934211731, -0.5529614686965942, 0.05498969554901123, 0.1480138897895813, -1.509036898612976, -8.711203575134277, 4.222288608551025, -3.829561233520508, 86.88345336914062, -29.18909454345703, -0.196044921875, 0.83056640625, -0.345947265625, 
322, 3188090362, 0.8178853392601013, -0.5542894005775452, 0.05905662477016449, 0.1426718831062317, -1.5492606163024902, -8.832807540893555, 4.082856178283691, -4.883288860321045, 88.5599365234375, -29.8361759185791, -0.201416015625, 0.822021484375, -0.3525390625, 
323, 3188098695, 0.8175969123840332, -0.55563884973526, 0.06317606568336487, 0.1372063308954239, -1.5904642343521118, -8.825305938720703, 3.9634599685668945, -5.3765740394592285, 90.20431518554688, -30.66425132751465, -0.2021484375, 0.813232421875, -0.355224609375, 
324, 3188107028, 0.8172637224197388, -0.5569700598716736, 0.06736113131046295, 0.1316933035850525, -1.6411817073822021, -8.573405265808105, 3.913496255874634, -5.315919876098633, 91.28427124023438, -30.665002822875977, -0.210205078125, 0.803466796875, -0.358642578125, 
325, 3188115361, 0.8168920874595642, -0.5582659244537354, 0.07159841060638428, 0.12615935504436493, -1.6658034324645996, -8.395251274108887, 3.8978912830352783, -5.133084297180176, 92.03125762939453, -30.32548713684082, -0.20849609375, 0.792236328125, -0.36328125, 
326, 3188123694, 0.8164848685264587, -0.5595309734344482, 0.07588855922222137, 0.12055930495262146, -1.544220209121704, -8.65681266784668, 3.8542299270629883, -4.869691848754883, 93.08682250976562, -30.642749786376953, -0.209716796875, 0.78271484375, -0.365966796875, 
327, 3188132027, 0.8160423636436462, -0.560759961605072, 0.08024673163890839, 0.11488933861255646, -1.5352892875671387, -8.866413116455078, 3.7279484272003174, -4.590417861938477, 94.39276123046875, -30.7356014251709, -0.2138671875, 0.77197265625, -0.36767578125, 
328, 3188140360, 0.8156110644340515, -0.5618908405303955, 0.08462271094322205, 0.10914292931556702, -1.6000982522964478, -8.915987014770508, 3.6341195106506348, -3.2509617805480957, 94.98629760742188, -31.438783645629883, -0.217529296875, 0.760498046875, -0.37109375, 
329, 3188148693, 0.8152100443840027, -0.5628970265388489, 0.08900280296802521, 0.10331571102142334, -1.5776333808898926, -8.984991073608398, 3.6580429077148438, -1.5593574047088623, 95.46292114257812, -32.1373405456543, -0.220458984375, 0.74609375, -0.374755859375, 
330, 3188157026, 0.8147876262664795, -0.5638449192047119, 0.0934024304151535, 0.09742723405361176, -1.5355842113494873, -8.875734329223633, 3.746551990509033, -0.9261166453361511, 96.07150268554688, -32.64686584472656, -0.22314453125, 0.73583984375, -0.378173828125, 
331, 3188165359, 0.8142945766448975, -0.5648040175437927, 0.09785091876983643, 0.09144438803195953, -1.477245807647705, -8.917929649353027, 3.7031896114349365, -1.4584110975265503, 97.48542022705078, -33.165950775146484, -0.224853515625, 0.724365234375, -0.380859375, 
332, 3188173692, 0.8137030601501465, -0.5658004283905029, 0.10238835215568542, 0.08538217842578888, -1.5112887620925903, -9.02287483215332, 3.561807155609131, -2.379124402999878, 99.24637603759766, -33.36970138549805, -0.22705078125, 0.708984375, -0.384033203125, 
333, 3188182025, 0.8130577206611633, -0.5667650699615479, 0.1070086807012558, 0.07924321293830872, -1.6434422731399536, -9.201252937316895, 3.3226537704467773, -2.2839667797088623, 100.83924865722656, -33.395118713378906, -0.23046875, 0.69287109375, -0.383544921875, 
334, 3188190358, 0.8123196959495544, -0.5677448511123657, 0.11172844469547272, 0.0730431079864502, -1.7132765054702759, -9.3258056640625, 2.9773523807525635, -2.9281208515167236, 102.55243682861328, -33.30486297607422, -0.234130859375, 0.681640625, -0.38623046875, 
335, 3188198691, 0.8115271925926208, -0.5686843395233154, 0.1164645105600357, 0.06688594818115234, -1.8146469593048096, -9.208086967468262, 2.894521951675415, -3.0047340393066406, 102.4681625366211, -32.498291015625, -0.233642578125, 0.666748046875, -0.38916015625, 
336, 3188207024, 0.8107367753982544, -0.5695048570632935, 0.12120544910430908, 0.0607881098985672, -1.8729369640350342, -9.28140926361084, 3.049870252609253, -1.7002131938934326, 101.92058563232422, -31.69288444519043, -0.238525390625, 0.652099609375, -0.388427734375, 
337, 3188215357, 0.8099886775016785, -0.570148229598999, 0.1259860098361969, 0.05470651388168335, -1.8742769956588745, -9.540148735046387, 3.0785577297210693, 0.5585368275642395, 102.04197692871094, -30.854061126708984, -0.24072265625, 0.63916015625, -0.390380859375, 
338, 3188223690, 0.8093408346176147, -0.5705344676971436, 0.13079750537872314, 0.048638731241226196, -1.9466191530227661, -9.626350402832031, 2.9328219890594482, 4.262545108795166, 101.88356018066406, -30.17578887939453, -0.24169921875, 0.62255859375, -0.3935546875, 
339, 3188232023, 0.8088549375534058, -0.5705916285514832, 0.13557344675064087, 0.0425993949174881, -1.9993841648101807, -9.600519180297852, 2.866123676300049, 9.063546180725098, 100.77788543701172, -29.56529426574707, -0.241943359375, 0.609619140625, -0.392822265625, 
340, 3188240356, 0.8084913492202759, -0.5703690052032471, 0.1403525471687317, 0.03657849133014679, -1.9380152225494385, -9.452579498291016, 2.779698610305786, 13.159965515136719, 100.25257110595703, -28.975128173828125, -0.244140625, 0.59228515625, -0.389404296875, 
341, 3188248689, 0.8082140684127808, -0.5699291229248047, 0.1450946033000946, 0.030568674206733704, -1.9881478548049927, -9.374261856079102, 2.7210028171539307, 16.155683517456055, 99.50041961669922, -28.675033569335938, -0.247802734375, 0.577392578125, -0.39111328125, 
342, 3188257022, 0.8080001473426819, -0.5693079829216003, 0.14978007972240448, 0.024619117379188538, -2.0390067100524902, -9.313804626464844, 2.6957058906555176, 18.57732391357422, 98.17439270019531, -28.203948974609375, -0.248779296875, 0.561767578125, -0.39501953125, 
343, 3188265355, 0.8078840970993042, -0.5684674978256226, 0.15438885986804962, 0.01865808665752411, -1.8991507291793823, -9.382511138916016, 2.7356417179107666, 21.722421646118164, 97.15584564208984, -28.422719955444336, -0.247802734375, 0.546875, -0.396240234375, 
344, 3188273688, 0.807870090007782, -0.5673980116844177, 0.15893970429897308, 0.012634813785552979, -1.738551139831543, -9.50802230834961, 2.7374794483184814, 25.237701416015625, 96.70460510253906, -29.19722557067871, -0.25244140625, 0.5322265625, -0.393798828125, 
345, 3188282021, 0.8078331351280212, -0.5662633776664734, 0.16347739100456238, 0.0065240561962127686, -1.5680358409881592, -9.301835060119629, 2.5193533897399902, 25.91351890563965, 97.29947662353516, -30.032339096069336, -0.251708984375, 0.51416015625, -0.39453125, 
346, 3188290354, 0.8076510429382324, -0.5652341842651367, 0.16800588369369507, 0.0004244893789291382, -1.64122474193573, -8.846643447875977, 2.237398386001587, 23.644102096557617, 97.42507934570312, -30.298524856567383, -0.254150390625, 0.498046875, -0.391845703125, 
347, 3188298687, 0.8072291612625122, -0.5644454956054688, 0.17253006994724274, -0.00561918318271637, -1.7283813953399658, -8.599870681762695, 2.1401171684265137, 18.918609619140625, 97.5119400024414, -30.166961669921875, -0.25341796875, 0.484130859375, -0.394287109375, 
348, 3188307020, 0.8064470887184143, -0.5640611052513123, 0.17708879709243774, -0.01155756413936615, -1.7434642314910889, -8.594327926635742, 2.0661351680755615, 11.443841934204102, 97.889892578125, -29.813478469848633, -0.25439453125, 0.467041015625, -0.3955078125, 
349, 3188315353, 0.8053109645843506, -0.564081609249115, 0.18166150152683258, -0.017354220151901245, -1.871789813041687, -8.72488784790039, 2.0659725666046143, 3.79948353767395, 97.7530746459961, -29.079362869262695, -0.25830078125, 0.452392578125, -0.3955078125, 
350, 3188323686, 0.8038833141326904, -0.5644264221191406, 0.1862311065196991, -0.02298709750175476, -2.0361268520355225, -9.07547664642334, 2.085207939147949, -2.4019196033477783, 97.08937072753906, -28.26589584350586, -0.2607421875, 0.436767578125, -0.390869140625, 
351, 3188332019, 0.8023386001586914, -0.5648757815361023, 0.1907169073820114, -0.02848067879676819, -2.1293232440948486, -9.43313980102539, 2.0433707237243652, -4.856628894805908, 95.3551254272461, -27.58292579650879, -0.260009765625, 0.424072265625, -0.388671875, 
352, 3188340352, 0.8009070754051208, -0.5651216506958008, 0.19507849216461182, -0.033847615122795105, -2.1881024837493896, -9.810094833374023, 2.0330471992492676, -1.9544076919555664, 92.77552795410156, -26.670886993408203, -0.26171875, 0.406494140625, -0.385498046875, 
353, 3188348685, 0.7997455596923828, -0.5649573802947998, 0.19927948713302612, -0.039166584610939026, -2.2259254455566406, -10.166520118713379, 1.946357011795044, 4.54595947265625, 90.10774230957031, -26.06419563293457, -0.261474609375, 0.391357421875, -0.38427734375, 
354, 3188357018, 0.7988690733909607, -0.5643491148948669, 0.20336461067199707, -0.04446403682231903, -2.2738935947418213, -10.0997896194458, 1.87166166305542, 11.706498146057129, 88.11756134033203, -25.45889663696289, -0.264404296875, 0.3798828125, -0.384521484375, 
355, 3188365351, 0.7982386946678162, -0.5633785128593445, 0.20728985965251923, -0.049665018916130066, -2.4502615928649902, -9.759010314941406, 1.8340339660644531, 17.365921020507812, 85.15017700195312, -24.37329864501953, -0.264892578125, 0.3642578125, -0.383056640625, 
356, 3188373684, 0.7976937294006348, -0.5622659921646118, 0.21108843386173248, -0.05476635694503784, -2.5520262718200684, -9.440413475036621, 1.7040908336639404, 19.448444366455078, 82.83711242675781, -23.899320602416992, -0.265380859375, 0.34912109375, -0.38134765625, 
357, 3188382017, 0.7971067428588867, -0.5611980557441711, 0.21477541327476501, -0.05970871448516846, -2.669771909713745, -9.114928245544434, 1.6236796379089355, 18.197097778320312, 80.47040557861328, -23.077730178833008, -0.26416015625, 0.335205078125, -0.379638671875, 
358, 3188390350, 0.7963108420372009, -0.5603837966918945, 0.21845580637454987, -0.06443607807159424, -2.701375961303711, -8.779970169067383, 1.574546217918396, 13.234174728393555, 79.14799499511719, -21.795413970947266, -0.2626953125, 0.3212890625, -0.3779296875, 
359, 3188398683, 0.7953110337257385, -0.5598404407501221, 0.2220870405435562, -0.06893762946128845, -2.7411139011383057, -8.794702529907227, 1.7364718914031982, 8.005762100219727, 77.23998260498047, -20.59337615966797, -0.26220703125, 0.30908203125, -0.37744140625, 
360, 3188407016, 0.7941113710403442, -0.5595614314079285, 0.22566428780555725, -0.07327897846698761, -2.7964932918548584, -9.15180778503418, 1.7418886423110962, 3.1926395893096924, 75.7794189453125, -20.35676383972168, -0.261962890625, 0.297119140625, -0.375244140625, 
361, 3188415349, 0.7928029894828796, -0.5594097375869751, 0.2291935235261917, -0.07752837240695953, -2.7565395832061768, -9.321614265441895, 1.6329760551452637, 0.6747976541519165, 74.7522201538086, -20.126182556152344, -0.263427734375, 0.283935546875, -0.37109375, 
362, 3188423682, 0.7915245890617371, -0.5592223405838013, 0.23260782659053802, -0.08166369795799255, -2.776125431060791, -9.34132194519043, 1.5762807130813599, 1.1113687753677368, 72.5682373046875, -19.722084045410156, -0.261474609375, 0.271484375, -0.365478515625, 
363, 3188432015, 0.7903507351875305, -0.5588985681533813, 0.23589222133159637, -0.08572660386562347, -2.809568405151367, -9.393494606018066, 1.5628259181976318, 3.264549970626831, 70.41153717041016, -19.280092239379883, -0.259033203125, 0.257080078125, -0.36865234375, 
364, 3188440348, 0.7893417477607727, -0.5583691596984863, 0.23902177810668945, -0.08971267938613892, -2.895491361618042, -9.44480037689209, 1.6441435813903809, 6.749969482421875, 67.85204315185547, -18.874021530151367, -0.25732421875, 0.24853515625, -0.36376953125, 
365, 3188448681, 0.7885088324546814, -0.5576333999633789, 0.2419632375240326, -0.09364087879657745, -2.908325672149658, -9.433125495910645, 1.7598801851272583, 10.331583023071289, 65.02891540527344, -18.694730758666992, -0.25732421875, 0.23681640625, -0.359619140625, 
366, 3188457014, 0.7879204154014587, -0.5566134452819824, 0.24469080567359924, -0.0974963903427124, -2.8789150714874268, -9.505268096923828, 2.0079843997955322, 15.372735977172852, 61.71859359741211, -18.384380340576172, -0.259033203125, 0.224853515625, -0.35888671875, 
367, 3188465347, 0.7875156998634338, -0.555358350276947, 0.2472604364156723, -0.10136327147483826, -2.7386674880981445, -9.540191650390625, 2.099766731262207, 19.527074813842773, 59.77802658081055, -18.58283805847168, -0.256591796875, 0.212646484375, -0.35595703125, 
368, 3188473680, 0.7872669100761414, -0.5538939237594604, 0.24970604479312897, -0.10523875057697296, -2.6778368949890137, -9.398992538452148, 2.0982189178466797, 23.23923110961914, 58.27402877807617, -18.790725708007812, -0.2568359375, 0.205078125, -0.353271484375, 
369, 3188482013, 0.7871419191360474, -0.5522552132606506, 0.2520708441734314, -0.10907894372940063, -2.659681558609009, -9.289361000061035, 2.1839406490325928, 26.012365341186523, 56.945106506347656, -18.150699615478516, -0.256591796875, 0.196533203125, -0.350830078125, 
370, 3188490346, 0.7870076894760132, -0.5506108999252319, 0.2544015645980835, -0.11288352310657501, -2.5175154209136963, -9.068517684936523, 2.2829127311706543, 25.982114791870117, 56.360015869140625, -18.11414909362793, -0.255126953125, 0.18359375, -0.34814453125, 
371, 3188498679, 0.7867124080657959, -0.5491362810134888, 0.25680848956108093, -0.11661158502101898, -2.4710257053375244, -9.04461669921875, 2.405959367752075, 22.488393783569336, 56.89181137084961, -17.45669937133789, -0.25341796875, 0.173583984375, -0.344970703125, 
372, 3188507012, 0.7861037254333496, -0.5480294227600098, 0.2593643069267273, -0.12021289765834808, -2.462916374206543, -8.917829513549805, 2.5511815547943115, 15.50840950012207, 58.07467269897461, -16.859039306640625, -0.25244140625, 0.162353515625, -0.342529296875, 
373, 3188515345, 0.7851720452308655, -0.5473003387451172, 0.2620691657066345, -0.1237049400806427, -2.4336023330688477, -9.068276405334473, 2.640340805053711, 8.301819801330566, 59.37608337402344, -16.33878517150879, -0.251220703125, 0.15283203125, -0.33740234375, 
374, 3188523678, 0.7839869260787964, -0.5468327403068542, 0.26493918895721436, -0.12712834775447845, -2.3910069465637207, -9.384950637817383, 2.6001296043395996, 3.095440149307251, 61.124149322509766, -15.825078964233398, -0.250732421875, 0.142333984375, -0.3359375, 
375, 3188532011, 0.7826806306838989, -0.546448826789856, 0.2679334282875061, -0.13050873577594757, -2.531705141067505, -9.563565254211426, 2.466844081878662, 0.8536871075630188, 62.42530059814453, -14.847474098205566, -0.25146484375, 0.132080078125, -0.330810546875, 
376, 3188540344, 0.7813306450843811, -0.546058177947998, 0.27100127935409546, -0.13385523855686188, -2.6280157566070557, -9.572537422180176, 2.4415388107299805, 0.39424291253089905, 63.14609146118164, -14.079862594604492, -0.245849609375, 0.125732421875, -0.328857421875, 
377, 3188548677, 0.7800338864326477, -0.5455558896064758, 0.27407407760620117, -0.13716888427734375, -2.7355926036834717, -9.515685081481934, 2.5745060443878174, 1.809921145439148, 62.94729232788086, -13.07913589477539, -0.243896484375, 0.1162109375, -0.323486328125, 
378, 3188557010, 0.7788513898849487, -0.5448936223983765, 0.2770814299583435, -0.14044034481048584, -2.7074954509735107, -9.54153060913086, 2.710620164871216, 4.39860725402832, 61.81311798095703, -12.395591735839844, -0.24072265625, 0.109619140625, -0.318603515625, 
379, 3188565343, 0.7777726650238037, -0.5440482497215271, 0.28004807233810425, -0.1437714546918869, -2.4504547119140625, -9.550437927246094, 2.6384522914886475, 7.389592170715332, 61.76655578613281, -12.346541404724121, -0.23828125, 0.0986328125, -0.315673828125, 
380, 3188573676, 0.776846170425415, -0.5429660081863403, 0.282961368560791, -0.14712820947170258, -2.4561927318573, -9.353281021118164, 2.5768747329711914, 11.32131576538086, 61.28501510620117, -11.901927947998047, -0.235595703125, 0.092529296875, -0.309326171875, 
381, 3188582009, 0.7760100364685059, -0.5417317748069763, 0.28579893708229065, -0.15056543052196503, -2.3990705013275146, -9.197912216186523, 2.550509214401245, 14.027803421020508, 61.019805908203125, -12.455429077148438, -0.232421875, 0.083984375, -0.304931640625, 
382, 3188590342, 0.7751660346984863, -0.5404394865036011, 0.2886536121368408, -0.154070645570755, -2.2429614067077637, -9.01459789276123, 2.4005422592163086, 14.879029273986816, 61.873992919921875, -12.939372062683105, -0.229248046875, 0.07568359375, -0.30126953125, 
383, 3188598675, 0.7741732597351074, -0.5392723083496094, 0.2915920615196228, -0.15757957100868225, -2.3083512783050537, -8.625176429748535, 2.1370434761047363, 12.219073295593262, 63.1053466796875, -13.070813179016113, -0.225830078125, 0.067626953125, -0.2958984375, 
384, 3188607008, 0.7729602456092834, -0.5383702516555786, 0.29459017515182495, -0.16100500524044037, -2.438842296600342, -8.468104362487793, 1.92373526096344, 7.356448650360107, 63.443092346191406, -13.376726150512695, -0.22216796875, 0.06005859375, -0.2900390625, 
385, 3188615341, 0.7714630961418152, -0.5378022193908691, 0.2976807951927185, -0.16436399519443512, -2.5403497219085693, -8.72173023223877, 1.66718590259552, 1.1684105396270752, 64.331298828125, -13.871671676635742, -0.220703125, 0.051025390625, -0.2841796875, 
386, 3188623674, 0.7697370052337646, -0.5375345945358276, 0.3008246421813965, -0.16757720708847046, -2.706357955932617, -8.82552719116211, 1.3964684009552002, -4.36762809753418, 64.0929946899414, -13.773696899414062, -0.214599609375, 0.0439453125, -0.278564453125, 
387, 3188632007, 0.7679209113121033, -0.5374467372894287, 0.3038873076438904, -0.17063751816749573, -3.0031228065490723, -8.99427318572998, 1.1242966651916504, -7.442549705505371, 62.04126739501953, -13.613117218017578, -0.2109375, 0.03857421875, -0.275146484375, 
388, 3188640340, 0.766106367111206, -0.5374659299850464, 0.3067919611930847, -0.17351099848747253, -3.0990447998046875, -9.288856506347656, 0.9000310301780701, -8.909811019897461, 58.753204345703125, -13.34469985961914, -0.20751953125, 0.030517578125, -0.268798828125, 
389, 3188648673, 0.7644509077072144, -0.5374370813369751, 0.30944669246673584, -0.17616736888885498, -3.192340612411499, -9.553518295288086, 0.8278374075889587, -7.603862762451172, 53.9400749206543, -12.231931686401367, -0.207275390625, 0.02294921875, -0.2646484375, 
390, 3188657006, 0.7630783319473267, -0.5372148156166077, 0.3117966055870056, -0.17863494157791138, -3.238564968109131, -9.809938430786133, 0.8169587254524231, -3.4894347190856934, 48.624568939208984, -11.082842826843262, -0.203125, 0.016845703125, -0.260009765625, 
391, 3188665339, 0.7620110511779785, -0.53673255443573, 0.3138729929924011, -0.18098896741867065, -3.1502060890197754, -9.998826026916504, 0.7235526442527771, 1.6280052661895752, 44.222755432128906, -9.957244873046875, -0.201904296875, 0.01171875, -0.256103515625, 
392, 3188673672, 0.7612811326980591, -0.535965621471405, 0.3156731128692627, -0.1831897497177124, -3.1248135566711426, -10.014527320861816, 0.723517656326294, 7.1788740158081055, 39.471580505371094, -8.413265228271484, -0.1962890625, 0.00634765625, -0.249267578125, 
393, 3188682005, 0.7608306407928467, -0.5349502563476562, 0.3172534108161926, -0.1852865219116211, -3.0735535621643066, -9.863739013671875, 0.7818655371665955, 11.89358901977539, 35.793209075927734, -7.0714592933654785, -0.196533203125, 0.001708984375, -0.243896484375, 
394, 3188690338, 0.760527491569519, -0.5338218212127686, 0.3187020421028137, -0.1872890144586563, -2.9968807697296143, -9.61443042755127, 0.6988612413406372, 14.131479263305664, 33.3887939453125, -6.27639102935791, -0.195068359375, -0.001708984375, -0.241943359375, 
395, 3188698671, 0.760292649269104, -0.5326917171478271, 0.3200317621231079, -0.1891837865114212, -3.0337932109832764, -9.438478469848633, 0.6108570694923401, 14.445049285888672, 31.036611557006836, -5.749993324279785, -0.189453125, -0.006103515625, -0.238525390625, 
396, 3188707004, 0.7600282430648804, -0.5316933989524841, 0.32129064202308655, -0.19091282784938812, -2.991884469985962, -9.182754516601562, 0.6919522285461426, 12.34618854522705, 28.893922805786133, -5.281301975250244, -0.188720703125, -0.00732421875, -0.234130859375, 
397, 3188715337, 0.759626030921936, -0.530948281288147, 0.32254743576049805, -0.19246134161949158, -2.919830799102783, -9.009552955627441, 0.8035117387771606, 7.864919185638428, 27.47085952758789, -4.802569389343262, -0.1875, -0.011962890625, -0.228515625, 
398, 3188723670, 0.759052574634552, -0.5305096507072449, 0.323811411857605, -0.19380603730678558, -2.928243398666382, -9.012004852294922, 0.8285350203514099, 2.523247003555298, 26.031545639038086, -4.521708965301514, -0.18017578125, -0.01220703125, -0.2275390625, 
399, 3188732003, 0.758377730846405, -0.5303088426589966, 0.32503455877304077, -0.19494709372520447, -3.0125010013580322, -9.068490982055664, 0.7813153862953186, -1.5262506008148193, 23.90868377685547, -3.937063217163086, -0.181396484375, -0.014892578125, -0.2255859375, 
400, 3188740336, 0.7577541470527649, -0.5301863551139832, 0.3261150121688843, -0.19589796662330627, -3.0464513301849365, -9.265141487121582, 0.9564943909645081, -2.4050235748291016, 20.623397827148438, -3.2934281826019287, -0.178466796875, -0.018798828125, -0.22314453125, 
401, 3188748669, 0.7572293281555176, -0.530040442943573, 0.3270385265350342, -0.1967807561159134, -2.9137747287750244, -9.577391624450684, 1.0523571968078613, -1.351535439491272, 18.08223533630371, -3.272245168685913, -0.178466796875, -0.019775390625, -0.2216796875, 
402, 3188757002, 0.756874144077301, -0.5297768115997314, 0.3277859091758728, -0.19761165976524353, -2.8980817794799805, -9.675061225891113, 1.1542515754699707, 1.3817986249923706, 15.455951690673828, -3.109670877456665, -0.1748046875, -0.019287109375, -0.218994140625, 
403, 3188765335, 0.7566795349121094, -0.5294087529182434, 0.3283611536026001, -0.1983868032693863, -2.995788335800171, -9.525123596191406, 1.2177194356918335, 3.833555221557617, 12.786346435546875, -2.793834686279297, -0.17431640625, -0.020751953125, -0.218505859375, 
404, 3188773668, 0.756578803062439, -0.5290060043334961, 0.32881736755371094, -0.19908899068832397, -2.9633874893188477, -9.393391609191895, 1.2617796659469604, 4.894752502441406, 10.718842506408691, -2.572118043899536, -0.17626953125, -0.02392578125, -0.2158203125, 
405, 3188782001, 0.7565444707870483, -0.5286043286323547, 0.32914966344833374, -0.19973552227020264, -2.9874045848846436, -9.348692893981934, 1.2015068531036377, 5.434534549713135, 8.690463066101074, -2.6345267295837402, -0.174072265625, -0.0244140625, -0.215087890625, 
406, 3188790334, 0.7565573453903198, -0.5282453894615173, 0.329362690448761, -0.2002848982810974, -3.099025249481201, -9.202288627624512, 1.1394494771957397, 5.241735935211182, 6.442556858062744, -2.638343334197998, -0.169677734375, -0.023193359375, -0.213623046875, 
407, 3188798667, 0.756538450717926, -0.5280048847198486, 0.32953083515167236, -0.20071353018283844, -3.0891592502593994, -8.95546817779541, 1.0876061916351318, 3.339801788330078, 4.884852409362793, -2.250185012817383, -0.170654296875, -0.024658203125, -0.214111328125, 
408, 3188807000, 0.7564561367034912, -0.5279535055160522, 0.3296506404876709, -0.2009623944759369, -3.1953272819519043, -8.750367164611816, 0.9973931908607483, 0.2442445456981659, 2.8744423389434814, -1.8437639474868774, -0.169677734375, -0.0263671875, -0.211669921875, 
409, 3188815333, 0.7563056349754333, -0.5280998349189758, 0.32973137497901917, -0.20101100206375122, -3.5858683586120605, -8.761926651000977, 1.1165002584457397, -3.1161768436431885, 0.74400395154953, -1.0491591691970825, -0.168212890625, -0.025634765625, -0.209716796875, 
410, 3188823666, 0.7561185359954834, -0.5284210443496704, 0.3297531008720398, -0.2008352279663086, -4.242913722991943, -9.12477970123291, 1.1241462230682373, -6.045421123504639, -1.784006118774414, -0.11966972053050995, -0.1669921875, -0.028076171875, -0.213134765625, 
411, 3188831999, 0.7559340000152588, -0.5288732051849365, 0.32962411642074585, -0.20055139064788818, -3.769916534423828, -9.538392066955566, 0.9951148629188538, -7.468522548675537, -4.541634559631348, -0.6034713387489319, -0.167724609375, -0.025146484375, -0.211669921875, 
412, 3188840332, 0.755797803401947, -0.5293967723846436, 0.32938915491104126, -0.20006905496120453, -3.3095109462738037, -9.442060470581055, 0.8641445636749268, -8.460100173950195, -7.471724033355713, 0.4260031580924988, -0.168212890625, -0.024658203125, -0.214111328125, 
413, 3188848665, 0.7557452321052551, -0.5299749970436096, 0.3290341794490814, -0.19931945204734802, -3.7292957305908203, -9.336129188537598, 0.8199751377105713, -9.300350189208984, -11.223442077636719, 2.3838274478912354, -0.167724609375, -0.025146484375, -0.215576171875, 
414, 3188856998, 0.755888819694519, -0.5304851531982422, 0.3284245729446411, -0.19842180609703064, -3.8834028244018555, -9.615474700927734, 1.174331545829773, -7.1339006423950195, -15.621026992797852, 2.8384296894073486, -0.170166015625, -0.025146484375, -0.214599609375, 
415, 3188865331, 0.7562907338142395, -0.5307646989822388, 0.32761454582214355, -0.19747880101203918, -3.2721800804138184, -10.041290283203125, 1.4062877893447876, -2.5064170360565186, -18.602663040161133, 3.6648597717285156, -0.1728515625, -0.021240234375, -0.218017578125, 
416, 3188873664, 0.7569360733032227, -0.5307295918464661, 0.3266926407814026, -0.19662655889987946, -2.9530367851257324, -9.915692329406738, 1.404740810394287, 3.250037670135498, -19.314613342285156, 3.913984537124634, -0.174560546875, -0.016845703125, -0.217041015625, 
417, 3188881997, 0.7577828168869019, -0.5304369330406189, 0.32567864656448364, -0.1958344429731369, -3.083310127258301, -9.416284561157227, 1.3626723289489746, 7.928799629211426, -20.078109741210938, 4.384633541107178, -0.176025390625, -0.016357421875, -0.220458984375, 
418, 3188890330, 0.7587108016014099, -0.5300901532173157, 0.32455700635910034, -0.19504161179065704, -3.0973684787750244, -9.003423690795898, 1.521641492843628, 9.363045692443848, -21.386566162109375, 4.0017523765563965, -0.178955078125, -0.014892578125, -0.221435546875, 
419, 3188898663, 0.7595361471176147, -0.5299103260040283, 0.3234153389930725, -0.19421248137950897, -2.951582193374634, -8.647473335266113, 1.7129360437393188, 6.778208255767822, -21.884735107421875, 3.2789695262908936, -0.17919921875, -0.01220703125, -0.2255859375, 
420, 3188906996, 0.7601878046989441, -0.5299747586250305, 0.3223280906677246, -0.19329281151294708, -2.803220510482788, -8.648358345031738, 1.7550206184387207, 2.40017032623291, -21.822803497314453, 3.006024122238159, -0.183837890625, -0.0078125, -0.22509765625, 
421, 3188915329, 0.7606183290481567, -0.5303452014923096, 0.3212968707084656, -0.19229716062545776, -2.663876533508301, -8.704324722290039, 1.7513961791992188, -2.8804500102996826, -21.65520668029785, 2.3282454013824463, -0.186279296875, -0.00537109375, -0.22998046875, 
422, 3188923662, 0.7609103918075562, -0.5309374928474426, 0.32026731967926025, -0.1912216991186142, -2.5764150619506836, -8.886959075927734, 1.6718984842300415, -6.583399772644043, -22.162704467773438, 1.7638355493545532, -0.1865234375, -0.002685546875, -0.23095703125, 
423, 3188931995, 0.7611113786697388, -0.5316981077194214, 0.3192089796066284, -0.19007423520088196, -2.4616968631744385, -9.175447463989258, 1.3723503351211548, -9.233962059020996, -23.06491470336914, 1.3910714387893677, -0.189453125, 0.000732421875, -0.236328125, 
424, 3188940328, 0.7612916827201843, -0.5325583219528198, 0.31806761026382446, -0.1888536512851715, -2.4514636993408203, -9.318613052368164, 1.085445523262024, -10.547256469726562, -24.60387420654297, 0.9947422742843628, -0.191162109375, 0.001708984375, -0.23583984375, 
425, 3188948661, 0.7614850997924805, -0.5334922671318054, 0.31681448221206665, -0.1875399649143219, -2.3938708305358887, -9.356667518615723, 0.8505480289459229, -11.320194244384766, -26.739564895629883, 0.9255582094192505, -0.196044921875, 0.004638671875, -0.239013671875, 
426, 3188956994, 0.7617084980010986, -0.5344821810722351, 0.3154451251029968, -0.18611672520637512, -2.346007823944092, -9.417814254760742, 0.5932857990264893, -11.886014938354492, -29.001741409301758, 0.9907979369163513, -0.19677734375, 0.00830078125, -0.244873046875, 
427, 3188965327, 0.7621157765388489, -0.5353922843933105, 0.31382524967193604, -0.1845664232969284, -2.4103004932403564, -9.479305267333984, 0.9668528437614441, -9.580604553222656, -33.19080352783203, 1.362614631652832, -0.200927734375, 0.01123046875, -0.248291015625, 
428, 3188973660, 0.7628070116043091, -0.5360656380653381, 0.3119423985481262, -0.1829402893781662, -2.3806543350219727, -9.78515911102295, 1.5267380475997925, -4.695095062255859, -37.090579986572266, 1.897722601890564, -0.20263671875, 0.0166015625, -0.249267578125, 
429, 3188981993, 0.7638998031616211, -0.5363150238990784, 0.30976206064224243, -0.18134668469429016, -2.4421327114105225, -9.854647636413574, 1.853793740272522, 3.63024640083313, -40.66928482055664, 2.2602415084838867, -0.2041015625, 0.019287109375, -0.252685546875, 
430, 3188990326, 0.7654482126235962, -0.536047637462616, 0.30728721618652344, -0.17981195449829102, -2.7031006813049316, -9.878158569335938, 1.990475058555603, 13.374253273010254, -43.94096755981445, 2.7387943267822266, -0.204833984375, 0.021240234375, -0.258056640625, 
431, 3188998659, 0.7672702670097351, -0.5354402661323547, 0.3046489953994751, -0.17833951115608215, -2.801314353942871, -9.510525703430176, 2.2067770957946777, 19.669689178466797, -45.55614471435547, 3.063610076904297, -0.20654296875, 0.0263671875, -0.260498046875, 
432, 3189006992, 0.7692193388938904, -0.5346953868865967, 0.30193406343460083, -0.17678894102573395, -2.8639206886291504, -9.349738121032715, 2.371924877166748, 21.883380889892578, -47.094905853271484, 4.138540267944336, -0.20947265625, 0.03125, -0.266845703125, 
433, 3189015325, 0.7710701823234558, -0.5340666770935059, 0.29929620027542114, -0.17510411143302917, -2.822791814804077, -9.36281681060791, 2.43137526512146, 19.222925186157227, -47.18485641479492, 5.474453449249268, -0.209716796875, 0.032958984375, -0.269287109375, 
434, 3189023658, 0.7726680636405945, -0.5337340831756592, 0.2968730926513672, -0.173189178109169, -2.9423675537109375, -9.137272834777832, 2.304762840270996, 12.726137161254883, -46.2263298034668, 7.594008445739746, -0.209716796875, 0.03759765625, -0.273193359375, 
435, 3189031991, 0.7738762497901917, -0.5339147448539734, 0.29462918639183044, -0.17105616629123688, -3.1536142826080322, -8.655173301696777, 2.0128445625305176, 3.1306419372558594, -45.59562683105469, 8.272427558898926, -0.213623046875, 0.04296875, -0.275634765625, 
436, 3189040324, 0.7746848464012146, -0.5346452593803406, 0.2926017642021179, -0.1685764491558075, -3.260745048522949, -8.580362319946289, 1.7711849212646484, -7.604907512664795, -45.46942901611328, 10.314066886901855, -0.212646484375, 0.048095703125, -0.278076171875, 
437, 3189048657, 0.7752876877784729, -0.5357169508934021, 0.29059725999832153, -0.16584788262844086, -3.2269093990325928, -8.78975772857666, 1.9317330121994019, -13.767106056213379, -47.060359954833984, 11.348566055297852, -0.21826171875, 0.052001953125, -0.282470703125, 
438, 3189056990, 0.7758438587188721, -0.5368614196777344, 0.28864413499832153, -0.16293089091777802, -2.82057523727417, -9.244173049926758, 2.1656718254089355, -15.795053482055664, -47.838077545166016, 13.274391174316406, -0.220703125, 0.060546875, -0.285888671875, 
439, 3189065323, 0.7764804363250732, -0.5378458499908447, 0.2867431044578552, -0.15998287498950958, -2.6692097187042236, -9.630158424377441, 2.291105031967163, -13.693659782409668, -47.51603698730469, 14.86706256866455, -0.22021484375, 0.064208984375, -0.288818359375, 
440, 3189073656, 0.7773399949073792, -0.5385103225708008, 0.28477028012275696, -0.1570708006620407, -2.9140233993530273, -10.022717475891113, 2.4649367332458496, -8.369189262390137, -48.14836883544922, 15.643073081970215, -0.225830078125, 0.072021484375, -0.290771484375, 
441, 3189081989, 0.7783921957015991, -0.538905143737793, 0.28267866373062134, -0.15425808727741241, -2.9629156589508057, -10.066197395324707, 2.5864040851593018, -3.372480869293213, -48.89597702026367, 15.234089851379395, -0.2236328125, 0.078125, -0.296630859375, 
442, 3189090322, 0.7795863151550293, -0.5391329526901245, 0.28045588731765747, -0.1514640748500824, -2.8465983867645264, -9.700499534606934, 2.3181121349334717, -0.2239713817834854, -50.31789779663086, 14.950922012329102, -0.227294921875, 0.084716796875, -0.299072265625, 
443, 3189098655, 0.7808030843734741, -0.5393444299697876, 0.2781844437122345, -0.14860501885414124, -2.904466152191162, -9.220852851867676, 1.8366340398788452, 0.01433120109140873, -51.41865921020508, 15.458269119262695, -0.230712890625, 0.095947265625, -0.30029296875, 
444, 3189106988, 0.7819768786430359, -0.5396907925605774, 0.2758147120475769, -0.14556124806404114, -3.0584158897399902, -8.89188289642334, 1.1933581829071045, -2.3042118549346924, -53.91176223754883, 16.049169540405273, -0.23193359375, 0.1025390625, -0.30224609375, 
445, 3189115321, 0.7830497622489929, -0.5402753949165344, 0.27333205938339233, -0.1422712504863739, -3.084763765335083, -8.837202072143555, 0.5193852782249451, -6.273432731628418, -57.08969497680664, 16.81194305419922, -0.232666015625, 0.109619140625, -0.30859375, 
