sep=,
PacketCounter,SampleTimeFine,Quat_W,Quat_X,Quat_Y,Quat_Z,Acc_X,Acc_Y,Acc_Z,Gyr_X,Gyr_Y,Gyr_Z,Mag_X,Mag_Y,Mag_Z,
0, 3678087428, 0.7267551422119141, -0.6055840253829956, 0.23340196907520294, -0.22503018379211426, 0, 0, 0, 0, 0, 0, -0.216552734375, 0.896484375, 0.057373046875, 
1, 3678095761, 0.726580023765564, -0.6055965423583984, 0.23384468257427216, -0.22510215640068054, -0.8450326919555664, -9.91086196899414, 1.1773712635040283, -3.0483498573303223, 4.439138889312744, 2.3055500984191895, -0.215087890625, 0.897216796875, 0.060546875, 
2, 3678104094, 0.7265315055847168, -0.6055499315261841, 0.2341223657131195, -0.22509591281414032, -0.8545335531234741, -9.85448169708252, 1.1734299659729004, -1.3115513324737549, 2.341768980026245, 2.2371602058410645, -0.213134765625, 0.896484375, 0.05712890625, 
3, 3678112427, 0.7265599966049194, -0.6054735779762268, 0.2342836558818817, -0.22504132986068726, -0.803109347820282, -9.831387519836426, 1.1572879552841187, 0.005955308675765991, 0.26176464557647705, 2.12958025932312, -0.2158203125, 0.8974609375, 0.05615234375, 
4, 3678120760, 0.7266757488250732, -0.6053745746612549, 0.23429813981056213, -0.22491906583309174, -0.7704538702964783, -9.839937210083008, 1.169215202331543, 1.020150899887085, -1.6230202913284302, 1.882275104522705, -0.214599609375, 0.896484375, 0.05712890625, 
5, 3678129093, 0.7268418669700623, -0.6052576899528503, 0.23422348499298096, -0.22477371990680695, -0.7277284264564514, -9.848370552062988, 1.2264411449432373, 1.9960532188415527, -3.244145154953003, 1.6391699314117432, -0.216064453125, 0.895751953125, 0.057861328125, 
6, 3678137426, 0.7270815968513489, -0.6051260232925415, 0.23402562737464905, -0.22455920279026031, -0.6602784395217896, -9.852677345275879, 1.2743468284606934, 2.736663579940796, -4.8092780113220215, 1.5249563455581665, -0.215087890625, 0.89453125, 0.055419921875, 
7, 3678145759, 0.7273656725883484, -0.6049756407737732, 0.2337469458580017, -0.22433432936668396, -0.5883373022079468, -9.817112922668457, 1.3307075500488281, 3.511673927307129, -5.7899699211120605, 1.1536012887954712, -0.213134765625, 0.89599609375, 0.05615234375, 
8, 3678154092, 0.7276660799980164, -0.6048064827919006, 0.2334338128566742, -0.22414234280586243, -0.5861361026763916, -9.84123706817627, 1.3202799558639526, 4.224902153015137, -6.266062259674072, 0.7003829479217529, -0.21533203125, 0.89794921875, 0.054443359375, 
9, 3678162425, 0.7279722094535828, -0.6046345233917236, 0.23309051990509033, -0.22396984696388245, -0.559272825717926, -9.855189323425293, 1.3299490213394165, 4.456608772277832, -6.489393711090088, 0.29373130202293396, -0.2158203125, 0.89599609375, 0.052001953125, 
10, 3678170758, 0.7282891273498535, -0.6044678688049316, 0.23270848393440247, -0.22378692030906677, -0.598591685295105, -9.76084041595459, 1.3411812782287598, 4.398311138153076, -6.530375957489014, 0.028086014091968536, -0.214599609375, 0.89599609375, 0.055419921875, 
11, 3678179091, 0.7285736799240112, -0.6043227314949036, 0.23233182728290558, -0.22364293038845062, -0.6102463603019714, -9.636554718017578, 1.3813514709472656, 4.201132297515869, -6.6089348793029785, -0.41848546266555786, -0.211669921875, 0.89794921875, 0.0556640625, 
12, 3678187424, 0.7288548946380615, -0.6041913628578186, 0.23192980885505676, -0.223499596118927, -0.6450104117393494, -9.599372863769531, 1.4424976110458374, 3.9380476474761963, -6.395105838775635, -0.7568494081497192, -0.2138671875, 0.89794921875, 0.05419921875, 
13, 3678195757, 0.7290865182876587, -0.6040903925895691, 0.23155641555786133, -0.22340407967567444, -0.6071228981018066, -9.612200736999512, 1.529801845550537, 3.474865436553955, -6.0066657066345215, -1.2011538743972778, -0.212646484375, 0.89697265625, 0.05322265625, 
14, 3678204090, 0.7293055057525635, -0.6039919853210449, 0.23117734491825104, -0.2233479917049408, -0.5932367444038391, -9.622742652893066, 1.6006343364715576, 3.2978456020355225, -5.343565464019775, -1.7370039224624634, -0.21484375, 0.896484375, 0.051513671875, 
15, 3678212423, 0.7294750213623047, -0.6039060950279236, 0.23084893822669983, -0.22336626052856445, -0.5394875407218933, -9.572190284729004, 1.648944616317749, 3.028895854949951, -4.463075637817383, -2.2061028480529785, -0.21484375, 0.897705078125, 0.050537109375, 
16, 3678220756, 0.7296293377876282, -0.6038089990615845, 0.23055127263069153, -0.22343266010284424, -0.49768730998039246, -9.523392677307129, 1.646530270576477, 2.885481834411621, -3.3083600997924805, -2.49308443069458, -0.213623046875, 0.896728515625, 0.051513671875, 
17, 3678229089, 0.7297250032424927, -0.603717029094696, 0.2303362935781479, -0.22358927130699158, -0.4838581383228302, -9.499381065368652, 1.614717960357666, 2.56197452545166, -2.006030321121216, -2.8446147441864014, -0.214599609375, 0.8955078125, 0.052001953125, 
18, 3678237422, 0.7297946214675903, -0.6036317944526672, 0.23014654219150543, -0.22378821671009064, -0.4900629222393036, -9.564316749572754, 1.548335313796997, 2.1518642902374268, -0.8939622640609741, -3.2242937088012695, -0.213134765625, 0.896240234375, 0.049072265625, 
19, 3678245755, 0.729794442653656, -0.6035757064819336, 0.23003540933132172, -0.2240542471408844, -0.50876784324646, -9.494025230407715, 1.5280154943466187, 1.4416842460632324, 0.2950631380081177, -3.511583089828491, -0.21337890625, 0.897705078125, 0.048583984375, 
20, 3678254088, 0.7297220826148987, -0.6035652160644531, 0.22999262809753418, -0.22436213493347168, -0.5069842338562012, -9.392865180969238, 1.5664172172546387, 0.11666003614664078, 1.706048846244812, -3.7716190814971924, -0.2158203125, 0.8955078125, 0.050537109375, 
21, 3678262421, 0.729533851146698, -0.6036328673362732, 0.23005089163780212, -0.2247319221496582, -0.5036386251449585, -9.392017364501953, 1.558972954750061, -1.5596506595611572, 2.9785637855529785, -4.101428031921387, -0.21630859375, 0.8955078125, 0.051513671875, 
22, 3678270754, 0.7292742133140564, -0.6037653684616089, 0.23014506697654724, -0.22512191534042358, -0.5777367353439331, -9.476871490478516, 1.5388522148132324, -3.0349793434143066, 3.9111781120300293, -4.48920202255249, -0.21728515625, 0.898681640625, 0.044189453125, 
23, 3678279087, 0.7289180755615234, -0.6039481163024902, 0.23033156991004944, -0.22559359669685364, -0.5957329273223877, -9.53968620300293, 1.521588683128357, -4.209034442901611, 4.9157185554504395, -4.879153728485107, -0.21728515625, 0.896484375, 0.050537109375, 
24, 3678287420, 0.7285396456718445, -0.604157567024231, 0.23051699995994568, -0.22606539726257324, -0.6458308696746826, -9.614767074584961, 1.4856061935424805, -4.815783500671387, 5.643418788909912, -5.162728786468506, -0.21728515625, 0.896484375, 0.051513671875, 
25, 3678295753, 0.7281456589698792, -0.604373574256897, 0.23071756958961487, -0.22655247151851654, -0.6856489181518555, -9.687051773071289, 1.477597951889038, -5.010094165802002, 5.950174331665039, -5.260754585266113, -0.21630859375, 0.89599609375, 0.052978515625, 
26, 3678304086, 0.7277222871780396, -0.604592502117157, 0.23097315430641174, -0.2270679622888565, -0.7017974853515625, -9.750699043273926, 1.4617105722427368, -5.179992198944092, 6.458258152008057, -5.130557060241699, -0.21826171875, 0.8955078125, 0.051513671875, 
27, 3678312419, 0.7272906303405762, -0.6048123836517334, 0.23126091063022614, -0.22757139801979065, -0.7238396406173706, -9.816635131835938, 1.4063020944595337, -5.395663738250732, 6.7280778884887695, -4.778719425201416, -0.2197265625, 0.895263671875, 0.052490234375, 
28, 3678320752, 0.7268528938293457, -0.6050460934638977, 0.23155471682548523, -0.22804954648017883, -0.7484068274497986, -9.88940143585205, 1.3700494766235352, -5.86922025680542, 6.8935723304748535, -4.587484359741211, -0.2216796875, 0.893310546875, 0.052734375, 
29, 3678329085, 0.7264242172241211, -0.605269193649292, 0.23187531530857086, -0.2284972071647644, -0.7505820393562317, -9.952743530273438, 1.3400981426239014, -5.675167560577393, 6.634023666381836, -3.960294485092163, -0.2197265625, 0.89501953125, 0.051513671875, 
30, 3678337418, 0.7260255813598633, -0.6054742932319641, 0.2321767956018448, -0.22891443967819214, -0.7669267654418945, -9.979740142822266, 1.3558323383331299, -5.478834629058838, 6.427829742431641, -3.7016420364379883, -0.22021484375, 0.897216796875, 0.053955078125, 
31, 3678345751, 0.725662112236023, -0.6056498289108276, 0.23246923089027405, -0.2293059229850769, -0.7681630849838257, -10.071009635925293, 1.3506946563720703, -4.742270469665527, 5.911778450012207, -3.2919158935546875, -0.22314453125, 0.893310546875, 0.0546875, 
32, 3678354084, 0.7253736853599548, -0.605754554271698, 0.2327224612236023, -0.22968441247940063, -0.8027763366699219, -10.173755645751953, 1.3501466512680054, -3.5292575359344482, 5.587143898010254, -3.047633171081543, -0.22265625, 0.894775390625, 0.05224609375, 
33, 3678362417, 0.7251664996147156, -0.6057732701301575, 0.23294572532176971, -0.2300620675086975, -0.776752769947052, -10.223761558532715, 1.323378324508667, -1.7070609331130981, 4.96533203125, -2.7163896560668945, -0.22265625, 0.894775390625, 0.054931640625, 
34, 3678370750, 0.7250744104385376, -0.605704665184021, 0.23309946060180664, -0.2303769588470459, -0.7876540422439575, -10.266327857971191, 1.2987191677093506, -0.0551474466919899, 3.9859209060668945, -2.067401885986328, -0.2255859375, 0.894287109375, 0.05126953125, 
35, 3678379083, 0.7250549793243408, -0.6055695414543152, 0.23323455452919006, -0.23065656423568726, -0.7675237655639648, -10.277823448181152, 1.3430231809616089, 1.3588734865188599, 3.1295855045318604, -1.3829892873764038, -0.22607421875, 0.89404296875, 0.05419921875, 
36, 3678387416, 0.7251158356666565, -0.6053813099861145, 0.2333383560180664, -0.23085425794124603, -0.725517749786377, -10.21338939666748, 1.3794023990631104, 2.19315505027771, 2.4007327556610107, -0.44681471586227417, -0.22607421875, 0.89208984375, 0.05224609375, 
37, 3678395749, 0.7251706123352051, -0.6051909327507019, 0.23349548876285553, -0.23102238774299622, -0.6925951838493347, -10.086472511291504, 1.4378478527069092, 2.085984945297241, 2.0815792083740234, 0.3666805922985077, -0.224609375, 0.893310546875, 0.0537109375, 
38, 3678404082, 0.7252476811408997, -0.6050146818161011, 0.2336556762456894, -0.23108020424842834, -0.6924551129341125, -10.04702377319336, 1.462526559829712, 1.5823578834533691, 1.7089946269989014, 1.4309520721435547, -0.22607421875, 0.896240234375, 0.05224609375, 
39, 3678412415, 0.7252998352050781, -0.6048672199249268, 0.23386558890342712, -0.23109032213687897, -0.68033766746521, -10.054149627685547, 1.4613653421401978, 0.9762994647026062, 1.4477550983428955, 2.1885955333709717, -0.22216796875, 0.893310546875, 0.05029296875, 
40, 3678420748, 0.7253711819648743, -0.604721188545227, 0.2340804636478424, -0.2310311645269394, -0.6399558782577515, -10.041608810424805, 1.4765411615371704, 0.6833237409591675, 1.2055467367172241, 2.9376070499420166, -0.22265625, 0.893798828125, 0.04931640625, 
41, 3678429081, 0.7254566550254822, -0.6045567393302917, 0.23432683944702148, -0.23094327747821808, -0.6304777264595032, -10.003697395324707, 1.4694257974624634, 0.994511067867279, 0.9751978516578674, 3.6251187324523926, -0.22119140625, 0.893310546875, 0.05126953125, 
42, 3678437414, 0.7256052494049072, -0.6043483018875122, 0.23453329503536224, -0.23081201314926147, -0.6162420511245728, -10.010845184326172, 1.460754632949829, 1.743701696395874, 0.4678824245929718, 4.033128261566162, -0.22412109375, 0.893310546875, 0.0498046875, 
43, 3678445747, 0.7258137464523315, -0.604085385799408, 0.23471525311470032, -0.2306595742702484, -0.606145977973938, -9.94909381866455, 1.4811707735061646, 2.7927839756011963, 0.02872636169195175, 4.405174732208252, -0.2236328125, 0.895751953125, 0.05078125, 
44, 3678454080, 0.7260639071464539, -0.6037804484367371, 0.2348751574754715, -0.23050841689109802, -0.5582664608955383, -9.905899047851562, 1.4975682497024536, 3.83577036857605, -0.5173307657241821, 4.5181074142456055, -0.22265625, 0.89501953125, 0.04736328125, 
45, 3678462413, 0.7263575792312622, -0.6034349799156189, 0.23501214385032654, -0.23034828901290894, -0.4951229989528656, -9.845723152160645, 1.5452958345413208, 4.636599063873291, -0.9856101870536804, 4.7121357917785645, -0.22265625, 0.89599609375, 0.04443359375, 
46, 3678470746, 0.7267100811004639, -0.6030429601669312, 0.23512591421604156, -0.2301473617553711, -0.4233730435371399, -9.72229290008545, 1.6039596796035767, 5.3364057540893555, -1.110069751739502, 5.197064399719238, -0.2197265625, 0.89501953125, 0.048583984375, 
47, 3678479079, 0.7270719408988953, -0.6026328206062317, 0.23526600003242493, -0.22993485629558563, -0.3972364366054535, -9.619462013244629, 1.5449525117874146, 5.680047512054443, -1.1886030435562134, 5.652460098266602, -0.21728515625, 0.89501953125, 0.045654296875, 
48, 3678487412, 0.7274516224861145, -0.6022055745124817, 0.2354118824005127, -0.2297041267156601, -0.39496520161628723, -9.582990646362305, 1.5369950532913208, 5.715957164764404, -1.0134271383285522, 5.9617767333984375, -0.220703125, 0.896484375, 0.046875, 
49, 3678495745, 0.7278079986572266, -0.601784884929657, 0.23560744524002075, -0.22947746515274048, -0.39397504925727844, -9.5084867477417, 1.4987653493881226, 5.517447471618652, -0.7284944653511047, 6.278907299041748, -0.21923828125, 0.89501953125, 0.048095703125, 
50, 3678504078, 0.7281540632247925, -0.6013772487640381, 0.235816091299057, -0.22923389077186584, -0.42313331365585327, -9.395360946655273, 1.492600440979004, 5.001883506774902, -0.4444325566291809, 6.441403388977051, -0.215576171875, 0.8935546875, 0.047607421875, 
51, 3678512411, 0.728472888469696, -0.6009811758995056, 0.23607495427131653, -0.22899258136749268, -0.33312785625457764, -9.23788833618164, 1.5165072679519653, 4.715439796447754, -0.10947523266077042, 6.743677139282227, -0.2158203125, 0.896728515625, 0.043701171875, 
52, 3678520744, 0.7287582755088806, -0.600609302520752, 0.23636841773986816, -0.22875741124153137, -0.32206961512565613, -9.106035232543945, 1.5323375463485718, 3.90295672416687, 0.5579422116279602, 6.749902248382568, -0.21484375, 0.898193359375, 0.043212890625, 
53, 3678529077, 0.7289587259292603, -0.6003047823905945, 0.23672418296337128, -0.22854971885681152, -0.3487485349178314, -9.141904830932617, 1.4942656755447388, 2.6244218349456787, 1.2572619915008545, 6.539557933807373, -0.2177734375, 0.897705078125, 0.042724609375, 
54, 3678537410, 0.729086697101593, -0.6000692844390869, 0.23710668087005615, -0.22836348414421082, -0.39167672395706177, -9.157760620117188, 1.470330834388733, 1.1142576932907104, 1.938113808631897, 6.055908679962158, -0.21484375, 0.898193359375, 0.042236328125, 
55, 3678545743, 0.7291277050971985, -0.5999035835266113, 0.23753081262111664, -0.2282269299030304, -0.39874300360679626, -9.09974479675293, 1.515494704246521, -0.07738060504198074, 2.4464027881622314, 5.468856334686279, -0.2119140625, 0.8974609375, 0.035400390625, 
56, 3678554076, 0.7291321754455566, -0.599776029586792, 0.2379423975944519, -0.22811928391456604, -0.3717454969882965, -9.094978332519531, 1.5172266960144043, -0.8221400380134583, 2.9427554607391357, 4.768359184265137, -0.21240234375, 0.896484375, 0.037841796875, 
57, 3678562409, 0.7290888428688049, -0.5996694564819336, 0.2383764088153839, -0.2280850112438202, -0.4149666726589203, -9.146432876586914, 1.4935654401779175, -1.058508276939392, 3.553091287612915, 4.059228420257568, -0.2119140625, 0.89599609375, 0.042236328125, 
58, 3678570742, 0.7290415167808533, -0.5995461344718933, 0.238791823387146, -0.22812631726264954, -0.46741726994514465, -9.16065788269043, 1.4801007509231567, -0.815070629119873, 4.364858150482178, 3.1300723552703857, -0.2119140625, 0.89892578125, 0.039306640625, 
59, 3678579075, 0.7289756536483765, -0.5994188189506531, 0.23921120166778564, -0.22823184728622437, -0.5505889058113098, -9.177772521972656, 1.5253045558929443, -0.7304155230522156, 5.006955623626709, 2.474168539047241, -0.2099609375, 0.8984375, 0.043212890625, 
60, 3678587408, 0.7288517355918884, -0.5993167161941528, 0.2396618127822876, -0.22842299938201904, -0.6019441485404968, -9.205660820007324, 1.5442146062850952, -1.091115117073059, 5.69818115234375, 1.6930370330810547, -0.21240234375, 0.89990234375, 0.041748046875, 
61, 3678595741, 0.728689968585968, -0.5992600321769714, 0.24008898437023163, -0.22863979637622833, -0.6851885914802551, -9.294214248657227, 1.6078617572784424, -1.8865394592285156, 6.0985822677612305, 0.8890060186386108, -0.21142578125, 0.89697265625, 0.043212890625, 
62, 3678604074, 0.7284409999847412, -0.5992714762687683, 0.2405657321214676, -0.2289012223482132, -0.8058640360832214, -9.30816650390625, 1.655059814453125, -3.1021652221679688, 6.698877811431885, 0.4216999411582947, -0.212158203125, 0.894775390625, 0.041259765625, 
63, 3678612407, 0.728126585483551, -0.5993576049804688, 0.24106699228286743, -0.2291480004787445, -0.8883413076400757, -9.312561988830566, 1.699282169342041, -4.521809101104736, 6.778128147125244, 0.3212409019470215, -0.21044921875, 0.89794921875, 0.043701171875, 
64, 3678620740, 0.7277809381484985, -0.5994972586631775, 0.24156612157821655, -0.22935527563095093, -0.9209769368171692, -9.307896614074707, 1.7531360387802124, -5.625731468200684, 6.729025840759277, 0.34864816069602966, -0.2119140625, 0.89599609375, 0.040771484375, 
65, 3678629073, 0.7273628115653992, -0.5997158288955688, 0.24207569658756256, -0.2295728325843811, -0.9519686102867126, -9.488689422607422, 1.7588937282562256, -6.831317901611328, 6.4928131103515625, -0.07679148763418198, -0.208740234375, 0.89794921875, 0.04248046875, 
66, 3678637406, 0.7269335985183716, -0.5999652743339539, 0.24255715310573578, -0.22977215051651, -1.0027670860290527, -9.774443626403809, 1.768892765045166, -7.3848652839660645, 6.419093132019043, -0.3455103933811188, -0.2119140625, 0.898681640625, 0.046142578125, 
67, 3678645739, 0.7265148758888245, -0.6001960039138794, 0.2430257350206375, -0.22999848425388336, -1.0233863592147827, -9.902948379516602, 1.8177096843719482, -6.797558307647705, 6.18142032623291, -0.558646559715271, -0.2138671875, 0.897705078125, 0.043212890625, 
68, 3678654072, 0.7261814475059509, -0.6003496050834656, 0.24341917037963867, -0.23023484647274017, -1.0146546363830566, -10.00627613067627, 1.831742286682129, -5.23496150970459, 5.828712463378906, -0.8192458748817444, -0.21142578125, 0.89794921875, 0.043212890625, 
69, 3678662405, 0.7259502410888672, -0.600376307964325, 0.24376800656318665, -0.23052501678466797, -1.031847596168518, -10.113479614257812, 1.8921563625335693, -2.6319398880004883, 5.4438581466674805, -0.899367094039917, -0.2109375, 0.8974609375, 0.044189453125, 
70, 3678670738, 0.7258726358413696, -0.6002423167228699, 0.24402868747711182, -0.23084226250648499, -1.0976231098175049, -10.182279586791992, 1.9182310104370117, 0.44062891602516174, 5.224164009094238, -0.9484183192253113, -0.21044921875, 0.8974609375, 0.045166015625, 
71, 3678679071, 0.7259016036987305, -0.599975049495697, 0.2442508339881897, -0.23121078312397003, -1.198866844177246, -10.132649421691895, 1.8621515035629272, 3.118238687515259, 4.975706100463867, -0.9335620999336243, -0.2119140625, 0.896484375, 0.042236328125, 
72, 3678687404, 0.7260361909866333, -0.5996106863021851, 0.24440902471542358, -0.23156556487083435, -1.295760154724121, -10.045356750488281, 1.8242855072021484, 4.941280841827393, 4.529352188110352, -0.7214249968528748, -0.21142578125, 0.897216796875, 0.044677734375, 
73, 3678695737, 0.7262054085731506, -0.5992110371589661, 0.24455693364143372, -0.2319135069847107, -1.2844293117523193, -9.970669746398926, 1.7621458768844604, 5.76733922958374, 4.0964202880859375, -0.46781834959983826, -0.2119140625, 0.896484375, 0.042236328125, 
74, 3678704070, 0.7264069318771362, -0.5987999439239502, 0.24469178915023804, -0.2322022169828415, -1.2291638851165771, -9.83993911743164, 1.7328503131866455, 5.812702178955078, 3.6758346557617188, 0.11589159816503525, -0.210205078125, 0.89697265625, 0.044189453125, 
75, 3678712403, 0.7265384793281555, -0.5984552502632141, 0.24488601088523865, -0.23247352242469788, -1.2287143468856812, -9.798038482666016, 1.689572811126709, 4.480198860168457, 3.6378743648529053, 0.4056398570537567, -0.212890625, 0.89794921875, 0.038818359375, 
76, 3678720736, 0.7266227006912231, -0.5981946587562561, 0.24508267641067505, -0.23267440497875214, -1.2178000211715698, -9.8682279586792, 1.6295236349105835, 2.849699020385742, 3.486673593521118, 0.6208761930465698, -0.21044921875, 0.89990234375, 0.038818359375, 
77, 3678729069, 0.7266244292259216, -0.5980173945426941, 0.24534010887145996, -0.2328527718782425, -1.203317642211914, -9.93940544128418, 1.5511616468429565, 1.2257049083709717, 3.440772533416748, 0.8643906712532043, -0.2138671875, 0.8974609375, 0.039794921875, 
78, 3678737402, 0.7266212105751038, -0.5978824496269226, 0.24556459486484528, -0.2329728901386261, -1.1870639324188232, -9.936899185180664, 1.4668669700622559, 0.5141416788101196, 2.991422414779663, 0.9537075161933899, -0.20849609375, 0.899658203125, 0.038330078125, 
79, 3678745735, 0.7266049385070801, -0.5977786779403687, 0.2457852065563202, -0.2330569326877594, -1.1633623838424683, -9.93256664276123, 1.40830397605896, 0.1527761071920395, 2.238722562789917, 1.1743230819702148, -0.2119140625, 0.89794921875, 0.038330078125, 
80, 3678754068, 0.7266320586204529, -0.5976626873016357, 0.24595972895622253, -0.2330857217311859, -1.1685984134674072, -10.011920928955078, 1.3223904371261597, 0.4240564703941345, 1.576901912689209, 1.4888657331466675, -0.21142578125, 0.89794921875, 0.036376953125, 
81, 3678762401, 0.7267143130302429, -0.5975094437599182, 0.24608877301216125, -0.2330860197544098, -1.2324126958847046, -9.996353149414062, 1.241212248802185, 1.4653518199920654, 0.40838053822517395, 1.7459814548492432, -0.21337890625, 0.89892578125, 0.036865234375, 
82, 3678770734, 0.7268986105918884, -0.597307026386261, 0.2461124062538147, -0.23300501704216003, -1.2690757513046265, -9.941143035888672, 1.23076593875885, 2.6933751106262207, -1.0879390239715576, 2.1422078609466553, -0.21240234375, 0.89697265625, 0.038818359375, 
83, 3678779067, 0.7271729707717896, -0.5970419049263, 0.2460545003414154, -0.23288992047309875, -1.2579100131988525, -9.82292652130127, 1.233018159866333, 4.3623480796813965, -2.8628005981445312, 2.3796777725219727, -0.21142578125, 0.89697265625, 0.036865234375, 
84, 3678787400, 0.7275746464729309, -0.5967227220535278, 0.24586451053619385, -0.23265370726585388, -1.2928061485290527, -9.748416900634766, 1.2066919803619385, 5.802969455718994, -4.859071254730225, 3.0316882133483887, -0.208984375, 0.898681640625, 0.038330078125, 
85, 3678795733, 0.7280648350715637, -0.596352756023407, 0.24558624625205994, -0.2323627471923828, -1.258098840713501, -9.634276390075684, 1.2330458164215088, 7.316361427307129, -6.677529335021973, 3.3290696144104004, -0.2109375, 0.8974609375, 0.037353515625, 
86, 3678804066, 0.7286707162857056, -0.5959162712097168, 0.24518343806266785, -0.23200899362564087, -1.1752727031707764, -9.614535331726074, 1.1790715456008911, 8.93679428100586, -8.267815589904785, 3.512467861175537, -0.2099609375, 0.895751953125, 0.033935546875, 
87, 3678812399, 0.7293461561203003, -0.595433235168457, 0.2446981966495514, -0.2316385805606842, -1.0975430011749268, -9.610698699951172, 1.1744028329849243, 10.3699369430542, -9.563612937927246, 3.378889322280884, -0.208984375, 0.897705078125, 0.033447265625, 
88, 3678820732, 0.7300930619239807, -0.5949082970619202, 0.24410754442214966, -0.2312573939561844, -1.0284922122955322, -9.490038871765137, 1.1579768657684326, 11.485053062438965, -10.570432662963867, 2.9957005977630615, -0.20703125, 0.899169921875, 0.034423828125, 
89, 3678829065, 0.7308691740036011, -0.594369649887085, 0.24345944821834564, -0.2308739870786667, -0.974006175994873, -9.32627010345459, 1.1315110921859741, 12.22607421875, -11.56091022491455, 2.6958858966827393, -0.20849609375, 0.899169921875, 0.031005859375, 
90, 3678837398, 0.7316701412200928, -0.5938441753387451, 0.24271510541439056, -0.2304723560810089, -0.9375929236412048, -9.261293411254883, 1.0972490310668945, 12.352837562561035, -12.457740783691406, 2.1180031299591064, -0.20849609375, 0.898193359375, 0.031005859375, 
91, 3678845731, 0.7324358224868774, -0.593368411064148, 0.24192485213279724, -0.23009562492370605, -0.9002830386161804, -9.281064987182617, 1.118129849433899, 11.98558235168457, -13.128144264221191, 1.2289328575134277, -0.20703125, 0.8994140625, 0.026123046875, 
92, 3678854064, 0.7331922650337219, -0.5929304957389832, 0.2410643994808197, -0.22971796989440918, -0.7929710745811462, -9.292985916137695, 1.1559232473373413, 11.55516242980957, -13.56092357635498, 0.49608391523361206, -0.2080078125, 0.89892578125, 0.026611328125, 
93, 3678862397, 0.7339150905609131, -0.5925326347351074, 0.2401866614818573, -0.22935549914836884, -0.7000612020492554, -9.329085350036621, 1.1609927415847778, 11.180397987365723, -13.978998184204102, -0.02832935005426407, -0.20849609375, 0.900390625, 0.022216796875, 
94, 3678870730, 0.7346240282058716, -0.5921605825424194, 0.2392871081829071, -0.22898657619953156, -0.6128149032592773, -9.429431915283203, 1.1542418003082275, 10.65796947479248, -13.9357328414917, -0.2775302827358246, -0.2080078125, 0.899169921875, 0.01806640625, 
95, 3678879063, 0.7352787256240845, -0.5918207764625549, 0.23843327164649963, -0.2286543846130371, -0.501788318157196, -9.548027038574219, 1.1436094045639038, 10.04814624786377, -13.771368026733398, -0.4819319546222687, -0.20751953125, 0.900390625, 0.024169921875, 
96, 3678887396, 0.7359346151351929, -0.5914922952651978, 0.2375517636537552, -0.22831210494041443, -0.4351012408733368, -9.587157249450684, 1.1656591892242432, 9.813596725463867, -13.498958587646484, -0.7104365229606628, -0.20751953125, 0.89990234375, 0.022705078125, 
97, 3678895729, 0.7365497946739197, -0.5911896824836731, 0.23670923709869385, -0.227987140417099, -0.3496462404727936, -9.695052146911621, 1.2301758527755737, 9.371442794799805, -13.240564346313477, -0.7684272527694702, -0.20654296875, 0.901611328125, 0.021728515625, 
98, 3678904062, 0.7371578812599182, -0.5908931493759155, 0.2358740270137787, -0.22765600681304932, -0.243459090590477, -9.783697128295898, 1.240889549255371, 8.993171691894531, -12.882680892944336, -0.7013946771621704, -0.20654296875, 0.899169921875, 0.020263671875, 
99, 3678912395, 0.7377259135246277, -0.5906082391738892, 0.23511099815368652, -0.22734448313713074, -0.19697168469429016, -9.790212631225586, 1.221940517425537, 8.612468719482422, -12.217302322387695, -0.45772650837898254, -0.205078125, 0.900146484375, 0.018310546875, 
100, 3678920728, 0.7382791042327881, -0.5903298854827881, 0.2343975007534027, -0.22700810432434082, -0.14302748441696167, -9.779732704162598, 1.211151361465454, 7.9658379554748535, -11.571516036987305, 0.10941123962402344, -0.205078125, 0.900634765625, 0.018798828125, 
101, 3678929061, 0.7387487888336182, -0.5901148915290833, 0.2337968945503235, -0.22665759921073914, -0.10746076703071594, -9.785285949707031, 1.265221357345581, 6.480312347412109, -10.768251419067383, 0.7278669476509094, -0.20654296875, 0.899169921875, 0.01806640625, 
102, 3678937394, 0.739166796207428, -0.5899451375007629, 0.2332872450351715, -0.22626177966594696, -0.040996864438056946, -9.769831657409668, 1.275494933128357, 4.938309669494629, -9.885021209716797, 1.5970861911773682, -0.205078125, 0.899169921875, 0.019287109375, 
103, 3678945727, 0.7394824624061584, -0.5898481607437134, 0.23292595148086548, -0.2258547991514206, -0.027345973998308182, -9.688502311706543, 1.2960797548294067, 3.1102218627929688, -8.677924156188965, 2.3965067863464355, -0.20556640625, 0.89990234375, 0.01318359375, 
104, 3678954060, 0.739711344242096, -0.5898290276527405, 0.23267284035682678, -0.22541609406471252, -0.023295290768146515, -9.545999526977539, 1.3493318557739258, 0.9384416341781616, -7.488579273223877, 3.0436246395111084, -0.2060546875, 0.901123046875, 0.016357421875, 
105, 3678962393, 0.7397921085357666, -0.58992999792099, 0.2325657159090042, -0.22499708831310272, -0.04669376090168953, -9.457529067993164, 1.434800148010254, -1.6331124305725098, -6.0973405838012695, 3.237037420272827, -0.20751953125, 0.898681640625, 0.01416015625, 
106, 3678970726, 0.7397777438163757, -0.5901179909706116, 0.2325439602136612, -0.22457291185855865, -0.10684485733509064, -9.413166999816895, 1.4952043294906616, -3.8123462200164795, -4.880331039428711, 3.3563482761383057, -0.20263671875, 0.90087890625, 0.017333984375, 
107, 3678979059, 0.7396461963653564, -0.5903985500335693, 0.23258712887763977, -0.22422412037849426, -0.1330699622631073, -9.417304992675781, 1.5510183572769165, -5.41953706741333, -3.884937047958374, 2.5222208499908447, -0.203125, 0.9013671875, 0.016845703125, 
108, 3678987392, 0.7394583821296692, -0.5907251834869385, 0.23263821005821228, -0.22393009066581726, -0.18298570811748505, -9.407143592834473, 1.6129146814346313, -6.4382147789001465, -2.955575466156006, 1.6445235013961792, -0.20263671875, 0.899169921875, 0.016845703125, 
109, 3678995725, 0.7392154932022095, -0.5910805463790894, 0.23271028697490692, -0.22371956706047058, -0.22875428199768066, -9.41057014465332, 1.6783665418624878, -6.726170539855957, -2.3059475421905518, 0.7699767351150513, -0.2041015625, 0.900634765625, 0.020263671875, 
110, 3679004058, 0.7389745712280273, -0.5914247035980225, 0.2327597439289093, -0.22355401515960693, -0.3307287395000458, -9.390624046325684, 1.7158044576644897, -6.633856296539307, -1.8140512704849243, 0.10523608326911926, -0.20263671875, 0.899169921875, 0.019775390625, 
111, 3679012391, 0.7387041449546814, -0.5917677283287048, 0.23283085227012634, -0.22346599400043488, -0.3889996111392975, -9.399881362915039, 1.7394766807556152, -6.434475421905518, -1.2473620176315308, -0.5119005441665649, -0.20263671875, 0.899169921875, 0.022705078125, 
112, 3679020724, 0.738447904586792, -0.5920896530151367, 0.23287643492221832, -0.22341284155845642, -0.4444406032562256, -9.427491188049316, 1.7712078094482422, -6.1568427085876465, -0.8208850622177124, -1.0434983968734741, -0.20166015625, 0.900146484375, 0.023193359375, 
113, 3679029057, 0.7381818294525146, -0.5924040079116821, 0.2329317033290863, -0.2234010100364685, -0.49847641587257385, -9.407232284545898, 1.8281320333480835, -5.814584732055664, -0.7001907825469971, -1.3084263801574707, -0.20458984375, 0.899169921875, 0.023193359375, 
114, 3679037390, 0.7379146814346313, -0.592725396156311, 0.23296456038951874, -0.2233963906764984, -0.5069366097450256, -9.398895263671875, 1.8893558979034424, -6.047496318817139, -0.5193287134170532, -1.6720718145370483, -0.20263671875, 0.899169921875, 0.024658203125, 
115, 3679045723, 0.7376196980476379, -0.5930631160736084, 0.2330273985862732, -0.22340883314609528, -0.49184131622314453, -9.373117446899414, 1.9280064105987549, -6.230764389038086, -0.3455359935760498, -1.663618803024292, -0.20361328125, 0.900146484375, 0.023193359375, 
116, 3679054056, 0.7373123168945312, -0.5934184193611145, 0.23308318853378296, -0.22342197597026825, -0.5530642867088318, -9.386207580566406, 1.9773318767547607, -6.732906341552734, -0.11536651104688644, -1.8981940746307373, -0.2060546875, 0.90087890625, 0.026611328125, 
117, 3679062389, 0.7369632124900818, -0.5938073992729187, 0.23316526412963867, -0.22345465421676636, -0.5845644474029541, -9.454896926879883, 1.9566982984542847, -7.20372200012207, -0.14707694947719574, -2.0063631534576416, -0.20361328125, 0.90087890625, 0.028076171875, 
118, 3679070722, 0.7366316318511963, -0.5941948294639587, 0.23320820927619934, -0.22347377240657806, -0.6100049614906311, -9.492650985717773, 1.9279069900512695, -7.198292255401611, -0.2176697850227356, -2.2416813373565674, -0.2060546875, 0.9013671875, 0.028076171875, 
119, 3679079055, 0.7362980246543884, -0.5945738554000854, 0.2332463562488556, -0.2235245555639267, -0.6432384252548218, -9.508151054382324, 1.967521071434021, -6.778065204620361, -0.3465862274169922, -2.490318536758423, -0.20458984375, 0.8994140625, 0.029541015625, 
120, 3679087388, 0.7360209226608276, -0.5949015617370605, 0.23324067890644073, -0.2235717624425888, -0.6628135442733765, -9.526196479797363, 1.9364657402038574, -5.908307075500488, -0.4719679057598114, -2.5634727478027344, -0.20751953125, 0.900390625, 0.030517578125, 
121, 3679095721, 0.7357642650604248, -0.5951951146125793, 0.2332269549369812, -0.22364932298660278, -0.6855571269989014, -9.456460952758789, 1.9419465065002441, -5.046645164489746, -0.7249597311019897, -2.6575539112091064, -0.20458984375, 0.89794921875, 0.031005859375, 
122, 3679104054, 0.735561192035675, -0.5954418778419495, 0.23317179083824158, -0.22371813654899597, -0.7285469770431519, -9.444515228271484, 1.9525706768035889, -4.264974594116211, -0.7857422232627869, -2.70117449760437, -0.20654296875, 0.89892578125, 0.029052734375, 
123, 3679112387, 0.7353548407554626, -0.5956758856773376, 0.23312023282051086, -0.22382642328739166, -0.7805052995681763, -9.443038940429688, 1.9535009860992432, -3.8172383308410645, -0.777981162071228, -2.9431779384613037, -0.20654296875, 0.8974609375, 0.028564453125, 
124, 3679120720, 0.7351770401000977, -0.5959008932113647, 0.23301003873348236, -0.22392642498016357, -0.8108533024787903, -9.468743324279785, 1.9093365669250488, -3.566500663757324, -1.1001057624816895, -3.3185036182403564, -0.20556640625, 0.897705078125, 0.031982421875, 
125, 3679129053, 0.7349698543548584, -0.5961430072784424, 0.23290786147117615, -0.224068745970726, -0.7857222557067871, -9.433749198913574, 1.901232123374939, -3.645930290222168, -1.0316133499145508, -3.7323787212371826, -0.20556640625, 0.8994140625, 0.031005859375, 
126, 3679137386, 0.7347651124000549, -0.596387505531311, 0.2327767312526703, -0.224226176738739, -0.7749876976013184, -9.385222434997559, 1.8664820194244385, -3.73427414894104, -0.8151986598968506, -4.216026306152344, -0.20947265625, 0.899658203125, 0.028564453125, 
127, 3679145719, 0.7345262765884399, -0.5966572165489197, 0.23264911770820618, -0.22442319989204407, -0.8407945036888123, -9.420486450195312, 1.842388391494751, -3.9398539066314697, -0.8935270309448242, -4.667348861694336, -0.20751953125, 0.899169921875, 0.032958984375, 
128, 3679154052, 0.7342970371246338, -0.596930742263794, 0.23247140645980835, -0.22463032603263855, -0.8663745522499084, -9.4680814743042, 1.8105465173721313, -3.9254326820373535, -0.8888907432556152, -5.2701802253723145, -0.20751953125, 0.896728515625, 0.032958984375, 
129, 3679162385, 0.734062135219574, -0.5972009301185608, 0.2322840690612793, -0.2248731255531311, -0.8642005920410156, -9.548796653747559, 1.8082046508789062, -3.575132369995117, -1.0095337629318237, -5.633825302124023, -0.20947265625, 0.896728515625, 0.029541015625, 
130, 3679170718, 0.7338497638702393, -0.5974565744400024, 0.23205824196338654, -0.2251204550266266, -0.8337863087654114, -9.60190486907959, 1.78658926486969, -3.3285443782806396, -1.0425506830215454, -5.9616618156433105, -0.20751953125, 0.899169921875, 0.033935546875, 
131, 3679179051, 0.7336142659187317, -0.5977250337600708, 0.23184964060783386, -0.22539009153842926, -0.8236008882522583, -9.633191108703613, 1.7723751068115234, -3.418834686279297, -1.0858643054962158, -6.063068866729736, -0.20849609375, 0.900146484375, 0.033447265625, 
132, 3679187384, 0.7334005236625671, -0.5979803800582886, 0.23161768913269043, -0.22564655542373657, -0.8084249496459961, -9.703056335449219, 1.770048975944519, -3.2898664474487305, -1.023186206817627, -6.106023788452148, -0.21240234375, 0.8974609375, 0.032958984375, 
133, 3679195717, 0.7331857681274414, -0.5982226729393005, 0.23140883445739746, -0.22591625154018402, -0.792334794998169, -9.790180206298828, 1.775473952293396, -2.9738895893096924, -0.9372249245643616, -5.943578720092773, -0.21240234375, 0.89453125, 0.03369140625, 
134, 3679204050, 0.7330057621002197, -0.5984258651733398, 0.23121337592601776, -0.22616301476955414, -0.7790016531944275, -9.863151550292969, 1.7643508911132812, -2.6309151649475098, -0.6805703043937683, -5.439260005950928, -0.21435546875, 0.89697265625, 0.0341796875, 
135, 3679212383, 0.732822060585022, -0.5986097455024719, 0.23107367753982544, -0.2264138162136078, -0.7613219022750854, -9.848991394042969, 1.7320411205291748, -2.4096591472625732, -0.3467142879962921, -4.8972368240356445, -0.212890625, 0.89697265625, 0.035888671875, 
136, 3679220716, 0.7326577305793762, -0.5987686514854431, 0.23096299171447754, -0.22663816809654236, -0.7749004364013672, -9.843561172485352, 1.6918532848358154, -2.388399362564087, 0.07549795508384705, -4.325296401977539, -0.21533203125, 0.89794921875, 0.033203125, 
137, 3679229049, 0.732468843460083, -0.5989392995834351, 0.23091354966163635, -0.22684860229492188, -0.7612473964691162, -9.8604097366333, 1.6716197729110718, -2.727531909942627, 0.3205493688583374, -3.7292535305023193, -0.21484375, 0.89697265625, 0.036865234375, 
138, 3679237382, 0.7322796583175659, -0.5991119146347046, 0.23088955879211426, -0.22702744603157043, -0.744990885257721, -9.8519287109375, 1.65138840675354, -3.148425340652466, 0.6106818914413452, -3.274113893508911, -0.21533203125, 0.896484375, 0.0361328125, 
139, 3679245715, 0.7320547103881836, -0.5993022322654724, 0.23094484210014343, -0.22719381749629974, -0.7106858491897583, -9.826573371887207, 1.6718449592590332, -3.687835216522217, 1.0484035015106201, -2.5949525833129883, -0.216796875, 0.896728515625, 0.0390625, 
140, 3679254048, 0.7318323850631714, -0.5994876027107239, 0.23105388879776, -0.2273109257221222, -0.7056976556777954, -9.74321460723877, 1.6593513488769531, -4.162800312042236, 1.5070775747299194, -1.6999398469924927, -0.21728515625, 0.895751953125, 0.0380859375, 
141, 3679262381, 0.7315734624862671, -0.5996971130371094, 0.23122775554656982, -0.22741439938545227, -0.7002842426300049, -9.810315132141113, 1.6489332914352417, -4.74324369430542, 1.6155024766921997, -1.1268470287322998, -0.21630859375, 0.8974609375, 0.03564453125, 
142, 3679270714, 0.7313235998153687, -0.5999032258987427, 0.23141992092132568, -0.22747957706451416, -0.738876461982727, -9.922188758850098, 1.6188271045684814, -5.021107196807861, 1.9391897916793823, -0.644787073135376, -0.21728515625, 0.894775390625, 0.0390625, 
143, 3679279047, 0.7310702204704285, -0.6000980734825134, 0.23165062069892883, -0.22754448652267456, -0.7464943528175354, -9.895160675048828, 1.6142661571502686, -4.840782642364502, 2.0660057067871094, -0.23644497990608215, -0.216796875, 0.896728515625, 0.0390625, 
144, 3679287380, 0.7308530807495117, -0.6002641916275024, 0.23186686635017395, -0.22758446633815765, -0.7150972485542297, -9.892169952392578, 1.6094880104064941, -4.505569934844971, 1.992825984954834, 0.037563275545835495, -0.216796875, 0.897216796875, 0.0390625, 
145, 3679295713, 0.7306534647941589, -0.6004005670547485, 0.23209811747074127, -0.227629154920578, -0.6994755864143372, -9.90666675567627, 1.6033016443252563, -3.876228094100952, 1.8878077268600464, 0.3294375240802765, -0.21484375, 0.896240234375, 0.040283203125, 
146, 3679304046, 0.730495274066925, -0.600496232509613, 0.23231777548789978, -0.2276608943939209, -0.693214476108551, -9.884684562683105, 1.5938347578048706, -3.3464741706848145, 1.9920573234558105, 0.5578395128250122, -0.21484375, 0.8974609375, 0.036865234375, 
147, 3679312379, 0.730344295501709, -0.6005685329437256, 0.2325514256954193, -0.22771599888801575, -0.7103617787361145, -9.805410385131836, 1.5904016494750977, -2.817565679550171, 1.8670088052749634, 0.6316854357719421, -0.216796875, 0.895263671875, 0.041015625, 
148, 3679320712, 0.7302197813987732, -0.6006338596343994, 0.23275518417358398, -0.22773510217666626, -0.7086894512176514, -9.7703218460083, 1.5767414569854736, -2.755758762359619, 1.7148346900939941, 0.754889965057373, -0.21728515625, 0.8974609375, 0.03662109375, 
149, 3679329045, 0.7300729751586914, -0.600717306137085, 0.23297178745269775, -0.22776386141777039, -0.7040536999702454, -9.736895561218262, 1.5734632015228271, -2.9058070182800293, 1.7365813255310059, 0.6801220774650574, -0.21484375, 0.89599609375, 0.03759765625, 
150, 3679337378, 0.7299383878707886, -0.6008036732673645, 0.23316290974617004, -0.2277720868587494, -0.6676974296569824, -9.752303123474121, 1.5452468395233154, -3.0454556941986084, 1.4651727676391602, 0.66065514087677, -0.2138671875, 0.896484375, 0.039794921875, 
151, 3679345711, 0.729790985584259, -0.6009003520011902, 0.23336096107959747, -0.22778615355491638, -0.6687202453613281, -9.701632499694824, 1.5236161947250366, -3.036926507949829, 1.3053399324417114, 0.6430069804191589, -0.21533203125, 0.89599609375, 0.03759765625, 
152, 3679354044, 0.7296649217605591, -0.6009884476661682, 0.23353040218353271, -0.22778430581092834, -0.6834653615951538, -9.65866470336914, 1.5257759094238281, -2.9556522369384766, 1.1319059133529663, 0.604790449142456, -0.21435546875, 0.897216796875, 0.040283203125, 
153, 3679362377, 0.7295198440551758, -0.6010969877243042, 0.2337116301059723, -0.22777670621871948, -0.6567472219467163, -9.69957160949707, 1.5477714538574219, -3.1522417068481445, 0.9412592053413391, 0.6849631071090698, -0.21630859375, 0.897216796875, 0.040283203125, 
154, 3679370710, 0.729392409324646, -0.6012033224105835, 0.2338571697473526, -0.22775417566299438, -0.666817843914032, -9.741029739379883, 1.5720393657684326, -3.1446337699890137, 0.6672891974449158, 0.5513591766357422, -0.21630859375, 0.896240234375, 0.043701171875, 
155, 3679379043, 0.7292693257331848, -0.6013166308403015, 0.23399506509304047, -0.22770830988883972, -0.6631948351860046, -9.71526050567627, 1.5739527940750122, -2.990384817123413, 0.32142019271850586, 0.7275594472885132, -0.212890625, 0.898193359375, 0.043212890625, 
156, 3679387376, 0.729163408279419, -0.6014196276664734, 0.23410995304584503, -0.22765707969665527, -0.679767906665802, -9.759795188903809, 1.5716749429702759, -2.927783966064453, 0.06527787446975708, 0.6638825535774231, -0.21630859375, 0.897705078125, 0.043212890625, 
157, 3679395709, 0.7290742993354797, -0.6015040278434753, 0.23421889543533325, -0.22760730981826782, -0.6818800568580627, -9.793416023254395, 1.5480132102966309, -2.3674468994140625, -0.39330658316612244, 0.7894948720932007, -0.21435546875, 0.896240234375, 0.043212890625, 
158, 3679404042, 0.729049801826477, -0.6015474200248718, 0.23426884412765503, -0.22751976549625397, -0.6977524757385254, -9.778434753417969, 1.5452802181243896, -1.569947600364685, -0.9640429019927979, 0.9378523230552673, -0.21533203125, 0.896728515625, 0.041748046875, 
159, 3679412375, 0.7290477156639099, -0.6015657782554626, 0.23430272936820984, -0.22744318842887878, -0.6833816170692444, -9.785590171813965, 1.5350607633590698, -0.8319759368896484, -1.3694907426834106, 0.9107782244682312, -0.2158203125, 0.896240234375, 0.042724609375, 
160, 3679420708, 0.7290879487991333, -0.6015618443489075, 0.23429147899150848, -0.22733592987060547, -0.6619282364845276, -9.800182342529297, 1.544601559638977, -0.43183040618896484, -1.7991951704025269, 0.9842910766601562, -0.21533203125, 0.897216796875, 0.041259765625, 
161, 3679429041, 0.7291380167007446, -0.6015469431877136, 0.23426969349384308, -0.2272374927997589, -0.6986519694328308, -9.799457550048828, 1.588010311126709, 0.03548852354288101, -2.173341989517212, 0.9382110238075256, -0.21533203125, 0.896240234375, 0.040283203125, 
162, 3679437374, 0.7292240262031555, -0.6015111804008484, 0.23419716954231262, -0.22713102400302887, -0.7028475999832153, -9.730351448059082, 1.6218105554580688, 0.45871251821517944, -2.456456184387207, 0.7159306406974792, -0.21435546875, 0.895751953125, 0.039306640625, 
163, 3679445707, 0.7293060421943665, -0.6014781594276428, 0.23411870002746582, -0.22703582048416138, -0.6738051772117615, -9.720287322998047, 1.6316518783569336, 0.6592720150947571, -2.8912837505340576, 0.6172903180122375, -0.2158203125, 0.897216796875, 0.039306640625, 
164, 3679454040, 0.7294246554374695, -0.6014232635498047, 0.23400327563285828, -0.22691932320594788, -0.6573091745376587, -9.691569328308105, 1.6167248487472534, 1.0224049091339111, -3.014410972595215, 0.6242316365242004, -0.2138671875, 0.895263671875, 0.042236328125, 
165, 3679462373, 0.7295465469360352, -0.6013554334640503, 0.23389014601707458, -0.22682374715805054, -0.6564976572990417, -9.717120170593262, 1.624075174331665, 1.4522632360458374, -3.139050245285034, 0.5505908131599426, -0.213623046875, 0.895263671875, 0.043212890625, 
166, 3679470706, 0.7296866774559021, -0.601276695728302, 0.2337559014558792, -0.22672009468078613, -0.6437188386917114, -9.711498260498047, 1.6227627992630005, 1.539402723312378, -3.0915615558624268, 0.48258504271507263, -0.21435546875, 0.895751953125, 0.043701171875, 
167, 3679479039, 0.729819655418396, -0.601190447807312, 0.23363834619522095, -0.2266419231891632, -0.6231419444084167, -9.668006896972656, 1.636263132095337, 1.7985165119171143, -3.0078284740448, 0.4319712817668915, -0.21240234375, 0.896240234375, 0.041748046875, 
168, 3679487372, 0.7299590706825256, -0.6011017560958862, 0.23350709676742554, -0.22656366229057312, -0.6194384098052979, -9.642006874084473, 1.6677682399749756, 1.704614520072937, -2.8191025257110596, 0.2828707993030548, -0.21435546875, 0.897705078125, 0.042236328125, 
169, 3679495705, 0.7300647497177124, -0.601030707359314, 0.2334110140800476, -0.2265104055404663, -0.6038369536399841, -9.692598342895508, 1.69968581199646, 1.432002305984497, -2.52889347076416, 0.22285667061805725, -0.213134765625, 0.894775390625, 0.042236328125, 
170, 3679504038, 0.7301712036132812, -0.6009629368782043, 0.23331397771835327, -0.22644740343093872, -0.6101757287979126, -9.698108673095703, 1.7262747287750244, 1.1665873527526855, -2.3079705238342285, 0.24406521022319794, -0.21337890625, 0.896484375, 0.039306640625, 
171, 3679512371, 0.7302476763725281, -0.6009119749069214, 0.23324885964393616, -0.22640253603458405, -0.632689356803894, -9.72911262512207, 1.7010650634765625, 0.9149021506309509, -2.1483683586120605, 0.24555088579654694, -0.21337890625, 0.895263671875, 0.041259765625, 
172, 3679520704, 0.7303469181060791, -0.600844144821167, 0.23316311836242676, -0.2263508141040802, -0.6489298343658447, -9.740982055664062, 1.676501750946045, 1.1083918809890747, -2.077826499938965, 0.20085401833057404, -0.21337890625, 0.897216796875, 0.042236328125, 
173, 3679529037, 0.7304568290710449, -0.6007594466209412, 0.23308147490024567, -0.22630488872528076, -0.6570008993148804, -9.742390632629395, 1.680152177810669, 1.3717318773269653, -1.971015214920044, 0.2637369632720947, -0.212890625, 0.89697265625, 0.041259765625, 
174, 3679537370, 0.7305765151977539, -0.6006549000740051, 0.2330174446105957, -0.2262621521949768, -0.6736732125282288, -9.705120086669922, 1.6424485445022583, 1.8164461851119995, -2.0104870796203613, 0.5262572169303894, -0.213134765625, 0.893310546875, 0.03857421875, 
175, 3679545703, 0.7307115197181702, -0.6005331873893738, 0.2329467236995697, -0.22622212767601013, -0.6557986736297607, -9.690464973449707, 1.6728283166885376, 2.1450767517089844, -2.038841724395752, 0.544699490070343, -0.21142578125, 0.8974609375, 0.037841796875, 
176, 3679554036, 0.7308589816093445, -0.6003977060317993, 0.2328643649816513, -0.22619056701660156, -0.6625720858573914, -9.63339614868164, 1.685592532157898, 2.2415146827697754, -1.8217613697052002, 0.3925253748893738, -0.212890625, 0.8974609375, 0.041259765625, 
177, 3679562369, 0.7309863567352295, -0.6002784371376038, 0.23278769850730896, -0.22617435455322266, -0.6684362888336182, -9.60409927368164, 1.6835246086120605, 2.144871950149536, -1.983284592628479, 0.24201609194278717, -0.21337890625, 0.896484375, 0.038818359375, 
178, 3679570702, 0.7311292290687561, -0.6001445055007935, 0.23269763588905334, -0.22616004943847656, -0.6607204079627991, -9.592263221740723, 1.669629693031311, 2.26349139213562, -1.7477105855941772, 0.1365623027086258, -0.2138671875, 0.89794921875, 0.040771484375, 
179, 3679579035, 0.7312512993812561, -0.6000239253044128, 0.23261819779872894, -0.22616727650165558, -0.6400746703147888, -9.61141586303711, 1.6534141302108765, 2.197765350341797, -1.7442781925201416, -0.0380883663892746, -0.21484375, 0.896240234375, 0.038818359375, 
180, 3679587368, 0.7313888072967529, -0.5998901724815369, 0.23253019154071808, -0.2261677384376526, -0.6559165716171265, -9.647246360778809, 1.5965538024902344, 2.2625439167022705, -1.5878009796142578, -0.011885005049407482, -0.210693359375, 0.8955078125, 0.036865234375, 
181, 3679595701, 0.7315036654472351, -0.5997777581214905, 0.2324572205543518, -0.22617000341415405, -0.6637012958526611, -9.6345853805542, 1.6040089130401611, 2.02394700050354, -1.666948914527893, 0.008772876113653183, -0.21240234375, 0.8984375, 0.037353515625, 
182, 3679604034, 0.7316265106201172, -0.5996643304824829, 0.23237556219100952, -0.22615677118301392, -0.6542460322380066, -9.657768249511719, 1.673592448234558, 1.8718756437301636, -1.653706431388855, 0.06740386039018631, -0.21240234375, 0.89697265625, 0.035888671875, 
183, 3679612367, 0.7317339777946472, -0.5995611548423767, 0.2323240339756012, -0.22613613307476044, -0.665192186832428, -9.67381477355957, 1.6826943159103394, 1.7250803709030151, -1.7185616493225098, 0.37436485290527344, -0.212890625, 0.89697265625, 0.036865234375, 
184, 3679620700, 0.7318562865257263, -0.599452018737793, 0.23227597773075104, -0.2260792851448059, -0.6720287203788757, -9.697284698486328, 1.739714503288269, 1.580206274986267, -1.6858779191970825, 0.7685679793357849, -0.21435546875, 0.89501953125, 0.03759765625, 
185, 3679629033, 0.7319785952568054, -0.5993344783782959, 0.23225566744804382, -0.2260153889656067, -0.6966824531555176, -9.73677921295166, 1.7816188335418701, 1.7587885856628418, -1.6886696815490723, 1.146838903427124, -0.21240234375, 0.89794921875, 0.036376953125, 
186, 3679637366, 0.7321410179138184, -0.5991780757904053, 0.23223289847373962, -0.22592693567276, -0.7511751651763916, -9.762161254882812, 1.7778434753417969, 2.206115484237671, -1.6749659776687622, 1.5710105895996094, -0.20947265625, 0.899169921875, 0.033447265625, 
187, 3679645699, 0.7323310375213623, -0.5989891886711121, 0.2322135865688324, -0.22583219408988953, -0.7889978289604187, -9.788222312927246, 1.7859083414077759, 2.933124303817749, -1.9134600162506104, 1.901152491569519, -0.21337890625, 0.8974609375, 0.033935546875, 
188, 3679654032, 0.7325723171234131, -0.598756730556488, 0.23216086626052856, -0.22572015225887299, -0.7964379787445068, -9.801310539245605, 1.7944977283477783, 3.641537666320801, -2.1838440895080566, 2.048793077468872, -0.21142578125, 0.89697265625, 0.036376953125, 
189, 3679662365, 0.7328436374664307, -0.5984837412834167, 0.23211345076560974, -0.22561199963092804, -0.8065556883811951, -9.760315895080566, 1.7649357318878174, 4.4892659187316895, -2.3380930423736572, 2.3297300338745117, -0.212890625, 0.896484375, 0.036376953125, 
190, 3679670698, 0.7331557869911194, -0.5981756448745728, 0.23203817009925842, -0.22549280524253845, -0.773991048336029, -9.732322692871094, 1.7494393587112427, 5.032288074493408, -2.4630136489868164, 2.396660089492798, -0.2099609375, 0.898193359375, 0.032470703125, 
191, 3679679031, 0.7334883213043213, -0.5978541374206543, 0.23193798959255219, -0.22536708414554596, -0.7056508660316467, -9.718289375305176, 1.78607177734375, 5.3926286697387695, -2.792181968688965, 2.3638222217559814, -0.21240234375, 0.8994140625, 0.036376953125, 
192, 3679687364, 0.7338026165962219, -0.5975487232208252, 0.23184922337532043, -0.2252449095249176, -0.7200542092323303, -9.722451210021973, 1.7595210075378418, 5.247037410736084, -2.975170135498047, 2.3802154064178467, -0.21142578125, 0.897705078125, 0.032958984375, 
193, 3679695697, 0.7340896129608154, -0.5972633361816406, 0.2317737489938736, -0.22514468431472778, -0.66639643907547, -9.689330101013184, 1.7534419298171997, 4.843690395355225, -2.693798065185547, 2.130143642425537, -0.20947265625, 0.898193359375, 0.032470703125, 
194, 3679704030, 0.7343769669532776, -0.5969930291175842, 0.2316860556602478, -0.22501468658447266, -0.6477950811386108, -9.687439918518066, 1.7733138799667358, 4.450844764709473, -2.715313673019409, 2.2064225673675537, -0.210693359375, 0.902587890625, 0.030029296875, 
195, 3679712363, 0.734634518623352, -0.5967488288879395, 0.23161587119102478, -0.2248934954404831, -0.6130766868591309, -9.680432319641113, 1.760072946548462, 4.103541374206543, -2.795742988586426, 2.154477596282959, -0.21044921875, 0.899658203125, 0.031005859375, 
196, 3679720696, 0.7348858714103699, -0.5965179204940796, 0.23154151439666748, -0.22476191818714142, -0.6199005842208862, -9.717940330505371, 1.7258559465408325, 3.711848735809326, -2.6001009941101074, 2.093899726867676, -0.21044921875, 0.896728515625, 0.02783203125, 
197, 3679729029, 0.7350990772247314, -0.596320629119873, 0.23148366808891296, -0.22464706003665924, -0.6239719390869141, -9.708984375, 1.6832201480865479, 3.252636432647705, -2.5513315200805664, 1.8918802738189697, -0.2099609375, 0.90087890625, 0.028564453125, 
198, 3679737362, 0.7353235483169556, -0.596123456954956, 0.23139828443527222, -0.22452354431152344, -0.6543022990226746, -9.631368637084961, 1.6708804368972778, 3.211090326309204, -2.66523814201355, 1.7337380647659302, -0.20703125, 0.89892578125, 0.028076171875, 
199, 3679745695, 0.7355275750160217, -0.5959398746490479, 0.23131579160690308, -0.22442814707756042, -0.6304140686988831, -9.582093238830566, 1.6455187797546387, 3.168750047683716, -2.7657997608184814, 1.4442715644836426, -0.21044921875, 0.896728515625, 0.02685546875, 
200, 3679754028, 0.7357336282730103, -0.5957662463188171, 0.2312098890542984, -0.22432249784469604, -0.6062623262405396, -9.528437614440918, 1.639116644859314, 2.9397330284118652, -2.739135265350342, 1.2516525983810425, -0.20849609375, 0.90087890625, 0.028076171875, 
201, 3679762361, 0.7359107732772827, -0.5956138372421265, 0.23111191391944885, -0.22424770891666412, -0.6130262613296509, -9.479425430297852, 1.6173330545425415, 2.753619909286499, -2.672999143600464, 0.9115722179412842, -0.20654296875, 0.90087890625, 0.028076171875, 
202, 3679770694, 0.7360955476760864, -0.5954603552818298, 0.23099520802497864, -0.22416897118091583, -0.6058515906333923, -9.472071647644043, 1.585403561592102, 2.683206081390381, -2.6232049465179443, 0.7613958716392517, -0.20654296875, 0.89892578125, 0.027587890625, 
203, 3679779027, 0.7362489104270935, -0.5953317880630493, 0.2308875024318695, -0.22411763668060303, -0.6025975942611694, -9.45914363861084, 1.560735821723938, 2.4178686141967773, -2.6310174465179443, 0.45663779973983765, -0.2080078125, 0.8984375, 0.025634765625, 
204, 3679787360, 0.7364093661308289, -0.5952122807502747, 0.23073968291282654, -0.22405999898910522, -0.5926401019096375, -9.470348358154297, 1.5282400846481323, 2.300222158432007, -2.793642044067383, 0.11000032722949982, -0.20947265625, 0.898193359375, 0.028076171875, 
205, 3679795693, 0.7365405559539795, -0.5951189994812012, 0.23059628903865814, -0.2240241914987564, -0.5977246165275574, -9.447999000549316, 1.4930555820465088, 2.0479226112365723, -2.818693161010742, -0.1876498907804489, -0.2080078125, 0.896484375, 0.025390625, 
206, 3679804026, 0.7366653680801392, -0.5950429439544678, 0.23042625188827515, -0.22399014234542847, -0.6061046719551086, -9.405410766601562, 1.4555556774139404, 1.7131954431533813, -2.845050096511841, -0.5580317974090576, -0.20703125, 0.89794921875, 0.025146484375, 
207, 3679812359, 0.7367473244667053, -0.5950118899345398, 0.230250746011734, -0.22398434579372406, -0.5979241132736206, -9.37118911743164, 1.4178317785263062, 1.2028061151504517, -3.042715311050415, -1.0822782516479492, -0.20556640625, 0.9013671875, 0.026611328125, 
208, 3679820692, 0.7368162870407104, -0.5950191020965576, 0.23002824187278748, -0.2239670753479004, -0.5821745991706848, -9.369091987609863, 1.3475685119628906, 0.6280738115310669, -3.319195032119751, -1.592488169670105, -0.2060546875, 0.8984375, 0.025634765625, 
209, 3679829025, 0.7368490695953369, -0.5950812697410583, 0.2297678142786026, -0.22396156191825867, -0.6361150741577148, -9.380712509155273, 1.2977142333984375, -0.07061845064163208, -3.660966157913208, -2.3074839115142822, -0.20751953125, 0.8974609375, 0.024658203125, 
210, 3679837358, 0.7368453741073608, -0.5951954126358032, 0.22948619723320007, -0.22395898401737213, -0.6300554871559143, -9.362764358520508, 1.2595891952514648, -0.6258325576782227, -4.2288336753845215, -2.7125988006591797, -0.2080078125, 0.90185546875, 0.025146484375, 
211, 3679845691, 0.7368318438529968, -0.5953432321548462, 0.22915905714035034, -0.22394563257694244, -0.6372893452644348, -9.365345001220703, 1.2306498289108276, -0.9401448369026184, -4.892856121063232, -3.103010416030884, -0.2099609375, 0.896240234375, 0.02490234375, 
212, 3679854024, 0.736842691898346, -0.595503568649292, 0.22875553369522095, -0.22389596700668335, -0.6230514645576477, -9.396757125854492, 1.2175651788711548, -0.943090558052063, -5.704981803894043, -3.4096131324768066, -0.2080078125, 0.8974609375, 0.026611328125, 
213, 3679862357, 0.7368524074554443, -0.595673143863678, 0.22832530736923218, -0.22385209798812866, -0.6283994317054749, -9.44688892364502, 1.218685507774353, -0.7398927807807922, -6.2850422859191895, -3.6428310871124268, -0.2099609375, 0.898681640625, 0.027099609375, 
214, 3679870690, 0.7369006872177124, -0.5958382487297058, 0.2278187870979309, -0.22376960515975952, -0.6367212533950806, -9.488380432128906, 1.2695651054382324, -0.47171181440353394, -7.151059627532959, -3.8193905353546143, -0.2080078125, 0.900390625, 0.026611328125, 
215, 3679879023, 0.7369542121887207, -0.5960071086883545, 0.22728678584098816, -0.22368502616882324, -0.6065539717674255, -9.508320808410645, 1.3372489213943481, -0.185011625289917, -7.852095603942871, -3.9138808250427246, -0.2080078125, 0.89794921875, 0.025146484375, 
216, 3679887356, 0.7370559573173523, -0.5961453318595886, 0.2267189919948578, -0.22355753183364868, -0.6028993725776672, -9.559836387634277, 1.4407376050949097, 0.28722521662712097, -8.223731994628906, -3.617601156234741, -0.21435546875, 0.897705078125, 0.025390625, 
217, 3679895689, 0.7371702790260315, -0.5962611436843872, 0.2261636108160019, -0.22343361377716064, -0.5979298949241638, -9.559701919555664, 1.5119584798812866, 0.7898278832435608, -8.654410362243652, -3.3139960765838623, -0.208984375, 0.898193359375, 0.029052734375, 
218, 3679904022, 0.7373279929161072, -0.5963472723960876, 0.22558116912841797, -0.22327271103858948, -0.620147705078125, -9.544537544250488, 1.5916224718093872, 1.215869426727295, -8.660968780517578, -3.0636680126190186, -0.2109375, 0.897216796875, 0.02685546875, 
219, 3679912355, 0.7374805808067322, -0.5964241027832031, 0.22504329681396484, -0.2231062948703766, -0.6232366561889648, -9.565377235412598, 1.7100785970687866, 1.3314664363861084, -8.563095092773438, -2.550281286239624, -0.21142578125, 0.899169921875, 0.02685546875, 
220, 3679920688, 0.7376660108566284, -0.59645676612854, 0.22453424334526062, -0.22291840612888336, -0.6456636786460876, -9.639790534973145, 1.9165726900100708, 1.6761058568954468, -8.060723304748535, -1.938408374786377, -0.21240234375, 0.897705078125, 0.02734375, 
221, 3679929021, 0.7378371953964233, -0.5964648723602295, 0.22412355244159698, -0.22274351119995117, -0.6217074394226074, -9.759622573852539, 2.201425075531006, 1.764782428741455, -7.155336856842041, -1.1586344242095947, -0.212890625, 0.896240234375, 0.025390625, 
222, 3679937354, 0.7380115985870361, -0.5964280366897583, 0.22380992770195007, -0.2225792557001114, -0.5817384719848633, -9.832687377929688, 2.4642221927642822, 1.76496160030365, -5.63577127456665, -0.39476656913757324, -0.208984375, 0.8974609375, 0.026611328125, 
223, 3679945687, 0.7381077408790588, -0.5963765978813171, 0.2237045019865036, -0.22250491380691528, -0.5218847990036011, -9.975467681884766, 2.6402697563171387, 1.1182023286819458, -2.867462396621704, 0.28932562470436096, -0.212158203125, 0.8994140625, 0.0234375, 
224, 3679954020, 0.7381388545036316, -0.5963011384010315, 0.22381854057312012, -0.22248885035514832, -0.4695841372013092, -10.004144668579102, 2.804865837097168, 0.12941591441631317, 0.4772059917449951, 1.2885112762451172, -0.2109375, 0.8994140625, 0.02587890625, 
225, 3679962353, 0.7380806803703308, -0.5962032079696655, 0.22421368956565857, -0.22254636883735657, -0.471270352602005, -10.004475593566895, 3.0425384044647217, -0.8058494925498962, 4.025827407836914, 2.7069764137268066, -0.212890625, 0.897216796875, 0.02880859375, 
226, 3679970686, 0.7379598021507263, -0.5960527658462524, 0.22490310668945312, -0.22265467047691345, -0.43715858459472656, -10.050477027893066, 3.304985523223877, -1.7339814901351929, 8.034507751464844, 4.5098347663879395, -0.2109375, 0.89990234375, 0.0244140625, 
227, 3679979019, 0.7377098798751831, -0.5958765745162964, 0.22595620155334473, -0.22288767993450165, -0.3905055820941925, -10.189035415649414, 3.506707191467285, -3.0800352096557617, 12.857438087463379, 6.000071048736572, -0.21044921875, 0.89892578125, 0.0234375, 
228, 3679987352, 0.7373873591423035, -0.5956130623817444, 0.22735822200775146, -0.2232331931591034, -0.3603113293647766, -10.270661354064941, 3.653820276260376, -3.6883230209350586, 18.180723190307617, 7.675807476043701, -0.2109375, 0.898193359375, 0.025390625, 
229, 3679995685, 0.7369807362556458, -0.5952394008636475, 0.22913280129432678, -0.22375831007957458, -0.30895912647247314, -10.321290969848633, 3.892508029937744, -3.6988513469696045, 23.514665603637695, 9.11586856842041, -0.20947265625, 0.89892578125, 0.025634765625, 
230, 3680004018, 0.7365328669548035, -0.5947219133377075, 0.23122844099998474, -0.2244516760110855, -0.1456267237663269, -10.319653511047363, 4.104090690612793, -3.178396224975586, 29.232410430908203, 10.2421293258667, -0.208984375, 0.89892578125, 0.026123046875, 
231, 3680012351, 0.7359965443611145, -0.5940607786178589, 0.23371008038520813, -0.22538968920707703, -0.083865225315094, -10.25934886932373, 4.281920433044434, -2.7276885509490967, 35.65632629394531, 11.179102897644043, -0.20751953125, 0.8984375, 0.025634765625, 
232, 3680020684, 0.7353522777557373, -0.593281090259552, 0.23657089471817017, -0.22655820846557617, -0.053681619465351105, -10.23261833190918, 4.304844379425049, -2.9776341915130615, 42.30250549316406, 11.915672302246094, -0.20654296875, 0.899658203125, 0.021728515625, 
233, 3680029017, 0.734576940536499, -0.5923933982849121, 0.23981481790542603, -0.2279815971851349, -0.06933416426181793, -10.190903663635254, 4.2910919189453125, -3.218743324279785, 48.79167938232422, 12.495124816894531, -0.20458984375, 0.899658203125, 0.024658203125, 
234, 3680037350, 0.7336835265159607, -0.5914064049720764, 0.24337057769298553, -0.2296469360589981, -0.12675902247428894, -10.057144165039062, 4.50679349899292, -3.4571115970611572, 54.842620849609375, 12.460681915283203, -0.2021484375, 0.900146484375, 0.020263671875, 
235, 3680045683, 0.7326551079750061, -0.5903154015541077, 0.24726232886314392, -0.2315720021724701, -0.09190819412469864, -10.115233421325684, 4.531942367553711, -3.646122455596924, 60.761207580566406, 12.619549751281738, -0.2001953125, 0.8994140625, 0.018798828125, 
236, 3680054016, 0.7314874529838562, -0.5891295075416565, 0.2514849901199341, -0.23372597992420197, -0.1077149510383606, -10.168692588806152, 4.380991458892822, -4.147525310516357, 67.093017578125, 12.752983093261719, -0.2001953125, 0.90087890625, 0.016357421875, 
237, 3680062349, 0.730201005935669, -0.5878229141235352, 0.2560220956802368, -0.23610053956508636, -0.17967504262924194, -10.061355590820312, 4.148761749267578, -4.117584705352783, 72.63420867919922, 13.223859786987305, -0.19921875, 0.90087890625, 0.014892578125, 
238, 3680070682, 0.7288225889205933, -0.5864167809486389, 0.26079192757606506, -0.2386225312948227, -0.2632848620414734, -9.902252197265625, 4.0636067390441895, -4.124502658843994, 77.01655578613281, 13.570966720581055, -0.19921875, 0.90087890625, 0.015869140625, 
239, 3680079015, 0.7273478507995605, -0.5848942399024963, 0.2657935917377472, -0.24132457375526428, -0.22160005569458008, -9.793231964111328, 4.050431251525879, -3.864391803741455, 81.22848510742188, 13.869001388549805, -0.1982421875, 0.900634765625, 0.011962890625, 
240, 3680087348, 0.7257742881774902, -0.5832687616348267, 0.27101951837539673, -0.24416762590408325, -0.20167919993400574, -9.79671573638916, 3.816977024078369, -3.841648817062378, 85.59809875488281, 14.178458213806152, -0.19677734375, 0.903076171875, 0.010986328125, 
241, 3680095681, 0.7241212129592896, -0.581520676612854, 0.27643847465515137, -0.24715209007263184, -0.28876444697380066, -9.732793807983398, 3.5312340259552, -3.3785674571990967, 89.3675308227539, 14.505407333374023, -0.19580078125, 0.90283203125, 0.008544921875, 
242, 3680104014, 0.7224130034446716, -0.5796416401863098, 0.2819960117340088, -0.2502667009830475, -0.35203295946121216, -9.553057670593262, 3.274406909942627, -2.531935453414917, 92.2528305053711, 14.753209114074707, -0.19677734375, 0.900146484375, 0.007080078125, 
243, 3680112347, 0.7206337451934814, -0.5776693224906921, 0.287647545337677, -0.2535039782524109, -0.38066908717155457, -9.395198822021484, 3.242604970932007, -2.023822546005249, 94.94063568115234, 14.377811431884766, -0.19482421875, 0.90234375, 0.007080078125, 
244, 3680120680, 0.7187114953994751, -0.5756813883781433, 0.29339635372161865, -0.25687289237976074, -0.33661118149757385, -9.310458183288574, 3.22098445892334, -2.778630495071411, 97.58155822753906, 13.306977272033691, -0.19189453125, 0.902587890625, -0.002685546875, 
245, 3680129013, 0.7165957093238831, -0.573695957660675, 0.2992936372756958, -0.26039814949035645, -0.3318154215812683, -9.157442092895508, 3.3206112384796143, -4.3245930671691895, 100.8438491821289, 12.38878345489502, -0.19189453125, 0.902587890625, -0.003173828125, 
246, 3680137346, 0.7142632007598877, -0.571744441986084, 0.3053666055202484, -0.2640218436717987, -0.3320942521095276, -9.072818756103516, 3.377455234527588, -6.4947829246521, 104.33562469482422, 11.744561195373535, -0.189453125, 0.90380859375, -0.004150390625, 
247, 3680145679, 0.7116981744766235, -0.5697901844978333, 0.3116537928581238, -0.26779961585998535, -0.26258590817451477, -9.038899421691895, 3.3814291954040527, -8.601502418518066, 108.07518005371094, 11.289911270141602, -0.18798828125, 0.900390625, -0.005126953125, 
248, 3680154012, 0.7089534997940063, -0.567784309387207, 0.31811198592185974, -0.27171772718429565, -0.208969846367836, -9.17479133605957, 3.281325578689575, -9.359752655029297, 112.37258911132812, 10.609753608703613, -0.18701171875, 0.904296875, -0.008056640625, 
249, 3680162345, 0.7060636281967163, -0.5656461119651794, 0.32472333312034607, -0.275850385427475, -0.1787201166152954, -9.31472396850586, 2.829723834991455, -9.002513885498047, 116.36979675292969, 9.923317909240723, -0.18603515625, 0.90185546875, -0.009033203125, 
250, 3680170678, 0.7030848860740662, -0.5633438229560852, 0.3314220607280731, -0.28016945719718933, -0.2282126545906067, -9.365413665771484, 2.4493486881256104, -7.434959888458252, 119.98715209960938, 9.015134811401367, -0.185546875, 0.903564453125, -0.011474609375, 
251, 3680179011, 0.7000712752342224, -0.5608372092247009, 0.3381088376045227, -0.28471818566322327, -0.3183612823486328, -9.401759147644043, 2.2444028854370117, -4.814130783081055, 122.3805160522461, 7.667863368988037, -0.1845703125, 0.900634765625, -0.013916015625, 
252, 3680187344, 0.6970536112785339, -0.5581011772155762, 0.3447711765766144, -0.2894689738750458, -0.26638489961624146, -9.385587692260742, 2.2083323001861572, -1.4217376708984375, 124.8382339477539, 6.415775775909424, -0.1845703125, 0.90283203125, -0.019287109375, 
253, 3680195677, 0.6939080357551575, -0.5552260279655457, 0.3514804244041443, -0.29444411396980286, -0.19419194757938385, -9.214755058288574, 2.0895018577575684, -0.4112424850463867, 127.8084945678711, 4.9738569259643555, -0.187255859375, 0.90380859375, -0.0224609375, 
254, 3680204010, 0.6905502080917358, -0.5523335933685303, 0.35828715562820435, -0.2995305061340332, -0.15613329410552979, -9.077322006225586, 2.034212827682495, -1.5079072713851929, 131.04598999023438, 3.6819100379943848, -0.1875, 0.90283203125, -0.02392578125, 
255, 3680212343, 0.686889111995697, -0.5494798421859741, 0.36525291204452515, -0.30473873019218445, -0.16958361864089966, -9.070956230163574, 1.8945820331573486, -4.447086811065674, 134.58721923828125, 2.480868101119995, -0.184326171875, 0.904541015625, -0.02783203125, 
256, 3680220676, 0.6828875541687012, -0.5467177629470825, 0.37242257595062256, -0.30997735261917114, -0.15207752585411072, -9.098740577697754, 1.8616172075271606, -8.372384071350098, 138.29664611816406, 1.6604068279266357, -0.186279296875, 0.90283203125, -0.02978515625, 
257, 3680229009, 0.6785600781440735, -0.5440465211868286, 0.379746675491333, -0.31524914503097534, -0.13911445438861847, -9.049304962158203, 1.6623890399932861, -12.39256477355957, 141.07151794433594, 0.846731960773468, -0.187255859375, 0.904052734375, -0.03369140625, 
258, 3680237342, 0.6739040613174438, -0.5414674878120422, 0.3872501850128174, -0.32050538063049316, -0.12128106504678726, -9.106321334838867, 1.319072961807251, -16.341827392578125, 144.15023803710938, 0.23743557929992676, -0.186767578125, 0.903076171875, -0.03271484375, 
259, 3680245675, 0.6691357493400574, -0.5387910604476929, 0.3947941064834595, -0.3257593512535095, -0.23279908299446106, -8.99648666381836, 1.25804603099823, -16.46534538269043, 145.5388946533203, 0.581441342830658, -0.1826171875, 0.901123046875, -0.0361328125, 
260, 3680254008, 0.664340615272522, -0.535971999168396, 0.4022480249404907, -0.3310622572898865, -0.38712143898010254, -9.017230987548828, 1.065706729888916, -14.933204650878906, 145.6050262451172, 0.3190697431564331, -0.185791015625, 0.90380859375, -0.04052734375, 
261, 3680262341, 0.6595525741577148, -0.5329900979995728, 0.40955719351768494, -0.3364443778991699, -0.37920597195625305, -9.261995315551758, 0.6963372230529785, -12.290016174316406, 145.64453125, -0.5369612574577332, -0.184326171875, 0.90234375, -0.042236328125, 
262, 3680270674, 0.6548268795013428, -0.5298402905464172, 0.41665947437286377, -0.341886043548584, -0.44315028190612793, -9.63672924041748, 0.31366756558418274, -8.773396492004395, 144.80628967285156, -1.5613958835601807, -0.186279296875, 0.9033203125, -0.043212890625, 
263, 3680279007, 0.6502860188484192, -0.526454746723175, 0.42346325516700745, -0.34737950563430786, -0.6658798456192017, -9.907155990600586, 0.12586379051208496, -3.8560097217559814, 142.3250274658203, -1.7716403007507324, -0.187744140625, 0.9013671875, -0.048583984375, 
264, 3680287340, 0.6459548473358154, -0.5228957533836365, 0.4299406409263611, -0.352836549282074, -0.876208484172821, -9.979921340942383, -0.05114458501338959, 0.8116135597229004, 138.9688262939453, -2.0071651935577393, -0.187255859375, 0.9013671875, -0.051025390625, 
265, 3680295673, 0.6417992115020752, -0.5191990733146667, 0.4360863268375397, -0.35829439759254456, -0.9512927532196045, -9.954626083374023, -0.1998586356639862, 4.666131019592285, 135.44789123535156, -2.5225565433502197, -0.187744140625, 0.903076171875, -0.054443359375, 
266, 3680304006, 0.6377918124198914, -0.5154477953910828, 0.44194844365119934, -0.3636438250541687, -1.0545505285263062, -9.791877746582031, -0.3354736864566803, 7.1975178718566895, 131.76287841796875, -2.743915557861328, -0.188232421875, 0.900634765625, -0.060546875, 
267, 3680312339, 0.6339228749275208, -0.5116825103759766, 0.4475143551826477, -0.3688814640045166, -1.268869161605835, -9.606598854064941, -0.31304094195365906, 8.870477676391602, 127.40735626220703, -2.8730874061584473, -0.186279296875, 0.90087890625, -0.06591796875, 
268, 3680320672, 0.6301277875900269, -0.5079739689826965, 0.45288994908332825, -0.3739148676395416, -1.27277672290802, -9.596802711486816, -0.30110687017440796, 8.837017059326172, 123.76091003417969, -2.619628667831421, -0.18896484375, 0.90283203125, -0.069580078125, 
269, 3680329005, 0.6264011263847351, -0.5042770504951477, 0.45812276005744934, -0.3787742555141449, -1.2546865940093994, -9.561036109924316, -0.32964152097702026, 8.63304328918457, 120.5975341796875, -1.6163302659988403, -0.188720703125, 0.89990234375, -0.070068359375, 
270, 3680337338, 0.6227281093597412, -0.5006629228591919, 0.4631998538970947, -0.3834218978881836, -1.4125875234603882, -9.431148529052734, -0.5107828974723816, 8.002174377441406, 117.24551391601562, -1.3263211250305176, -0.1875, 0.901611328125, -0.077392578125, 
271, 3680345671, 0.6191320419311523, -0.49711689352989197, 0.46809151768684387, -0.38789260387420654, -1.5280166864395142, -9.406098365783691, -0.6711971759796143, 7.572383880615234, 113.35235595703125, -0.905755341053009, -0.1884765625, 0.899658203125, -0.082763671875, 
272, 3680354004, 0.6156214475631714, -0.4936850368976593, 0.47276851534843445, -0.3921678364276886, -1.6613655090332031, -9.527316093444824, -0.8539229035377502, 7.297251224517822, 109.26458740234375, -1.1980414390563965, -0.18798828125, 0.897216796875, -0.08544921875, 
273, 3680362337, 0.6122250556945801, -0.4902811050415039, 0.47721177339553833, -0.3963508605957031, -1.7568373680114746, -9.731054306030273, -1.0169168710708618, 8.281559944152832, 105.51931762695312, -1.3627673387527466, -0.18701171875, 0.89990234375, -0.08984375, 
274, 3680370670, 0.6089528203010559, -0.48697301745414734, 0.48140913248062134, -0.4003736674785614, -1.8548985719680786, -9.86992073059082, -1.2115062475204468, 8.816411018371582, 101.27930450439453, -1.831050157546997, -0.18408203125, 0.8984375, -0.09423828125, 
275, 3680379003, 0.605861246585846, -0.4836732745170593, 0.48532766103744507, -0.4043135643005371, -1.872293472290039, -9.914458274841309, -1.2464964389801025, 10.747322082519531, 96.90816497802734, -1.862938642501831, -0.18603515625, 0.898681640625, -0.0986328125, 
276, 3680387336, 0.6029222011566162, -0.4804382026195526, 0.4890059232711792, -0.4081144332885742, -1.9341676235198975, -9.828665733337402, -1.2478572130203247, 11.827707290649414, 92.84268951416016, -2.088754415512085, -0.1826171875, 0.897705078125, -0.10205078125, 
277, 3680395669, 0.6001451015472412, -0.47724655270576477, 0.4924358129501343, -0.4118117094039917, -1.919272780418396, -9.764803886413574, -1.115025520324707, 13.23405933380127, 88.7674331665039, -2.252659797668457, -0.1845703125, 0.89990234375, -0.10693359375, 
278, 3680404002, 0.5974410772323608, -0.47409486770629883, 0.4957250654697418, -0.4154214560985565, -1.8729968070983887, -9.860708236694336, -0.9010217189788818, 13.404183387756348, 86.04729461669922, -2.1138031482696533, -0.179931640625, 0.89599609375, -0.10986328125, 
279, 3680412335, 0.5947536826133728, -0.4710043966770172, 0.49895167350769043, -0.41891545057296753, -1.8890026807785034, -9.850557327270508, -0.7829714417457581, 12.605754852294922, 84.34638214111328, -1.8975659608840942, -0.18359375, 0.898681640625, -0.114501953125, 
280, 3680420668, 0.5920696258544922, -0.4679901599884033, 0.5021376609802246, -0.42227548360824585, -1.9240636825561523, -9.742664337158203, -0.6814969778060913, 11.475927352905273, 82.91462707519531, -1.7620909214019775, -0.18115234375, 0.897216796875, -0.119384765625, 
281, 3680429001, 0.5893378257751465, -0.465006023645401, 0.505336344242096, -0.42556509375572205, -1.8791499137878418, -9.757281303405762, -0.8640464544296265, 10.218490600585938, 82.48097229003906, -1.40177321434021, -0.1826171875, 0.896728515625, -0.123291015625, 
282, 3680437334, 0.5865897536277771, -0.4620450437068939, 0.5085869431495667, -0.4287031888961792, -1.8410108089447021, -9.807476043701172, -1.0227372646331787, 8.713976860046387, 82.1510238647461, -0.2889302968978882, -0.18017578125, 0.8994140625, -0.127685546875, 
283, 3680445667, 0.5838322639465332, -0.45910871028900146, 0.5118579864501953, -0.431718111038208, -2.013439416885376, -9.655486106872559, -0.9978252053260803, 7.343734264373779, 81.2105712890625, 0.7962616086006165, -0.17822265625, 0.897705078125, -0.129150390625, 
284, 3680454000, 0.581051766872406, -0.45622631907463074, 0.5152071714401245, -0.4345318377017975, -2.027315139770508, -9.63033390045166, -0.9180586338043213, 5.01617956161499, 80.65232849121094, 2.1986489295959473, -0.17724609375, 0.897705078125, -0.132568359375, 
285, 3680462333, 0.5781803727149963, -0.45333582162857056, 0.5187410116195679, -0.43717488646507263, -1.8746658563613892, -9.732638359069824, -0.7880344986915588, 2.07859468460083, 81.49015808105469, 4.420619964599609, -0.17822265625, 0.896240234375, -0.1328125, 
286, 3680470666, 0.575158953666687, -0.45050305128097534, 0.5225083827972412, -0.43959546089172363, -1.7946932315826416, -9.806425094604492, -0.645879328250885, -2.1878020763397217, 82.94261169433594, 6.147671699523926, -0.173828125, 0.89697265625, -0.138427734375, 
287, 3680478999, 0.5719571113586426, -0.4477344751358032, 0.5265364050865173, -0.44179001450538635, -1.7750638723373413, -9.799921989440918, -0.5586217045783997, -7.123927593231201, 84.23112487792969, 8.181559562683105, -0.17333984375, 0.89892578125, -0.139892578125, 
288, 3680487332, 0.5685689449310303, -0.445091187953949, 0.530823826789856, -0.4436997175216675, -1.8259243965148926, -9.752189636230469, -0.3821667432785034, -12.783613204956055, 85.38581085205078, 9.795833587646484, -0.16943359375, 0.897705078125, -0.141357421875, 
289, 3680495665, 0.5647909045219421, -0.4427519738674164, 0.5353357195854187, -0.44544094800949097, -1.8280870914459229, -9.483501434326172, -0.4374653398990631, -20.245838165283203, 86.83831024169922, 8.070269584655762, -0.16845703125, 0.898193359375, -0.139404296875, 
290, 3680503998, 0.56072998046875, -0.4406820833683014, 0.5400615334510803, -0.44691699743270874, -1.8106449842453003, -9.389962196350098, -0.4718247354030609, -27.22452163696289, 87.58124542236328, 7.536468505859375, -0.165283203125, 0.897216796875, -0.138916015625, 
291, 3680512331, 0.5564587116241455, -0.43883147835731506, 0.5449920296669006, -0.44808974862098694, -2.0193283557891846, -9.477744102478027, -0.5521962642669678, -33.79566192626953, 87.2593002319336, 8.37162971496582, -0.164306640625, 0.897216796875, -0.13671875, 
292, 3680520664, 0.5520482063293457, -0.43717947602272034, 0.5500076413154602, -0.44903072714805603, -2.027186393737793, -9.395723342895508, -0.6201313734054565, -38.32019805908203, 86.60895538330078, 8.133724212646484, -0.160400390625, 0.9013671875, -0.13671875, 
293, 3680528997, 0.5476085543632507, -0.435625821352005, 0.5550801753997803, -0.44973450899124146, -2.0554161071777344, -9.405094146728516, -0.7443718314170837, -41.47356033325195, 84.97113800048828, 9.525022506713867, -0.1611328125, 0.90185546875, -0.133544921875, 
294, 3680537330, 0.5431896448135376, -0.43413007259368896, 0.560110330581665, -0.45030272006988525, -1.9433683156967163, -9.392122268676758, -0.5023777484893799, -42.4734992980957, 83.5816879272461, 9.804757118225098, -0.159912109375, 0.899658203125, -0.126708984375, 
295, 3680545663, 0.5388604402542114, -0.43260422348976135, 0.5650559067726135, -0.45079368352890015, -1.8173317909240723, -9.492151260375977, 0.005265273153781891, -41.78424835205078, 81.9814224243164, 10.666654586791992, -0.154052734375, 0.901123046875, -0.1240234375, 
296, 3680553996, 0.5346369743347168, -0.43106764554977417, 0.5698510408401489, -0.45125797390937805, -1.5745785236358643, -9.85694694519043, 0.21403905749320984, -40.45197677612305, 79.61512756347656, 10.870694160461426, -0.15087890625, 0.90185546875, -0.12158203125, 
297, 3680562329, 0.5306926965713501, -0.4293768107891083, 0.5742961168289185, -0.45189040899276733, -1.3980293273925781, -10.462117195129395, 0.5480269193649292, -34.163612365722656, 76.87599182128906, 10.50504207611084, -0.150390625, 0.90234375, -0.11865234375, 
298, 3680570662, 0.5271846652030945, -0.427458256483078, 0.5781991481781006, -0.45283740758895874, -1.3875514268875122, -10.735103607177734, 0.5674877166748047, -23.980684280395508, 73.01732635498047, 9.348718643188477, -0.1484375, 0.903564453125, -0.112548828125, 
299, 3680578995, 0.5241654515266418, -0.4252539277076721, 0.5814481377601624, -0.45425522327423096, -1.4754595756530762, -10.55396842956543, 0.3274777829647064, -11.335857391357422, 68.6153335571289, 7.581756114959717, -0.145751953125, 0.90771484375, -0.115478515625, 
300, 3680587328, 0.5217400789260864, -0.42275485396385193, 0.583983838558197, -0.4561232924461365, -1.6238118410110474, -10.36911392211914, -0.08393807709217072, 2.4324522018432617, 63.523193359375, 6.058288097381592, -0.146484375, 0.9072265625, -0.11376953125, 
301, 3680595661, 0.5198806524276733, -0.41995513439178467, 0.5857948660850525, -0.4585042893886566, -1.759783148765564, -10.475574493408203, -0.524755597114563, 16.411849975585938, 58.30655288696289, 4.307930946350098, -0.14501953125, 0.90087890625, -0.119873046875, 
302, 3680603994, 0.518548846244812, -0.41694480180740356, 0.5870012640953064, -0.4612089693546295, -1.8396542072296143, -10.512930870056152, -0.7454063892364502, 27.517518997192383, 53.27074432373047, 3.3472912311553955, -0.14453125, 0.903564453125, -0.122314453125, 
303, 3680612327, 0.5175474286079407, -0.4138542413711548, 0.5877788066864014, -0.46411803364753723, -1.8772035837173462, -10.31568431854248, -0.8262542486190796, 34.21379089355469, 48.857086181640625, 2.3578615188598633, -0.1435546875, 0.901611328125, -0.12890625, 
304, 3680620660, 0.5167851448059082, -0.4108316898345947, 0.5882827639579773, -0.46700534224510193, -1.8242943286895752, -10.052567481994629, -0.7634752988815308, 36.80039978027344, 44.78691864013672, 1.7482407093048096, -0.1396484375, 0.904541015625, -0.133544921875, 
305, 3680628993, 0.5160439610481262, -0.40792474150657654, 0.588780403137207, -0.4697379469871521, -1.7766494750976562, -9.838793754577637, -0.7463451623916626, 34.75739288330078, 42.60948181152344, 2.2043540477752686, -0.13916015625, 0.900634765625, -0.140625, 
306, 3680637326, 0.515277087688446, -0.4051862359046936, 0.589362382888794, -0.4722135663032532, -1.7445623874664307, -9.665535926818848, -0.7244873642921448, 30.922029495239258, 41.232784271240234, 2.778933525085449, -0.140625, 0.902099609375, -0.1435546875, 
307, 3680645659, 0.5144149661064148, -0.4025818407535553, 0.5900764465332031, -0.47448378801345825, -1.699234962463379, -9.608989715576172, -0.6156842708587646, 26.780954360961914, 40.5318603515625, 3.4620397090911865, -0.13818359375, 0.90234375, -0.1484375, 
308, 3680653992, 0.5135005712509155, -0.4000765383243561, 0.590954065322876, -0.47649693489074707, -1.7068935632705688, -9.545520782470703, -0.6287809610366821, 22.77623176574707, 40.437198638916016, 4.8444671630859375, -0.1376953125, 0.90087890625, -0.150390625, 
309, 3680662325, 0.5125101804733276, -0.3975708782672882, 0.5919720530509949, -0.47839298844337463, -1.7696739435195923, -9.343989372253418, -0.5690606236457825, 20.359785079956055, 41.04426574707031, 6.152461528778076, -0.13623046875, 0.901611328125, -0.1552734375, 
310, 3680670658, 0.5115319490432739, -0.39499542117118835, 0.593056857585907, -0.4802265167236328, -1.807361364364624, -9.314781188964844, -0.3300865888595581, 20.098520278930664, 41.891639709472656, 7.40146541595459, -0.13427734375, 0.900390625, -0.1611328125, 
311, 3680678991, 0.5104275941848755, -0.39231839776039124, 0.5942785739898682, -0.4820818305015564, -1.8429734706878662, -9.46764850616455, -0.3663952350616455, 19.278017044067383, 44.33314514160156, 8.195074081420898, -0.13134765625, 0.89990234375, -0.162109375, 
312, 3680687324, 0.5092317461967468, -0.3895229697227478, 0.5956234335899353, -0.48395007848739624, -2.0530600547790527, -9.646319389343262, -0.5349959135055542, 19.027156829833984, 47.140281677246094, 8.922855377197266, -0.13232421875, 0.89892578125, -0.165771484375, 
313, 3680695657, 0.5079320073127747, -0.3866468369960785, 0.5970776081085205, -0.4858268201351166, -2.2918078899383545, -9.573434829711914, -0.670627772808075, 18.378782272338867, 49.337886810302734, 9.417262077331543, -0.1279296875, 0.901123046875, -0.17041015625, 
314, 3680703990, 0.5064895749092102, -0.383744478225708, 0.5986557006835938, -0.48768845200538635, -2.429460048675537, -9.32995319366455, -0.8946252465248108, 16.72087287902832, 51.10213088989258, 9.654067993164062, -0.12744140625, 0.899169921875, -0.172607421875, 
315, 3680712323, 0.5048760771751404, -0.38086819648742676, 0.6004025936126709, -0.48946553468704224, -2.515435218811035, -9.132745742797852, -1.082050085067749, 13.813088417053223, 53.063446044921875, 9.76907730102539, -0.12451171875, 0.89990234375, -0.17578125, 
316, 3680720656, 0.5031092166900635, -0.37805020809173584, 0.6023256778717041, -0.49110403656959534, -2.669140100479126, -8.92668342590332, -1.1007201671600342, 10.401802062988281, 54.80412292480469, 9.93349552154541, -0.121337890625, 0.897705078125, -0.179931640625, 
317, 3680728989, 0.5011127591133118, -0.37532734870910645, 0.6044666171073914, -0.4926006495952606, -2.820437431335449, -8.831910133361816, -1.2520620822906494, 5.785106658935547, 56.46170425415039, 9.907549858093262, -0.12109375, 0.900634765625, -0.18017578125, 
318, 3680737322, 0.4988986551761627, -0.3727768361568451, 0.6068494319915771, -0.4938535988330841, -2.9293580055236816, -8.740219116210938, -1.5006345510482788, -0.07312885671854019, 57.8839225769043, 9.730299949645996, -0.115478515625, 0.89990234375, -0.1845703125, 
319, 3680745655, 0.49640727043151855, -0.3704385757446289, 0.6095098257064819, -0.4948464334011078, -3.052276849746704, -8.618266105651855, -1.8797369003295898, -7.109970569610596, 58.95789337158203, 9.47049617767334, -0.114501953125, 0.8994140625, -0.18310546875, 
320, 3680753988, 0.4937094748020172, -0.36841633915901184, 0.6124217510223389, -0.4954594075679779, -3.13555645942688, -8.50987434387207, -2.1759393215179443, -15.109477996826172, 58.68857192993164, 9.103981971740723, -0.112548828125, 0.901123046875, -0.18408203125, 
321, 3680762321, 0.4907662272453308, -0.36674466729164124, 0.6156049966812134, -0.4956788718700409, -3.1776461601257324, -8.44525146484375, -2.774407148361206, -23.97665023803711, 57.861881256103516, 8.694720268249512, -0.109619140625, 0.900146484375, -0.181396484375, 
322, 3680770654, 0.4876936376094818, -0.3654923141002655, 0.6189444661140442, -0.49547770619392395, -3.2207014560699463, -8.460489273071289, -3.3543107509613037, -32.002464294433594, 55.38651657104492, 7.722246170043945, -0.107177734375, 0.901611328125, -0.178955078125, 
323, 3680778987, 0.4846942722797394, -0.36465513706207275, 0.6222004890441895, -0.49495935440063477, -3.255709171295166, -8.620662689208984, -3.8236846923828125, -36.60271453857422, 49.402713775634766, 6.543652534484863, -0.107666015625, 0.900390625, -0.175537109375, 
324, 3680787320, 0.4820786714553833, -0.3642759919166565, 0.6250447034835815, -0.4942086637020111, -3.1788330078125, -8.804146766662598, -4.128636837005615, -36.86617660522461, 39.46962356567383, 4.570833683013916, -0.10400390625, 0.90283203125, -0.16943359375, 
325, 3680795653, 0.4799787998199463, -0.3642441928386688, 0.6272950172424316, -0.49342426657676697, -3.020911455154419, -9.083879470825195, -4.329245090484619, -32.853179931640625, 28.15996551513672, 2.470381736755371, -0.1015625, 0.903564453125, -0.167236328125, 
326, 3680803986, 0.47850754857063293, -0.3644154667854309, 0.628820538520813, -0.49278464913368225, -2.908956289291382, -9.343101501464844, -4.581778049468994, -24.860658645629883, 17.711091995239258, 0.26478734612464905, -0.10107421875, 0.90478515625, -0.162353515625, 
327, 3680812319, 0.47775378823280334, -0.36463069915771484, 0.6294541954994202, -0.4925476908683777, -2.9704484939575195, -9.563881874084473, -4.832955837249756, -11.996737480163574, 6.941215515136719, -2.2514917850494385, -0.099609375, 0.904296875, -0.159423828125, 
328, 3680820652, 0.4778897166252136, -0.3648228943347931, 0.6290754079818726, -0.49275749921798706, -2.9925572872161865, -9.796501159667969, -5.108572959899902, 3.3067333698272705, -4.598318576812744, -4.156933307647705, -0.10205078125, 0.90576171875, -0.160400390625, 
329, 3680828985, 0.4788751006126404, -0.36497417092323303, 0.6277356743812561, -0.4933971166610718, -2.992746353149414, -9.741593360900879, -5.284283638000488, 18.157772064208984, -16.23705291748047, -5.577938079833984, -0.1044921875, 0.90185546875, -0.160888671875, 
330, 3680837318, 0.48068496584892273, -0.3651813268661499, 0.625556468963623, -0.49425047636032104, -2.9632959365844727, -9.362483024597168, -5.331666946411133, 29.378402709960938, -27.77939224243164, -6.201880931854248, -0.105224609375, 0.90478515625, -0.1640625, 
331, 3680845651, 0.48313987255096436, -0.36553066968917847, 0.6227202415466309, -0.4951794743537903, -2.9571619033813477, -8.961652755737305, -5.357644557952881, 36.925411224365234, -38.74870300292969, -6.737534523010254, -0.106689453125, 0.9033203125, -0.16796875, 
332, 3680853984, 0.4860556125640869, -0.3661271929740906, 0.6194376349449158, -0.4960019886493683, -2.9117860794067383, -8.767022132873535, -5.413162708282471, 39.59545135498047, -47.38733673095703, -7.354179382324219, -0.108154296875, 0.90283203125, -0.17236328125, 
333, 3680862317, 0.48923033475875854, -0.3670269548892975, 0.6159581542015076, -0.496548593044281, -2.9222500324249268, -8.562372207641602, -5.422358512878418, 38.04716110229492, -54.913753509521484, -7.222115516662598, -0.108154296875, 0.902099609375, -0.180419921875, 
334, 3680870650, 0.4926424026489258, -0.36830568313598633, 0.6123392581939697, -0.49670422077178955, -2.826646327972412, -8.327710151672363, -5.435609340667725, 34.153541564941406, -61.87534713745117, -6.981522560119629, -0.109619140625, 0.902099609375, -0.182861328125, 
335, 3680878983, 0.49610620737075806, -0.3700501024723053, 0.6087132692337036, -0.49641698598861694, -2.656776189804077, -8.168312072753906, -5.528962135314941, 27.84335708618164, -68.28587341308594, -7.497757434844971, -0.114501953125, 0.89794921875, -0.1875, 
336, 3680887316, 0.49966156482696533, -0.3723585903644562, 0.605036735534668, -0.49561887979507446, -2.521300792694092, -8.215982437133789, -5.7706098556518555, 20.26664161682129, -75.34703063964844, -8.453997611999512, -0.115966796875, 0.8984375, -0.18701171875, 
337, 3680895649, 0.5032828450202942, -0.375288724899292, 0.6013272404670715, -0.4942573308944702, -2.3615341186523438, -8.338607788085938, -6.009089469909668, 12.197460174560547, -83.76509857177734, -9.39723014831543, -0.117431640625, 0.8974609375, -0.186279296875, 
338, 3680903982, 0.5071455240249634, -0.37887459993362427, 0.5974014401435852, -0.49233004450798035, -2.2048871517181396, -8.35683822631836, -6.109866619110107, 5.369515895843506, -94.11143493652344, -10.455684661865234, -0.121337890625, 0.896728515625, -0.187744140625, 
339, 3680912315, 0.5113574266433716, -0.3829346001148224, 0.593034029006958, -0.49010738730430603, -2.072070360183716, -8.491732597351074, -6.115139961242676, 4.845658779144287, -105.350341796875, -12.164628028869629, -0.123046875, 0.898193359375, -0.186767578125, 
340, 3680920648, 0.5163668990135193, -0.38721925020217896, 0.5877326726913452, -0.4878697395324707, -2.2103512287139893, -9.017522811889648, -5.809884548187256, 13.23892593383789, -119.47567749023438, -13.498311042785645, -0.12744140625, 0.8955078125, -0.182861328125, 
341, 3680928981, 0.522032618522644, -0.39139994978904724, 0.5816192626953125, -0.485826313495636, -2.023099184036255, -9.544506072998047, -4.9871625900268555, 24.947256088256836, -129.42861938476562, -13.907567024230957, -0.130859375, 0.89599609375, -0.1865234375, 
342, 3680937314, 0.528376579284668, -0.3952408730983734, 0.5746590495109558, -0.4841383695602417, -1.9085596799850464, -9.813955307006836, -4.072933197021484, 39.07893753051758, -136.133056640625, -13.819279670715332, -0.13671875, 0.893798828125, -0.187744140625, 
343, 3680945647, 0.5352067351341248, -0.39868301153182983, 0.5670404434204102, -0.4827949106693268, -1.9264756441116333, -9.76427936553955, -3.3202731609344482, 52.24462127685547, -140.85321044921875, -13.471436500549316, -0.141845703125, 0.894287109375, -0.1923828125, 
344, 3680953980, 0.542462944984436, -0.40180808305740356, 0.5588261485099792, -0.48168209195137024, -1.9924064874649048, -9.470797538757324, -2.976595401763916, 62.1468391418457, -144.57151794433594, -13.174715042114258, -0.146728515625, 0.89306640625, -0.19384765625, 
345, 3680962313, 0.5498911142349243, -0.4048329293727875, 0.5503044128417969, -0.4805361330509186, -1.9553471803665161, -9.179289817810059, -2.9136602878570557, 66.1732406616211, -148.39779663085938, -12.68075180053711, -0.15185546875, 0.892333984375, -0.203857421875, 
346, 3680970646, 0.5574170351028442, -0.4079999625682831, 0.5416350960731506, -0.4790342152118683, -1.7856415510177612, -8.788688659667969, -3.038855791091919, 63.37725830078125, -152.48175048828125, -11.277170181274414, -0.158203125, 0.8896484375, -0.20703125, 
347, 3680978979, 0.5647270083427429, -0.41160428524017334, 0.533109724521637, -0.4769480526447296, -1.593887448310852, -8.338059425354004, -3.044166088104248, 54.10624694824219, -156.61534118652344, -10.646583557128906, -0.1591796875, 0.88818359375, -0.210693359375, 
348, 3680987312, 0.5717888474464417, -0.4159177839756012, 0.5247287750244141, -0.47407782077789307, -1.2797424793243408, -8.147791862487793, -2.83695125579834, 39.906795501708984, -162.07980346679688, -10.59018325805664, -0.16650390625, 0.885986328125, -0.212890625, 
349, 3680995645, 0.5785046815872192, -0.4210382401943207, 0.5165838003158569, -0.47034069895744324, -0.8813537955284119, -8.215751647949219, -2.4477009773254395, 24.42860221862793, -168.61053466796875, -10.499032020568848, -0.17041015625, 0.8857421875, -0.212890625, 
350, 3681003978, 0.5849530100822449, -0.42693227529525757, 0.5084946751594543, -0.46584558486938477, -0.5853626132011414, -8.359764099121094, -1.8694961071014404, 10.341323852539062, -174.99148559570312, -11.3756685256958, -0.175537109375, 0.884521484375, -0.209716796875, 
351, 3681012311, 0.5911165475845337, -0.4333450496196747, 0.5004016757011414, -0.4608811140060425, -0.42603060603141785, -8.639745712280273, -1.0440270900726318, 1.9166526794433594, -179.7485809326172, -13.094319343566895, -0.183837890625, 0.8857421875, -0.206787109375, 
352, 3681020644, 0.5974042415618896, -0.43979325890541077, 0.49184396862983704, -0.45585063099861145, -0.3265880346298218, -9.190710067749023, -0.04797779768705368, 4.182687282562256, -184.3634796142578, -14.762953758239746, -0.188720703125, 0.883544921875, -0.201416015625, 
353, 3681028977, 0.6040003299713135, -0.4457777738571167, 0.4826376438140869, -0.45116132497787476, -0.38203009963035583, -9.927741050720215, 0.5817366242408752, 16.926610946655273, -187.43106079101562, -16.459251403808594, -0.19482421875, 0.884765625, -0.19970703125, 
354, 3681037310, 0.6110840439796448, -0.4510747194290161, 0.4725646674633026, -0.4470016658306122, -0.4751841425895691, -10.417768478393555, 0.6706125736236572, 33.821807861328125, -189.73008728027344, -18.543498992919922, -0.19873046875, 0.884521484375, -0.19580078125, 
355, 3681045643, 0.6186164617538452, -0.4555504322052002, 0.46187683939933777, -0.4432576596736908, -0.31785282492637634, -10.619935035705566, 0.39138373732566833, 50.68129348754883, -190.8611602783203, -17.79974365234375, -0.20751953125, 0.8798828125, -0.197509765625, 
356, 3681053976, 0.6266285181045532, -0.4593318700790405, 0.4506416916847229, -0.4396510124206543, -0.12688887119293213, -10.43242073059082, -0.012456048280000687, 63.107540130615234, -192.79403686523438, -15.018327713012695, -0.214111328125, 0.880126953125, -0.1962890625, 
357, 3681062309, 0.6348419189453125, -0.46277400851249695, 0.4392685294151306, -0.4357514977455139, -0.10909102112054825, -9.853845596313477, -0.2942045331001282, 67.02982330322266, -195.69418334960938, -10.100048065185547, -0.218017578125, 0.8779296875, -0.200927734375, 
358, 3681070642, 0.6429941058158875, -0.4663569927215576, 0.42789968848228455, -0.4312675893306732, -0.023697303608059883, -9.317225456237793, -0.2329407036304474, 61.14686584472656, -199.18719482421875, -6.135561943054199, -0.223388671875, 0.875, -0.203125, 
359, 3681078975, 0.6507000923156738, -0.4704943597316742, 0.4169175922870636, -0.4259393513202667, 0.29726696014404297, -8.905892372131348, 0.30724596977233887, 46.85281753540039, -202.46237182617188, -2.170914649963379, -0.229248046875, 0.875732421875, -0.20263671875, 
360, 3681087308, 0.6577688455581665, -0.4753424823284149, 0.4064664840698242, -0.41975563764572144, 0.8638501763343811, -8.684320449829102, 1.2553590536117554, 27.625629425048828, -203.13922119140625, 1.1856372356414795, -0.234619140625, 0.87353515625, -0.200927734375, 
361, 3681095641, 0.6639796495437622, -0.48089560866355896, 0.3967748284339905, -0.41286835074424744, 1.2415467500686646, -8.83173942565918, 2.3412840366363525, 8.05746078491211, -200.7424774169922, 3.5289855003356934, -0.23876953125, 0.875732421875, -0.196044921875, 
362, 3681103974, 0.6695122122764587, -0.4868077039718628, 0.3876872658729553, -0.40557411313056946, 1.4677525758743286, -9.34650993347168, 3.288025379180908, -6.09296178817749, -195.65231323242188, 5.522013187408447, -0.240478515625, 0.8740234375, -0.189208984375, 
363, 3681112307, 0.6745355725288391, -0.4926482141017914, 0.37914642691612244, -0.39820581674575806, 1.7057942152023315, -10.278815269470215, 3.7756645679473877, -11.516059875488281, -188.1482696533203, 7.198683738708496, -0.24560546875, 0.877685546875, -0.17919921875, 
364, 3681120640, 0.679408609867096, -0.4979288578033447, 0.37084728479385376, -0.3911052644252777, 1.7813314199447632, -11.193419456481934, 3.7180399894714355, -8.036772727966309, -180.09591674804688, 8.656309127807617, -0.24658203125, 0.87451171875, -0.17431640625, 
365, 3681128973, 0.6843470335006714, -0.5024509429931641, 0.36268150806427, -0.3843103349208832, 1.4339513778686523, -11.517098426818848, 3.3816323280334473, 1.078503131866455, -173.14659118652344, 10.72474479675293, -0.24853515625, 0.876220703125, -0.1640625, 
366, 3681137306, 0.6894992589950562, -0.50624018907547, 0.3543891906738281, -0.3778097629547119, 0.8034507632255554, -11.14173698425293, 2.7469632625579834, 10.84650993347168, -169.3592529296875, 12.074230194091797, -0.24755859375, 0.877197265625, -0.159912109375, 
367, 3681145639, 0.6947364211082458, -0.5096175670623779, 0.3459709882736206, -0.3714234530925751, 0.39483603835105896, -10.708669662475586, 2.0034170150756836, 17.23337745666504, -168.5654296875, 12.450128555297852, -0.2529296875, 0.875244140625, -0.15576171875, 
368, 3681153972, 0.6999955773353577, -0.5128486752510071, 0.33735859394073486, -0.3649683892726898, 0.34474387764930725, -10.2742338180542, 1.3174017667770386, 18.77183723449707, -169.72767639160156, 12.665912628173828, -0.25439453125, 0.877685546875, -0.151611328125, 
369, 3681162305, 0.7050618529319763, -0.5162484645843506, 0.32877498865127563, -0.3581932783126831, 0.5295574069023132, -9.742551803588867, 1.2453914880752563, 14.838397979736328, -172.16580200195312, 14.070054054260254, -0.25244140625, 0.877685546875, -0.147216796875, 
370, 3681170638, 0.7098727226257324, -0.5199414491653442, 0.3202817142009735, -0.35097217559814453, 0.8719643950462341, -9.213316917419434, 2.018418550491333, 7.041197776794434, -174.23776245117188, 16.58147621154785, -0.25537109375, 0.87890625, -0.144287109375, 
371, 3681178971, 0.7142871022224426, -0.523948609828949, 0.3119968771934509, -0.34343841671943665, 1.3787437677383423, -9.216001510620117, 2.9318270683288574, -1.242938756942749, -174.20933532714844, 17.826797485351562, -0.25439453125, 0.87890625, -0.138916015625, 
372, 3681187304, 0.7183100581169128, -0.5280919671058655, 0.30406761169433594, -0.335726797580719, 1.6848396062850952, -9.740635871887207, 3.8749797344207764, -7.175580978393555, -171.48020935058594, 19.545928955078125, -0.25439453125, 0.881591796875, -0.130859375, 
373, 3681195637, 0.7221209406852722, -0.5321177840232849, 0.29639506340026855, -0.32796651124954224, 1.5778751373291016, -10.026283264160156, 4.225991249084473, -8.962597846984863, -167.86875915527344, 21.41956329345703, -0.25390625, 0.883056640625, -0.125, 
374, 3681203970, 0.7259818911552429, -0.5357263684272766, 0.2887720763683319, -0.3202786147594452, 1.5081578493118286, -10.30341911315918, 4.216372489929199, -5.0305023193359375, -164.6492156982422, 23.12972068786621, -0.254150390625, 0.8828125, -0.114990234375, 
375, 3681212303, 0.7299374341964722, -0.5388230681419373, 0.2811565399169922, -0.31278133392333984, 1.3737788200378418, -10.51196002960205, 3.8559391498565674, 2.1177451610565186, -161.79942321777344, 23.588512420654297, -0.2529296875, 0.884765625, -0.111572265625, 
376, 3681220636, 0.7341501712799072, -0.5413036942481995, 0.27330708503723145, -0.3055117130279541, 1.1727325916290283, -10.414641380310059, 3.239866256713867, 11.47694206237793, -160.29931640625, 23.20254135131836, -0.251220703125, 0.8857421875, -0.10400390625, 
377, 3681228969, 0.7384305000305176, -0.5433763265609741, 0.2654295563697815, -0.29837852716445923, 0.9409853219985962, -10.24201774597168, 2.50827693939209, 17.320472717285156, -158.64019775390625, 23.297819137573242, -0.249755859375, 0.88818359375, -0.102294921875, 
378, 3681237302, 0.7426249384880066, -0.5453671216964722, 0.25749242305755615, -0.29120534658432007, 0.8172178864479065, -9.673399925231934, 1.901239037513733, 17.0177059173584, -158.35980224609375, 23.339059829711914, -0.248291015625, 0.88720703125, -0.099853515625, 
379, 3681245635, 0.7464780211448669, -0.5476261377334595, 0.24968211352825165, -0.2838219404220581, 0.8044096231460571, -9.083558082580566, 1.6401779651641846, 11.055651664733887, -158.9641876220703, 23.96057891845703, -0.244873046875, 0.888671875, -0.095947265625, 
380, 3681253968, 0.749842643737793, -0.5504083633422852, 0.24198536574840546, -0.2761339843273163, 0.925055205821991, -8.730466842651367, 1.7187044620513916, -0.07274611294269562, -160.0001983642578, 24.400726318359375, -0.243896484375, 0.891357421875, -0.08740234375, 
381, 3681262301, 0.7525626420974731, -0.5538796782493591, 0.2345443069934845, -0.2680968940258026, 1.0977483987808228, -8.603206634521484, 1.792358160018921, -13.606524467468262, -160.9845428466797, 25.039976119995117, -0.239990234375, 0.891845703125, -0.082275390625, 
382, 3681270634, 0.754675567150116, -0.5579875707626343, 0.2272689789533615, -0.2597762644290924, 1.145440697669983, -8.83627700805664, 1.921404242515564, -26.928970336914062, -161.3123016357422, 25.098649978637695, -0.23828125, 0.890380859375, -0.0732421875, 
383, 3681278967, 0.7562339305877686, -0.5626215934753418, 0.2202100306749344, -0.25118687748908997, 1.1881545782089233, -9.273924827575684, 2.193970203399658, -37.677268981933594, -161.727783203125, 25.745750427246094, -0.23388671875, 0.893798828125, -0.067626953125, 
384, 3681287300, 0.7575259208679199, -0.5674424171447754, 0.2131408452987671, -0.2423938512802124, 1.21953284740448, -9.722376823425293, 2.4091379642486572, -42.84115219116211, -162.79539489746094, 26.476072311401367, -0.23095703125, 0.89501953125, -0.0556640625, 
385, 3681295633, 0.7587733268737793, -0.5721212029457092, 0.20599786937236786, -0.23350682854652405, 1.2237197160720825, -10.287135124206543, 2.616884469985962, -41.17594528198242, -164.16262817382812, 26.964942932128906, -0.229736328125, 0.89697265625, -0.043701171875, 
386, 3681303966, 0.7603011727333069, -0.5762543678283691, 0.1986079216003418, -0.2246064841747284, 1.1476999521255493, -10.901376724243164, 2.776374101638794, -33.08266067504883, -165.41836547851562, 27.789710998535156, -0.225341796875, 0.897705078125, -0.03271484375, 
387, 3681312299, 0.7622184157371521, -0.5796384215354919, 0.1910201758146286, -0.21580970287322998, 1.1300650835037231, -11.163619995117188, 2.7946648597717285, -20.72315788269043, -165.87852478027344, 28.195133209228516, -0.21875, 0.897216796875, -0.025634765625, 
388, 3681320632, 0.7646051645278931, -0.58217453956604, 0.18321144580841064, -0.20713643729686737, 1.1430779695510864, -11.096761703491211, 2.6552469730377197, -7.6622796058654785, -165.46218872070312, 28.951709747314453, -0.21435546875, 0.899169921875, -0.0185546875, 
389, 3681328965, 0.767324686050415, -0.5840219259262085, 0.17527303099632263, -0.19857172667980194, 1.1029231548309326, -10.764772415161133, 2.3808114528656006, 2.89003586769104, -164.83412170410156, 29.45551872253418, -0.209716796875, 0.898681640625, -0.0126953125, 
390, 3681337298, 0.7701412439346313, -0.5854769945144653, 0.16733571887016296, -0.19004762172698975, 1.0584107637405396, -10.333792686462402, 2.0786118507385254, 8.426868438720703, -164.152099609375, 30.044841766357422, -0.205810546875, 0.90234375, -0.007568359375, 
391, 3681345631, 0.7728676795959473, -0.5867984294891357, 0.1594150960445404, -0.1815214604139328, 1.0875052213668823, -9.924783706665039, 1.8382622003555298, 9.065112113952637, -163.4535369873047, 30.28592300415039, -0.201904296875, 0.904296875, -0.0048828125, 
392, 3681353964, 0.7753658890724182, -0.5881936550140381, 0.1515280306339264, -0.17290277779102325, 1.1887098550796509, -9.597393035888672, 1.7624574899673462, 5.630849361419678, -163.01551818847656, 30.99775505065918, -0.196044921875, 0.903564453125, -0.002685546875, 
393, 3681362297, 0.7773891091346741, -0.5899503231048584, 0.14386196434497833, -0.1641610562801361, 1.308895230293274, -9.290322303771973, 1.8487305641174316, -2.3327441215515137, -162.03192138671875, 32.02016067504883, -0.1904296875, 0.906005859375, 0.001953125, 
394, 3681370630, 0.7788689136505127, -0.5921702980995178, 0.13638821244239807, -0.15529344975948334, 1.474402666091919, -9.165970802307129, 2.0461432933807373, -12.89120864868164, -160.46070861816406, 32.97713088989258, -0.185546875, 0.905517578125, 0.0078125, 
395, 3681378963, 0.7798093557357788, -0.5948289036750793, 0.12918367981910706, -0.14631341397762299, 1.5650815963745117, -9.351676940917969, 2.2947933673858643, -22.264522552490234, -158.9070281982422, 34.19761657714844, -0.180419921875, 0.905517578125, 0.015380859375, 
396, 3681387296, 0.7804195880889893, -0.5976835489273071, 0.12209391593933105, -0.13723358511924744, 1.535979986190796, -9.70509147644043, 2.6740286350250244, -27.9776554107666, -157.81201171875, 35.39588165283203, -0.176025390625, 0.909423828125, 0.0224609375, 
397, 3681395629, 0.7808670997619629, -0.6005011796951294, 0.11513083428144455, -0.128101646900177, 1.5719417333602905, -10.151649475097656, 3.2127695083618164, -28.762392044067383, -157.0579376220703, 36.5557975769043, -0.16552734375, 0.90869140625, 0.03076171875, 
398, 3681403962, 0.7814658880233765, -0.6029009819030762, 0.10814055800437927, -0.11894319951534271, 1.6173585653305054, -10.595887184143066, 3.637307643890381, -23.503555297851562, -156.55087280273438, 37.73809051513672, -0.1611328125, 0.9111328125, 0.034423828125, 
399, 3681412295, 0.7823897004127502, -0.6046227216720581, 0.10119795054197311, -0.10989482700824738, 1.5927425622940063, -10.951123237609863, 3.7605607509613037, -12.977386474609375, -155.02525329589844, 38.29738235473633, -0.153564453125, 0.90966796875, 0.041015625, 
400, 3681420628, 0.7837554216384888, -0.6055266261100769, 0.09425482153892517, -0.10100147128105164, 1.578950047492981, -11.008126258850098, 3.623471736907959, -0.747157871723175, -152.59642028808594, 38.62527847290039, -0.14501953125, 0.910400390625, 0.045654296875, 
401, 3681428961, 0.7853875756263733, -0.6058299541473389, 0.08743193000555038, -0.09226240962743759, 1.4827911853790283, -10.615164756774902, 3.2419044971466064, 8.409268379211426, -149.97801208496094, 38.904354095458984, -0.13916015625, 0.9140625, 0.0478515625, 
402, 3681437294, 0.787123441696167, -0.6057711839675903, 0.08067169040441513, -0.08360673487186432, 1.3870971202850342, -9.919160842895508, 2.807100534439087, 12.77430248260498, -147.8203125, 39.29983139038086, -0.129638671875, 0.911376953125, 0.050048828125, 
403, 3681445627, 0.7886986136436462, -0.6057013273239136, 0.07401222735643387, -0.07498455047607422, 1.3272234201431274, -9.24134349822998, 2.612983226776123, 11.887616157531738, -146.68687438964844, 39.39622497558594, -0.122802734375, 0.9150390625, 0.05078125, 
404, 3681453960, 0.7898927927017212, -0.6059213280677795, 0.06740943342447281, -0.06636739522218704, 1.3743005990982056, -8.75693130493164, 2.578383445739746, 5.106414794921875, -145.5142822265625, 39.33414840698242, -0.114990234375, 0.916748046875, 0.052001953125, 
405, 3681462293, 0.7903686165809631, -0.6068546175956726, 0.06103133410215378, -0.05779588967561722, 1.540895700454712, -8.262495040893555, 2.7723000049591064, -8.394972801208496, -143.07762145996094, 39.182979583740234, -0.10986328125, 0.91455078125, 0.052001953125, 
406, 3681470626, 0.7901147603988647, -0.6085255742073059, 0.05484487861394882, -0.04926881939172745, 1.6925753355026245, -8.207189559936523, 3.0881707668304443, -23.012678146362305, -140.1978302001953, 39.31110763549805, -0.100341796875, 0.9169921875, 0.059326171875, 
407, 3681478959, 0.7891671657562256, -0.6108835935592651, 0.048889487981796265, -0.040822431445121765, 1.7148011922836304, -8.483356475830078, 3.453791618347168, -36.378822326660156, -136.95376586914062, 39.378780364990234, -0.093505859375, 0.916259765625, 0.064208984375, 
408, 3681487292, 0.7877634167671204, -0.6136250495910645, 0.04311526566743851, -0.03247247636318207, 1.7446823120117188, -9.135754585266113, 4.251130104064941, -44.0446891784668, -134.44581604003906, 39.1181755065918, -0.0869140625, 0.918701171875, 0.069091796875, 
409, 3681495625, 0.7863192558288574, -0.6162254214286804, 0.037441954016685486, -0.02421814203262329, 1.7288390398025513, -10.060992240905762, 4.586942672729492, -42.87228012084961, -132.43801879882812, 39.012413024902344, -0.078857421875, 0.916259765625, 0.075927734375, 
410, 3681503958, 0.7852127552032471, -0.6182119250297546, 0.0318465530872345, -0.016149863600730896, 1.5128154754638672, -11.020716667175293, 4.456209182739258, -33.64051818847656, -129.64923095703125, 38.29822540283203, -0.072021484375, 0.9169921875, 0.082763671875, 
411, 3681512291, 0.784651517868042, -0.6193353533744812, 0.026393592357635498, -0.008301220834255219, 1.268646240234375, -11.432268142700195, 4.132500171661377, -19.320302963256836, -126.6171875, 37.43593215942383, -0.06396484375, 0.91650390625, 0.08740234375, 
412, 3681520624, 0.7846982479095459, -0.6195375919342041, 0.021014243364334106, -0.0006479024887084961, 1.180256724357605, -11.115656852722168, 3.5836105346679688, -4.441702365875244, -123.94867706298828, 36.56049728393555, -0.055419921875, 0.916259765625, 0.091552734375, 
413, 3681528957, 0.785190761089325, -0.6190328598022461, 0.01572791486978531, 0.006821267306804657, 1.1381770372390747, -10.462909698486328, 2.925708532333374, 7.315516948699951, -121.68019104003906, 35.34795379638672, -0.050048828125, 0.9189453125, 0.093017578125, 
414, 3681537290, 0.7859678268432617, -0.6180346012115479, 0.01039344072341919, 0.014138966798782349, 1.0441592931747437, -9.783906936645508, 2.5270471572875977, 14.817185401916504, -120.8370590209961, 33.60982131958008, -0.0419921875, 0.916015625, 0.09326171875, 
415, 3681545623, 0.786784827709198, -0.6168535351753235, 0.004960827529430389, 0.021379366517066956, 1.0436469316482544, -9.034489631652832, 2.4595487117767334, 17.392732620239258, -121.40416717529297, 31.72743034362793, -0.03662109375, 0.9189453125, 0.090087890625, 
416, 3681553956, 0.7873978614807129, -0.6158031821250916, -0.0005763024091720581, 0.028479360044002533, 1.200076937675476, -8.393153190612793, 2.6436479091644287, 13.957273483276367, -121.16940307617188, 29.603403091430664, -0.027099609375, 0.918701171875, 0.086669921875, 
417, 3681562289, 0.7876895070075989, -0.6150394678115845, -0.006113976240158081, 0.035418421030044556, 1.3475180864334106, -8.236405372619629, 3.0008318424224854, 8.387377738952637, -119.72592163085938, 27.74005889892578, -0.021240234375, 0.9208984375, 0.0859375, 
418, 3681570622, 0.787638783454895, -0.6146024465560913, -0.0115642249584198, 0.04213368147611618, 1.399506688117981, -8.492079734802246, 3.329848289489746, 1.7201839685440063, -116.73219299316406, 26.493688583374023, -0.014892578125, 0.919677734375, 0.085693359375, 
419, 3681578955, 0.7872388958930969, -0.6145162582397461, -0.016869954764842987, 0.04858101159334183, 1.4116328954696655, -8.887491226196289, 3.4346675872802734, -4.753110408782959, -112.7202377319336, 24.827030181884766, -0.0087890625, 0.9208984375, 0.084228515625, 
420, 3681587288, 0.7865781784057617, -0.6146854758262634, -0.022021446377038956, 0.054696522653102875, 1.430221676826477, -9.265045166015625, 3.3265843391418457, -9.93051528930664, -108.171142578125, 23.015958786010742, -0.00439453125, 0.9208984375, 0.08740234375, 
421, 3681595621, 0.7857429385185242, -0.6150058507919312, -0.027016568928956985, 0.060548778623342514, 1.372948169708252, -9.423774719238281, 2.9999544620513916, -12.789830207824707, -104.10311126708984, 21.424924850463867, 0.002197265625, 0.920166015625, 0.090576171875, 
422, 3681603954, 0.7849088907241821, -0.6152534484863281, -0.03193319961428642, 0.06619474291801453, 1.2778502702713013, -9.547846794128418, 2.75352144241333, -12.217774391174316, -101.6614761352539, 20.074209213256836, 0.007568359375, 0.91943359375, 0.089111328125, 
423, 3681612287, 0.7841185331344604, -0.6153721213340759, -0.03679584339261055, 0.07170350849628448, 1.186752200126648, -9.684504508972168, 2.4020185470581055, -10.266048431396484, -99.83113098144531, 18.704952239990234, 0.010498046875, 0.919921875, 0.093505859375, 
424, 3681620620, 0.7834224700927734, -0.6153010129928589, -0.0416397862136364, 0.07707294821739197, 1.110023856163025, -9.623014450073242, 2.1216483116149902, -7.675143241882324, -98.77489471435547, 17.42071533203125, 0.01513671875, 0.9169921875, 0.09228515625, 
425, 3681628953, 0.7828572988510132, -0.6149795055389404, -0.04650240018963814, 0.08241486549377441, 1.0186737775802612, -9.425402641296387, 2.3392133712768555, -3.9051811695098877, -98.93231201171875, 16.6822509765625, 0.02001953125, 0.919677734375, 0.0927734375, 
426, 3681637286, 0.7824088335037231, -0.6144276857376099, -0.051349420100450516, 0.08774107694625854, 1.017329454421997, -9.23853588104248, 2.6239266395568848, -0.23890607059001923, -98.62120819091797, 16.126928329467773, 0.025634765625, 0.918212890625, 0.093017578125, 
427, 3681645619, 0.7819843292236328, -0.6137869954109192, -0.05610661953687668, 0.09294174611568451, 1.0217534303665161, -8.952064514160156, 2.850877285003662, 0.9355807304382324, -96.6404800415039, 15.447038650512695, 0.028564453125, 0.9189453125, 0.091552734375, 
428, 3681653952, 0.7815126180648804, -0.6131740808486938, -0.06072621047496796, 0.0979190543293953, 1.0129084587097168, -8.81533432006836, 3.0288074016571045, 0.053009070456027985, -93.5181884765625, 14.523908615112305, 0.034423828125, 0.920654296875, 0.09033203125, 
429, 3681662285, 0.780891478061676, -0.6127291917800903, -0.0652068480849266, 0.10266267508268356, 0.9910549521446228, -8.646510124206543, 3.0800771713256836, -2.8482720851898193, -89.71533966064453, 13.303528785705566, 0.0380859375, 0.918212890625, 0.08935546875, 
430, 3681670618, 0.7801154851913452, -0.6124882698059082, -0.06950943917036057, 0.10708118230104446, 0.9210837483406067, -8.498220443725586, 3.041220188140869, -6.55595588684082, -85.15180206298828, 11.936505317687988, 0.041015625, 0.9189453125, 0.0888671875, 
431, 3681678951, 0.7791344523429871, -0.6125045418739319, -0.07369937002658844, 0.11124899238348007, 0.7879408597946167, -8.525766372680664, 2.994781017303467, -10.958013534545898, -81.38583374023438, 10.525835037231445, 0.04248046875, 0.91943359375, 0.08984375, 
432, 3681687284, 0.7779718637466431, -0.6127572655677795, -0.07780575752258301, 0.11512913554906845, 0.7541084289550781, -8.620089530944824, 2.9716122150421143, -15.342782020568848, -78.15406036376953, 8.882899284362793, 0.0478515625, 0.9189453125, 0.092041015625, 
433, 3681695617, 0.7766720652580261, -0.6131916046142578, -0.08180718868970871, 0.11876226961612701, 0.7639216780662537, -8.761459350585938, 2.9642233848571777, -18.3979549407959, -74.56698608398438, 7.335174083709717, 0.051025390625, 0.916748046875, 0.093505859375, 
434, 3681703950, 0.7753913402557373, -0.6136052012443542, -0.08570601791143417, 0.12219510972499847, 0.7248639464378357, -8.971681594848633, 3.0334129333496094, -18.21660041809082, -72.0356674194336, 6.208139419555664, 0.052978515625, 0.918701171875, 0.095703125, 
435, 3681712283, 0.7742412686347961, -0.6138488054275513, -0.08947674185037613, 0.12551596760749817, 0.6725385785102844, -9.337540626525879, 3.3842849731445312, -15.089798927307129, -69.61432647705078, 5.48366117477417, 0.053466796875, 0.918212890625, 0.09716796875, 
436, 3681720616, 0.7733182907104492, -0.6138333082199097, -0.09303400665521622, 0.1286565363407135, 0.7706957459449768, -9.594292640686035, 3.6633529663085938, -10.392657279968262, -66.23077392578125, 4.8462958335876465, 0.057861328125, 0.919189453125, 0.09716796875, 
437, 3681728949, 0.7726456522941589, -0.6135462522506714, -0.09630132466554642, 0.1316286027431488, 0.7766427397727966, -9.633354187011719, 3.789616823196411, -4.986954689025879, -61.62437057495117, 4.526447296142578, 0.059326171875, 0.918701171875, 0.09619140625, 
438, 3681737282, 0.7722461223602295, -0.6129838824272156, -0.09924857318401337, 0.13437432050704956, 0.6454551815986633, -9.617475509643555, 3.860018491744995, 0.41347894072532654, -56.71038055419922, 4.14863395690918, 0.0625, 0.91650390625, 0.097412109375, 
439, 3681745615, 0.7720471024513245, -0.6122394800186157, -0.10188629478216171, 0.13691358268260956, 0.5798158645629883, -9.56164264678955, 3.8367960453033447, 4.413202285766602, -51.493492126464844, 3.7725884914398193, 0.06103515625, 0.91650390625, 0.09619140625, 
440, 3681753948, 0.7719564437866211, -0.6114544868469238, -0.10422077029943466, 0.13915815949440002, 0.6281210780143738, -9.317169189453125, 3.691673755645752, 5.827594757080078, -45.970672607421875, 3.109971046447754, 0.06396484375, 0.91748046875, 0.093505859375, 
441, 3681762281, 0.7718390822410583, -0.6107981204986572, -0.10630470514297485, 0.14110064506530762, 0.6037026047706604, -8.992194175720215, 3.535132884979248, 4.351236820220947, -40.31138229370117, 2.0793793201446533, 0.06396484375, 0.91748046875, 0.093505859375, 
442, 3681770614, 0.7715998291969299, -0.6103918552398682, -0.10816708952188492, 0.14274278283119202, 0.48798301815986633, -8.71350383758545, 3.476975917816162, 0.5964665412902832, -35.381649017333984, 1.520116925239563, 0.0673828125, 0.916748046875, 0.091552734375, 
443, 3681778947, 0.7711526155471802, -0.610345721244812, -0.10985278338193893, 0.1440635621547699, 0.47621795535087585, -8.611781120300293, 3.5906052589416504, -5.101386547088623, -30.411373138427734, 0.5368876457214355, 0.06689453125, 0.916259765625, 0.092529296875, 
444, 3681787280, 0.7704612612724304, -0.6107237339019775, -0.11132894456386566, 0.14502449333667755, 0.5252425670623779, -8.743654251098633, 3.6254143714904785, -11.72702407836914, -24.439558029174805, -0.5542411804199219, 0.06689453125, 0.918701171875, 0.093505859375, 
445, 3681795613, 0.7695648670196533, -0.6114975214004517, -0.11252965033054352, 0.1455950140953064, 0.5425347685813904, -8.895837783813477, 3.629892587661743, -17.708332061767578, -17.767810821533203, -1.3556597232818604, 0.06884765625, 0.918701171875, 0.097900390625, 
446, 3681803946, 0.768587589263916, -0.6125050187110901, -0.11345095187425613, 0.14580705761909485, 0.44923070073127747, -9.167624473571777, 3.634511947631836, -20.888933181762695, -11.712063789367676, -2.1243433952331543, 0.0693359375, 0.9169921875, 0.099365234375, 
447, 3681812279, 0.767629086971283, -0.6136006712913513, -0.11407695710659027, 0.14576110243797302, 0.4739793539047241, -9.492780685424805, 3.6687233448028564, -21.462890625, -5.952878475189209, -2.4058690071105957, 0.06787109375, 0.916015625, 0.099365234375, 
