sep=,
PacketCounter,SampleTimeFine,Quat_W,Quat_X,Quat_Y,Quat_Z,Acc_X,Acc_Y,Acc_Z,Gyr_X,Gyr_Y,Gyr_Z,Mag_X,Mag_Y,Mag_Z,
0, 3363783334, 0.5431420803070068, -0.6214340925216675, -0.23506104946136475, -0.5134018063545227, 0, 0, 0, 0, 0, 0, -0.881103515625, 0.260986328125, 0.148681640625, 
1, 3363791667, 0.5430645942687988, -0.6214541792869568, -0.23493194580078125, -0.513518214225769, 8.639425277709961, -4.35400915145874, 1.2412358522415161, -2.564356565475464, 0.8024939894676208, -0.47067442536354065, -0.883056640625, 0.262451171875, 0.148193359375, 
2, 3363800000, 0.5429958701133728, -0.6214767694473267, -0.2347937524318695, -0.5136269330978394, 8.616533279418945, -4.3568501472473145, 1.2326290607452393, -2.5658164024353027, 0.8939367532730103, -0.18077246844768524, -0.883544921875, 0.261474609375, 0.149169921875, 
3, 3363808333, 0.5429523587226868, -0.621486485004425, -0.23465009033679962, -0.5137266516685486, 8.61181926727295, -4.3600640296936035, 1.2447750568389893, -2.279564619064331, 0.9702544212341309, -0.020978059619665146, -0.881103515625, 0.262451171875, 0.149169921875, 
4, 3363816666, 0.5429258346557617, -0.6214861273765564, -0.2345348298549652, -0.5138078927993774, 8.660245895385742, -4.3738179206848145, 1.2524683475494385, -1.784991979598999, 0.7845895886421204, 0.05366181954741478, -0.884521484375, 0.261474609375, 0.149169921875, 
5, 3363824999, 0.542928159236908, -0.6214596629142761, -0.23444435000419617, -0.5138787627220154, 8.67815113067627, -4.368799209594727, 1.250617265701294, -1.2947354316711426, 0.7977297306060791, -0.07288531213998795, -0.881591796875, 0.261474609375, 0.147216796875, 
6, 3363833332, 0.5429392457008362, -0.6214161515235901, -0.2343890517950058, -0.5139450430870056, 8.749665260314941, -4.379377841949463, 1.2667756080627441, -0.6675453186035156, 0.6373333930969238, -0.22116610407829285, -0.881591796875, 0.263916015625, 0.149658203125, 
7, 3363841665, 0.5429590344429016, -0.6213465332984924, -0.23434746265411377, -0.5140268802642822, 8.750401496887207, -4.363412857055664, 1.2262405157089233, -0.11491825431585312, 0.6947604417800903, -0.5351454019546509, -0.881591796875, 0.261962890625, 0.147705078125, 
8, 3363849998, 0.5429965853691101, -0.6212513446807861, -0.2343507558107376, -0.5141008496284485, 8.771438598632812, -4.324429988861084, 1.2440940141677856, 0.3342401385307312, 0.7154311537742615, -0.759218692779541, -0.881591796875, 0.261962890625, 0.148681640625, 
9, 3363858331, 0.5430476069450378, -0.6211434006690979, -0.23435533046722412, -0.5141754150390625, 8.775887489318848, -4.313042640686035, 1.233650803565979, 0.49397048354148865, 0.8013926148414612, -0.8174911737442017, -0.884033203125, 0.260009765625, 0.14404296875, 
10, 3363866664, 0.5430748462677002, -0.621048092842102, -0.2343524843454361, -0.5142630338668823, 8.742971420288086, -4.284546375274658, 1.1932443380355835, 0.1585264801979065, 0.8457051515579224, -0.8817315697669983, -0.881591796875, 0.262939453125, 0.148681640625, 
11, 3363874997, 0.5430944561958313, -0.6209656596183777, -0.23432756960391998, -0.5143530964851379, 8.746031761169434, -4.272836685180664, 1.1839600801467896, -0.1391749382019043, 0.8322577476501465, -0.8099861145019531, -0.883056640625, 0.261962890625, 0.146728515625, 
12, 3363883330, 0.5430935025215149, -0.6209012866020203, -0.2342737317085266, -0.5144563913345337, 8.721075057983398, -4.245491027832031, 1.141636610031128, -0.7242809534072876, 1.0509265661239624, -0.6632934212684631, -0.883544921875, 0.261474609375, 0.146728515625, 
13, 3363891663, 0.5430701375007629, -0.6208634376525879, -0.23417609930038452, -0.5145710110664368, 8.70786190032959, -4.276050090789795, 1.1370731592178345, -1.3764320611953735, 1.1034483909606934, -0.524067223072052, -0.884033203125, 0.261962890625, 0.144775390625, 
14, 3363899996, 0.543025016784668, -0.6208486557006836, -0.23405781388282776, -0.5146903991699219, 8.717994689941406, -4.268066883087158, 1.12788987159729, -1.9793018102645874, 1.1778961420059204, -0.3853021264076233, -0.882080078125, 0.261962890625, 0.145263671875, 
15, 3363908329, 0.5429830551147461, -0.6208484172821045, -0.2338971495628357, -0.514808177947998, 8.706598281860352, -4.307172775268555, 1.138373613357544, -2.2152345180511475, 1.2490782737731934, -0.013511508703231812, -0.882080078125, 0.260498046875, 0.145751953125, 
16, 3363916662, 0.542929470539093, -0.6208557486534119, -0.2337382435798645, -0.5149281024932861, 8.708879470825195, -4.311033725738525, 1.1663609743118286, -2.507159948348999, 1.2980270385742188, -0.030007079243659973, -0.884033203125, 0.260498046875, 0.146240234375, 
17, 3363924995, 0.5428901314735413, -0.6208611130714417, -0.23356956243515015, -0.5150392651557922, 8.737663269042969, -4.320713520050049, 1.1574225425720215, -2.5505504608154297, 1.360320806503296, 0.10335344076156616, -0.884521484375, 0.260498046875, 0.146728515625, 
18, 3363933328, 0.5428439974784851, -0.6208672523498535, -0.2334202527999878, -0.5151482820510864, 8.747993469238281, -4.332123279571533, 1.1370218992233276, -2.331087589263916, 1.1658064126968384, 0.01641872525215149, -0.883056640625, 0.260009765625, 0.147216796875, 
19, 3363941661, 0.5428204536437988, -0.6208598613739014, -0.233296737074852, -0.5152379870414734, 8.748468399047852, -4.336270809173584, 1.1385432481765747, -1.8929816484451294, 0.9607130885124207, -0.04565737023949623, -0.882568359375, 0.26220703125, 0.144775390625, 
20, 3363949994, 0.5428035259246826, -0.6208427548408508, -0.2331979125738144, -0.5153211951255798, 8.73791217803955, -4.342698574066162, 1.1323175430297852, -1.4678364992141724, 0.8269811868667603, -0.0875878781080246, -0.886474609375, 0.260498046875, 0.14501953125, 
21, 3363958327, 0.5427946448326111, -0.6208143830299377, -0.23309512436389923, -0.5154111981391907, 8.72925090789795, -4.341976165771484, 1.1089624166488647, -1.0113525390625, 0.7864211201667786, -0.12796872854232788, -0.883056640625, 0.259521484375, 0.145751953125, 
22, 3363966660, 0.542800784111023, -0.6207733750343323, -0.23303981125354767, -0.5154792666435242, 8.703550338745117, -4.2998738288879395, 1.1229963302612305, -0.7357689738273621, 0.6179690957069397, -0.26052236557006836, -0.885009765625, 0.259521484375, 0.14404296875, 
23, 3363974993, 0.5428099632263184, -0.6207327842712402, -0.23300212621688843, -0.515535295009613, 8.671942710876465, -4.266656398773193, 1.094699740409851, -0.7089892625808716, 0.4051147401332855, -0.409917414188385, -0.882568359375, 0.260009765625, 0.144287109375, 
24, 3363983326, 0.542804479598999, -0.6207011938095093, -0.2329714447259903, -0.5155930519104004, 8.658616065979004, -4.257493495941162, 1.0757803916931152, -0.6965919733047485, 0.24082505702972412, -0.4459054470062256, -0.883056640625, 0.261962890625, 0.143798828125, 
25, 3363991659, 0.5427970886230469, -0.6206845045089722, -0.23294338583946228, -0.5156335830688477, 8.645419120788574, -4.277349948883057, 1.088891625404358, -0.877338707447052, -0.0379859060049057, -0.41269651055336, -0.882568359375, 0.26123046875, 0.143798828125, 
26, 3363999992, 0.5427716970443726, -0.6206813454627991, -0.23292073607444763, -0.5156744718551636, 8.652565002441406, -4.270226001739502, 1.1020456552505493, -0.9671167135238647, -0.22576387226581573, -0.43874624371528625, -0.884033203125, 0.260986328125, 0.148193359375, 
27, 3364008325, 0.54273521900177, -0.6206915974617004, -0.23288676142692566, -0.5157155394554138, 8.635992050170898, -4.319094181060791, 1.123976230621338, -1.063157081604004, -0.42210978269577026, -0.44436854124069214, -0.885498046875, 0.260009765625, 0.14306640625, 
28, 3364016658, 0.5426970720291138, -0.6207078099250793, -0.23287001252174377, -0.5157437920570374, 8.668050765991211, -4.302105903625488, 1.1368299722671509, -1.138949990272522, -0.557327389717102, -0.42295509576797485, -0.884033203125, 0.260986328125, 0.14306640625, 
29, 3364024991, 0.5426599979400635, -0.6207247376441956, -0.23286432027816772, -0.5157651305198669, 8.707291603088379, -4.319330215454102, 1.1435821056365967, -0.9259929656982422, -0.8144941926002502, -0.5307653546333313, -0.883544921875, 0.261474609375, 0.146240234375, 
30, 3364033324, 0.5426362752914429, -0.6207366585731506, -0.23286858201026917, -0.5157737731933594, 8.679924964904785, -4.370415687561035, 1.1660279035568237, -0.7731529474258423, -0.8058879375457764, -0.3678588569164276, -0.883544921875, 0.260498046875, 0.144775390625, 
31, 3364041657, 0.5426238775253296, -0.6207484006881714, -0.23287920653820038, -0.5157679319381714, 8.672879219055176, -4.356138706207275, 1.1735955476760864, -0.580124020576477, -1.0011451244354248, -0.32464760541915894, -0.882568359375, 0.2607421875, 0.142822265625, 
32, 3364049990, 0.542629599571228, -0.6207517385482788, -0.23289813101291656, -0.5157492160797119, 8.680797576904297, -4.3456525802612305, 1.1739388704299927, -0.2646462619304657, -0.9925515651702881, -0.10545379668474197, -0.882568359375, 0.261962890625, 0.144775390625, 
33, 3364058323, 0.542650580406189, -0.6207500696182251, -0.23290938138961792, -0.5157241821289062, 8.665955543518066, -4.327505588531494, 1.1439327001571655, -0.15747632086277008, -0.9530544877052307, 0.0021900171414017677, -0.8837890625, 0.26171875, 0.142578125, 
34, 3364066656, 0.5426702499389648, -0.620760977268219, -0.23290809988975525, -0.5156909823417664, 8.6521577835083, -4.30558967590332, 1.1388756036758423, -0.3005061745643616, -0.9751338362693787, 0.29590845108032227, -0.88330078125, 0.26220703125, 0.14013671875, 
35, 3364074989, 0.5426652431488037, -0.6207937002182007, -0.23285864293575287, -0.515679121017456, 8.656556129455566, -4.33048152923584, 1.1413648128509521, -0.5182656049728394, -1.000095009803772, 0.43098509311676025, -0.884033203125, 0.259033203125, 0.14501953125, 
36, 3364083322, 0.5426815152168274, -0.6208214163780212, -0.23283568024635315, -0.515639066696167, 8.677793502807617, -4.337798595428467, 1.111372947692871, -0.5858615636825562, -1.0014524459838867, 0.5631545186042786, -0.883056640625, 0.261474609375, 0.144287109375, 
37, 3364091655, 0.5427047610282898, -0.6208500266075134, -0.2327972948551178, -0.5155973434448242, 8.697628021240234, -4.327505588531494, 1.1576876640319824, -0.6667897701263428, -0.9285160899162292, 0.66275554895401, -0.882080078125, 0.260498046875, 0.143798828125, 
38, 3364099988, 0.5427098274230957, -0.6208876371383667, -0.23275740444660187, -0.5155647397041321, 8.72488784790039, -4.329580783843994, 1.1857699155807495, -0.8993157744407654, -0.9173738360404968, 0.6036121845245361, -0.882568359375, 0.260009765625, 0.144287109375, 
39, 3364108321, 0.5427227020263672, -0.6209185719490051, -0.23272596299648285, -0.5155282616615295, 8.758033752441406, -4.34910774230957, 1.203215479850769, -0.8425930142402649, -0.9362643957138062, 0.48582521080970764, -0.882568359375, 0.260009765625, 0.1435546875, 
40, 3364116654, 0.5427235960960388, -0.6209454536437988, -0.23270130157470703, -0.5155059695243835, 8.802324295043945, -4.392060279846191, 1.2149103879928589, -0.7791081666946411, -0.8791061639785767, 0.3325367867946625, -0.883544921875, 0.26171875, 0.142822265625, 
41, 3364124987, 0.542736291885376, -0.6209624409675598, -0.2326900213956833, -0.5154772996902466, 8.799271583557129, -4.408748149871826, 1.2212121486663818, -0.595428466796875, -0.9358673095703125, 0.21268779039382935, -0.882080078125, 0.262451171875, 0.146728515625, 
42, 3364133320, 0.5427519679069519, -0.6209729909896851, -0.23268672823905945, -0.5154495239257812, 8.80640983581543, -4.41540002822876, 1.2298527956008911, -0.36223649978637695, -0.9228296279907227, 0.24263083934783936, -0.881103515625, 0.2607421875, 0.144775390625, 
43, 3364141653, 0.5427890419960022, -0.6209744811058044, -0.23268191516399384, -0.5154107809066772, 8.775073051452637, -4.378806114196777, 1.2207685708999634, -0.13977687060832977, -0.9067183136940002, 0.3633507192134857, -0.884033203125, 0.260986328125, 0.1435546875, 
44, 3364149986, 0.5428321361541748, -0.6209752559661865, -0.23267140984535217, -0.5153690576553345, 8.76534366607666, -4.372725963592529, 1.2089735269546509, -0.06349768489599228, -0.8326675295829773, 0.5728238821029663, -0.88330078125, 0.263427734375, 0.144775390625, 
45, 3364158319, 0.5428773164749146, -0.6209890246391296, -0.23262402415275574, -0.5153266191482544, 8.725303649902344, -4.365116119384766, 1.188201665878296, -0.3301418423652649, -0.7412247061729431, 0.8662349581718445, -0.881591796875, 0.26220703125, 0.141357421875, 
46, 3364166652, 0.5429241061210632, -0.6210192441940308, -0.2325582653284073, -0.5152705311775208, 8.716618537902832, -4.3540143966674805, 1.201319932937622, -0.5961329340934753, -0.7391116619110107, 1.272387146949768, -0.88330078125, 0.2626953125, 0.1376953125, 
47, 3364174985, 0.5429614186286926, -0.6210633516311646, -0.23243698477745056, -0.5152326822280884, 8.698558807373047, -4.33856201171875, 1.213350534439087, -0.9612765908241272, -0.48618370294570923, 1.5331270694732666, -0.883544921875, 0.261962890625, 0.144775390625, 
48, 3364183318, 0.5430022478103638, -0.6211198568344116, -0.23229826986789703, -0.515184223651886, 8.710572242736816, -4.321199417114258, 1.243559718132019, -1.3856018781661987, -0.3346755802631378, 1.8790215253829956, -0.881591796875, 0.260986328125, 0.145751953125, 
49, 3364191651, 0.5430417656898499, -0.6211870908737183, -0.23211538791656494, -0.5151439309120178, 8.71196460723877, -4.314797878265381, 1.232084035873413, -1.8086596727371216, -0.07567726075649261, 2.1302847862243652, -0.884033203125, 0.261474609375, 0.1435546875, 
50, 3364199984, 0.5430643558502197, -0.621263325214386, -0.2319183647632599, -0.5151170492172241, 8.737730026245117, -4.331375598907471, 1.2200177907943726, -2.1701788902282715, 0.0866529569029808, 2.1505966186523438, -0.8818359375, 0.26416015625, 0.141845703125, 
51, 3364208317, 0.5430917143821716, -0.6213435530662537, -0.23169586062431335, -0.5150914192199707, 8.707826614379883, -4.303027629852295, 1.215746283531189, -2.4952235221862793, 0.29277071356773376, 2.292935371398926, -0.881591796875, 0.2626953125, 0.143310546875, 
52, 3364216650, 0.5431013107299805, -0.621426522731781, -0.23146294057369232, -0.5150858759880066, 8.73903751373291, -4.323195934295654, 1.2205342054367065, -2.6510095596313477, 0.44871020317077637, 2.228233814239502, -0.8828125, 0.26416015625, 0.143798828125, 
53, 3364224983, 0.5431193709373474, -0.621497392654419, -0.23122748732566833, -0.5150871872901917, 8.753717422485352, -4.310312271118164, 1.2015658617019653, -2.5522537231445312, 0.5905490517616272, 2.1256613731384277, -0.88232421875, 0.2626953125, 0.142822265625, 
54, 3364233316, 0.5431229472160339, -0.6215656399726868, -0.23099727928638458, -0.5151042938232422, 8.746993064880371, -4.3109235763549805, 1.1934789419174194, -2.64778208732605, 0.7061076164245605, 1.9453755617141724, -0.881591796875, 0.26171875, 0.143798828125, 
55, 3364241649, 0.5431261658668518, -0.6216252446174622, -0.23076441884040833, -0.5151334404945374, 8.755475997924805, -4.3039045333862305, 1.1976935863494873, -2.6532506942749023, 0.8394681811332703, 1.755561351776123, -0.880615234375, 0.2626953125, 0.146240234375, 
56, 3364249982, 0.5431184768676758, -0.6216903924942017, -0.23053982853889465, -0.5151634216308594, 8.752467155456543, -4.278768062591553, 1.1869425773620605, -2.721153974533081, 0.7631121873855591, 1.7112743854522705, -0.88134765625, 0.2646484375, 0.143310546875, 
57, 3364258315, 0.5431045293807983, -0.6217575073242188, -0.23031428456306458, -0.5151979327201843, 8.745997428894043, -4.256645202636719, 1.1900701522827148, -2.7708585262298584, 0.6949142813682556, 1.5626989603042603, -0.88037109375, 0.265625, 0.142822265625, 
58, 3364266648, 0.5430786609649658, -0.621828556060791, -0.23010286688804626, -0.5152342319488525, 8.7494535446167, -4.263382911682129, 1.1806983947753906, -2.8467531204223633, 0.6173286437988281, 1.4412105083465576, -0.8828125, 0.26416015625, 0.144775390625, 
59, 3364274981, 0.5430676937103271, -0.6219010353088379, -0.22991114854812622, -0.515243649482727, 8.720991134643555, -4.264070987701416, 1.1799263954162598, -2.8637351989746094, 0.3966107964515686, 1.448305606842041, -0.88330078125, 0.263671875, 0.144287109375, 
60, 3364283314, 0.5430347323417664, -0.6219875812530518, -0.229705810546875, -0.5152655839920044, 8.723633766174316, -4.250412464141846, 1.1564897298812866, -2.9353017807006836, 0.31830811500549316, 1.4945906400680542, -0.8828125, 0.26416015625, 0.144775390625, 
61, 3364291647, 0.5430024266242981, -0.6220797300338745, -0.2295020967721939, -0.5152789354324341, 8.717917442321777, -4.2467145919799805, 1.156765341758728, -2.8436026573181152, 0.09377370774745941, 1.4913631677627563, -0.8818359375, 0.2646484375, 0.142333984375, 
62, 3364299980, 0.542973518371582, -0.6221699714660645, -0.22931094467639923, -0.5152856111526489, 8.69936752319336, -4.254433631896973, 1.13340425491333, -2.781052827835083, 0.06639210134744644, 1.5285295248031616, -0.88232421875, 0.265625, 0.143798828125, 
63, 3364308313, 0.5429588556289673, -0.622251570224762, -0.2291409969329834, -0.515278160572052, 8.729193687438965, -4.2877631187438965, 1.1497626304626465, -2.383596897125244, -0.16760674118995667, 1.441543459892273, -0.8828125, 0.263671875, 0.140869140625, 
64, 3364316646, 0.5429511070251465, -0.6223191618919373, -0.22900888323783875, -0.5152634382247925, 8.748289108276367, -4.274322509765625, 1.1408926248550415, -1.9436976909637451, -0.33023151755332947, 1.2616033554077148, -0.88134765625, 0.26416015625, 0.142333984375, 
65, 3364324979, 0.5429532527923584, -0.6223645210266113, -0.22890794277191162, -0.515251100063324, 8.79238510131836, -4.332062721252441, 1.1639398336410522, -1.3478209972381592, -0.47324860095977783, 0.9085496664047241, -0.8818359375, 0.26611328125, 0.140380859375, 
66, 3364333312, 0.5429632663726807, -0.6223795413970947, -0.22886544466018677, -0.5152412056922913, 8.817588806152344, -4.305747032165527, 1.1678303480148315, -0.7791979312896729, -0.5278710126876831, 0.41904890537261963, -0.88134765625, 0.2666015625, 0.140869140625, 
67, 3364341645, 0.5429803729057312, -0.6223751306533813, -0.22885024547576904, -0.515235424041748, 8.788476943969727, -4.306461811065674, 1.1564573049545288, -0.3742240071296692, -0.6027286648750305, 0.05987327918410301, -0.880859375, 0.26416015625, 0.146240234375, 
68, 3364349978, 0.5429936051368713, -0.6223559975624084, -0.22887635231018066, -0.5152329206466675, 8.799492835998535, -4.259940147399902, 1.1675444841384888, -0.03415658324956894, -0.7248443961143494, -0.307537317276001, -0.88427734375, 0.2646484375, 0.140869140625, 
69, 3364358311, 0.5429990291595459, -0.6223281621932983, -0.2288997322320938, -0.515250563621521, 8.74126148223877, -4.246507167816162, 1.1640896797180176, 0.02248929813504219, -0.6201334595680237, -0.5826598405838013, -0.88134765625, 0.2666015625, 0.141357421875, 
70, 3364366644, 0.5429940223693848, -0.6223037838935852, -0.22895115613937378, -0.5152624249458313, 8.733957290649414, -4.253874778747559, 1.1847037076950073, -0.017584173008799553, -0.8105239868164062, -0.7786855697631836, -0.88232421875, 0.26611328125, 0.143310546875, 
71, 3364374977, 0.5429704189300537, -0.6222944259643555, -0.22897879779338837, -0.5152863264083862, 8.712956428527832, -4.233545780181885, 1.1765639781951904, -0.37907788157463074, -0.8069124817848206, -0.8161079287528992, -0.8818359375, 0.26611328125, 0.141357421875, 
72, 3364383310, 0.5429278612136841, -0.6223008632659912, -0.22900477051734924, -0.5153120756149292, 8.698357582092285, -4.212066173553467, 1.191191554069519, -0.792696475982666, -0.8413891792297363, -0.8326035141944885, -0.8818359375, 0.263671875, 0.142822265625, 
73, 3364391643, 0.5428580045700073, -0.6223273873329163, -0.22900158166885376, -0.5153549909591675, 8.683893203735352, -4.222955703735352, 1.2058098316192627, -1.2235792875289917, -0.8628283739089966, -0.8957427144050598, -0.8818359375, 0.26708984375, 0.142333984375, 
74, 3364399976, 0.5427781939506531, -0.622364342212677, -0.22899499535560608, -0.5153972506523132, 8.671305656433105, -4.251803398132324, 1.2463310956954956, -1.6230332851409912, -0.7879067063331604, -0.8449752330780029, -0.8798828125, 0.2666015625, 0.145263671875, 
75, 3364408309, 0.5427050590515137, -0.6224046945571899, -0.22898656129837036, -0.5154293775558472, 8.679976463317871, -4.267006874084473, 1.227440595626831, -1.7192658185958862, -0.8449495434761047, -0.7973070740699768, -0.88232421875, 0.26416015625, 0.143310546875, 
76, 3364416642, 0.54261714220047, -0.6224432587623596, -0.22898048162460327, -0.5154778957366943, 8.704299926757812, -4.304274082183838, 1.2292031049728394, -1.719188928604126, -0.7747153043746948, -0.9493787884712219, -0.88330078125, 0.265625, 0.141845703125, 
77, 3364424975, 0.5425394773483276, -0.6224770545959473, -0.22896231710910797, -0.5155266523361206, 8.693438529968262, -4.327672958374023, 1.2220371961593628, -1.4802979230880737, -0.770194411277771, -0.844296395778656, -0.880859375, 0.263671875, 0.141845703125, 
78, 3364433308, 0.542477011680603, -0.6224894523620605, -0.22896835207939148, -0.5155749320983887, 8.687077522277832, -4.324787139892578, 1.2338511943817139, -1.219032645225525, -0.6043677926063538, -0.9512869715690613, -0.8818359375, 0.2646484375, 0.142822265625, 
79, 3364441641, 0.5424364805221558, -0.6224789023399353, -0.22898803651332855, -0.515621542930603, 8.685053825378418, -4.329057693481445, 1.217728614807129, -0.7999837398529053, -0.5215058326721191, -1.0609928369522095, -0.8837890625, 0.26416015625, 0.140869140625, 
80, 3364449974, 0.5424097180366516, -0.6224492788314819, -0.22901025414466858, -0.5156756043434143, 8.7206449508667, -4.321203708648682, 1.218193769454956, -0.5042802691459656, -0.26386502385139465, -1.0123385190963745, -0.8828125, 0.2626953125, 0.142333984375, 
81, 3364458307, 0.5423904657363892, -0.6224061250686646, -0.22903040051460266, -0.5157390832901001, 8.716926574707031, -4.323228359222412, 1.1974788904190063, -0.3133260905742645, -0.1351022720336914, -1.1279100179672241, -0.879150390625, 0.2646484375, 0.145263671875, 
82, 3364466640, 0.5423597693443298, -0.6223628520965576, -0.2290508896112442, -0.5158145427703857, 8.72887897491455, -4.278909206390381, 1.2133080959320068, -0.51455157995224, 0.015983281657099724, -1.2268322706222534, -0.883056640625, 0.26123046875, 0.140625, 
83, 3364474973, 0.5423359274864197, -0.6223227381706238, -0.22906622290611267, -0.5158811211585999, 8.703429222106934, -4.2557196617126465, 1.202743411064148, -0.7743822932243347, 0.06580296903848648, -1.1811619997024536, -0.8828125, 0.263671875, 0.140869140625, 
84, 3364483306, 0.5422744750976562, -0.6223009824752808, -0.22905516624450684, -0.5159767866134644, 8.719975471496582, -4.280906677246094, 1.1899659633636475, -1.2263199090957642, 0.17479154467582703, -1.2602331638336182, -0.879638671875, 0.26416015625, 0.142822265625, 
85, 3364491639, 0.5422016978263855, -0.6222899556159973, -0.2290339171886444, -0.5160759091377258, 8.716388702392578, -4.275626182556152, 1.1953299045562744, -1.6055772304534912, 0.174561008810997, -1.3428775072097778, -0.8828125, 0.26416015625, 0.141357421875, 
86, 3364499972, 0.5421009659767151, -0.622295081615448, -0.229019433259964, -0.5161820650100708, 8.72188949584961, -4.306301593780518, 1.1878533363342285, -1.820339560508728, -0.022860703989863396, -1.5015192031860352, -0.880615234375, 0.26318359375, 0.143798828125, 
87, 3364508305, 0.5419766902923584, -0.6223140954971313, -0.2289860099554062, -0.5163044333457947, 8.711408615112305, -4.336520671844482, 1.1831973791122437, -1.8650621175765991, -0.18822622299194336, -1.6036945581436157, -0.88232421875, 0.263671875, 0.139404296875, 
88, 3364516638, 0.5418700575828552, -0.6223195195198059, -0.2290119230747223, -0.5163984894752502, 8.728630065917969, -4.35317850112915, 1.2023463249206543, -1.5493155717849731, -0.4481338858604431, -1.8000788688659668, -0.88427734375, 0.261962890625, 0.14208984375, 
89, 3364524971, 0.5417742729187012, -0.6223160028457642, -0.22905248403549194, -0.5164852738380432, 8.739076614379883, -4.420389175415039, 1.2058063745498657, -1.1993223428726196, -0.6066603660583496, -1.892264485359192, -0.883544921875, 0.2607421875, 0.14013671875, 
90, 3364533304, 0.5416925549507141, -0.6222944855690002, -0.22914183139801025, -0.5165573358535767, 8.75133991241455, -4.423056602478027, 1.207076907157898, -0.6144214868545532, -0.8398522734642029, -2.0858824253082275, -0.883056640625, 0.261962890625, 0.143798828125, 
91, 3364541637, 0.5416494607925415, -0.6222431063652039, -0.22927632927894592, -0.516604483127594, 8.74897575378418, -4.438472270965576, 1.1978269815444946, 0.006787772756069899, -0.9458953142166138, -2.232959508895874, -0.88232421875, 0.26318359375, 0.143798828125, 
92, 3364549970, 0.541605532169342, -0.6221929788589478, -0.2294197976589203, -0.516647458076477, 8.74333667755127, -4.39972448348999, 1.205499291419983, 0.39848068356513977, -1.1696356534957886, -2.1541190147399902, -0.88330078125, 0.26220703125, 0.13720703125, 
93, 3364558303, 0.5416008830070496, -0.6221250295639038, -0.22958439588546753, -0.5166609287261963, 8.736515045166016, -4.399624824523926, 1.185057520866394, 0.6433783769607544, -1.1539597511291504, -2.0350637435913086, -0.88427734375, 0.261474609375, 0.14208984375, 
94, 3364566636, 0.541579008102417, -0.6220700740814209, -0.22972428798675537, -0.5166878700256348, 8.70500373840332, -4.379844665527344, 1.2016618251800537, 0.6480913758277893, -1.1739516258239746, -1.8638964891433716, -0.88427734375, 0.26025390625, 0.138671875, 
95, 3364574969, 0.5415599942207336, -0.6220276951789856, -0.22983533143997192, -0.5167093276977539, 8.659146308898926, -4.365877628326416, 1.2216533422470093, 0.5339031219482422, -1.2105672359466553, -1.5763386487960815, -0.883544921875, 0.2607421875, 0.1416015625, 
96, 3364583302, 0.541542112827301, -0.6219903230667114, -0.22993117570877075, -0.5167303681373596, 8.628122329711914, -4.3244309425354, 1.2232437133789062, 0.2556300461292267, -1.0123385190963745, -1.3580538034439087, -0.881103515625, 0.26171875, 0.140869140625, 
97, 3364591635, 0.5415226221084595, -0.6219794750213623, -0.22999189794063568, -0.5167368054389954, 8.609971046447754, -4.336904525756836, 1.219860315322876, -0.29941755533218384, -1.0506831407546997, -0.975838303565979, -0.884033203125, 0.260009765625, 0.14306640625, 
98, 3364599968, 0.5414844751358032, -0.6219855546951294, -0.23002316057682037, -0.5167555212974548, 8.60823917388916, -4.320589065551758, 1.242548942565918, -0.6909824013710022, -0.9227912425994873, -0.7963081002235413, -0.882568359375, 0.26123046875, 0.143310546875, 
99, 3364608301, 0.5414527058601379, -0.6219918727874756, -0.23003798723220825, -0.5167746543884277, 8.632444381713867, -4.361367225646973, 1.2329212427139282, -0.8265073895454407, -0.7963337898254395, -0.700639009475708, -0.884033203125, 0.260009765625, 0.1416015625, 
100, 3364616634, 0.5414155125617981, -0.6220002174377441, -0.23005230724811554, -0.5167972445487976, 8.644811630249023, -4.404477596282959, 1.2415046691894531, -0.8343196511268616, -0.777046263217926, -0.6656243205070496, -0.8857421875, 0.261474609375, 0.1435546875, 
101, 3364624967, 0.5413923263549805, -0.6219873428344727, -0.23006843030452728, -0.5168298482894897, 8.68709945678711, -4.395944118499756, 1.250238299369812, -0.45471665263175964, -0.6196722984313965, -0.7867283821105957, -0.883544921875, 0.26123046875, 0.142578125, 
102, 3364633300, 0.5413714051246643, -0.621965229511261, -0.23010119795799255, -0.5168638825416565, 8.7357816696167, -4.426815986633301, 1.2230861186981201, -0.37290486693382263, -0.5480550527572632, -0.8907222747802734, -0.8837890625, 0.26123046875, 0.14111328125, 
103, 3364641633, 0.5413587093353271, -0.6219237446784973, -0.23012277483940125, -0.5169175267219543, 8.756224632263184, -4.394999980926514, 1.2096887826919556, -0.24386033415794373, -0.21207305788993835, -1.0168722867965698, -0.881103515625, 0.26220703125, 0.143798828125, 
104, 3364649966, 0.5413416624069214, -0.6218805909156799, -0.23013997077941895, -0.5169795751571655, 8.766839027404785, -4.407889366149902, 1.2003114223480225, -0.3819594383239746, -0.03204340487718582, -1.0028228759765625, -0.883056640625, 0.259521484375, 0.14501953125, 
105, 3364658299, 0.5413320064544678, -0.6218392848968506, -0.23016059398651123, -0.5170302391052246, 8.788418769836426, -4.364964962005615, 1.1992599964141846, -0.6917380690574646, 0.010437801480293274, -1.0270540714263916, -0.883056640625, 0.26025390625, 0.13818359375, 
106, 3364666632, 0.5412953495979309, -0.6218129396438599, -0.23014576733112335, -0.517106831073761, 8.782918930053711, -4.361209869384766, 1.1875793933868408, -0.9497630000114441, 0.1505860835313797, -0.924763560295105, -0.883056640625, 0.260498046875, 0.142578125, 
107, 3364674965, 0.5412476062774658, -0.621797502040863, -0.2301100194454193, -0.5171912312507629, 8.750530242919922, -4.378341197967529, 1.1808055639266968, -1.3337459564208984, 0.22596877813339233, -0.9340103268623352, -0.885986328125, 0.259521484375, 0.14013671875, 
108, 3364683298, 0.541180431842804, -0.6218162178993225, -0.23004762828350067, -0.5172666907310486, 8.748515129089355, -4.356415271759033, 1.1904761791229248, -1.8791629076004028, 0.07689394056797028, -0.5840558409690857, -0.884033203125, 0.259521484375, 0.14208984375, 
109, 3364691631, 0.5411108732223511, -0.6218543648719788, -0.22996318340301514, -0.5173312425613403, 8.736478805541992, -4.38801383972168, 1.172768235206604, -2.2613911628723145, -0.0031121294014155865, -0.3635556101799011, -0.881591796875, 0.258544921875, 0.142578125, 
110, 3364699964, 0.5410320162773132, -0.6219080090522766, -0.2298765778541565, -0.517387866973877, 8.725192070007324, -4.386668682098389, 1.1593453884124756, -2.351630210876465, -0.1894300878047943, -0.20861512422561646, -0.885009765625, 0.260009765625, 0.14306640625, 
111, 3364708297, 0.540971040725708, -0.6219621300697327, -0.22979947924613953, -0.5174206495285034, 8.729026794433594, -4.396567344665527, 1.1605113744735718, -2.064558506011963, -0.45672738552093506, -0.06803140789270401, -0.883056640625, 0.26123046875, 0.1416015625, 
112, 3364716630, 0.5409284234046936, -0.6220070719718933, -0.22974178194999695, -0.5174368023872375, 8.703030586242676, -4.430740833282471, 1.165902018547058, -1.6443440914154053, -0.5749242305755615, 0.0763816386461258, -0.884521484375, 0.260009765625, 0.14111328125, 
113, 3364724963, 0.540929913520813, -0.6220325231552124, -0.22970423102378845, -0.517421305179596, 8.705975532531738, -4.39979362487793, 1.1408500671386719, -0.897330641746521, -0.757195234298706, 0.30491188168525696, -0.883544921875, 0.257568359375, 0.14111328125, 
114, 3364733296, 0.5409494638442993, -0.6220393180847168, -0.22971993684768677, -0.5173856616020203, 8.689610481262207, -4.3946638107299805, 1.138511061668396, -0.14114724099636078, -1.0934845209121704, 0.15517102181911469, -0.884521484375, 0.260498046875, 0.142578125, 
115, 3364741629, 0.5410097241401672, -0.6220250129699707, -0.2297656238079071, -0.5173195600509644, 8.703200340270996, -4.339357852935791, 1.1247774362564087, 0.6712465882301331, -1.3488839864730835, 0.2640059292316437, -0.881591796875, 0.2587890625, 0.14111328125, 
116, 3364749962, 0.5410831570625305, -0.6219905614852905, -0.22985272109508514, -0.5172455906867981, 8.714120864868164, -4.344498157501221, 1.116254210472107, 1.2543290853500366, -1.4898390769958496, 0.08170939981937408, -0.883056640625, 0.25927734375, 0.13916015625, 
117, 3364758295, 0.5411811470985413, -0.6219385862350464, -0.22997888922691345, -0.5171495676040649, 8.686396598815918, -4.2854838371276855, 1.1540656089782715, 1.6201645135879517, -1.658137559890747, -0.09651444852352142, -0.8837890625, 0.26171875, 0.142578125, 
118, 3364766628, 0.5412600040435791, -0.6218852996826172, -0.23010337352752686, -0.517075777053833, 8.716972351074219, -4.248086452484131, 1.1470223665237427, 1.7062537670135498, -1.6150798797607422, -0.2590111196041107, -0.883056640625, 0.2587890625, 0.13720703125, 
119, 3364774961, 0.5413286685943604, -0.6218411326408386, -0.2302190661430359, -0.517005443572998, 8.72859001159668, -4.221052169799805, 1.155908226966858, 1.4538767337799072, -1.6546540260314941, -0.34005457162857056, -0.882568359375, 0.260498046875, 0.14306640625, 
120, 3364783294, 0.5413622856140137, -0.6218094229698181, -0.23032549023628235, -0.5169610381126404, 8.701457023620605, -4.220350742340088, 1.1665502786636353, 0.9370070695877075, -1.5277864933013916, -0.577242374420166, -0.88330078125, 0.2626953125, 0.141845703125, 
121, 3364791627, 0.5413830280303955, -0.6217859387397766, -0.23041941225528717, -0.5169256329536438, 8.692220687866211, -4.196944713592529, 1.1477737426757812, 0.475477010011673, -1.4203219413757324, -0.7097576260566711, -0.883544921875, 0.261962890625, 0.143310546875, 
122, 3364799960, 0.5413610935211182, -0.62178635597229, -0.2304987609386444, -0.5169128179550171, 8.70183277130127, -4.1903228759765625, 1.1570876836776733, -0.06858211010694504, -1.4587434530258179, -0.8733044862747192, -0.884521484375, 0.260986328125, 0.142578125, 
123, 3364808293, 0.5413291454315186, -0.6217954754829407, -0.23056533932685852, -0.5169054865837097, 8.749739646911621, -4.211545467376709, 1.156046748161316, -0.5095311999320984, -1.3711940050125122, -0.9556286334991455, -0.882080078125, 0.2587890625, 0.14111328125, 
124, 3364816626, 0.5412710905075073, -0.6218197345733643, -0.2306080162525177, -0.5169181227684021, 8.752577781677246, -4.197965145111084, 1.127978801727295, -0.8960243463516235, -1.25162672996521, -0.931833028793335, -0.885009765625, 0.260009765625, 0.14208984375, 
125, 3364824959, 0.5412003993988037, -0.6218611598014832, -0.23063048720359802, -0.5169321298599243, 8.748689651489258, -4.19848108291626, 1.129382610321045, -1.2258589267730713, -1.3263434171676636, -0.8761476874351501, -0.881591796875, 0.260498046875, 0.144775390625, 
126, 3364833292, 0.5411179661750793, -0.6219121217727661, -0.23064018785953522, -0.5169529318809509, 8.760184288024902, -4.1805739402771, 1.1411798000335693, -1.5642997026443481, -1.2064688205718994, -0.798920750617981, -0.884521484375, 0.260498046875, 0.14453125, 
127, 3364841625, 0.541016697883606, -0.6219670176506042, -0.23063388466835022, -0.5169956684112549, 8.783547401428223, -4.213886260986328, 1.1135101318359375, -1.7519495487213135, -1.1191755533218384, -1.0014268159866333, -0.883056640625, 0.260009765625, 0.144775390625, 
128, 3364849958, 0.5409187078475952, -0.6220240592956543, -0.23063558340072632, -0.51702880859375, 8.785301208496094, -4.1872663497924805, 1.1172599792480469, -1.8384743928909302, -1.132853627204895, -0.9129040837287903, -0.884521484375, 0.260009765625, 0.14111328125, 
129, 3364858291, 0.5408229827880859, -0.6220878958702087, -0.2306375801563263, -0.5170511603355408, 8.794320106506348, -4.218782901763916, 1.133162260055542, -1.9160089492797852, -1.2737830877304077, -0.8865213990211487, -0.883056640625, 0.257568359375, 0.14208984375, 
130, 3364866624, 0.540713906288147, -0.6221553087234497, -0.2306489646434784, -0.5170789957046509, 8.777981758117676, -4.199311256408691, 1.1058958768844604, -1.9259470701217651, -1.358412504196167, -1.0038858652114868, -0.882080078125, 0.2587890625, 0.1416015625, 
131, 3364874957, 0.5406090021133423, -0.6222196221351624, -0.23067286610603333, -0.5171008706092834, 8.741498947143555, -4.1347808837890625, 1.1053404808044434, -1.7651666402816772, -1.5082303285598755, -1.1238374710083008, -0.883544921875, 0.26025390625, 0.13671875, 
132, 3364883290, 0.5404872894287109, -0.6222885847091675, -0.23072779178619385, -0.5171204805374146, 8.742414474487305, -4.120694637298584, 1.0827209949493408, -1.709814190864563, -1.803331732749939, -1.3995232582092285, -0.883544921875, 0.259033203125, 0.14306640625, 
133, 3364891623, 0.5403531193733215, -0.6223657131195068, -0.23081105947494507, -0.5171307325363159, 8.68972396850586, -4.119625568389893, 1.036840558052063, -1.653527021408081, -2.232767343521118, -1.712721586227417, -0.883544921875, 0.258544921875, 0.14404296875, 
134, 3364899956, 0.5402032136917114, -0.6224370002746582, -0.23095673322677612, -0.5171366930007935, 8.667694091796875, -4.114864349365234, 1.0448912382125854, -1.278893232345581, -2.700098991394043, -2.2681918144226074, -0.884521484375, 0.260498046875, 0.14453125, 
135, 3364908289, 0.5400323867797852, -0.6225045919418335, -0.2311496138572693, -0.5171471834182739, 8.684598922729492, -4.135623455047607, 1.0568541288375854, -1.0775396823883057, -3.1117453575134277, -2.935929536819458, -0.884033203125, 0.257080078125, 0.142578125, 
136, 3364916622, 0.5398448705673218, -0.6225597858428955, -0.23142540454864502, -0.5171535015106201, 8.663333892822266, -4.128434658050537, 1.1010063886642456, -0.5568406581878662, -3.667997360229492, -3.7025508880615234, -0.881591796875, 0.256103515625, 0.14404296875, 
137, 3364924955, 0.5396443009376526, -0.622588038444519, -0.2317851334810257, -0.5171676278114319, 8.677783012390137, -4.176176071166992, 1.1358999013900757, 0.13263052701950073, -4.133049488067627, -4.727478981018066, -0.881591796875, 0.259521484375, 0.145263671875, 
138, 3364933288, 0.5394287109375, -0.6225913763046265, -0.23224353790283203, -0.5171827077865601, 8.678831100463867, -4.231773853302002, 1.2041069269180298, 0.8573853373527527, -4.669565200805664, -5.696106910705566, -0.884033203125, 0.257080078125, 0.146484375, 
139, 3364941621, 0.5392151474952698, -0.6225719451904297, -0.23277638852596283, -0.5171892046928406, 8.693253517150879, -4.275015830993652, 1.2423725128173828, 1.4538896083831787, -5.097937107086182, -6.421629428863525, -0.882080078125, 0.255615234375, 0.14453125, 
140, 3364949954, 0.5389898419380188, -0.6225283741950989, -0.23336505889892578, -0.5172114372253418, 8.7297945022583, -4.297122955322266, 1.2864197492599487, 2.026803493499756, -5.273190498352051, -7.082451820373535, -0.884521484375, 0.255615234375, 0.1455078125, 
141, 3364958287, 0.5387887358665466, -0.6224537491798401, -0.23398005962371826, -0.5172330141067505, 8.783774375915527, -4.348613262176514, 1.3334650993347168, 2.6147143840789795, -5.201432228088379, -7.309842586517334, -0.883544921875, 0.25634765625, 0.14892578125, 
142, 3364966620, 0.5386016368865967, -0.6223538517951965, -0.23460108041763306, -0.5172668099403381, 8.783378601074219, -4.343523025512695, 1.3307403326034546, 2.9639644622802734, -4.888195991516113, -7.356332302093506, -0.8837890625, 0.2509765625, 0.14208984375, 
143, 3364974953, 0.5384610295295715, -0.6222286224365234, -0.23519811034202576, -0.5172926187515259, 8.77563190460205, -4.35628080368042, 1.3281816244125366, 2.9038732051849365, -4.255754470825195, -6.9802632331848145, -0.8818359375, 0.251953125, 0.14794921875, 
144, 3364983286, 0.5383086204528809, -0.6221160292625427, -0.23570075631141663, -0.5173579454421997, 8.783829689025879, -4.3477935791015625, 1.2731595039367676, 2.4100818634033203, -3.542602777481079, -6.369133472442627, -0.88525390625, 0.25244140625, 0.1416015625, 
145, 3364991619, 0.5381554365158081, -0.6220224499702454, -0.23609408736228943, -0.5174505710601807, 8.79446792602539, -4.353426933288574, 1.2595875263214111, 1.6437807083129883, -2.797637939453125, -5.624296188354492, -0.884765625, 0.25, 0.1494140625, 
146, 3364999952, 0.5380102396011353, -0.6219398975372314, -0.23639750480651855, -0.5175620317459106, 8.804004669189453, -4.368987083435059, 1.2321586608886719, 0.6824272274971008, -1.8625903129577637, -4.85720157623291, -0.8837890625, 0.25146484375, 0.14892578125, 
147, 3365008285, 0.5378665924072266, -0.6218774914741516, -0.2365986406803131, -0.5176945328712463, 8.793158531188965, -4.369460582733154, 1.1964472532272339, -0.14244075119495392, -1.160452961921692, -4.12473726272583, -0.88525390625, 0.25, 0.146484375, 
148, 3365016618, 0.5377255082130432, -0.6218327283859253, -0.23673298954963684, -0.5178334712982178, 8.821854591369629, -4.386010646820068, 1.1982616186141968, -0.8547855019569397, -0.6332222819328308, -3.461699962615967, -0.88525390625, 0.248779296875, 0.1484375, 
149, 3365024951, 0.5375869870185852, -0.6218011975288391, -0.23680873215198517, -0.5179803371429443, 8.86304759979248, -4.4189934730529785, 1.2004653215408325, -1.3138951063156128, -0.2900940775871277, -3.0282046794891357, -0.884765625, 0.248046875, 0.145263671875, 
150, 3365033284, 0.5374677777290344, -0.6217765808105469, -0.23686692118644714, -0.5181069374084473, 8.867724418640137, -4.440374851226807, 1.218420386314392, -1.3175066709518433, -0.24731826782226562, -2.4998340606689453, -0.88427734375, 0.248291015625, 0.14990234375, 
151, 3365041617, 0.5373786687850952, -0.6217358112335205, -0.2369360625743866, -0.5182167887687683, 8.865562438964844, -4.445937156677246, 1.2664990425109863, -1.0861204862594604, -0.17420241236686707, -2.4208269119262695, -0.8837890625, 0.2490234375, 0.14990234375, 
152, 3365049950, 0.5373010635375977, -0.6216870546340942, -0.23702186346054077, -0.5183166265487671, 8.833718299865723, -4.485188961029053, 1.279350996017456, -0.499580055475235, -0.3722260892391205, -2.3195996284484863, -0.8857421875, 0.24951171875, 0.145263671875, 
153, 3365058283, 0.5372476577758789, -0.6216349601745605, -0.23711490631103516, -0.5183917284011841, 8.795048713684082, -4.490753173828125, 1.2910281419754028, 0.22887597978115082, -0.7526998519897461, -2.069476366043091, -0.88671875, 0.248046875, 0.142333984375, 
154, 3365066616, 0.5372493267059326, -0.6215600371360779, -0.23726396262645721, -0.5184115171432495, 8.719830513000488, -4.467425346374512, 1.268469214439392, 1.0831619501113892, -1.0783336162567139, -1.7887699604034424, -0.88720703125, 0.246337890625, 0.148681640625, 
155, 3365074949, 0.5372945070266724, -0.6214752197265625, -0.23743146657943726, -0.5183896422386169, 8.684072494506836, -4.457916259765625, 1.2532821893692017, 1.915368676185608, -1.463469386100769, -1.4274815320968628, -0.88671875, 0.247802734375, 0.147705078125, 
156, 3365083282, 0.5373814105987549, -0.6213840842247009, -0.2376185655593872, -0.5183233618736267, 8.631579399108887, -4.455484867095947, 1.2531214952468872, 2.4832615852355957, -1.7027318477630615, -0.9232650399208069, -0.885009765625, 0.245849609375, 0.147216796875, 
157, 3365091615, 0.5375018119812012, -0.6213064789772034, -0.23778285086154938, -0.518216073513031, 8.646830558776855, -4.4634175300598145, 1.2191247940063477, 2.7091665267944336, -1.9495891332626343, -0.21560783684253693, -0.8876953125, 0.246826171875, 0.143310546875, 
158, 3365099948, 0.5376577377319336, -0.6212287545204163, -0.23792731761932373, -0.5180812478065491, 8.656188011169434, -4.458587169647217, 1.199966311454773, 2.8930251598358154, -1.8442378044128418, 0.483084499835968, -0.88525390625, 0.247802734375, 0.1484375, 
159, 3365108281, 0.5378471612930298, -0.6211568117141724, -0.2380029857158661, -0.517936110496521, 8.684715270996094, -4.453118801116943, 1.1936936378479004, 2.713956117630005, -1.4159164428710938, 1.3254085779190063, -0.88720703125, 0.247802734375, 0.146728515625, 
160, 3365116614, 0.5380594730377197, -0.6210919618606567, -0.23801659047603607, -0.5177869200706482, 8.706199645996094, -4.422384262084961, 1.1645379066467285, 2.393855094909668, -0.9054248332977295, 2.1495723724365234, -0.88623046875, 0.25048828125, 0.14599609375, 
161, 3365124947, 0.5383085012435913, -0.6210286617279053, -0.2379656732082367, -0.5176273584365845, 8.71909236907959, -4.376809120178223, 1.1645787954330444, 2.0464746952056885, -0.35092779994010925, 2.929884195327759, -0.88525390625, 0.248046875, 0.146240234375, 
162, 3365133280, 0.5385461449623108, -0.6209813356399536, -0.23784644901752472, -0.51749187707901, 8.746602058410645, -4.374194622039795, 1.177777647972107, 1.4924389123916626, 0.154248908162117, 3.4214980602264404, -0.8828125, 0.24755859375, 0.1455078125, 
163, 3365141613, 0.5388081669807434, -0.6209304332733154, -0.2376624345779419, -0.5173649787902832, 8.789863586425781, -4.356132984161377, 1.2008875608444214, 1.0954824686050415, 0.8296836018562317, 3.9688875675201416, -0.88330078125, 0.25, 0.14599609375, 
164, 3365149946, 0.5390641093254089, -0.6208905577659607, -0.23742333054542542, -0.5172560214996338, 8.799203872680664, -4.370142936706543, 1.2252273559570312, 0.6515365839004517, 1.2742953300476074, 4.402459621429443, -0.8857421875, 0.2509765625, 0.142822265625, 
165, 3365158279, 0.5393192768096924, -0.6208581924438477, -0.23712411522865295, -0.5171656012535095, 8.804380416870117, -4.39105749130249, 1.2218965291976929, 0.2883394658565521, 1.685595989227295, 4.734586238861084, -0.88525390625, 0.2509765625, 0.1435546875, 
166, 3365166612, 0.539576530456543, -0.6208199262619019, -0.2368215173482895, -0.5170820355415344, 8.797418594360352, -4.356671333312988, 1.2351864576339722, 0.11736443638801575, 1.9546736478805542, 4.771829605102539, -0.88427734375, 0.25244140625, 0.1455078125, 
167, 3365174945, 0.5398420095443726, -0.6207872033119202, -0.23650330305099487, -0.5169899463653564, 8.768909454345703, -4.325101375579834, 1.2068194150924683, -0.07165583223104477, 1.9998571872711182, 4.938578128814697, -0.884765625, 0.25244140625, 0.142578125, 
168, 3365183278, 0.5400946736335754, -0.620758593082428, -0.23617324233055115, -0.516911506652832, 8.76807975769043, -4.313375473022461, 1.1806169748306274, -0.2043631672859192, 2.119321823120117, 4.9674201011657715, -0.88427734375, 0.251953125, 0.1455078125, 
169, 3365191611, 0.5403562784194946, -0.6207353472709656, -0.2358405888080597, -0.5168175101280212, 8.771721839904785, -4.339152812957764, 1.1477464437484741, -0.22513629496097565, 1.9911994934082031, 5.0846052169799805, -0.884765625, 0.25341796875, 0.14404296875, 
170, 3365199944, 0.5406174659729004, -0.6207131147384644, -0.23551656305789948, -0.5167190432548523, 8.760002136230469, -4.385263919830322, 1.1603373289108276, -0.07291091978549957, 1.8846185207366943, 5.14536190032959, -0.883056640625, 0.254150390625, 0.1396484375, 
171, 3365208277, 0.5408831834793091, -0.6206951141357422, -0.23518042266368866, -0.516615629196167, 8.723883628845215, -4.371577739715576, 1.1573240756988525, 0.14666712284088135, 1.7341351509094238, 5.280118942260742, -0.882568359375, 0.255126953125, 0.14013671875, 
172, 3365216610, 0.5411800742149353, -0.6206650733947754, -0.23488068580627441, -0.5164773464202881, 8.719160079956055, -4.378892421722412, 1.1206061840057373, 0.5916632413864136, 1.5358808040618896, 5.462082386016846, -0.883056640625, 0.255126953125, 0.14208984375, 
173, 3365224943, 0.5414966344833374, -0.6206310987472534, -0.23460203409194946, -0.5163128972053528, 8.72574520111084, -4.381280422210693, 1.1291128396987915, 1.0468281507492065, 1.1893202066421509, 5.517383098602295, -0.883056640625, 0.258544921875, 0.14208984375, 
174, 3365233276, 0.5418416261672974, -0.6205896735191345, -0.23434361815452576, -0.5161181688308716, 8.73546028137207, -4.3824005126953125, 1.1562376022338867, 1.5632882118225098, 0.9824597835540771, 5.83402681350708, -0.884033203125, 0.256591796875, 0.14208984375, 
175, 3365241609, 0.5422124862670898, -0.6205456256866455, -0.2340763509273529, -0.5159026384353638, 8.753588676452637, -4.370228290557861, 1.1567423343658447, 1.9183011054992676, 0.8722159266471863, 6.167113304138184, -0.883056640625, 0.257568359375, 0.1396484375, 
176, 3365249942, 0.5426168441772461, -0.6204870939254761, -0.2338302731513977, -0.5156594514846802, 8.78398609161377, -4.356191158294678, 1.1431084871292114, 2.440268039703369, 0.7909931540489197, 6.45591402053833, -0.883056640625, 0.257080078125, 0.13916015625, 
177, 3365258275, 0.5430404543876648, -0.6204322576522827, -0.23356813192367554, -0.5153985023498535, 8.783684730529785, -4.298177242279053, 1.1107763051986694, 2.5158560276031494, 0.7503690123558044, 6.7831878662109375, -0.884521484375, 0.258544921875, 0.142578125, 
178, 3365266608, 0.543476402759552, -0.6203821897506714, -0.23329946398735046, -0.515120804309845, 8.805634498596191, -4.238220691680908, 1.0679802894592285, 2.5973734855651855, 0.704250693321228, 7.158858776092529, -0.883544921875, 0.2607421875, 0.1396484375, 
179, 3365274941, 0.5439143180847168, -0.6203453540802002, -0.2330171763896942, -0.5148303508758545, 8.81762981414795, -4.223761081695557, 1.052286148071289, 2.3750548362731934, 0.6062377691268921, 7.32485294342041, -0.882080078125, 0.2607421875, 0.1396484375, 
180, 3365283274, 0.5443265438079834, -0.6203335523605347, -0.23272936046123505, -0.5145391225814819, 8.811165809631348, -4.2304229736328125, 1.0513139963150024, 2.016852378845215, 0.3851229250431061, 7.377374649047852, -0.88134765625, 0.263671875, 0.140380859375, 
181, 3365291607, 0.5447288155555725, -0.6203358173370361, -0.23245421051979065, -0.5142350196838379, 8.815017700195312, -4.199977874755859, 1.0776913166046143, 1.8280749320983887, 0.06799298524856567, 7.233882427215576, -0.88232421875, 0.2626953125, 0.139892578125, 
182, 3365299940, 0.5451124310493469, -0.6203471422195435, -0.23220573365688324, -0.5139269232749939, 8.843013763427734, -4.149520397186279, 1.1122759580612183, 1.9314285516738892, -0.3056802749633789, 7.039162635803223, -0.880859375, 0.263671875, 0.141357421875, 
183, 3365308273, 0.5454614162445068, -0.6203721165657043, -0.2319837063550949, -0.5136266946792603, 8.813780784606934, -4.132460594177246, 1.1418977975845337, 1.942173719406128, -0.8114461302757263, 6.501712322235107, -0.8798828125, 0.265380859375, 0.140869140625, 
184, 3365316606, 0.545790433883667, -0.6203908920288086, -0.23183874785900116, -0.5133198499679565, 8.764185905456543, -4.123315811157227, 1.1375021934509277, 2.13843035697937, -1.299269437789917, 5.785257816314697, -0.88232421875, 0.26611328125, 0.139404296875, 
185, 3365324939, 0.5461092591285706, -0.6204091310501099, -0.23174187541007996, -0.5130022764205933, 8.746505737304688, -4.129969120025635, 1.1717088222503662, 2.3533976078033447, -1.787617564201355, 5.286125659942627, -0.88037109375, 0.266845703125, 0.137939453125, 
186, 3365333272, 0.5464175343513489, -0.6204085946083069, -0.23171986639499664, -0.5126845240592957, 8.755438804626465, -4.138737201690674, 1.1708543300628662, 3.0080204010009766, -2.2461636066436768, 4.610626697540283, -0.880859375, 0.267822265625, 0.141357421875, 
187, 3365341605, 0.5467209815979004, -0.6203835010528564, -0.23174290359020233, -0.5123807787895203, 8.763050079345703, -4.1334967613220215, 1.2097939252853394, 3.566218852996826, -2.4210448265075684, 3.9465136528015137, -0.8798828125, 0.267333984375, 0.139404296875, 
188, 3365349938, 0.5470336675643921, -0.6203254461288452, -0.23183748126029968, -0.5120747685432434, 8.761852264404297, -4.145079135894775, 1.184470295906067, 4.2622599601745605, -2.6023166179656982, 3.372934103012085, -0.88037109375, 0.267333984375, 0.142333984375, 
189, 3365358271, 0.5473500490188599, -0.6202332377433777, -0.2319679707288742, -0.5117892622947693, 8.743066787719727, -4.101868629455566, 1.169067144393921, 4.7693328857421875, -2.5060970783233643, 2.7568986415863037, -0.88037109375, 0.268798828125, 0.137939453125, 
190, 3365366604, 0.5476497411727905, -0.6201232075691223, -0.23213273286819458, -0.5115270018577576, 8.762179374694824, -4.088367462158203, 1.1706212759017944, 4.896955966949463, -2.4323408603668213, 2.1894280910491943, -0.87939453125, 0.269775390625, 0.137451171875, 
191, 3365374937, 0.547921895980835, -0.6200010180473328, -0.23228658735752106, -0.511313796043396, 8.770285606384277, -4.092952251434326, 1.170346975326538, 4.853564739227295, -2.1439242362976074, 1.646867275238037, -0.881103515625, 0.271728515625, 0.138916015625, 
192, 3365383270, 0.5481812953948975, -0.6198493838310242, -0.23247359693050385, -0.5111346244812012, 8.78307056427002, -4.082164764404297, 1.205781102180481, 4.758189678192139, -1.729293942451477, 0.9609052538871765, -0.87890625, 0.272216796875, 0.14111328125, 
193, 3365391603, 0.5484147667884827, -0.6196889281272888, -0.23265647888183594, -0.5109954476356506, 8.781428337097168, -4.12070894241333, 1.2113863229751587, 4.257521629333496, -1.3280085325241089, 0.3770415484905243, -0.87841796875, 0.271240234375, 0.1396484375, 
194, 3365399936, 0.5486016869544983, -0.6195260882377625, -0.23281750082969666, -0.5109188556671143, 8.782465934753418, -4.110601902008057, 1.2383347749710083, 3.714268445968628, -0.8101909160614014, -0.1397896558046341, -0.87744140625, 0.269775390625, 0.14013671875, 
195, 3365408269, 0.5487536191940308, -0.6193644404411316, -0.23295363783836365, -0.5108897686004639, 8.767192840576172, -4.096230983734131, 1.2530874013900757, 3.152177572250366, -0.4176913797855377, -0.5928927063941956, -0.880859375, 0.269775390625, 0.139892578125, 
196, 3365416602, 0.5488557815551758, -0.6192224025726318, -0.2330704927444458, -0.5108988881111145, 8.756000518798828, -4.07980489730835, 1.292906403541565, 2.2500696182250977, -0.1656728982925415, -0.9375578761100769, -0.87939453125, 0.270751953125, 0.137451171875, 
197, 3365424935, 0.5489294528961182, -0.6190894246101379, -0.23314794898033142, -0.5109454393386841, 8.76392650604248, -4.091154098510742, 1.3203271627426147, 1.640233039855957, 0.20657879114151, -1.116076111793518, -0.87890625, 0.270263671875, 0.139892578125, 
198, 3365433268, 0.5489651560783386, -0.618975043296814, -0.23321938514709473, -0.5110131502151489, 8.77151870727539, -4.126693248748779, 1.3130518198013306, 0.9691018462181091, 0.2674766480922699, -1.3723081350326538, -0.880859375, 0.270263671875, 0.137451171875, 
199, 3365441601, 0.5489863157272339, -0.6188674569129944, -0.2332657277584076, -0.5110995769500732, 8.733670234680176, -4.147661209106445, 1.3108656406402588, 0.5421124696731567, 0.48893728852272034, -1.4533004760742188, -0.878662109375, 0.27197265625, 0.13818359375, 
200, 3365449934, 0.5489909648895264, -0.6187731623649597, -0.23331013321876526, -0.5111883878707886, 8.700345993041992, -4.160071849822998, 1.2954728603363037, 0.29483264684677124, 0.41163352131843567, -1.4538640975952148, -0.881103515625, 0.270751953125, 0.136474609375, 
201, 3365458267, 0.5489898324012756, -0.6186789274215698, -0.23336414992809296, -0.5112789869308472, 8.70193099975586, -4.193480968475342, 1.2678735256195068, 0.3019149899482727, 0.29379525780677795, -1.6623767614364624, -0.880126953125, 0.271484375, 0.134033203125, 
202, 3365466600, 0.5489951372146606, -0.6185731887817383, -0.23344741761684418, -0.5113632082939148, 8.691326141357422, -4.1955647468566895, 1.272436499595642, 0.6757162809371948, 0.16212528944015503, -1.7828274965286255, -0.879150390625, 0.271728515625, 0.139404296875, 
203, 3365474933, 0.5490302443504333, -0.6184432506561279, -0.2335623800754547, -0.5114303827285767, 8.694133758544922, -4.253147602081299, 1.259458065032959, 1.2697744369506836, 0.05980923771858215, -1.8791242837905884, -0.8779296875, 0.27001953125, 0.138427734375, 
204, 3365483266, 0.5490857362747192, -0.6182755827903748, -0.23374272882938385, -0.5114911794662476, 8.662395477294922, -4.27185583114624, 1.2614470720291138, 2.3276679515838623, -0.172575905919075, -2.2775025367736816, -0.880859375, 0.267822265625, 0.137451171875, 
205, 3365491599, 0.5491717457771301, -0.6180724501609802, -0.23397228121757507, -0.5115391612052917, 8.642773628234863, -4.281913757324219, 1.2947384119033813, 3.3995983600616455, -0.42961475253105164, -2.5457348823547363, -0.88037109375, 0.269775390625, 0.136474609375, 
206, 3365499932, 0.5492904186248779, -0.6178274154663086, -0.23426657915115356, -0.5115731358528137, 8.639456748962402, -4.245757102966309, 1.28463876247406, 4.336873531341553, -0.514320969581604, -2.8467531204223633, -0.881103515625, 0.269775390625, 0.135009765625, 
207, 3365508265, 0.5494391918182373, -0.617558479309082, -0.23459045588970184, -0.511589527130127, 8.636140823364258, -4.238831043243408, 1.2887094020843506, 5.021644592285156, -0.6580169200897217, -2.9037959575653076, -0.8798828125, 0.27001953125, 0.135009765625, 
208, 3365516598, 0.5495827198028564, -0.6172877550125122, -0.23493020236492157, -0.5116063952445984, 8.638386726379395, -4.236040115356445, 1.297507882118225, 5.117826461791992, -0.7436708807945251, -3.0109918117523193, -0.883544921875, 0.268310546875, 0.135009765625, 
209, 3365524931, 0.5497144460678101, -0.6170202493667603, -0.23528534173965454, -0.5116243958473206, 8.621345520019531, -4.223660469055176, 1.268627643585205, 5.244182109832764, -1.026938796043396, -3.271411895751953, -0.87939453125, 0.26708984375, 0.133056640625, 
210, 3365533264, 0.5498413443565369, -0.6167711019515991, -0.23567654192447662, -0.5116083025932312, 8.625792503356934, -4.247500419616699, 1.2310116291046143, 5.281476020812988, -1.61632239818573, -3.2467706203460693, -0.88037109375, 0.268798828125, 0.136474609375, 
211, 3365541597, 0.5499560832977295, -0.6165462136268616, -0.2361418604850769, -0.5115414261817932, 8.625433921813965, -4.320518493652344, 1.2653511762619019, 5.649450302124023, -2.8446786403656006, -3.5711240768432617, -0.880859375, 0.267333984375, 0.134521484375, 
212, 3365549930, 0.5500829219818115, -0.6163538694381714, -0.23672398924827576, -0.5113677978515625, 8.589139938354492, -4.49394416809082, 1.3735485076904297, 6.705114841461182, -4.797891616821289, -3.4903619289398193, -0.880859375, 0.266845703125, 0.134521484375, 
213, 3365558263, 0.5502813458442688, -0.6161577701568604, -0.2374994456768036, -0.511030912399292, 8.651390075683594, -4.682427406311035, 1.5632237195968628, 9.130066871643066, -7.378782272338867, -3.486673593521118, -0.87939453125, 0.268310546875, 0.136962890625, 
214, 3365566596, 0.5505803227424622, -0.6159225106239319, -0.23852241039276123, -0.5105159282684326, 8.779948234558105, -4.901553153991699, 1.6155391931533813, 12.70197582244873, -10.159928321838379, -3.5741989612579346, -0.880615234375, 0.270263671875, 0.136474609375, 
215, 3365574929, 0.5510563254356384, -0.6155813336372375, -0.23989765346050262, -0.5097687244415283, 8.860432624816895, -5.12592887878418, 1.5962982177734375, 18.50875473022461, -13.649999618530273, -3.9365124702453613, -0.880859375, 0.266845703125, 0.139404296875, 
216, 3365583262, 0.5518089532852173, -0.6150860786437988, -0.24174165725708008, -0.5086802244186401, 8.853142738342285, -5.33903169631958, 1.598455786705017, 26.158639907836914, -17.920028686523438, -3.854933261871338, -0.880859375, 0.267822265625, 0.138916015625, 
217, 3365591595, 0.5529173016548157, -0.6143710613250732, -0.24415871500968933, -0.5071842670440674, 8.759400367736816, -5.572169780731201, 1.6163583993911743, 36.147789001464844, -23.01825714111328, -3.934647798538208, -0.8798828125, 0.269287109375, 0.140869140625, 
218, 3365599928, 0.5544386506080627, -0.613368034362793, -0.24726803600788116, -0.5052270889282227, 8.615509033203125, -5.818116188049316, 1.643220067024231, 48.25220489501953, -28.760574340820312, -4.281495094299316, -0.87939453125, 0.268798828125, 0.1435546875, 
219, 3365608261, 0.5564375519752502, -0.6120069026947021, -0.25113457441329956, -0.5027672052383423, 8.429688453674316, -5.950841426849365, 1.7626686096191406, 61.90813064575195, -34.67599105834961, -4.826793670654297, -0.87841796875, 0.2685546875, 0.14697265625, 
220, 3365616594, 0.5589229464530945, -0.6102712750434875, -0.255733847618103, -0.4997928738594055, 8.260948181152344, -5.86954927444458, 1.8800463676452637, 75.7833251953125, -40.329811096191406, -4.894822597503662, -0.8798828125, 0.27001953125, 0.14599609375, 
221, 3365624927, 0.5618600845336914, -0.6081761717796326, -0.260990709066391, -0.49632391333580017, 8.012714385986328, -5.709502696990967, 1.958770513534546, 88.63924407958984, -45.550819396972656, -4.854516506195068, -0.87939453125, 0.273193359375, 0.14794921875, 
222, 3365633260, 0.5651721954345703, -0.6057409644126892, -0.26683151721954346, -0.4924205541610718, 7.909252166748047, -5.5719499588012695, 1.9411042928695679, 99.90562438964844, -49.952232360839844, -4.961634635925293, -0.87548828125, 0.274169921875, 0.150146484375, 
223, 3365641593, 0.5688229203224182, -0.6029495596885681, -0.2731625735759735, -0.4881528913974762, 7.922680377960205, -5.549489974975586, 1.7483034133911133, 110.03790283203125, -53.1558723449707, -5.338255882263184, -0.875732421875, 0.277587890625, 0.155029296875, 
224, 3365649926, 0.5727078914642334, -0.5998153686523438, -0.2799259424209595, -0.48361918330192566, 7.951225280761719, -5.525615692138672, 1.4933273792266846, 118.67605590820312, -55.55027389526367, -6.446201324462891, -0.874267578125, 0.278076171875, 0.154541015625, 
225, 3365658259, 0.576741099357605, -0.5963712334632874, -0.2870680093765259, -0.47887516021728516, 7.975004196166992, -5.450742244720459, 1.1818958520889282, 125.58968353271484, -57.66927719116211, -8.235475540161133, -0.871337890625, 0.281005859375, 0.15869140625, 
226, 3365666592, 0.5808181166648865, -0.5926766395568848, -0.2945501208305359, -0.4739656150341034, 8.048792839050293, -5.332281112670898, 1.0664054155349731, 130.90748596191406, -59.86704635620117, -10.296266555786133, -0.873291015625, 0.282470703125, 0.16064453125, 
227, 3365674925, 0.5848915576934814, -0.5887736082077026, -0.3023005723953247, -0.4689139723777771, 8.170989990234375, -5.156984329223633, 1.192091941833496, 134.69883728027344, -61.82555389404297, -12.349851608276367, -0.870361328125, 0.283935546875, 0.163818359375, 
228, 3365683258, 0.5888814330101013, -0.5846863389015198, -0.31026387214660645, -0.4638053774833679, 8.194414138793945, -4.975980758666992, 1.4956921339035034, 137.28280639648438, -63.15597915649414, -14.784796714782715, -0.868896484375, 0.28662109375, 0.166259765625, 
229, 3365691591, 0.5927587747573853, -0.5804562568664551, -0.3183227777481079, -0.45869016647338867, 8.06207275390625, -4.871373653411865, 1.7697274684906006, 138.44798278808594, -63.75728988647461, -16.90475845336914, -0.866943359375, 0.28857421875, 0.16796875, 
230, 3365699924, 0.5965099334716797, -0.5761240720748901, -0.3264244794845581, -0.45356643199920654, 8.003911972045898, -4.8310227394104, 1.9224473237991333, 138.30551147460938, -63.877685546875, -18.34221076965332, -0.865966796875, 0.29052734375, 0.17138671875, 
231, 3365708257, 0.6001434326171875, -0.5717043876647949, -0.3344770073890686, -0.44847023487091064, 8.008121490478516, -4.850705623626709, 1.9127931594848633, 137.43603515625, -63.23624038696289, -19.453500747680664, -0.864013671875, 0.29248046875, 0.173095703125, 
232, 3365716590, 0.6036348342895508, -0.5672195553779602, -0.3424603044986725, -0.44342586398124695, 8.03664779663086, -4.95829439163208, 1.7367066144943237, 136.41627502441406, -62.510894775390625, -20.366121292114258, -0.864013671875, 0.29345703125, 0.174072265625, 
233, 3365724923, 0.6070390939712524, -0.5626375675201416, -0.35036855936050415, -0.43840962648391724, 8.038569450378418, -5.108534336090088, 1.5008288621902466, 136.13336181640625, -61.666542053222656, -21.097753524780273, -0.861083984375, 0.295654296875, 0.176513671875, 
234, 3365733256, 0.610386073589325, -0.5579195022583008, -0.35825929045677185, -0.43338608741760254, 8.05004596710205, -5.168382167816162, 1.2205286026000977, 136.57327270507812, -60.854129791259766, -21.80738639831543, -0.862060546875, 0.29638671875, 0.179443359375, 
235, 3365741589, 0.6136900186538696, -0.553067147731781, -0.3661218583583832, -0.42833927273750305, 8.090569496154785, -5.198951244354248, 1.0191503763198853, 137.80294799804688, -60.5069580078125, -22.37616729736328, -0.859130859375, 0.298095703125, 0.17919921875, 
236, 3365749922, 0.6169725060462952, -0.5480397939682007, -0.3740488886833191, -0.42320582270622253, 8.250292778015137, -5.209937572479248, 0.8803948760032654, 139.4474639892578, -60.488067626953125, -23.078880310058594, -0.861572265625, 0.2998046875, 0.181640625, 
237, 3365758255, 0.6202602386474609, -0.5428149700164795, -0.3820251226425171, -0.41797637939453125, 8.433774948120117, -5.267488479614258, 0.8503159284591675, 141.94432067871094, -60.56566619873047, -23.753063201904297, -0.858642578125, 0.299560546875, 0.1826171875, 
238, 3365766588, 0.6235619783401489, -0.5373848676681519, -0.39007389545440674, -0.4126121401786804, 8.593439102172852, -5.284817218780518, 0.9350642561912537, 144.9234619140625, -60.82375717163086, -24.011438369750977, -0.857421875, 0.303466796875, 0.183349609375, 
239, 3365774921, 0.6268656849861145, -0.5317994356155396, -0.39813119173049927, -0.40711039304733276, 8.788926124572754, -5.1551833152771, 0.9830095171928406, 147.26397705078125, -61.215824127197266, -23.827634811401367, -0.856201171875, 0.302978515625, 0.185302734375, 
240, 3365783254, 0.6302043199539185, -0.5260089635848999, -0.406208872795105, -0.4014597535133362, 9.14604663848877, -5.143970012664795, 1.055873990058899, 150.00758361816406, -60.947105407714844, -23.512832641601562, -0.85595703125, 0.305419921875, 0.186279296875, 
241, 3365791587, 0.6336215734481812, -0.5199983716011047, -0.4142531156539917, -0.39564943313598633, 9.370728492736816, -5.258345127105713, 1.2225139141082764, 153.209716796875, -60.28619384765625, -22.8185977935791, -0.85498046875, 0.305419921875, 0.186767578125, 
242, 3365799920, 0.6371209621429443, -0.5137502551078796, -0.42228931188583374, -0.3896511197090149, 9.363807678222656, -5.246336460113525, 1.3252356052398682, 156.8774871826172, -59.672542572021484, -21.890235900878906, -0.85400390625, 0.30908203125, 0.18896484375, 
243, 3365808253, 0.6406937837600708, -0.5072847604751587, -0.43022871017456055, -0.3835303783416748, 9.257015228271484, -5.184970855712891, 1.3713223934173584, 159.28097534179688, -58.15364456176758, -21.175039291381836, -0.8525390625, 0.3134765625, 0.18798828125, 
244, 3365816586, 0.6442344188690186, -0.500740647315979, -0.4379537105560303, -0.377407044172287, 9.355733871459961, -5.08707857131958, 1.3740553855895996, 158.8441925048828, -56.00038528442383, -20.119773864746094, -0.85205078125, 0.314453125, 0.1884765625, 
245, 3365824919, 0.647741436958313, -0.49417468905448914, -0.4454091489315033, -0.3712835907936096, 9.55029010772705, -4.99467134475708, 1.269881248474121, 157.27157592773438, -53.79517364501953, -18.73372459411621, -0.848876953125, 0.317138671875, 0.187255859375, 
246, 3365833252, 0.6511902809143066, -0.487626314163208, -0.4525558352470398, -0.3652171492576599, 9.774837493896484, -4.946712970733643, 1.2112107276916504, 154.929443359375, -51.01345443725586, -17.16754150390625, -0.849853515625, 0.317138671875, 0.189208984375, 
247, 3365841585, 0.6545727252960205, -0.4811308979988098, -0.4593401551246643, -0.3592672348022461, 9.920004844665527, -4.814025402069092, 1.108486533164978, 151.37265014648438, -47.77750778198242, -15.950674057006836, -0.848388671875, 0.32177734375, 0.185791015625, 
248, 3365849918, 0.6578793525695801, -0.4747152626514435, -0.4658029079437256, -0.35339266061782837, 10.072972297668457, -4.65004825592041, 1.0194857120513916, 148.18161010742188, -45.14502716064453, -14.20413875579834, -0.848388671875, 0.32470703125, 0.185791015625, 
249, 3365858251, 0.661144495010376, -0.4684598743915558, -0.47181811928749084, -0.3476197123527527, 10.167055130004883, -4.646883010864258, 1.0406495332717896, 143.68267822265625, -41.63959503173828, -11.527748107910156, -0.84716796875, 0.327880859375, 0.18212890625, 
250, 3365866584, 0.6643506288528442, -0.46241870522499084, -0.47735434770584106, -0.34199193120002747, 10.15194320678711, -4.508182048797607, 1.0739797353744507, 138.07467651367188, -37.59498596191406, -8.506653785705566, -0.84375, 0.3310546875, 0.17919921875, 
251, 3365874917, 0.667496919631958, -0.4566546082496643, -0.48235005140304565, -0.336558073759079, 10.018077850341797, -4.207629680633545, 1.0682203769683838, 131.23150634765625, -33.23638916015625, -5.473645210266113, -0.845458984375, 0.33447265625, 0.1796875, 
252, 3365883250, 0.6705372929573059, -0.45124560594558716, -0.48679590225219727, -0.33136916160583496, 10.093921661376953, -3.864269733428955, 1.144490122795105, 123.25370025634766, -28.87842559814453, -2.2317872047424316, -0.842529296875, 0.335693359375, 0.17724609375, 
253, 3365891583, 0.673504650592804, -0.44622156023979187, -0.4906403124332428, -0.326448529958725, 10.183038711547852, -3.6264634132385254, 1.211541771888733, 114.69420623779297, -24.0616512298584, 1.1109284162521362, -0.845458984375, 0.340087890625, 0.1767578125, 
254, 3365899916, 0.6763744354248047, -0.4415956735610962, -0.49389415979385376, -0.3218666613101959, 10.11005687713623, -3.510274648666382, 1.2269259691238403, 105.49003601074219, -18.810016632080078, 4.005952835083008, -0.8408203125, 0.345458984375, 0.172607421875, 
255, 3365908249, 0.6791449785232544, -0.4373767673969269, -0.4966013729572296, -0.3175993859767914, 9.893915176391602, -3.488179922103882, 0.9105783104896545, 96.53582000732422, -14.446562767028809, 6.568723678588867, -0.84375, 0.345947265625, 0.169189453125, 
256, 3365916582, 0.6817878484725952, -0.4335130453109741, -0.49889135360717773, -0.31362056732177734, 9.989866256713867, -3.5245776176452637, 0.7103649973869324, 88.66941833496094, -11.080835342407227, 8.405217170715332, -0.842041015625, 0.35302734375, 0.164794921875, 
257, 3365924915, 0.6843392848968506, -0.42992183566093445, -0.500851571559906, -0.3098599910736084, 10.126463890075684, -3.5613715648651123, 0.5637039542198181, 82.62210845947266, -8.643448829650879, 9.644241333007812, -0.8408203125, 0.356201171875, 0.161376953125, 
258, 3365933248, 0.6868271827697754, -0.4264950454235077, -0.5026114583015442, -0.30621999502182007, 9.855015754699707, -3.530935525894165, 0.6049234867095947, 79.04244232177734, -7.0314412117004395, 10.713956832885742, -0.8408203125, 0.356689453125, 0.158935546875, 
259, 3365941581, 0.6892896294593811, -0.42314612865448, -0.504256010055542, -0.302607923746109, 9.328744888305664, -3.4731688499450684, 0.6878664493560791, 77.45556640625, -6.432857990264893, 11.401213645935059, -0.83837890625, 0.361328125, 0.15625, 
260, 3365949914, 0.6917372941970825, -0.4197905659675598, -0.5058867931365967, -0.29895204305648804, 8.963397026062012, -3.3685832023620605, 0.7445777654647827, 77.70221710205078, -6.480514049530029, 11.944457054138184, -0.838623046875, 0.363037109375, 0.15283203125, 
261, 3365958247, 0.6942123174667358, -0.41637349128723145, -0.5075114965438843, -0.2952169179916382, 9.011748313903809, -3.369382381439209, 0.7696533203125, 78.95137786865234, -6.5883636474609375, 12.264012336730957, -0.838623046875, 0.36865234375, 0.14501953125, 
262, 3365966580, 0.696728527545929, -0.41283440589904785, -0.5091763734817505, -0.29136762022972107, 9.162137031555176, -3.461780071258545, 0.7203338146209717, 81.33313751220703, -6.692232608795166, 12.593416213989258, -0.835205078125, 0.37109375, 0.14599609375, 
263, 3365974913, 0.699351966381073, -0.40911024808883667, -0.5108646750450134, -0.28735268115997314, 9.228158950805664, -3.551018714904785, 0.6206814646720886, 84.93363189697266, -6.51159143447876, 13.024295806884766, -0.83642578125, 0.373779296875, 0.1376953125, 
264, 3365983246, 0.7020559310913086, -0.405195415019989, -0.5126290321350098, -0.2831331789493561, 9.171972274780273, -3.4901280403137207, 0.5367494225502014, 88.99238586425781, -6.927572727203369, 13.698142051696777, -0.834228515625, 0.37890625, 0.1357421875, 
265, 3365991579, 0.7048638463020325, -0.40110939741134644, -0.5144312977790833, -0.27867019176483154, 9.140911102294922, -3.3883650302886963, 0.5685962438583374, 93.07129669189453, -7.400266647338867, 14.883973121643066, -0.831787109375, 0.380126953125, 0.1318359375, 
266, 3365999912, 0.7077417969703674, -0.3968566060066223, -0.5162754058837891, -0.2740158438682556, 9.132185935974121, -3.2347753047943115, 0.6117190718650818, 96.60609436035156, -7.5767035484313965, 15.749415397644043, -0.83203125, 0.38720703125, 0.129150390625, 
267, 3366008245, 0.7106620073318481, -0.3925286531448364, -0.5180801749229431, -0.2692437767982483, 9.126116752624512, -3.108558416366577, 0.5164759159088135, 98.24349212646484, -7.403591156005859, 16.58357048034668, -0.8291015625, 0.389892578125, 0.121826171875, 
268, 3366016578, 0.713566780090332, -0.38820767402648926, -0.5198153257369995, -0.2644389271736145, 9.18388557434082, -2.891429901123047, 0.4710671901702881, 98.07840728759766, -6.885769367218018, 17.423391342163086, -0.830322265625, 0.392578125, 0.117919921875, 
269, 3366024911, 0.7164613008499146, -0.38393986225128174, -0.521415650844574, -0.2596491873264313, 9.355149269104004, -2.617868423461914, 0.5856680870056152, 96.90959167480469, -5.900674343109131, 18.192806243896484, -0.830322265625, 0.396240234375, 0.114501953125, 
270, 3366033244, 0.719307541847229, -0.37975502014160156, -0.5228976607322693, -0.25491058826446533, 9.274471282958984, -2.379581928253174, 0.6226048469543457, 95.04298400878906, -4.955422878265381, 18.882600784301758, -0.8291015625, 0.40087890625, 0.108642578125, 
271, 3366041577, 0.7220918536186218, -0.37572914361953735, -0.5241930484771729, -0.2503020465373993, 9.048137664794922, -2.390944480895996, 0.4713265597820282, 91.53777313232422, -3.5746476650238037, 19.352458953857422, -0.826171875, 0.405517578125, 0.104248046875, 
272, 3366049910, 0.724780261516571, -0.3718957304954529, -0.5253280401229858, -0.2458374947309494, 9.078804016113281, -2.3325703144073486, 0.31088024377822876, 87.56246948242188, -2.449519395828247, 19.952299118041992, -0.82373046875, 0.40625, 0.097900390625, 
273, 3366058243, 0.7273755073547363, -0.36825376749038696, -0.5263118743896484, -0.24151292443275452, 9.214838981628418, -2.1967830657958984, 0.13956120610237122, 83.63714599609375, -1.6863625049591064, 20.25960922241211, -0.823974609375, 0.411865234375, 0.0947265625, 
274, 3366066576, 0.7298428416252136, -0.36476805806159973, -0.5272234678268433, -0.23733441531658173, 9.150556564331055, -2.0719339847564697, 0.06836395710706711, 80.14624786376953, -1.5297297239303589, 20.009166717529297, -0.8232421875, 0.41650390625, 0.08544921875, 
275, 3366074909, 0.732177197933197, -0.3614335060119629, -0.5281062722206116, -0.2332478165626526, 8.916178703308105, -1.9384102821350098, 0.13471046090126038, 77.19657897949219, -2.3729798793792725, 19.76451301574707, -0.8203125, 0.419189453125, 0.08349609375, 
276, 3366083242, 0.734362006187439, -0.358273983001709, -0.5289848446846008, -0.22922876477241516, 8.878266334533691, -1.8123103380203247, 0.38873350620269775, 74.19184112548828, -3.508669137954712, 20.02344512939453, -0.821044921875, 0.42236328125, 0.0771484375, 
277, 3366091575, 0.7364271879196167, -0.3553493618965149, -0.5297593474388123, -0.22533383965492249, 9.024323463439941, -1.5022293329238892, 0.6979655027389526, 69.98590087890625, -3.5800414085388184, 20.493623733520508, -0.818115234375, 0.425048828125, 0.0771484375, 
278, 3366099908, 0.7383639216423035, -0.3526906371116638, -0.5303754210472107, -0.22169432044029236, 9.023297309875488, -1.2172257900238037, 0.8564348816871643, 64.32774353027344, -2.3624231815338135, 20.343904495239258, -0.81787109375, 0.43115234375, 0.0703125, 
279, 3366108241, 0.7401754260063171, -0.35036131739616394, -0.5307824611663818, -0.21834799647331238, 8.806020736694336, -1.2048007249832153, 0.8222209215164185, 57.590904235839844, -0.8570423722267151, 20.288898468017578, -0.81494140625, 0.4306640625, 0.06884765625, 
280, 3366116574, 0.7418773770332336, -0.34833115339279175, -0.5309900045394897, -0.21529421210289001, 8.68854808807373, -1.4214085340499878, 0.6262097358703613, 51.29294967651367, 1.0056430101394653, 20.23924446105957, -0.8154296875, 0.435302734375, 0.065185546875, 
281, 3366124907, 0.7435123324394226, -0.34646493196487427, -0.5310801863670349, -0.21242396533489227, 8.746330261230469, -1.6209995746612549, 0.2435370832681656, 47.6042594909668, 1.9900388717651367, 19.825963973999023, -0.811279296875, 0.438720703125, 0.058837890625, 
282, 3366133240, 0.7450817823410034, -0.34462693333625793, -0.5311899185180664, -0.2096216231584549, 8.807938575744629, -1.8267910480499268, -0.024793418124318123, 46.57319641113281, 1.6718062162399292, 19.15325164794922, -0.812255859375, 0.440185546875, 0.055908203125, 
283, 3366141573, 0.746588945388794, -0.3427501320838928, -0.5314522385597229, -0.20665039122104645, 8.81069278717041, -1.8261804580688477, 0.10335791856050491, 48.338802337646484, -1.1440114974975586, 19.605350494384766, -0.812744140625, 0.443115234375, 0.054443359375, 
284, 3366149906, 0.748062252998352, -0.34101903438568115, -0.5316743850708008, -0.20359209179878235, 9.08260726928711, -1.3395012617111206, 0.46762707829475403, 47.215389251708984, -1.6942700147628784, 21.751169204711914, -0.81103515625, 0.4462890625, 0.052490234375, 
285, 3366158239, 0.7494772672653198, -0.33974236249923706, -0.5315744876861572, -0.20076361298561096, 9.338457107543945, -0.4391823709011078, 0.7304288744926453, 39.675594329833984, 0.8974474668502808, 23.9720458984375, -0.8095703125, 0.449951171875, 0.046142578125, 
286, 3366166572, 0.7507706880569458, -0.33915096521377563, -0.5310317277908325, -0.19835317134857178, 9.319408416748047, 0.05663663521409035, 0.7584863901138306, 27.775524139404297, 4.733414173126221, 26.48858642578125, -0.805908203125, 0.454345703125, 0.041015625, 
287, 3366174905, 0.7519086599349976, -0.33946454524993896, -0.5299290418624878, -0.19644604623317719, 9.25857162475586, 0.07137585431337357, 0.5891264081001282, 12.480305671691895, 9.169610023498535, 30.017438888549805, -0.804443359375, 0.456298828125, 0.03955078125, 
288, 3366183238, 0.752851128578186, -0.3405892252922058, -0.528381884098053, -0.19505220651626587, 9.481289863586426, -0.05044093728065491, 0.25503814220428467, -1.734981894493103, 12.633760452270508, 32.24073791503906, -0.802978515625, 0.46142578125, 0.041259765625, 
289, 3366191571, 0.7536133527755737, -0.34234270453453064, -0.5264912843704224, -0.19414889812469482, 9.720592498779297, -0.18512511253356934, 0.06113866716623306, -13.58881664276123, 15.410286903381348, 32.803218841552734, -0.801025390625, 0.46142578125, 0.037353515625, 
290, 3366199904, 0.7541773319244385, -0.3444947898387909, -0.5245052576065063, -0.19352661073207855, 9.80794906616211, -0.3676382899284363, -0.08581086993217468, -20.926515579223633, 15.303990364074707, 32.74828338623047, -0.80126953125, 0.467529296875, 0.037353515625, 
291, 3366208237, 0.7545812726020813, -0.3468928933143616, -0.5224666595458984, -0.19318287074565887, 9.9722261428833, -0.5010227560997009, -0.13894131779670715, -26.393733978271484, 15.287189483642578, 31.423648834228516, -0.79443359375, 0.470703125, 0.0380859375, 
292, 3366216570, 0.7548240423202515, -0.34949010610580444, -0.5203779339790344, -0.19319090247154236, 10.100135803222656, -0.43969616293907166, -0.19115646183490753, -31.88149642944336, 15.86966323852539, 29.050031661987305, -0.795166015625, 0.474853515625, 0.0361328125, 
293, 3366224903, 0.7549021244049072, -0.3521849811077118, -0.5183407664299011, -0.19346855580806732, 10.141541481018066, -0.3329422175884247, -0.357980877161026, -35.4906120300293, 15.137619018554688, 26.244585037231445, -0.794677734375, 0.476806640625, 0.0390625, 
294, 3366233236, 0.7547951936721802, -0.3549281358718872, -0.5164598226547241, -0.19390258193016052, 10.081440925598145, -0.334503173828125, -0.5857767462730408, -37.57553482055664, 12.881305694580078, 23.734052658081055, -0.793212890625, 0.479736328125, 0.039306640625, 
295, 3366241569, 0.7544972896575928, -0.35754692554473877, -0.514936625957489, -0.19430087506771088, 10.014540672302246, -0.3921889662742615, -0.5658950805664062, -36.022830963134766, 7.930358409881592, 20.966413497924805, -0.790771484375, 0.48291015625, 0.039794921875, 
296, 3366249902, 0.7540074586868286, -0.35990676283836365, -0.5139369368553162, -0.19449281692504883, 9.84483814239502, -0.5290550589561462, -0.2710109055042267, -31.405275344848633, 0.8564128279685974, 18.187814712524414, -0.791748046875, 0.482666015625, 0.041259765625, 
297, 3366258235, 0.7533706426620483, -0.3618928790092468, -0.5135056972503662, -0.19441364705562592, 9.64029312133789, -0.7236289978027344, 0.32618221640586853, -24.835491180419922, -6.443150520324707, 15.168045043945312, -0.787841796875, 0.48486328125, 0.04248046875, 
298, 3366266568, 0.7526258826255798, -0.3635357618331909, -0.5135466456413269, -0.1941249966621399, 9.582134246826172, -0.9684074521064758, 1.0415750741958618, -19.06195640563965, -12.199080467224121, 12.259185791015625, -0.785888671875, 0.4873046875, 0.046630859375, 
299, 3366274901, 0.7518413066864014, -0.3649037480354309, -0.5138753652572632, -0.19372862577438354, 9.748672485351562, -1.1381614208221436, 1.7379505634307861, -14.904659271240234, -15.27368450164795, 9.918091773986816, -0.786865234375, 0.486328125, 0.048095703125, 
300, 3366283234, 0.7510550022125244, -0.3661583960056305, -0.5142532587051392, -0.19340835511684418, 9.868135452270508, -1.1354200839996338, 2.270873546600342, -14.13076400756836, -15.100495338439941, 8.050724029541016, -0.787353515625, 0.48876953125, 0.048095703125, 
301, 3366291567, 0.750272274017334, -0.3674939274787903, -0.5144706964492798, -0.19333437085151672, 9.9078369140625, -0.8542097806930542, 2.4797353744506836, -17.1398868560791, -12.402737617492676, 6.936594009399414, -0.785400390625, 0.48974609375, 0.052490234375, 
302, 3366299900, 0.7494619488716125, -0.3691297471523285, -0.514362633228302, -0.19364865124225616, 9.904571533203125, -0.5145494341850281, 2.30476975440979, -23.96559715270996, -8.064401626586914, 6.586831569671631, -0.782958984375, 0.4912109375, 0.051025390625, 
303, 3366308233, 0.7485743165016174, -0.37120166420936584, -0.5138541460037231, -0.19446909427642822, 9.818397521972656, -0.23266012966632843, 1.9440946578979492, -33.515968322753906, -3.0938570499420166, 6.339836597442627, -0.785888671875, 0.489501953125, 0.057861328125, 
304, 3366316566, 0.7475326061248779, -0.3738256096839905, -0.5129455924034119, -0.19584399461746216, 9.783940315246582, -0.14418527483940125, 1.588724970817566, -44.956790924072266, 1.3057135343551636, 6.103037357330322, -0.782958984375, 0.490966796875, 0.0615234375, 
305, 3366324899, 0.7462943196296692, -0.3769424259662628, -0.5117641687393188, -0.19767488539218903, 9.817822456359863, -0.1716058850288391, 1.27054762840271, -55.00859451293945, 3.7275216579437256, 5.846182823181152, -0.781494140625, 0.489990234375, 0.06298828125, 
306, 3366333232, 0.744856595993042, -0.3804871141910553, -0.5103789567947388, -0.1998750865459442, 9.997238159179688, -0.34759098291397095, 1.1694329977035522, -63.562042236328125, 5.18131685256958, 5.500267028808594, -0.781982421875, 0.492431640625, 0.069091796875, 
307, 3366341565, 0.7432456016540527, -0.38430994749069214, -0.5088751912117004, -0.20237727463245392, 10.296170234680176, -0.6441192626953125, 1.250244140625, -69.78839874267578, 5.982767581939697, 4.602616310119629, -0.781494140625, 0.490478515625, 0.068603515625, 
308, 3366349898, 0.7415177822113037, -0.38829147815704346, -0.5072765946388245, -0.20510990917682648, 10.534505844116211, -1.0986500978469849, 1.5339460372924805, -73.87944793701172, 6.921818256378174, 3.435756206512451, -0.78271484375, 0.48974609375, 0.077392578125, 
309, 3366358231, 0.7397260665893555, -0.3923601508140564, -0.5055751800537109, -0.2080174833536148, 10.674686431884766, -1.5460084676742554, 1.9333512783050537, -76.64440155029297, 8.203667640686035, 2.7432475090026855, -0.78271484375, 0.489013671875, 0.080810546875, 
310, 3366366564, 0.7379574775695801, -0.39641597867012024, -0.5037638545036316, -0.21098294854164124, 10.796960830688477, -1.9292315244674683, 2.3752613067626953, -77.08109283447266, 9.840631484985352, 2.610924243927002, -0.78125, 0.490966796875, 0.08544921875, 
311, 3366374897, 0.7362698912620544, -0.40034419298171997, -0.5018911957740784, -0.21390444040298462, 10.9457368850708, -2.3534224033355713, 2.742725133895874, -75.2459487915039, 11.14073657989502, 2.869014024734497, -0.780517578125, 0.487060546875, 0.087158203125, 
312, 3366383230, 0.7347726225852966, -0.40404853224754333, -0.49992460012435913, -0.21667538583278656, 11.076944351196289, -2.7978196144104004, 3.0274393558502197, -71.13953399658203, 13.250316619873047, 3.796854019165039, -0.781982421875, 0.4853515625, 0.091064453125, 
313, 3366391563, 0.7336317300796509, -0.40743839740753174, -0.4976867139339447, -0.21932871639728546, 11.202228546142578, -3.3506834506988525, 3.5535597801208496, -66.01917266845703, 18.705167770385742, 5.5289201736450195, -0.781494140625, 0.484375, 0.095703125, 
314, 3366399896, 0.732857882976532, -0.4105967879295349, -0.4950869679450989, -0.22189487516880035, 11.261880874633789, -3.5813393592834473, 3.80314302444458, -62.08514404296875, 25.095876693725586, 7.822131633758545, -0.779541015625, 0.48583984375, 0.0986328125, 
315, 3366408229, 0.7324814796447754, -0.4135335683822632, -0.4920818507671356, -0.22435502707958221, 11.200175285339355, -3.4772605895996094, 3.6514387130737305, -58.16156005859375, 31.935312271118164, 11.025869369506836, -0.782470703125, 0.486328125, 0.09326171875, 
316, 3366416562, 0.7325118184089661, -0.41634297370910645, -0.48858222365379333, -0.22669605910778046, 11.031569480895996, -3.553450107574463, 3.261420726776123, -55.247642517089844, 39.4147834777832, 15.288714408874512, -0.781982421875, 0.48583984375, 0.09716796875, 
317, 3366424895, 0.7329358458518982, -0.4189721941947937, -0.48460865020751953, -0.2289987951517105, 10.760114669799805, -3.2358787059783936, 2.870246410369873, -52.44343185424805, 47.136383056640625, 18.551481246948242, -0.781494140625, 0.48779296875, 0.0947265625, 
318, 3366433228, 0.7336763739585876, -0.4214584231376648, -0.48017212748527527, -0.23139828443527222, 10.4412202835083, -2.4772744178771973, 2.3458306789398193, -51.23639678955078, 54.95878982543945, 20.140514373779297, -0.777587890625, 0.487548828125, 0.09326171875, 
319, 3366441561, 0.7345812320709229, -0.42396223545074463, -0.47527724504470825, -0.23404395580291748, 9.975732803344727, -1.8314032554626465, 1.7883648872375488, -53.595157623291016, 61.99538803100586, 21.10637855529785, -0.77783203125, 0.489501953125, 0.08935546875, 
320, 3366449894, 0.7354974150657654, -0.42671650648117065, -0.46990111470222473, -0.23699858784675598, 9.541658401489258, -1.5464962720870972, 1.2294977903366089, -59.578636169433594, 67.96846008300781, 22.310897827148438, -0.77978515625, 0.489501953125, 0.087890625, 
321, 3366458227, 0.7362923622131348, -0.42983704805374146, -0.46407485008239746, -0.24034716188907623, 9.339874267578125, -1.496219515800476, 0.7459931373596191, -68.06573486328125, 72.81426239013672, 23.103893280029297, -0.77783203125, 0.49169921875, 0.083984375, 
322, 3366466560, 0.7369036078453064, -0.4333413243293762, -0.4578414261341095, -0.24410706758499146, 9.345219612121582, -1.5997560024261475, 0.4047911763191223, -76.94752502441406, 76.97164154052734, 23.021377563476562, -0.778564453125, 0.495361328125, 0.07763671875, 
323, 3366474893, 0.7373092770576477, -0.4371888339519501, -0.45127663016319275, -0.2482117861509323, 9.36861801147461, -1.7930561304092407, 0.34366703033447266, -84.99217224121094, 79.89732360839844, 23.151830673217773, -0.777099609375, 0.494384765625, 0.07373046875, 
324, 3366483226, 0.7374773621559143, -0.4414125978946686, -0.4443686008453369, -0.25266075134277344, 9.35534954071045, -1.9481699466705322, 0.4195407032966614, -93.48519134521484, 82.72906494140625, 23.069543838500977, -0.776611328125, 0.49658203125, 0.07373046875, 
325, 3366491559, 0.737434983253479, -0.44594961404800415, -0.4370806813240051, -0.25748366117477417, 9.339487075805664, -2.079885721206665, 0.6252219080924988, -101.60832214355469, 86.44210052490234, 22.954607009887695, -0.778076171875, 0.498046875, 0.0712890625, 
326, 3366499892, 0.7371543049812317, -0.45081549882888794, -0.4293993413448334, -0.2626858353614807, 9.34234619140625, -2.2123610973358154, 0.8636707067489624, -110.01386260986328, 90.19639587402344, 22.467601776123047, -0.773681640625, 0.498291015625, 0.0673828125, 
327, 3366508225, 0.7366054654121399, -0.45597702264785767, -0.42137840390205383, -0.26824671030044556, 9.282936096191406, -2.444016933441162, 1.0662219524383545, -118.08809661865234, 93.1800765991211, 21.90891456604004, -0.773193359375, 0.499267578125, 0.06494140625, 
328, 3366516558, 0.7358399033546448, -0.46134400367736816, -0.41303515434265137, -0.2740839123725891, 9.237638473510742, -2.710688591003418, 1.1760157346725464, -124.24772644042969, 96.19451141357422, 21.327348709106445, -0.77490234375, 0.50048828125, 0.06005859375, 
329, 3366524891, 0.7348724603652954, -0.46682995557785034, -0.40444454550743103, -0.28013521432876587, 9.127699851989746, -3.0170469284057617, 1.1153603792190552, -128.9491729736328, 98.4266357421875, 20.848094940185547, -0.77490234375, 0.501708984375, 0.0634765625, 
330, 3366533224, 0.7337102890014648, -0.4724206328392029, -0.3955789804458618, -0.2863982915878296, 9.028749465942383, -3.1042606830596924, 1.0395724773406982, -133.4281005859375, 101.11270141601562, 20.101863861083984, -0.774658203125, 0.49951171875, 0.059326171875, 
331, 3366541557, 0.7323458194732666, -0.478067010641098, -0.3865126669406891, -0.2928279638290405, 8.851726531982422, -3.0776994228363037, 0.8977109789848328, -137.0958251953125, 102.87779235839844, 19.432876586914062, -0.7744140625, 0.50146484375, 0.057861328125, 
332, 3366549890, 0.7307770848274231, -0.4837309718132019, -0.3773080110549927, -0.2993772327899933, 8.768078804016113, -3.0291831493377686, 0.774681568145752, -139.71287536621094, 103.92505645751953, 18.207853317260742, -0.775390625, 0.50146484375, 0.057373046875, 
333, 3366558223, 0.7289745211601257, -0.4893541634082794, -0.3680493235588074, -0.3060833811759949, 8.810396194458008, -3.038853883743286, 0.6030954122543335, -141.98817443847656, 104.44012451171875, 16.026063919067383, -0.77392578125, 0.50146484375, 0.052978515625, 
334, 3366566556, 0.7269059419631958, -0.4949232339859009, -0.3587949275970459, -0.31295958161354065, 8.99654483795166, -3.1318225860595703, 0.4827474355697632, -143.9871063232422, 104.44747161865234, 12.687699317932129, -0.775390625, 0.502197265625, 0.050537109375, 
335, 3366574889, 0.7245557308197021, -0.5003823041915894, -0.34961411356925964, -0.32003939151763916, 9.280327796936035, -3.2869303226470947, 0.4278320074081421, -145.59332275390625, 104.16387939453125, 8.610980033874512, -0.77587890625, 0.50048828125, 0.051513671875, 
336, 3366583222, 0.7219051718711853, -0.5057232975959778, -0.3404924273490906, -0.32738423347473145, 9.56248664855957, -3.5147368907928467, 0.34680405259132385, -147.39608764648438, 104.49205780029297, 3.4607362747192383, -0.7763671875, 0.501708984375, 0.048583984375, 
337, 3366591555, 0.7188884615898132, -0.5109465718269348, -0.3314099609851837, -0.335141122341156, 9.776092529296875, -3.675424337387085, 0.23936982452869415, -150.60765075683594, 105.75544738769531, -2.875732183456421, -0.77734375, 0.49853515625, 0.048828125, 
338, 3366599888, 0.7154392004013062, -0.5160955786705017, -0.3223806321620941, -0.34333956241607666, 9.754995346069336, -3.783395767211914, 0.017400892451405525, -154.60006713867188, 106.73174285888672, -10.17345905303955, -0.77880859375, 0.49755859375, 0.04931640625, 
339, 3366608221, 0.7115072011947632, -0.5211630463600159, -0.31351733207702637, -0.35195496678352356, 9.576153755187988, -3.9390978813171387, -0.18096430599689484, -158.35494995117188, 106.2674560546875, -17.854814529418945, -0.782470703125, 0.490478515625, 0.047607421875, 
340, 3366616554, 0.7070732712745667, -0.526153564453125, -0.3049195408821106, -0.36090537905693054, 9.423894882202148, -4.121677398681641, -0.2803821265697479, -161.29225158691406, 104.31417083740234, -26.03692626953125, -0.783447265625, 0.489990234375, 0.043212890625, 
341, 3366624887, 0.7021421194076538, -0.5310251712799072, -0.29669830203056335, -0.37013211846351624, 9.303378105163574, -4.352957725524902, -0.3193403482437134, -163.11082458496094, 101.13811492919922, -34.17723083496094, -0.786865234375, 0.48193359375, 0.04541015625, 
342, 3366633220, 0.696760356426239, -0.5357435345649719, -0.2889600396156311, -0.3795059025287628, 9.155344009399414, -4.60002326965332, -0.2340661585330963, -162.9761505126953, 96.50971984863281, -42.279449462890625, -0.79052734375, 0.477294921875, 0.043701171875, 
343, 3366641553, 0.6910126209259033, -0.5402457118034363, -0.2818318009376526, -0.3888775706291199, 8.842440605163574, -4.9092841148376465, 0.0003858519485220313, -160.50888061523438, 90.31781768798828, -49.28927230834961, -0.79443359375, 0.470947265625, 0.047119140625, 
344, 3366649886, 0.6849966049194336, -0.5445111989974976, -0.27523234486579895, -0.3981877863407135, 8.53078842163086, -5.116344451904297, 0.5494455695152283, -157.08705139160156, 85.0645751953125, -55.2188835144043, -0.799072265625, 0.4619140625, 0.045166015625, 
345, 3366658219, 0.6787562966346741, -0.548551082611084, -0.26911619305610657, -0.40740275382995605, 8.342314720153809, -5.143951416015625, 0.9935271739959717, -153.70858764648438, 80.16598510742188, -59.78053283691406, -0.8046875, 0.455078125, 0.04833984375, 
346, 3366666552, 0.6723842024803162, -0.5523481965065002, -0.26339489221572876, -0.4164768159389496, 8.305520057678223, -5.250363349914551, 1.3238343000411987, -149.62802124023438, 76.31185913085938, -63.322731018066406, -0.80908203125, 0.444580078125, 0.045654296875, 
347, 3366674885, 0.665963888168335, -0.5558363199234009, -0.25806331634521484, -0.4253941774368286, 8.121307373046875, -5.381021976470947, 1.5180466175079346, -144.45071411132812, 73.1086196899414, -66.00210571289062, -0.815185546875, 0.437744140625, 0.04833984375, 
348, 3366683218, 0.6596056818962097, -0.5590092539787292, -0.2530684471130371, -0.4340555667877197, 7.756667137145996, -5.427129745483398, 1.6126554012298584, -138.09603881835938, 70.136962890625, -67.21308898925781, -0.818359375, 0.427734375, 0.047119140625, 
349, 3366691551, 0.653386116027832, -0.5618424415588379, -0.24842026829719543, -0.44240933656692505, 7.360537052154541, -5.345336437225342, 1.6016688346862793, -130.9097900390625, 67.1172866821289, -67.21595001220703, -0.826416015625, 0.416015625, 0.047119140625, 
350, 3366699884, 0.6473801136016846, -0.5643566250801086, -0.2441602647304535, -0.4503391981124878, 7.215648174285889, -5.316104412078857, 1.549116611480713, -122.4857406616211, 63.043663024902344, -66.42595672607422, -0.828857421875, 0.41015625, 0.05029296875, 
351, 3366708217, 0.6416221857070923, -0.5665650367736816, -0.24028024077415466, -0.4578310251235962, 7.564822673797607, -5.370352268218994, 1.5177249908447266, -114.02705383300781, 58.910888671875, -64.71898651123047, -0.8330078125, 0.399169921875, 0.047607421875, 
352, 3366716550, 0.6361326575279236, -0.568467378616333, -0.23668190836906433, -0.46495237946510315, 8.190961837768555, -5.422862529754639, 1.3727601766586304, -106.22187042236328, 56.43009948730469, -63.21117401123047, -0.839599609375, 0.391357421875, 0.04736328125, 
353, 3366724883, 0.630914032459259, -0.5700107216835022, -0.2333647906780243, -0.47179991006851196, 8.648832321166992, -5.5652174949646, 1.1287754774093628, -98.53056335449219, 55.069515228271484, -62.28232192993164, -0.84326171875, 0.38134765625, 0.046142578125, 
354, 3366733216, 0.6259663105010986, -0.5712354779243469, -0.23025059700012207, -0.4783931076526642, 8.740191459655762, -5.5860724449157715, 1.0143672227859497, -91.25411224365234, 54.188934326171875, -61.099124908447266, -0.84716796875, 0.373779296875, 0.044677734375, 
355, 3366741549, 0.6212450265884399, -0.5722211003303528, -0.22727414965629578, -0.4847507178783417, 8.75611400604248, -5.4135003089904785, 0.9952532649040222, -85.83428955078125, 53.3970832824707, -59.206581115722656, -0.853271484375, 0.36376953125, 0.04052734375, 
356, 3366749882, 0.6166594624519348, -0.5730836391448975, -0.22428074479103088, -0.4909413158893585, 9.075165748596191, -5.1521759033203125, 0.9245340824127197, -83.2369155883789, 53.51710891723633, -57.33909225463867, -0.85595703125, 0.358154296875, 0.041259765625, 
357, 3366758215, 0.6120960116386414, -0.5738839507102966, -0.22118720412254333, -0.4970822036266327, 9.549453735351562, -4.960123062133789, 0.8319231867790222, -83.1542739868164, 54.43762969970703, -55.96873092651367, -0.85791015625, 0.349609375, 0.03759765625, 
358, 3366766548, 0.6074916124343872, -0.5746747255325317, -0.21791812777519226, -0.5032230615615845, 9.868317604064941, -4.898402690887451, 0.7922455668449402, -84.49995422363281, 55.882080078125, -55.09526443481445, -0.862548828125, 0.340576171875, 0.034912109375, 
359, 3366774881, 0.6027708053588867, -0.5754657983779907, -0.21443554759025574, -0.5094533562660217, 9.919050216674805, -4.91591215133667, 0.862761378288269, -87.16665649414062, 57.941131591796875, -54.728187561035156, -0.8662109375, 0.333984375, 0.03076171875, 
360, 3366783214, 0.59786057472229, -0.5763079524040222, -0.21066880226135254, -0.5158193111419678, 9.809723854064941, -4.82584285736084, 0.8514838218688965, -91.48246002197266, 60.53266906738281, -55.01253128051758, -0.86865234375, 0.326904296875, 0.027587890625, 
361, 3366791547, 0.5926645994186401, -0.5772509574890137, -0.20661130547523499, -0.5223608016967773, 9.552401542663574, -4.664004325866699, 0.7809621691703796, -97.27169036865234, 62.770565032958984, -55.693599700927734, -0.873291015625, 0.31884765625, 0.022216796875, 
362, 3366799880, 0.587125837802887, -0.5783992409706116, -0.20223955810070038, -0.5290137529373169, 9.39803695678711, -4.505222320556641, 0.8258824944496155, -104.11588287353516, 63.76935958862305, -56.178829193115234, -0.876708984375, 0.310302734375, 0.02001953125, 
363, 3366808213, 0.5812307596206665, -0.5797411799430847, -0.19755512475967407, -0.5357815623283386, 9.525486946105957, -4.452518939971924, 0.9501492381095886, -111.10730743408203, 64.74002075195312, -56.44281768798828, -0.880859375, 0.30126953125, 0.016357421875, 
364, 3366816546, 0.5750054121017456, -0.5812414288520813, -0.19258803129196167, -0.5426381230354309, 9.57479190826416, -4.574399471282959, 1.0590095520019531, -117.32901763916016, 65.7110366821289, -57.13270950317383, -0.880615234375, 0.29443359375, 0.013671875, 
365, 3366824879, 0.5684900879859924, -0.5828285813331604, -0.18736566603183746, -0.5495842695236206, 9.345561981201172, -4.7033467292785645, 1.1297740936279297, -122.5511474609375, 67.0029525756836, -57.525917053222656, -0.883056640625, 0.288330078125, 0.010498046875, 
366, 3366833212, 0.5617796182632446, -0.5844537019729614, -0.18193300068378448, -0.5565401315689087, 9.067543029785156, -4.8108086585998535, 1.210364818572998, -125.95004272460938, 67.96131896972656, -57.49958801269531, -0.88916015625, 0.278076171875, 0.0078125, 
367, 3366841545, 0.5549370050430298, -0.5860291719436646, -0.17636793851852417, -0.5634962916374207, 8.863704681396484, -4.896552085876465, 1.0957057476043701, -127.60174560546875, 68.94590759277344, -57.33491897583008, -0.888427734375, 0.270263671875, 0.003662109375, 
368, 3366849878, 0.5480347871780396, -0.5875402092933655, -0.1707165390253067, -0.5703761577606201, 8.545034408569336, -4.940347194671631, 0.9267115592956543, -128.11717224121094, 69.43397521972656, -56.91596603393555, -0.8935546875, 0.26220703125, -0.000732421875, 
369, 3366858211, 0.5411083698272705, -0.5889687538146973, -0.16506299376487732, -0.5771400928497314, 8.198530197143555, -4.905416488647461, 0.7770537734031677, -127.61674499511719, 69.13417053222656, -56.241031646728516, -0.896484375, 0.253662109375, -0.0048828125, 
370, 3366866544, 0.5341982841491699, -0.590322732925415, -0.15944136679172516, -0.5837368965148926, 8.093928337097168, -4.897250652313232, 0.653939425945282, -126.11514282226562, 68.14125061035156, -55.4602165222168, -0.899169921875, 0.246826171875, -0.009521484375, 
371, 3366874877, 0.5273337364196777, -0.5915544033050537, -0.15394458174705505, -0.5901715755462646, 8.272197723388672, -5.010655879974365, 0.5587448477745056, -123.53137969970703, 66.94652557373047, -54.98480987548828, -0.8994140625, 0.23876953125, -0.015625, 
372, 3366883210, 0.5205535292625427, -0.5926102995872498, -0.14860452711582184, -0.5964668989181519, 8.26258373260498, -5.245855808258057, 0.4180071949958801, -119.96066284179688, 66.32600402832031, -55.13893508911133, -0.9013671875, 0.2314453125, -0.019287109375, 
373, 3366891543, 0.5138610005378723, -0.5934810638427734, -0.14352402091026306, -0.6026166081428528, 7.902626037597656, -5.370818614959717, 0.4141394793987274, -115.3351058959961, 64.83660125732422, -55.61762619018555, -0.906005859375, 0.224365234375, -0.0263671875, 
374, 3366899876, 0.5073308944702148, -0.594203770160675, -0.13878290355205536, -0.6085191369056702, 7.474447727203369, -5.431580543518066, 0.5269817113876343, -109.82384490966797, 62.11067581176758, -55.84098434448242, -0.90673828125, 0.216552734375, -0.028564453125, 
375, 3366908209, 0.500932514667511, -0.5948065519332886, -0.13441520929336548, -0.6141849160194397, 7.373087406158447, -5.554896831512451, 0.5587807297706604, -104.474609375, 58.841800689697266, -56.21441650390625, -0.90576171875, 0.2080078125, -0.03564453125, 
376, 3366916542, 0.49470558762550354, -0.5952765345573425, -0.1304582804441452, -0.6196062564849854, 7.417079925537109, -5.6158294677734375, 0.6828653216362, -98.09463500976562, 55.43461227416992, -56.83935546875, -0.907958984375, 0.20263671875, -0.039794921875, 
377, 3366924875, 0.48864424228668213, -0.5956088900566101, -0.12694866955280304, -0.6248037219047546, 7.4752197265625, -5.706236839294434, 0.8702220916748047, -91.67758178710938, 52.0201301574707, -57.659671783447266, -0.910888671875, 0.195556640625, -0.044921875, 
378, 3366933208, 0.4827604293823242, -0.5958084464073181, -0.12381888180971146, -0.6297955513000488, 7.531325340270996, -5.76179313659668, 0.9503704309463501, -85.61971282958984, 49.24435043334961, -58.248897552490234, -0.9130859375, 0.1865234375, -0.047607421875, 
379, 3366941541, 0.47702091932296753, -0.59589684009552, -0.12107336521148682, -0.6346007585525513, 7.620859146118164, -5.742094039916992, 1.0838637351989746, -80.1473159790039, 46.369529724121094, -58.95930099487305, -0.916748046875, 0.17919921875, -0.05419921875, 
380, 3366949874, 0.47144508361816406, -0.5958805680274963, -0.11865062266588211, -0.6392236351966858, 7.920693874359131, -5.800700664520264, 1.1122004985809326, -74.9064712524414, 43.94564437866211, -59.292503356933594, -0.91845703125, 0.171142578125, -0.055419921875, 
381, 3366958207, 0.466005802154541, -0.595731794834137, -0.11649210751056671, -0.6437318325042725, 8.191720962524414, -5.893630027770996, 1.1273878812789917, -70.43479919433594, 42.64834213256836, -59.58235549926758, -0.91748046875, 0.164794921875, -0.06298828125, 
382, 3366966540, 0.4606931805610657, -0.5954546928405762, -0.11454711854457855, -0.6481462121009827, 8.130880355834961, -5.861961841583252, 1.0900298357009888, -66.51852416992188, 41.882686614990234, -59.964683532714844, -0.920166015625, 0.15771484375, -0.064208984375, 
383, 3366974873, 0.4554920196533203, -0.5950945019721985, -0.11276617646217346, -0.6524511575698853, 8.00132942199707, -5.777492523193359, 0.9608251452445984, -63.4908447265625, 40.851375579833984, -59.62539291381836, -0.9189453125, 0.1494140625, -0.0673828125, 
384, 3366983206, 0.4504072666168213, -0.5947180986404419, -0.11110779643058777, -0.6565955877304077, 7.889226913452148, -5.694534778594971, 0.9459707140922546, -61.04154968261719, 39.10818862915039, -58.72754669189453, -0.921142578125, 0.141357421875, -0.072509765625, 
385, 3366991539, 0.445426881313324, -0.5943537950515747, -0.10958832502365112, -0.6605663299560547, 7.695272445678711, -5.598323822021484, 1.000500202178955, -58.78346252441406, 36.86890411376953, -57.715057373046875, -0.92236328125, 0.131591796875, -0.07666015625, 
386, 3366999872, 0.4405214786529541, -0.5940415263175964, -0.10815685242414474, -0.6643618941307068, 7.472221374511719, -5.611786842346191, 1.1513397693634033, -57.38542556762695, 34.54743194580078, -56.715152740478516, -0.92626953125, 0.1259765625, -0.079345703125, 
387, 3367008205, 0.43571895360946655, -0.5937927961349487, -0.10683479905128479, -0.6679553389549255, 7.436761379241943, -5.6739182472229, 1.4373847246170044, -55.66790008544922, 31.80091094970703, -55.24941635131836, -0.926513671875, 0.118408203125, -0.08447265625, 
388, 3367016538, 0.431088924407959, -0.5935595631599426, -0.10566791892051697, -0.671343982219696, 7.606240749359131, -5.87170934677124, 1.6665832996368408, -52.587947845458984, 29.316606521606445, -53.78245544433594, -0.92578125, 0.111083984375, -0.087158203125, 
389, 3367024871, 0.42666757106781006, -0.5932849049568176, -0.10476399958133698, -0.6745452284812927, 7.559388637542725, -6.123589992523193, 1.8175325393676758, -47.9680061340332, 26.907251358032227, -52.86370849609375, -0.9267578125, 0.106201171875, -0.090087890625, 
390, 3367033204, 0.4225256145000458, -0.592979907989502, -0.10416004061698914, -0.677507758140564, 7.237391948699951, -6.132344722747803, 1.9873828887939453, -42.35605239868164, 23.888504028320312, -51.45014190673828, -0.927490234375, 0.099609375, -0.09326171875, 
391, 3367041537, 0.41871577501296997, -0.5926904082298279, -0.1038985401391983, -0.6801611185073853, 7.102511405944824, -6.084426403045654, 2.07938814163208, -36.1232795715332, 19.705638885498047, -49.25864028930664, -0.930908203125, 0.093994140625, -0.095458984375, 
392, 3367049870, 0.4152672588825226, -0.5924352407455444, -0.10397128015756607, -0.6824826598167419, 7.235053062438965, -6.051062107086182, 2.2426300048828125, -29.757566452026367, 15.275684356689453, -46.716060638427734, -0.92529296875, 0.0859375, -0.099853515625, 
393, 3367058203, 0.41218626499176025, -0.592187762260437, -0.10441197454929352, -0.6844949126243591, 7.411942005157471, -6.152315616607666, 2.393690347671509, -22.927492141723633, 11.104461669921875, -44.43107604980469, -0.928955078125, 0.080810546875, -0.10205078125, 
394, 3367066536, 0.409507155418396, -0.5919175744056702, -0.10524116456508636, -0.6862075924873352, 7.505399227142334, -6.260334014892578, 2.5585694313049316, -15.422398567199707, 7.256911277770996, -42.20085525512695, -0.9306640625, 0.07275390625, -0.100830078125, 
395, 3367074869, 0.40724825859069824, -0.5916019678115845, -0.10644938796758652, -0.6876363754272461, 7.607429504394531, -6.298943042755127, 2.7290146350860596, -7.779041767120361, 3.846392869949341, -39.7550048828125, -0.93212890625, 0.068115234375, -0.101806640625, 
396, 3367083202, 0.40539848804473877, -0.5912405252456665, -0.10796648263931274, -0.6888028383255005, 7.747285842895508, -6.291659355163574, 2.849264621734619, -0.8701549768447876, 1.0162203311920166, -37.03221893310547, -0.929443359375, 0.064697265625, -0.101318359375, 
397, 3367091535, 0.40392154455184937, -0.5908305644989014, -0.10972580313682556, -0.6897433400154114, 7.91240119934082, -6.230579376220703, 2.91007924079895, 5.049749851226807, -1.160415768623352, -34.26418685913086, -0.933349609375, 0.06005859375, -0.10107421875, 
398, 3367099868, 0.40281257033348083, -0.5903714299201965, -0.11165906488895416, -0.6904743909835815, 7.882061004638672, -6.12511682510376, 2.938551664352417, 10.290181159973145, -2.8044281005859375, -31.114818572998047, -0.934326171875, 0.05615234375, -0.101318359375, 
399, 3367108201, 0.4020351767539978, -0.5898911356925964, -0.11369092017412186, -0.6910063028335571, 7.621930122375488, -5.922885894775391, 2.9658167362213135, 14.338888168334961, -4.264710426330566, -27.693866729736328, -0.93115234375, 0.04931640625, -0.101318359375, 
400, 3367116534, 0.4015636742115021, -0.5894103050231934, -0.11576315760612488, -0.6913465261459351, 7.3445634841918945, -5.588122844696045, 2.9592511653900146, 17.508907318115234, -5.55387544631958, -24.05933380126953, -0.931884765625, 0.045166015625, -0.100341796875, 
401, 3367124867, 0.4013204872608185, -0.5890074372291565, -0.11780302971601486, -0.6914865374565125, 7.182409286499023, -5.4103803634643555, 2.8824808597564697, 18.940202713012695, -7.385498046875, -20.411577224731445, -0.932373046875, 0.04296875, -0.098876953125, 
402, 3367133200, 0.4012146592140198, -0.5887155532836914, -0.11970488727092743, -0.6914699673652649, 7.236107349395752, -5.205667495727539, 2.8894925117492676, 18.38268280029297, -8.713418006896973, -16.928035736083984, -0.933349609375, 0.04052734375, -0.09765625, 
403, 3367141533, 0.4012300968170166, -0.5885347127914429, -0.12145546823740005, -0.6913093328475952, 7.562792778015137, -5.228738307952881, 3.0074462890625, 17.551729202270508, -9.914955139160156, -13.602561950683594, -0.931640625, 0.03955078125, -0.094482421875, 
404, 3367149866, 0.4013116955757141, -0.5884334444999695, -0.12302141636610031, -0.6910713315010071, 7.986451148986816, -5.366092205047607, 3.0713260173797607, 16.02083969116211, -10.153371810913086, -10.890318870544434, -0.931640625, 0.03759765625, -0.09765625, 
405, 3367158199, 0.40149644017219543, -0.5883640646934509, -0.12439094483852386, -0.6907778978347778, 8.269109725952148, -5.465043544769287, 3.2615737915039062, 14.910730361938477, -9.66714859008789, -8.003657341003418, -0.93408203125, 0.037353515625, -0.09521484375, 
406, 3367166532, 0.40183183550834656, -0.5882847309112549, -0.12558798491954803, -0.6904338598251343, 8.50211238861084, -5.513955116271973, 3.3635082244873047, 14.627266883850098, -8.750554084777832, -4.872481346130371, -0.93408203125, 0.035888671875, -0.09326171875, 
407, 3367174865, 0.40232640504837036, -0.5881551504135132, -0.12661828100681305, -0.6900679469108582, 8.636863708496094, -5.553333282470703, 3.3605191707611084, 14.65418815612793, -7.278735637664795, -2.0353457927703857, -0.9345703125, 0.032470703125, -0.09375, 
408, 3367183198, 0.4030056595802307, -0.5879659056663513, -0.12746642529964447, -0.6896765828132629, 8.469599723815918, -5.485416889190674, 3.202362298965454, 14.78748607635498, -5.5668840408325195, 1.2858606576919556, -0.9345703125, 0.035400390625, -0.09326171875, 
409, 3367191531, 0.4038373529911041, -0.5878028869628906, -0.12810981273651123, -0.6892096996307373, 8.193116188049316, -5.180029392242432, 3.0010929107666016, 14.077611923217773, -5.051755428314209, 4.779105186462402, -0.93359375, 0.034912109375, -0.09228515625, 
410, 3367199864, 0.40484315156936646, -0.5877272486686707, -0.12859193980693817, -0.6885941028594971, 8.069133758544922, -4.973315238952637, 2.9879837036132812, 13.721088409423828, -5.8518171310424805, 8.784764289855957, -0.93701171875, 0.037109375, -0.09033203125, 
411, 3367208197, 0.4059777855873108, -0.5877477526664734, -0.12894277274608612, -0.6878423690795898, 8.082917213439941, -5.0847625732421875, 3.0662269592285156, 13.238771438598633, -6.93381404876709, 11.911211013793945, -0.93408203125, 0.035888671875, -0.091796875, 
412, 3367216530, 0.40725189447402954, -0.587820827960968, -0.1292155236005783, -0.6869750618934631, 7.898639678955078, -5.267059326171875, 3.2638206481933594, 13.52419376373291, -7.651218891143799, 14.681191444396973, -0.93310546875, 0.036865234375, -0.089111328125, 
413, 3367224863, 0.4087049961090088, -0.587917685508728, -0.129498690366745, -0.6859751343727112, 7.521109580993652, -5.369459629058838, 3.5296061038970947, 15.186485290527344, -8.721845626831055, 16.975000381469727, -0.9326171875, 0.039794921875, -0.088623046875, 
414, 3367233196, 0.41035330295562744, -0.5880228281021118, -0.12991280853748322, -0.6848217844963074, 7.303293228149414, -5.444122791290283, 3.715799331665039, 18.212461471557617, -10.39582633972168, 18.73435401916504, -0.933837890625, 0.043701171875, -0.088623046875, 
415, 3367241529, 0.41222691535949707, -0.5880868434906006, -0.1305248737335205, -0.6835240125656128, 7.466677665710449, -5.613067150115967, 3.8179144859313965, 22.403181076049805, -11.93021297454834, 19.88409423828125, -0.933349609375, 0.044677734375, -0.087646484375, 
416, 3367249862, 0.41431695222854614, -0.5880364775657654, -0.1314290463924408, -0.6821289658546448, 7.6186370849609375, -5.846151828765869, 3.7264938354492188, 27.706796646118164, -12.868132591247559, 20.013912200927734, -0.934326171875, 0.048583984375, -0.0830078125, 
417, 3367258195, 0.4166986346244812, -0.5878183245658875, -0.13272826373577118, -0.6806129813194275, 7.362909317016602, -6.055078029632568, 3.5935616493225098, 34.96578598022461, -14.048852920532227, 19.813331604003906, -0.93359375, 0.05224609375, -0.0830078125, 
418, 3367266528, 0.4194371700286865, -0.5874401926994324, -0.13445264101028442, -0.6789167523384094, 7.175085544586182, -6.067471027374268, 3.60850191116333, 43.054683685302734, -15.740968704223633, 20.586284637451172, -0.93310546875, 0.05322265625, -0.08056640625, 
419, 3367274861, 0.4225902557373047, -0.5868886709213257, -0.1365310102701187, -0.6770209670066833, 7.767985820770264, -5.905255317687988, 3.5420870780944824, 51.09998321533203, -17.07110595703125, 22.281476974487305, -0.9326171875, 0.056640625, -0.082763671875, 
420, 3367283194, 0.42607101798057556, -0.586100697517395, -0.1388573795557022, -0.675045907497406, 8.608636856079102, -5.919328689575195, 3.306602954864502, 57.55410385131836, -16.274038314819336, 23.492372512817383, -0.9326171875, 0.0576171875, -0.078369140625, 
421, 3367291527, 0.42982855439186096, -0.5850557088851929, -0.14125144481658936, -0.6730706691741943, 8.92488956451416, -5.797846794128418, 3.0477800369262695, 61.942413330078125, -13.827505111694336, 24.866426467895508, -0.93017578125, 0.060546875, -0.07470703125, 
422, 3367299860, 0.43382728099823, -0.583827793598175, -0.1436486393213272, -0.6710611581802368, 8.920333862304688, -5.456842422485352, 2.799485206604004, 65.03654479980469, -11.891756057739258, 27.079999923706055, -0.934814453125, 0.0634765625, -0.072998046875, 
423, 3367308193, 0.4380228519439697, -0.5825037956237793, -0.14595583081245422, -0.6689851880073547, 8.883462905883789, -5.123296737670898, 2.58433198928833, 66.51591491699219, -10.681647300720215, 29.65414047241211, -0.933349609375, 0.0654296875, -0.07568359375, 
424, 3367316526, 0.44227513670921326, -0.5811528563499451, -0.14812341332435608, -0.6668825745582581, 8.802387237548828, -4.839794158935547, 2.4657344818115234, 65.8770523071289, -9.623096466064453, 31.574588775634766, -0.93115234375, 0.071533203125, -0.0751953125, 
425, 3367324859, 0.4464837908744812, -0.5798307061195374, -0.15010224282741547, -0.664783239364624, 8.558186531066895, -4.552220344543457, 2.446934700012207, 63.637325286865234, -8.87438678741455, 32.538963317871094, -0.93115234375, 0.074462890625, -0.072021484375, 
426, 3367333192, 0.4505617618560791, -0.5786011219024658, -0.15189822018146515, -0.6626919507980347, 8.120109558105469, -4.396201133728027, 2.478421211242676, 60.31657409667969, -8.730584144592285, 33.12480163574219, -0.93115234375, 0.07763671875, -0.073974609375, 
427, 3367341525, 0.45448407530784607, -0.5775004029273987, -0.1535448580980301, -0.6605910658836365, 7.610317707061768, -4.275653839111328, 2.4924731254577637, 56.967124938964844, -9.456989288330078, 33.03788375854492, -0.930908203125, 0.0830078125, -0.07080078125, 
428, 3367349858, 0.45820751786231995, -0.5765655636787415, -0.15515100955963135, -0.6584569215774536, 7.099230766296387, -4.2282514572143555, 2.4840168952941895, 54.0244255065918, -11.3195219039917, 32.29641342163086, -0.931640625, 0.08837890625, -0.0712890625, 
429, 3367358191, 0.4617912769317627, -0.5757755637168884, -0.15681804716587067, -0.6562455296516418, 6.689905166625977, -4.3654608726501465, 2.5894038677215576, 52.75608444213867, -14.006924629211426, 31.15390968322754, -0.93017578125, 0.093017578125, -0.072265625, 
430, 3367366524, 0.4653050899505615, -0.5750928521156311, -0.15869592130184174, -0.6539066433906555, 6.285915851593018, -4.622826099395752, 2.6455368995666504, 53.663856506347656, -17.391984939575195, 30.08487319946289, -0.92822265625, 0.092041015625, -0.07177734375, 
431, 3367374857, 0.46887433528900146, -0.5744506120681763, -0.16091588139533997, -0.651374340057373, 5.930001735687256, -4.900251388549805, 2.6312038898468018, 57.37166213989258, -21.440980911254883, 29.004138946533203, -0.928955078125, 0.10009765625, -0.068115234375, 
432, 3367383190, 0.47263240814208984, -0.5737836360931396, -0.16363638639450073, -0.6485622525215149, 5.822149276733398, -5.157120704650879, 2.6902503967285156, 64.09550476074219, -26.150123596191406, 28.690725326538086, -0.928955078125, 0.1005859375, -0.066650390625, 
433, 3367391523, 0.47671812772750854, -0.5729907751083374, -0.16685569286346436, -0.6454452276229858, 6.067511081695557, -5.298162460327148, 2.672105312347412, 72.65806579589844, -30.029354095458984, 29.160064697265625, -0.928955078125, 0.10595703125, -0.0634765625, 
434, 3367399856, 0.4811583459377289, -0.5719928741455078, -0.17062853276729584, -0.6420403122901917, 6.3136396408081055, -5.3152079582214355, 2.6216206550598145, 82.34325408935547, -33.2032585144043, 29.57726287841797, -0.9267578125, 0.109375, -0.061279296875, 
435, 3367408189, 0.48600971698760986, -0.5707415342330933, -0.17489565908908844, -0.6383408308029175, 6.434239387512207, -5.235648155212402, 2.4986915588378906, 92.3432846069336, -35.69160842895508, 30.44767189025879, -0.9267578125, 0.112548828125, -0.060302734375, 
436, 3367416522, 0.49125123023986816, -0.5692594051361084, -0.17960679531097412, -0.634331464767456, 6.739312648773193, -5.1374921798706055, 2.325639009475708, 101.55857849121094, -38.0244255065918, 32.130638122558594, -0.9267578125, 0.1162109375, -0.05224609375, 
437, 3367424855, 0.4968780279159546, -0.5675496459007263, -0.1846643090248108, -0.6300138831138611, 7.517879009246826, -5.076931476593018, 2.177765130996704, 109.92871856689453, -39.951786041259766, 34.063724517822266, -0.925537109375, 0.121826171875, -0.0498046875, 
438, 3367433188, 0.5028306245803833, -0.5655800700187683, -0.18998917937278748, -0.6254627704620361, 8.478830337524414, -5.149810791015625, 2.035266637802124, 117.12220001220703, -40.408958435058594, 35.96965026855469, -0.924560546875, 0.126220703125, -0.046630859375, 
439, 3367441521, 0.5090662837028503, -0.5633243322372437, -0.1954253613948822, -0.6207616329193115, 9.14377498626709, -5.180524826049805, 1.8618229627609253, 122.68171691894531, -39.262725830078125, 37.58640670776367, -0.921142578125, 0.130859375, -0.0439453125, 
440, 3367449854, 0.5154913663864136, -0.5607924461364746, -0.20088019967079163, -0.6159924268722534, 9.377365112304688, -5.011120796203613, 1.6087753772735596, 126.39447021484375, -36.936710357666016, 39.03489303588867, -0.9228515625, 0.13720703125, -0.03955078125, 
441, 3367458187, 0.5220398902893066, -0.5580618381500244, -0.2061653733253479, -0.6111922860145569, 9.253461837768555, -4.620046615600586, 1.3379325866699219, 127.46185302734375, -34.078277587890625, 40.82352828979492, -0.921142578125, 0.1416015625, -0.038818359375, 
442, 3367466520, 0.5285623669624329, -0.5553063154220581, -0.21116282045841217, -0.6063709259033203, 8.963793754577637, -4.000264644622803, 1.094548225402832, 125.02452087402344, -31.910566329956055, 43.13151550292969, -0.919677734375, 0.14599609375, -0.0361328125, 
443, 3367474853, 0.5349714159965515, -0.5527094602584839, -0.21570992469787598, -0.6015030741691589, 8.671670913696289, -3.5013508796691895, 0.9450533986091614, 119.41934204101562, -30.765432357788086, 46.17676544189453, -0.916748046875, 0.150634765625, -0.0341796875, 
444, 3367483186, 0.5410999059677124, -0.5504102110862732, -0.21974723041057587, -0.5966485142707825, 8.43178653717041, -3.175720691680908, 0.8407303094863892, 110.80670166015625, -30.088394165039062, 48.76325988769531, -0.917236328125, 0.16064453125, -0.035400390625, 
445, 3367491519, 0.5468844771385193, -0.548506498336792, -0.2232341170310974, -0.5918136239051819, 8.17629623413086, -2.9630303382873535, 0.8540114760398865, 100.74653625488281, -30.25398826599121, 50.92173767089844, -0.916259765625, 0.164306640625, -0.0341796875, 
446, 3367499852, 0.5522615909576416, -0.5470992922782898, -0.22629374265670776, -0.5869409441947937, 8.078989028930664, -2.873108386993408, 0.8431458473205566, 90.51634216308594, -32.491477966308594, 52.87113571166992, -0.9150390625, 0.172119140625, -0.03125, 
447, 3367508185, 0.5572577714920044, -0.5461446046829224, -0.22912952303886414, -0.5819868445396423, 8.557126998901367, -3.0450453758239746, 0.9455015659332275, 82.6804428100586, -36.350982666015625, 53.263389587402344, -0.91455078125, 0.1787109375, -0.031005859375, 
