sep=,
PacketCounter,SampleTimeFine,Quat_W,Quat_X,Quat_Y,Quat_Z,Acc_X,Acc_Y,Acc_Z,Gyr_X,Gyr_Y,Gyr_Z,Mag_X,Mag_Y,Mag_Z,
0, 3598957260, 0.6974301338195801, -0.47843530774116516, -0.4711126983165741, -0.250526487827301, 0, 0, 0, 0, 0, 0, -0.722412109375, 0.42333984375, 0.250732421875, 
1, 3598965593, 0.6975529789924622, -0.47851717472076416, -0.47096893191337585, -0.25029832124710083, 8.926485061645508, -4.217811107635498, 1.2079981565475464, 0.45472946763038635, -0.37779709696769714, 3.993642807006836, -0.7158203125, 0.424560546875, 0.248046875, 
2, 3598973926, 0.6976870894432068, -0.47860750555992126, -0.47079190611839294, -0.2500852346420288, 8.926631927490234, -4.178109169006348, 1.198065996170044, 0.29159241914749146, 0.17599539458751678, 4.11743688583374, -0.723876953125, 0.42529296875, 0.246826171875, 
3, 3598982259, 0.6978351473808289, -0.4786917567253113, -0.47058483958244324, -0.24989980459213257, 8.934588432312012, -4.17841911315918, 1.1827870607376099, 0.1223335862159729, 0.6529580354690552, 4.107089042663574, -0.722900390625, 0.427490234375, 0.248291015625, 
4, 3598990592, 0.6979829668998718, -0.4787823557853699, -0.4703621566295624, -0.2497328519821167, 8.94025707244873, -4.196138858795166, 1.1753815412521362, -0.07834112644195557, 1.0071772336959839, 4.0227155685424805, -0.724365234375, 0.426513671875, 0.247314453125, 
5, 3598998925, 0.6981351375579834, -0.47885775566101074, -0.47013187408447266, -0.2495964616537094, 8.937112808227539, -4.203546524047852, 1.1636931896209717, -0.17849279940128326, 1.2616804838180542, 3.745518207550049, -0.721435546875, 0.426513671875, 0.246826171875, 
6, 3599007258, 0.6982884407043457, -0.4789297878742218, -0.46988239884376526, -0.24949949979782104, 8.925325393676758, -4.132838726043701, 1.1740081310272217, -0.406920462846756, 1.8225806951522827, 3.4265949726104736, -0.723388671875, 0.427001953125, 0.245849609375, 
7, 3599015591, 0.6984450817108154, -0.4789907932281494, -0.4696289002895355, -0.2494206726551056, 8.890496253967285, -4.113884449005127, 1.161625862121582, -0.46696028113365173, 1.940995454788208, 3.2697339057922363, -0.723876953125, 0.427490234375, 0.246337890625, 
8, 3599023924, 0.6985875964164734, -0.47905826568603516, -0.46938076615333557, -0.24935942888259888, 8.9146728515625, -4.08513069152832, 1.143970012664795, -0.6604759097099304, 1.9911227226257324, 3.007777214050293, -0.722412109375, 0.426513671875, 0.245849609375, 
9, 3599032257, 0.6987302899360657, -0.4791204631328583, -0.4691295921802521, -0.2493124157190323, 8.890152931213379, -4.0817646980285645, 1.1230727434158325, -0.767184853553772, 2.031925916671753, 2.9108529090881348, -0.723388671875, 0.428955078125, 0.245361328125, 
10, 3599040590, 0.6988520622253418, -0.47920361161231995, -0.46888303756713867, -0.24927568435668945, 8.862608909606934, -4.063374996185303, 1.1142882108688354, -1.100682020187378, 1.9500627517700195, 2.7927966117858887, -0.723388671875, 0.428466796875, 0.248291015625, 
11, 3599048923, 0.6989789009094238, -0.4792822003364563, -0.4686311185359955, -0.2492421567440033, 8.805001258850098, -4.0681281089782715, 1.1227121353149414, -1.1091604232788086, 1.963792085647583, 2.8427703380584717, -0.7216796875, 0.4306640625, 0.244873046875, 
12, 3599057256, 0.6991010308265686, -0.4793735146522522, -0.468372642993927, -0.24921025335788727, 8.76579761505127, -4.035923004150391, 1.0882086753845215, -1.2495006322860718, 2.0710902214050293, 2.8774006366729736, -0.714111328125, 0.430908203125, 0.24462890625, 
13, 3599065589, 0.6992216110229492, -0.479464054107666, -0.4681165814399719, -0.24917826056480408, 8.730002403259277, -4.021732330322266, 1.0824235677719116, -1.3211437463760376, 1.9488846063613892, 2.90934157371521, -0.72412109375, 0.428955078125, 0.242919921875, 
14, 3599073922, 0.6993281841278076, -0.4795617461204529, -0.46787229180336, -0.2491503804922104, 8.702726364135742, -3.998835325241089, 1.0549547672271729, -1.3908913135528564, 1.837795376777649, 2.7344472408294678, -0.721435546875, 0.429443359375, 0.244384765625, 
15, 3599082255, 0.6994364261627197, -0.4796464145183563, -0.46763911843299866, -0.24912147223949432, 8.661516189575195, -4.007640838623047, 1.0485941171646118, -1.2758065462112427, 1.6820098161697388, 2.653634548187256, -0.72412109375, 0.429443359375, 0.245361328125, 
16, 3599090588, 0.6995390057563782, -0.47972509264945984, -0.4674198031425476, -0.24909371137619019, 8.685447692871094, -4.011926174163818, 1.022371530532837, -1.1495028734207153, 1.639515995979309, 2.43255877494812, -0.72265625, 0.43310546875, 0.2431640625, 
17, 3599098921, 0.6996495127677917, -0.4797685742378235, -0.467216432094574, -0.24908068776130676, 8.68964672088623, -4.010033130645752, 1.0035901069641113, -0.8914137482643127, 1.667102575302124, 2.048395872116089, -0.72265625, 0.43212890625, 0.243896484375, 
18, 3599107254, 0.699755847454071, -0.47979578375816345, -0.4670335650444031, -0.24907299876213074, 8.711030006408691, -4.000371932983398, 0.9785264134407043, -0.6340675354003906, 1.622841238975525, 1.6794742345809937, -0.7236328125, 0.4326171875, 0.242919921875, 
19, 3599115587, 0.6998689770698547, -0.47978705167770386, -0.4668678641319275, -0.24908223748207092, 8.748924255371094, -4.026804447174072, 0.9561799764633179, -0.35971349477767944, 1.635059118270874, 1.2647029161453247, -0.7236328125, 0.4306640625, 0.240966796875, 
20, 3599123920, 0.699974000453949, -0.4797552824020386, -0.4667319059371948, -0.2491033673286438, 8.785152435302734, -4.026218891143799, 0.9482970237731934, -0.09870446473360062, 1.5549122095108032, 0.7098473906517029, -0.72509765625, 0.43310546875, 0.241455078125, 
21, 3599132253, 0.7000715136528015, -0.479695588350296, -0.4666224718093872, -0.24914896488189697, 8.785063743591309, -4.052485942840576, 0.958366334438324, 0.028073200955986977, 1.3923640251159668, 0.16956621408462524, -0.72412109375, 0.43310546875, 0.241943359375, 
22, 3599140586, 0.7001595497131348, -0.4796135127544403, -0.4665440320968628, -0.24920660257339478, 8.806329727172852, -4.0724568367004395, 0.9524081945419312, 0.23485693335533142, 1.3040976524353027, -0.4004913866519928, -0.72412109375, 0.43408203125, 0.243408203125, 
23, 3599148919, 0.700244128704071, -0.47950929403305054, -0.4664788842201233, -0.24929125607013702, 8.816302299499512, -4.12153959274292, 0.9568787813186646, 0.35104307532310486, 1.2561732530593872, -0.8148784041404724, -0.72412109375, 0.4306640625, 0.239501953125, 
24, 3599157252, 0.7003108263015747, -0.47940191626548767, -0.46644362807273865, -0.24937698245048523, 8.853867530822754, -4.142790794372559, 0.9463068246841431, 0.3059619963169098, 1.0238008499145508, -1.193021297454834, -0.7236328125, 0.4326171875, 0.241455078125, 
25, 3599165585, 0.7003700733184814, -0.4792875349521637, -0.46641987562179565, -0.24947449564933777, 8.839374542236328, -4.151251792907715, 0.9075599312782288, 0.2096012830734253, 0.8800283074378967, -1.3774440288543701, -0.7236328125, 0.43212890625, 0.241943359375, 
26, 3599173918, 0.7004110813140869, -0.47918081283569336, -0.46641361713409424, -0.2495761513710022, 8.818471908569336, -4.174452781677246, 0.903639018535614, 0.12842980027198792, 0.682593822479248, -1.6204206943511963, -0.72607421875, 0.432373046875, 0.242431640625, 
27, 3599182251, 0.7004340291023254, -0.4790782332420349, -0.4664263427257538, -0.2496848702430725, 8.831232070922852, -4.221066951751709, 0.9001845121383667, 0.0195692740380764, 0.2789646089076996, -1.7608376741409302, -0.7216796875, 0.4306640625, 0.240966796875, 
28, 3599190584, 0.700451135635376, -0.47898197174072266, -0.4664497971534729, -0.24977782368659973, 8.782509803771973, -4.224150657653809, 0.9017289876937866, 0.029507601633667946, 0.1495359092950821, -1.746596336364746, -0.72021484375, 0.431640625, 0.239990234375, 
29, 3599198917, 0.7004595994949341, -0.4788864254951477, -0.466487854719162, -0.24986588954925537, 8.729314804077148, -4.244892597198486, 0.8973468542098999, -0.016124160960316658, -0.16919481754302979, -1.7443422079086304, -0.72412109375, 0.42919921875, 0.239990234375, 
30, 3599207250, 0.7004601359367371, -0.4787987470626831, -0.4665379524230957, -0.24993900954723358, 8.702417373657227, -4.253146648406982, 0.9134172797203064, 0.05407165363430977, -0.3736220896244049, -1.7319450378417969, -0.72412109375, 0.431640625, 0.238525390625, 
31, 3599215583, 0.7004582285881042, -0.4787046015262604, -0.46660488843917847, -0.2499997317790985, 8.700400352478027, -4.302224636077881, 0.9412475824356079, 0.12353743612766266, -0.6701835989952087, -1.7022836208343506, -0.72607421875, 0.430419921875, 0.242431640625, 
32, 3599223916, 0.7004519701004028, -0.47863391041755676, -0.46666914224624634, -0.25003287196159363, 8.69795036315918, -4.288758754730225, 0.9185108542442322, 0.15022747218608856, -0.8747645616531372, -1.3567475080490112, -0.724609375, 0.431640625, 0.240478515625, 
33, 3599232249, 0.7004507780075073, -0.47854143381118774, -0.46675655245780945, -0.2500496804714203, 8.698893547058105, -4.287614822387695, 0.9385479092597961, 0.4241461157798767, -1.134595274925232, -1.4081041812896729, -0.72412109375, 0.4306640625, 0.239501953125, 
34, 3599240582, 0.700442910194397, -0.47845983505249023, -0.46685054898262024, -0.25005263090133667, 8.694947242736816, -4.328890800476074, 0.97100430727005, 0.5436365008354187, -1.3329006433486938, -1.336205005645752, -0.7265625, 0.43115234375, 0.238525390625, 
35, 3599248915, 0.700440526008606, -0.4783758819103241, -0.4669364392757416, -0.2500590980052948, 8.71164321899414, -4.3268961906433105, 0.9703444838523865, 0.4930740296840668, -1.271247148513794, -1.23505437374115, -0.72509765625, 0.4326171875, 0.239013671875, 
36, 3599257248, 0.7004291415214539, -0.4783073961734772, -0.4670250713825226, -0.25005659461021423, 8.731801986694336, -4.344355583190918, 0.9657043814659119, 0.40890562534332275, -1.3842828273773193, -1.1784723997116089, -0.72412109375, 0.4326171875, 0.242431640625, 
37, 3599265581, 0.7004073262214661, -0.4782591462135315, -0.4670962393283844, -0.25007718801498413, 8.724471092224121, -4.302057266235352, 1.010684847831726, 0.05297023430466652, -1.369247317314148, -1.091819405555725, -0.72412109375, 0.431640625, 0.239013671875, 
38, 3599273914, 0.700377881526947, -0.4782295823097229, -0.46716368198394775, -0.2500901222229004, 8.722610473632812, -4.2867021560668945, 0.9917997717857361, -0.2558477520942688, -1.3278546333312988, -0.9996339678764343, -0.72509765625, 0.43408203125, 0.240966796875, 
39, 3599282247, 0.7003514170646667, -0.47821226716041565, -0.4672044515609741, -0.25012147426605225, 8.732455253601074, -4.310982704162598, 1.0021991729736328, -0.5668302178382874, -1.0795503854751587, -0.830528736114502, -0.72412109375, 0.4326171875, 0.239990234375, 
40, 3599290580, 0.7003134489059448, -0.4782249331474304, -0.46723368763923645, -0.25014859437942505, 8.746274948120117, -4.358212947845459, 0.988308310508728, -0.9419763684272766, -1.0685361623764038, -0.6416749954223633, -0.7236328125, 0.431640625, 0.241943359375, 
41, 3599298913, 0.7002702951431274, -0.47824424505233765, -0.46726471185684204, -0.2501749098300934, 8.770962715148926, -4.3726806640625, 1.049128770828247, -1.0951493978500366, -1.2186100482940674, -0.5487721562385559, -0.72314453125, 0.431640625, 0.240966796875, 
42, 3599307246, 0.7002215385437012, -0.478285014629364, -0.4672884941101074, -0.2501889765262604, 8.749918937683105, -4.382377624511719, 1.1021257638931274, -1.2189429998397827, -1.266047477722168, -0.3366606831550598, -0.72705078125, 0.4326171875, 0.239990234375, 
43, 3599315579, 0.7001681923866272, -0.4783382713794708, -0.46730613708496094, -0.2502034306526184, 8.746313095092773, -4.401246070861816, 1.1450605392456055, -1.4209623336791992, -1.3712196350097656, -0.1613568514585495, -0.720703125, 0.43212890625, 0.24169921875, 
44, 3599323912, 0.7001183032989502, -0.4783923625946045, -0.4673304259777069, -0.2501943111419678, 8.732921600341797, -4.4240312576293945, 1.1872538328170776, -1.2034720182418823, -1.4772626161575317, -0.034925006330013275, -0.724609375, 0.430908203125, 0.241943359375, 
45, 3599332245, 0.7000786066055298, -0.47842466831207275, -0.4673674702644348, -0.25017446279525757, 8.695146560668945, -4.443151473999023, 1.1823261976242065, -0.9508644938468933, -1.5719329118728638, -0.06238347291946411, -0.7216796875, 0.43115234375, 0.239501953125, 
46, 3599340578, 0.7000454068183899, -0.47844675183296204, -0.4674171805381775, -0.2501324415206909, 8.660094261169434, -4.469933986663818, 1.1993051767349243, -0.48312291502952576, -1.7221348285675049, -0.033797986805438995, -0.72509765625, 0.4306640625, 0.240478515625, 
47, 3599348911, 0.7000367641448975, -0.4784358739852905, -0.46747544407844543, -0.2500680685043335, 8.623828887939453, -4.486397743225098, 1.2116252183914185, 0.18337230384349823, -1.7969794273376465, 0.07148932665586472, -0.72314453125, 0.43212890625, 0.242919921875, 
48, 3599357244, 0.7000522613525391, -0.478385329246521, -0.4675512909889221, -0.24997948110103607, 8.616040229797363, -4.5226545333862305, 1.2263410091400146, 0.9232395887374878, -1.7164994478225708, -0.05631289631128311, -0.72412109375, 0.4326171875, 0.238525390625, 
49, 3599365577, 0.7001092433929443, -0.4782758355140686, -0.46764087677001953, -0.24986203014850616, 8.6090087890625, -4.570274353027344, 1.2276769876480103, 1.7395395040512085, -1.5551553964614868, -0.07058002054691315, -0.720703125, 0.43115234375, 0.24267578125, 
50, 3599373910, 0.700193464756012, -0.47813910245895386, -0.46772536635398865, -0.24972951412200928, 8.618998527526855, -4.6041669845581055, 1.2567942142486572, 2.516572952270508, -1.3514198064804077, -0.0067237364128232, -0.724609375, 0.430419921875, 0.244384765625, 
51, 3599382243, 0.7003154158592224, -0.47797536849975586, -0.4677838385105133, -0.24959154427051544, 8.623748779296875, -4.607842922210693, 1.2662460803985596, 2.836853265762329, -0.8473573923110962, 0.21487782895565033, -0.72607421875, 0.430419921875, 0.243408203125, 
52, 3599390576, 0.7004526853561401, -0.47782447934150696, -0.4678114354610443, -0.2494434267282486, 8.629976272583008, -4.6121087074279785, 1.263986349105835, 2.9053456783294678, -0.5153199434280396, 0.6068524718284607, -0.7265625, 0.430908203125, 0.239013671875, 
53, 3599398909, 0.7006150484085083, -0.47769856452941895, -0.4677731394767761, -0.24930047988891602, 8.705288887023926, -4.601140022277832, 1.3033244609832764, 2.6107308864593506, 0.09315897524356842, 1.297489047050476, -0.72314453125, 0.431640625, 0.239990234375, 
54, 3599407242, 0.7007929086685181, -0.477631151676178, -0.4676503539085388, -0.2491600513458252, 8.834877014160156, -4.5863142013549805, 1.2912832498550415, 1.8031654357910156, 0.9585871696472168, 2.1963438987731934, -0.72509765625, 0.43359375, 0.241455078125, 
55, 3599415575, 0.7009749412536621, -0.47764551639556885, -0.467424213886261, -0.24904420971870422, 8.8974027633667, -4.538591384887695, 1.2818219661712646, 0.31743714213371277, 1.8459151983261108, 3.2052111625671387, -0.7197265625, 0.43115234375, 0.239013671875, 
56, 3599423908, 0.7011412978172302, -0.47777679562568665, -0.46707138419151306, -0.2489863783121109, 8.86865234375, -4.469964027404785, 1.2716064453125, -1.5041576623916626, 2.964258909225464, 4.148789405822754, -0.72265625, 0.4296875, 0.239990234375, 
57, 3599432241, 0.7012839317321777, -0.4780236482620239, -0.4666094183921814, -0.24897736310958862, 8.783368110656738, -4.396373271942139, 1.2530333995819092, -3.5377233028411865, 3.7029733657836914, 5.095158576965332, -0.724609375, 0.43212890625, 0.237548828125, 
58, 3599440574, 0.7013925909996033, -0.47839492559432983, -0.46604958176612854, -0.2490067183971405, 8.757116317749023, -4.3966522216796875, 1.2456436157226562, -5.468114852905273, 4.34138298034668, 6.012250900268555, -0.72216796875, 0.43115234375, 0.238037109375, 
59, 3599448907, 0.7014756798744202, -0.4788551330566406, -0.4654148519039154, -0.2490749955177307, 8.706334114074707, -4.398456573486328, 1.2591880559921265, -7.158576965332031, 4.80220890045166, 6.640056133270264, -0.72265625, 0.43212890625, 0.239013671875, 
60, 3599457240, 0.7015336751937866, -0.47939974069595337, -0.4647166430950165, -0.24916808307170868, 8.68471622467041, -4.410935401916504, 1.2214232683181763, -8.354376792907715, 5.177456855773926, 7.244500160217285, -0.724609375, 0.43359375, 0.237548828125, 
61, 3599465573, 0.7015788555145264, -0.4799738824367523, -0.4639947712421417, -0.24928055703639984, 8.66372013092041, -4.414633274078369, 1.1971083879470825, -8.926959991455078, 5.220643043518066, 7.40484619140625, -0.72119140625, 0.435791015625, 0.23681640625, 
62, 3599473906, 0.7016178369522095, -0.4805583953857422, -0.463279664516449, -0.24937498569488525, 8.675250053405762, -4.426610946655273, 1.1672056913375854, -8.931467056274414, 5.089728832244873, 7.533122539520264, -0.723388671875, 0.4365234375, 0.238525390625, 
63, 3599482239, 0.7016797065734863, -0.4811079800128937, -0.46258053183555603, -0.24943865835666656, 8.670684814453125, -4.432648658752441, 1.1279767751693726, -8.22476863861084, 4.883174419403076, 7.619363784790039, -0.723876953125, 0.436279296875, 0.235107421875, 
64, 3599490572, 0.7017662525177002, -0.48160725831985474, -0.4619290232658386, -0.2494395673274994, 8.705181121826172, -4.436609745025635, 1.115045189857483, -6.982095241546631, 4.455237865447998, 7.635220050811768, -0.724853515625, 0.4365234375, 0.237548828125, 
65, 3599498905, 0.7018970847129822, -0.48202794790267944, -0.4613170325756073, -0.249391108751297, 8.7341947555542, -4.457308292388916, 1.0874912738800049, -5.597108364105225, 4.224300384521484, 7.52886962890625, -0.722412109375, 0.437255859375, 0.236083984375, 
66, 3599507238, 0.7020664215087891, -0.4823821187019348, -0.46074777841567993, -0.24928173422813416, 8.723469734191895, -4.41862678527832, 1.0704574584960938, -4.050955772399902, 3.951380491256714, 7.518035411834717, -0.722900390625, 0.439208984375, 0.23583984375, 
67, 3599515571, 0.702274739742279, -0.4826740026473999, -0.46020951867103577, -0.24912424385547638, 8.718338966369629, -4.390556335449219, 1.042236566543579, -3.004127264022827, 3.779816150665283, 7.527384281158447, -0.721923828125, 0.438720703125, 0.2353515625, 
68, 3599523904, 0.7024911642074585, -0.4829510450363159, -0.45969200134277344, -0.24893279373645782, 8.77425479888916, -4.301177978515625, 1.0325819253921509, -2.2965593338012695, 3.4702420234680176, 7.639522075653076, -0.723876953125, 0.439208984375, 0.236328125, 
69, 3599532237, 0.7027257084846497, -0.48320257663726807, -0.45918625593185425, -0.24871587753295898, 8.778692245483398, -4.242033004760742, 1.0419361591339111, -1.9846036434173584, 3.393117666244507, 7.716185092926025, -0.720947265625, 0.4423828125, 0.234375, 
70, 3599540570, 0.7029355764389038, -0.48348674178123474, -0.45867466926574707, -0.24851441383361816, 8.774523735046387, -4.187680244445801, 0.9926242232322693, -2.325606107711792, 3.280517578125, 7.719566822052002, -0.723388671875, 0.441650390625, 0.2333984375, 
71, 3599548903, 0.7031320333480835, -0.4837799370288849, -0.458162397146225, -0.2483328878879547, 8.73574447631836, -4.196000576019287, 0.9668854475021362, -2.668811321258545, 3.2005503177642822, 7.580584526062012, -0.718017578125, 0.443359375, 0.234375, 
72, 3599557236, 0.7032983303070068, -0.48410338163375854, -0.4576549530029297, -0.24816742539405823, 8.74306583404541, -4.168719291687012, 0.8959288001060486, -3.206838369369507, 3.07183837890625, 7.442933082580566, -0.720703125, 0.4443359375, 0.232421875, 
73, 3599565569, 0.7034416198730469, -0.48444461822509766, -0.4571577310562134, -0.2480117529630661, 8.762382507324219, -4.155253887176514, 0.8846321105957031, -3.790151357650757, 2.8301937580108643, 7.331050395965576, -0.720703125, 0.4443359375, 0.2333984375, 
74, 3599573902, 0.7035597562789917, -0.48479852080345154, -0.4566720426082611, -0.24788016080856323, 8.799835205078125, -4.157297611236572, 0.8152382373809814, -3.961228370666504, 2.680094003677368, 6.996886253356934, -0.7216796875, 0.447265625, 0.23291015625, 
75, 3599582235, 0.7036416530609131, -0.48517024517059326, -0.4562089443206787, -0.24777266383171082, 8.820406913757324, -4.150649547576904, 0.7999452948570251, -4.390881538391113, 2.187814474105835, 6.661186695098877, -0.718994140625, 0.44384765625, 0.2333984375, 
76, 3599590568, 0.7037155628204346, -0.4855336546897888, -0.4557637572288513, -0.2476705014705658, 8.862950325012207, -4.158342361450195, 0.8394342660903931, -4.395647048950195, 2.173445224761963, 6.351230144500732, -0.720703125, 0.447021484375, 0.232421875, 
77, 3599598901, 0.7037715911865234, -0.48587608337402344, -0.455371618270874, -0.2475614845752716, 8.895833015441895, -4.158473014831543, 0.8264055252075195, -4.302589416503906, 1.5752497911453247, 5.899649620056152, -0.720703125, 0.4453125, 0.2333984375, 
78, 3599607234, 0.7038107514381409, -0.48619771003723145, -0.4550226926803589, -0.24746006727218628, 8.863168716430664, -4.179171562194824, 0.8211456537246704, -3.8992936611175537, 1.1737724542617798, 5.32133150100708, -0.71923828125, 0.446533203125, 0.2314453125, 
79, 3599615567, 0.7038347721099854, -0.4864885210990906, -0.4547277092933655, -0.24736228585243225, 8.84300422668457, -4.168422222137451, 0.8230979442596436, -3.6455845832824707, 0.6359502673149109, 4.728644371032715, -0.71923828125, 0.447998046875, 0.232421875, 
80, 3599623900, 0.703843355178833, -0.48674914240837097, -0.45448607206344604, -0.24726936221122742, 8.774523735046387, -4.131669998168945, 0.8673243522644043, -3.2040717601776123, 0.20586161315441132, 4.036624431610107, -0.7216796875, 0.447265625, 0.23291015625, 
81, 3599632233, 0.7038241624832153, -0.4869820773601532, -0.45431089401245117, -0.24718685448169708, 8.739306449890137, -4.091565132141113, 0.8791427612304688, -2.9720325469970703, -0.5381678938865662, 3.287997007369995, -0.720703125, 0.446533203125, 0.23046875, 
82, 3599640566, 0.7037863731384277, -0.4871869683265686, -0.4541926085948944, -0.24710842967033386, 8.738527297973633, -4.110489845275879, 0.8762187361717224, -2.645630359649658, -0.9891833066940308, 2.562652826309204, -0.712158203125, 0.44677734375, 0.229248046875, 
83, 3599648899, 0.7037335634231567, -0.4873524308204651, -0.45412951707839966, -0.24704810976982117, 8.706605911254883, -4.132495880126953, 0.8895448446273804, -2.41656231880188, -1.3932992219924927, 1.777807354927063, -0.71826171875, 0.447021484375, 0.2314453125, 
84, 3599657232, 0.7036705017089844, -0.4874946177005768, -0.45410388708114624, -0.2469945251941681, 8.6617431640625, -4.141890525817871, 0.8812454342842102, -2.0481784343719482, -1.6641185283660889, 1.2261533737182617, -0.71875, 0.450439453125, 0.232177734375, 
85, 3599665565, 0.703593909740448, -0.4876129925251007, -0.4541107416152954, -0.2469661831855774, 8.613653182983398, -4.12585973739624, 0.9129832983016968, -1.7559711933135986, -2.0084760189056396, 0.6722200512886047, -0.72314453125, 0.44677734375, 0.234375, 
86, 3599673898, 0.7035079002380371, -0.48771142959594727, -0.45415446162223816, -0.24693652987480164, 8.596717834472656, -4.140373229980469, 0.9010334014892578, -1.6905266046524048, -2.170614242553711, 0.17699436843395233, -0.71923828125, 0.448974609375, 0.232666015625, 
87, 3599682231, 0.7034085988998413, -0.487791508436203, -0.45422834157943726, -0.2469254732131958, 8.604242324829102, -4.126739501953125, 0.9036381244659424, -1.7099424600601196, -2.396557331085205, -0.2951144278049469, -0.71533203125, 0.447509765625, 0.232666015625, 
88, 3599690564, 0.7032864689826965, -0.4878804683685303, -0.4543237090110779, -0.24692237377166748, 8.628947257995605, -4.118824481964111, 0.9454570412635803, -1.8324294090270996, -2.6853322982788086, -0.6073775291442871, -0.71875, 0.448974609375, 0.234130859375, 
89, 3599698897, 0.7031573057174683, -0.487955242395401, -0.4544295370578766, -0.24694770574569702, 8.66543197631836, -4.174948692321777, 0.9508166313171387, -1.9493584632873535, -2.642223596572876, -0.9870316982269287, -0.7177734375, 0.448486328125, 0.233642578125, 
90, 3599707230, 0.7030038237571716, -0.4880389869213104, -0.4545506536960602, -0.24699631333351135, 8.699268341064453, -4.207052707672119, 0.9900184869766235, -2.2285280227661133, -2.766298532485962, -1.4179399013519287, -0.71875, 0.447998046875, 0.234619140625, 
91, 3599715563, 0.702838122844696, -0.4881137013435364, -0.45467716455459595, -0.24708694219589233, 8.734878540039062, -4.2615437507629395, 1.040013313293457, -2.463308095932007, -2.6670949459075928, -1.8683662414550781, -0.71728515625, 0.446044921875, 0.233154296875, 
92, 3599723896, 0.7026544809341431, -0.48819518089294434, -0.45480674505233765, -0.24721001088619232, 8.761675834655762, -4.241016864776611, 1.0496052503585815, -2.8447043895721436, -2.528214931488037, -2.3126964569091797, -0.71875, 0.44677734375, 0.238037109375, 
93, 3599732229, 0.7024568319320679, -0.4882735013961792, -0.4549461603164673, -0.24736034870147705, 8.767263412475586, -4.262158393859863, 1.0623387098312378, -3.254096746444702, -2.489819049835205, -2.642505645751953, -0.714599609375, 0.447021484375, 0.238525390625, 
94, 3599740562, 0.7022352814674377, -0.48836827278137207, -0.455087274312973, -0.24754297733306885, 8.742466926574707, -4.262711524963379, 1.0388816595077515, -3.560366153717041, -2.522400379180908, -3.009660243988037, -0.717529296875, 0.44384765625, 0.237060546875, 
95, 3599748895, 0.7019966244697571, -0.48845183849334717, -0.4552575945854187, -0.24774128198623657, 8.71949577331543, -4.3231940269470215, 1.0205882787704468, -3.794633626937866, -2.728620767593384, -3.4187450408935547, -0.715087890625, 0.445068359375, 0.237060546875, 
96, 3599757228, 0.7017427682876587, -0.48854073882102966, -0.45543667674064636, -0.24795615673065186, 8.702499389648438, -4.337627410888672, 1.0545084476470947, -3.7960171699523926, -2.8559489250183105, -3.7238361835479736, -0.717529296875, 0.44580078125, 0.238525390625, 
97, 3599765561, 0.7014845013618469, -0.4886188507080078, -0.4556332230567932, -0.24817214906215668, 8.671603202819824, -4.39736795425415, 1.032240629196167, -3.482165813446045, -3.1849639415740967, -3.8104896545410156, -0.71875, 0.44775390625, 0.238037109375, 
98, 3599773894, 0.7012234330177307, -0.48866352438926697, -0.4558824896812439, -0.24836376309394836, 8.657211303710938, -4.436574459075928, 1.0838654041290283, -3.029229164123535, -3.5807034969329834, -4.273722171783447, -0.716064453125, 0.4453125, 0.240478515625, 
99, 3599782227, 0.700978696346283, -0.48866650462150574, -0.45615333318710327, -0.24855150282382965, 8.66757869720459, -4.487475872039795, 1.1289273500442505, -2.375016212463379, -3.6765782833099365, -4.479533672332764, -0.717529296875, 0.4423828125, 0.239013671875, 
100, 3599790560, 0.7007498741149902, -0.48863041400909424, -0.4564635157585144, -0.2486981451511383, 8.644283294677734, -4.5298075675964355, 1.162842869758606, -1.5462158918380737, -3.9939889907836914, -4.644641876220703, -0.717529296875, 0.44580078125, 0.241943359375, 
101, 3599798893, 0.7005468606948853, -0.48853158950805664, -0.45682239532470703, -0.24880512058734894, 8.667964935302734, -4.5516815185546875, 1.1890462636947632, -0.6150874495506287, -4.295929908752441, -4.828834056854248, -0.716552734375, 0.44287109375, 0.242431640625, 
102, 3599807226, 0.7003651261329651, -0.4883976876735687, -0.45719653367996216, -0.24889299273490906, 8.68590259552002, -4.585014820098877, 1.1916301250457764, 0.30237603187561035, -4.375820636749268, -4.9611310958862305, -0.719482421875, 0.441650390625, 0.24072265625, 
103, 3599815559, 0.7002186179161072, -0.4882071316242218, -0.4575871527194977, -0.24896061420440674, 8.717955589294434, -4.622095108032227, 1.2103831768035889, 1.1070984601974487, -4.253512382507324, -5.03436279296875, -0.715576171875, 0.44140625, 0.242919921875, 
104, 3599823892, 0.7000946998596191, -0.4879903197288513, -0.45797649025917053, -0.24901854991912842, 8.721407890319824, -4.621157169342041, 1.2050970792770386, 1.7273470163345337, -4.072727680206299, -5.098987102508545, -0.7119140625, 0.44140625, 0.241943359375, 
105, 3599832225, 0.6999964714050293, -0.4877397418022156, -0.4583643972873688, -0.2490716427564621, 8.711325645446777, -4.584967613220215, 1.2118526697158813, 2.0943734645843506, -3.8181214332580566, -5.090816020965576, -0.71484375, 0.439208984375, 0.242431640625, 
106, 3599840558, 0.6999174952507019, -0.487487256526947, -0.4587249755859375, -0.2491244077682495, 8.697025299072266, -4.546241283416748, 1.2124688625335693, 2.305870294570923, -3.427351474761963, -4.927577018737793, -0.7158203125, 0.438720703125, 0.242919921875, 
107, 3599848891, 0.6998376250267029, -0.48726046085357666, -0.4590452015399933, -0.24920210242271423, 8.6919527053833, -4.534263610839844, 1.2351205348968506, 1.7310099601745605, -3.0371439456939697, -4.64720344543457, -0.7138671875, 0.439697265625, 0.244873046875, 
108, 3599857224, 0.6997585296630859, -0.48706409335136414, -0.45932239294052124, -0.2492978870868683, 8.684887886047363, -4.510239601135254, 1.268576979637146, 1.208479642868042, -2.5293161869049072, -4.428765773773193, -0.7109375, 0.43994140625, 0.243896484375, 
109, 3599865557, 0.6996755003929138, -0.48689618706703186, -0.45955953001976013, -0.24942168593406677, 8.652432441711426, -4.532772541046143, 1.2738120555877686, 0.3979939818382263, -2.0674402713775635, -4.195112705230713, -0.718505859375, 0.439697265625, 0.244384765625, 
110, 3599873890, 0.6995855569839478, -0.4867788255214691, -0.4597398340702057, -0.24957095086574554, 8.645269393920898, -4.5239152908325195, 1.2996206283569336, -0.29411548376083374, -1.5783874988555908, -3.8317229747772217, -0.71728515625, 0.439208984375, 0.242919921875, 
111, 3599882223, 0.6994996070861816, -0.48668229579925537, -0.4598844647407532, -0.24973329901695251, 8.678869247436523, -4.552330493927002, 1.326630711555481, -0.9575240015983582, -1.141664743423462, -3.518101692199707, -0.71630859375, 0.438720703125, 0.243408203125, 
112, 3599890556, 0.6993964910507202, -0.48664042353630066, -0.45997437834739685, -0.2499377578496933, 8.678108215332031, -4.5689005851745605, 1.336113691329956, -1.7678046226501465, -0.6822221875190735, -3.325329065322876, -0.71533203125, 0.439208984375, 0.242919921875, 
113, 3599898889, 0.6993018984794617, -0.48662281036376953, -0.4600121080875397, -0.2501673400402069, 8.670661926269531, -4.5851263999938965, 1.314871072769165, -2.2570366859436035, -0.1525711864233017, -2.944369316101074, -0.71728515625, 0.436767578125, 0.24462890625, 
114, 3599907222, 0.6992153525352478, -0.4866381585597992, -0.4600051939487457, -0.25039198994636536, 8.686087608337402, -4.596765995025635, 1.2738763093948364, -2.667940616607666, 0.2918742299079895, -2.453754425048828, -0.71826171875, 0.436767578125, 0.24365234375, 
115, 3599915555, 0.6991382241249084, -0.48667824268341064, -0.4599500894546509, -0.2506304979324341, 8.693849563598633, -4.6138458251953125, 1.2652652263641357, -2.790889024734497, 0.5681238174438477, -1.9548403024673462, -0.71240234375, 0.435791015625, 0.245849609375, 
116, 3599923888, 0.699085533618927, -0.4867281913757324, -0.45987141132354736, -0.2508252263069153, 8.64914608001709, -4.642695426940918, 1.240466833114624, -2.8320765495300293, 0.8769546151161194, -1.3499599695205688, -0.716796875, 0.437255859375, 0.246337890625, 
117, 3599932221, 0.6990622282028198, -0.4867873191833496, -0.459746778011322, -0.2510034143924713, 8.607213973999023, -4.652332305908203, 1.1871814727783203, -2.7081542015075684, 1.223924994468689, -0.634093165397644, -0.71826171875, 0.437255859375, 0.2451171875, 
118, 3599940554, 0.6990575194358826, -0.486872136592865, -0.4596002399921417, -0.25112059712409973, 8.599992752075195, -4.642827033996582, 1.217175841331482, -2.587921380996704, 1.1929317712783813, 0.23644497990608215, -0.71630859375, 0.434814453125, 0.24560546875, 
119, 3599948887, 0.6990733742713928, -0.4869687855243683, -0.45942574739456177, -0.25120818614959717, 8.628936767578125, -4.633140563964844, 1.205780029296875, -2.540048599243164, 1.2784065008163452, 0.9209086298942566, -0.71728515625, 0.436767578125, 0.2431640625, 
120, 3599957220, 0.6991077661514282, -0.48707863688468933, -0.45922887325286865, -0.25126004219055176, 8.645808219909668, -4.630568981170654, 1.2130204439163208, -2.3302419185638428, 1.4004582166671753, 1.4947441816329956, -0.71728515625, 0.437744140625, 0.2431640625, 
121, 3599965553, 0.6991562843322754, -0.48719537258148193, -0.4590040445327759, -0.25130894780158997, 8.685799598693848, -4.605008125305176, 1.2176125049591064, -2.2926151752471924, 1.5632113218307495, 1.8840807676315308, -0.7109375, 0.4375, 0.243896484375, 
122, 3599973886, 0.6992087364196777, -0.487323135137558, -0.45877596735954285, -0.2513320744037628, 8.685344696044922, -4.576140880584717, 1.1922394037246704, -2.3076508045196533, 1.559189796447754, 2.154541492462158, -0.71484375, 0.435302734375, 0.24267578125, 
123, 3599982219, 0.6992673277854919, -0.4874504804611206, -0.4585404396057129, -0.25135186314582825, 8.698797225952148, -4.570446014404297, 1.1904902458190918, -2.3300888538360596, 1.5693843364715576, 2.3169615268707275, -0.71826171875, 0.436767578125, 0.24560546875, 
124, 3599990552, 0.6993333697319031, -0.4875747561454773, -0.45830243825912476, -0.25136110186576843, 8.719032287597656, -4.551984786987305, 1.1480904817581177, -2.129401206970215, 1.6600074768066406, 2.3807921409606934, -0.716796875, 0.437744140625, 0.2431640625, 
125, 3599998885, 0.6994114518165588, -0.48767685890197754, -0.45806464552879333, -0.25137847661972046, 8.718488693237305, -4.524129867553711, 1.1057358980178833, -1.908094048500061, 1.762515664100647, 2.267116069793701, -0.71533203125, 0.435302734375, 0.2451171875, 
126, 3600007218, 0.6994863748550415, -0.48776909708976746, -0.45784202218055725, -0.2513972222805023, 8.718459129333496, -4.515810966491699, 1.1106005907058716, -1.7670106887817383, 1.743561029434204, 2.013176202774048, -0.71337890625, 0.4384765625, 0.241943359375, 
127, 3600015551, 0.6995714902877808, -0.4878321588039398, -0.45762717723846436, -0.25142917037010193, 8.726692199707031, -4.4749321937561035, 1.0508060455322266, -1.6355072259902954, 1.8885375261306763, 1.73446786403656, -0.71630859375, 0.438232421875, 0.242919921875, 
128, 3600023884, 0.6996442675590515, -0.48789921402931213, -0.45741772651672363, -0.25147780776023865, 8.715629577636719, -4.476950168609619, 1.0397831201553345, -1.6835341453552246, 1.889638900756836, 1.4721524715423584, -0.71484375, 0.4384765625, 0.241455078125, 
129, 3600032217, 0.6997150182723999, -0.4879511594772339, -0.45721814036369324, -0.25154322385787964, 8.71619701385498, -4.435700416564941, 1.0561991930007935, -1.651055097579956, 1.8513456583023071, 1.2022039890289307, -0.71826171875, 0.437255859375, 0.24267578125, 
130, 3600040550, 0.6997790932655334, -0.487996906042099, -0.4570336639881134, -0.2516114115715027, 8.709301948547363, -4.4552130699157715, 1.0480972528457642, -1.575441837310791, 1.7989132404327393, 0.953771710395813, -0.716796875, 0.438720703125, 0.244384765625, 
131, 3600048883, 0.6998354196548462, -0.488029420375824, -0.4568709135055542, -0.2516874670982361, 8.70365047454834, -4.427127361297607, 1.0782666206359863, -1.3319272994995117, 1.4578852653503418, 0.7031362652778625, -0.71630859375, 0.438232421875, 0.2412109375, 
132, 3600057216, 0.699891209602356, -0.4880554974079132, -0.45672425627708435, -0.25174781680107117, 8.70044994354248, -4.4137420654296875, 1.1054317951202393, -1.2596696615219116, 1.3992798328399658, 0.6222209334373474, -0.716796875, 0.439208984375, 0.2412109375, 
133, 3600065549, 0.6999561786651611, -0.48806285858154297, -0.4565865397453308, -0.25180238485336304, 8.676660537719727, -4.42949914932251, 1.0906808376312256, -1.067050576210022, 1.3454644680023193, 0.5806490778923035, -0.71630859375, 0.439697265625, 0.241455078125, 
134, 3600073882, 0.7000100016593933, -0.4880770444869995, -0.45646005868911743, -0.2518547475337982, 8.63878059387207, -4.4255146980285645, 1.0618104934692383, -1.039182186126709, 1.1807905435562134, 0.48257219791412354, -0.7109375, 0.44091796875, 0.241943359375, 
135, 3600082215, 0.7000676393508911, -0.4880772829055786, -0.45634597539901733, -0.25190073251724243, 8.633875846862793, -4.463317394256592, 1.018292784690857, -0.923149824142456, 1.045547604560852, 0.4342893362045288, -0.71630859375, 0.439697265625, 0.242919921875, 
136, 3600090548, 0.7001256942749023, -0.4880736768245697, -0.4562426507472992, -0.2519334852695465, 8.602788925170898, -4.414777755737305, 1.011133074760437, -0.6360654830932617, 0.9145818948745728, 0.4185878038406372, -0.716552734375, 0.4404296875, 0.239990234375, 
137, 3600098881, 0.700197160243988, -0.488026887178421, -0.4561779499053955, -0.25194257497787476, 8.62204360961914, -4.403097152709961, 1.0233644247055054, -0.055595699697732925, 0.6143062114715576, 0.19927874207496643, -0.716796875, 0.439453125, 0.240234375, 
138, 3600107214, 0.7002608776092529, -0.48796993494033813, -0.4561290740966797, -0.25196465849876404, 8.607852935791016, -4.398240089416504, 1.0337860584259033, 0.17092378437519073, 0.537489116191864, -0.15887229144573212, -0.716552734375, 0.43994140625, 0.240478515625, 
139, 3600115547, 0.700334906578064, -0.4878772497177124, -0.4560999572277069, -0.2519912123680115, 8.586944580078125, -4.396902084350586, 1.0411676168441772, 0.5626422762870789, 0.4901283383369446, -0.4690606892108917, -0.71630859375, 0.440185546875, 0.241943359375, 
140, 3600123880, 0.7004063129425049, -0.48777568340301514, -0.4560801386833191, -0.25202521681785583, 8.599727630615234, -4.408568859100342, 1.0047670602798462, 0.6792894601821899, 0.542253315448761, -0.7233075499534607, -0.717041015625, 0.43994140625, 0.23876953125, 
141, 3600132213, 0.7004781365394592, -0.4876523017883301, -0.456074595451355, -0.2520740330219269, 8.623381614685059, -4.380122184753418, 0.977536141872406, 0.7973967790603638, 0.5001435279846191, -1.0395408868789673, -0.717529296875, 0.439697265625, 0.2412109375, 
142, 3600140546, 0.7005394697189331, -0.487528920173645, -0.4560858905315399, -0.2521219253540039, 8.594905853271484, -4.360909461975098, 0.9993594288825989, 0.843220591545105, 0.34725216031074524, -1.2371803522109985, -0.717529296875, 0.439208984375, 0.23876953125, 
143, 3600148879, 0.7005931735038757, -0.48739808797836304, -0.4561156630516052, -0.25217169523239136, 8.607495307922363, -4.382747173309326, 1.0052677392959595, 0.8067459464073181, 0.10993627458810806, -1.4019310474395752, -0.71728515625, 0.438720703125, 0.2392578125, 
144, 3600157212, 0.7006317377090454, -0.487283855676651, -0.45615261793136597, -0.25221872329711914, 8.628009796142578, -4.376545429229736, 1.0126279592514038, 0.6969889402389526, -0.08039027452468872, -1.4227042198181152, -0.718017578125, 0.439208984375, 0.23974609375, 
145, 3600165545, 0.7006645202636719, -0.4871760606765747, -0.4561864137649536, -0.25227421522140503, 8.651470184326172, -4.42135763168335, 1.0251308679580688, 0.5125152468681335, -0.14644940197467804, -1.4010603427886963, -0.71630859375, 0.43896484375, 0.23828125, 
146, 3600173878, 0.7006912231445312, -0.4870869815349579, -0.456216424703598, -0.2523180842399597, 8.655410766601562, -4.44723653793335, 0.9967912435531616, 0.3691011071205139, -0.19585922360420227, -1.2291886806488037, -0.718505859375, 0.438232421875, 0.23828125, 
147, 3600182211, 0.7007150053977966, -0.48700734972953796, -0.45623788237571716, -0.25236690044403076, 8.702980041503906, -4.444369316101074, 1.0106539726257324, 0.29220718145370483, -0.28171810507774353, -1.0955336093902588, -0.7099609375, 0.4384765625, 0.238037109375, 
148, 3600190544, 0.7007283568382263, -0.4869403839111328, -0.4562722444534302, -0.25239720940589905, 8.680768966674805, -4.468974590301514, 0.9785231947898865, 0.16777321696281433, -0.48842501640319824, -1.0357755422592163, -0.716796875, 0.4384765625, 0.23876953125, 
149, 3600198877, 0.7007361054420471, -0.4868807792663574, -0.4563046991825104, -0.25243157148361206, 8.681055068969727, -4.474797248840332, 0.965505063533783, -0.045913517475128174, -0.5684950947761536, -0.9808587431907654, -0.718017578125, 0.438720703125, 0.23828125, 
150, 3600207210, 0.7007350921630859, -0.4868351221084595, -0.4563453793525696, -0.2524488568305969, 8.668079376220703, -4.463424205780029, 0.9562563300132751, -0.030749889090657234, -0.801661491394043, -0.8676693439483643, -0.718017578125, 0.439697265625, 0.240234375, 
151, 3600215543, 0.7007399201393127, -0.48677799105644226, -0.4563937783241272, -0.25245827436447144, 8.672386169433594, -4.454211235046387, 0.9898390173912048, 0.26428768038749695, -0.9845983386039734, -0.8268147110939026, -0.718505859375, 0.439208984375, 0.23876953125, 
152, 3600223876, 0.7007473111152649, -0.4867277443408966, -0.45644116401672363, -0.25244900584220886, 8.675468444824219, -4.474167823791504, 1.0119627714157104, 0.2604711651802063, -0.9751978516578674, -0.6564031839370728, -0.718994140625, 0.439697265625, 0.240234375, 
153, 3600232209, 0.7007620930671692, -0.48666298389434814, -0.45649853348731995, -0.2524290978908539, 8.690903663635254, -4.453510284423828, 1.0365540981292725, 0.5041906237602234, -1.117305874824524, -0.6325051188468933, -0.718994140625, 0.438232421875, 0.23828125, 
154, 3600240542, 0.7007753849029541, -0.4866102933883667, -0.45654967427253723, -0.2524014711380005, 8.701669692993164, -4.45820951461792, 1.050337791442871, 0.4513227939605713, -1.0890530347824097, -0.4989780783653259, -0.717041015625, 0.439697265625, 0.23974609375, 
155, 3600248875, 0.7007887363433838, -0.48656052350997925, -0.4565954804420471, -0.25237736105918884, 8.709385871887207, -4.416401386260986, 1.0107249021530151, 0.2547335922718048, -1.0507856607437134, -0.4368892312049866, -0.721435546875, 0.439697265625, 0.2392578125, 
156, 3600257208, 0.7007954716682434, -0.48653170466423035, -0.45662498474121094, -0.2523607015609741, 8.707135200500488, -4.389978885650635, 0.9664708971977234, 0.032811835408210754, -0.9306548833847046, -0.3330234885215759, -0.716796875, 0.43701171875, 0.236328125, 
157, 3600265541, 0.700789749622345, -0.48651570081710815, -0.4566475749015808, -0.2523670792579651, 8.689460754394531, -4.3907012939453125, 0.9693319797515869, -0.21048496663570404, -0.9931022524833679, -0.39518919587135315, -0.7197265625, 0.436767578125, 0.2392578125, 
158, 3600273874, 0.7007759809494019, -0.4865112006664276, -0.45667073130607605, -0.2523720860481262, 8.682120323181152, -4.376194953918457, 0.9473511576652527, -0.4978254437446594, -0.9371863603591919, -0.4186006188392639, -0.718017578125, 0.439697265625, 0.2392578125, 
159, 3600282207, 0.7007451057434082, -0.48652464151382446, -0.45669251680374146, -0.252392053604126, 8.664346694946289, -4.367361068725586, 0.9235321283340454, -0.7749970555305481, -1.1379507780075073, -0.4280266761779785, -0.71875, 0.435791015625, 0.23974609375, 
160, 3600290540, 0.7007031440734863, -0.48654669523239136, -0.45672810077667236, -0.25240176916122437, 8.66567611694336, -4.391952991485596, 0.9709769487380981, -0.9274530410766602, -1.2950940132141113, -0.4777951240539551, -0.71142578125, 0.43701171875, 0.239013671875, 
161, 3600298873, 0.700659453868866, -0.4865625500679016, -0.45677492022514343, -0.2524079382419586, 8.659074783325195, -4.406198501586914, 1.0058754682540894, -0.8848822116851807, -1.4699114561080933, -0.5132196545600891, -0.7158203125, 0.439453125, 0.23876953125, 
162, 3600307206, 0.7006007432937622, -0.4865801930427551, -0.4568505883216858, -0.252399742603302, 8.686659812927246, -4.419655799865723, 1.054961919784546, -0.7457968592643738, -1.8904200792312622, -0.6589133143424988, -0.718994140625, 0.438720703125, 0.23828125, 
163, 3600315539, 0.7005453109741211, -0.4865722060203552, -0.4569512605667114, -0.2523867189884186, 8.67081356048584, -4.4065704345703125, 1.0891586542129517, -0.27247142791748047, -2.184190034866333, -0.8592936396598816, -0.71826171875, 0.437744140625, 0.2412109375, 
164, 3600323872, 0.7004902362823486, -0.48655858635902405, -0.4570683538913727, -0.252354234457016, 8.687110900878906, -4.435398578643799, 1.0850952863693237, -0.12342218309640884, -2.3213284015655518, -0.8868288397789001, -0.71826171875, 0.436279296875, 0.2392578125, 
165, 3600332205, 0.7004479765892029, -0.4865325689315796, -0.4571940004825592, -0.2522936761379242, 8.665693283081055, -4.454873085021973, 1.093876838684082, 0.09623268246650696, -2.4545481204986572, -0.6731293201446533, -0.7177734375, 0.436279296875, 0.23974609375, 
166, 3600340538, 0.7004008293151855, -0.4865099787712097, -0.4573277235031128, -0.2522261142730713, 8.639679908752441, -4.443082809448242, 1.0595442056655884, 0.29359033703804016, -2.635359048843384, -0.688241720199585, -0.7177734375, 0.437744140625, 0.23876953125, 
167, 3600348871, 0.7003585696220398, -0.48649653792381287, -0.4574509561061859, -0.2521454989910126, 8.626803398132324, -4.431135177612305, 1.0419167280197144, 0.18273195624351501, -2.654364824295044, -0.3740062713623047, -0.719970703125, 0.439697265625, 0.23876953125, 
168, 3600357204, 0.700318455696106, -0.48650428652763367, -0.45755672454833984, -0.252050518989563, 8.638836860656738, -4.38864278793335, 1.0800179243087769, 0.1234862208366394, -2.6108205318450928, -0.022399649024009705, -0.719970703125, 0.438232421875, 0.2421875, 
169, 3600365537, 0.7002830505371094, -0.48651838302612305, -0.45764920115470886, -0.25195348262786865, 8.647065162658691, -4.403507232666016, 1.0915131568908691, -0.11005155742168427, -2.4841580390930176, 0.17807015776634216, -0.716796875, 0.436279296875, 0.2421875, 
170, 3600373870, 0.7002435922622681, -0.48656710982322693, -0.45770278573036194, -0.2518720030784607, 8.67166519165039, -4.435797691345215, 1.1151652336120605, -0.531661868095398, -2.155015468597412, 0.45644569396972656, -0.71728515625, 0.437744140625, 0.2412109375, 
171, 3600382203, 0.7002058029174805, -0.48663341999053955, -0.4577293395996094, -0.2518000900745392, 8.660531997680664, -4.443633079528809, 1.1146568059921265, -0.908242404460907, -1.9332473278045654, 0.7109743356704712, -0.7177734375, 0.437255859375, 0.24072265625, 
172, 3600390536, 0.7001616358757019, -0.48672550916671753, -0.4577346444129944, -0.2517354488372803, 8.659200668334961, -4.432844638824463, 1.1183784008026123, -1.2526257038116455, -1.7562015056610107, 0.8738552331924438, -0.71630859375, 0.436279296875, 0.2412109375, 
173, 3600398869, 0.7001191973686218, -0.4868324100971222, -0.4577224850654602, -0.2516687214374542, 8.696431159973145, -4.410463333129883, 1.1448922157287598, -1.3958860635757446, -1.7490038871765137, 1.1717745065689087, -0.708740234375, 0.4365234375, 0.241455078125, 
174, 3600407202, 0.7000738382339478, -0.48696914315223694, -0.45768603682518005, -0.2515966594219208, 8.688380241394043, -4.403329849243164, 1.153111457824707, -1.7867079973220825, -1.5657598972320557, 1.5012246370315552, -0.71630859375, 0.438720703125, 0.2412109375, 
175, 3600415535, 0.7000234723091125, -0.4871217906475067, -0.45763498544692993, -0.25153449177742004, 8.681952476501465, -4.390251159667969, 1.2013500928878784, -2.070513963699341, -1.543552279472351, 1.6453304290771484, -0.7197265625, 0.437255859375, 0.2421875, 
176, 3600423868, 0.6999738216400146, -0.48729878664016724, -0.4575648605823517, -0.2514575719833374, 8.716967582702637, -4.4154582023620605, 1.1817041635513306, -2.2904632091522217, -1.4410182237625122, 2.0135347843170166, -0.71826171875, 0.435791015625, 0.2412109375, 
177, 3600432201, 0.6999257802963257, -0.4874914288520813, -0.4574711322784424, -0.2513882517814636, 8.72541332244873, -4.403731346130371, 1.1639747619628906, -2.435055732727051, -1.360897183418274, 2.272392749786377, -0.7158203125, 0.438232421875, 0.243896484375, 
178, 3600440534, 0.6998762488365173, -0.48770323395729065, -0.45736420154571533, -0.251309871673584, 8.743968963623047, -4.4248528480529785, 1.171355962753296, -2.7436046600341797, -1.2173805236816406, 2.49375057220459, -0.71826171875, 0.438720703125, 0.2431640625, 
179, 3600448867, 0.6998345255851746, -0.4879206717014313, -0.4572461247444153, -0.2512190043926239, 8.771160125732422, -4.4202470779418945, 1.1480739116668701, -2.7707560062408447, -1.2179185152053833, 2.796177864074707, -0.71484375, 0.439697265625, 0.242919921875, 
180, 3600457200, 0.699795126914978, -0.488149493932724, -0.4571104049682617, -0.2511313259601593, 8.799886703491211, -4.464229583740234, 1.1378897428512573, -2.879488468170166, -0.9983533024787903, 2.9187166690826416, -0.716796875, 0.438232421875, 0.24169921875, 
181, 3600465533, 0.6997668743133545, -0.4883763790130615, -0.45695486664772034, -0.2510516941547394, 8.823258399963379, -4.4720683097839355, 1.0940486192703247, -2.856102466583252, -0.7903912663459778, 3.059645891189575, -0.7138671875, 0.44091796875, 0.242431640625, 
182, 3600473866, 0.6997426152229309, -0.488602876663208, -0.4567950963973999, -0.25096943974494934, 8.845780372619629, -4.462847709655762, 1.0990281105041504, -2.8738021850585938, -0.6267163753509521, 3.0651021003723145, -0.7138671875, 0.43994140625, 0.242919921875, 
183, 3600482199, 0.6997168660163879, -0.48882728815078735, -0.45662567019462585, -0.2509126663208008, 8.841224670410156, -4.451977729797363, 1.0856505632400513, -2.8492376804351807, -0.5607852339744568, 2.947096824645996, -0.71435546875, 0.438232421875, 0.243408203125, 
184, 3600490532, 0.6996959447860718, -0.48903515934944153, -0.45647862553596497, -0.250833660364151, 8.786832809448242, -4.4287495613098145, 1.106684684753418, -2.649369478225708, -0.6413931250572205, 2.8426928520202637, -0.71533203125, 0.440673828125, 0.243896484375, 
185, 3600498865, 0.6996908783912659, -0.48920127749443054, -0.45635342597961426, -0.25075146555900574, 8.790221214294434, -4.41612434387207, 1.0872763395309448, -2.0820913314819336, -0.6998704671859741, 2.5704398155212402, -0.712890625, 0.44140625, 0.243896484375, 
186, 3600507198, 0.6996956467628479, -0.48933276534080505, -0.4562583863735199, -0.25065404176712036, 8.742773056030273, -4.43834924697876, 1.118528127670288, -1.4461411237716675, -0.8423112630844116, 2.2808446884155273, -0.71337890625, 0.4384765625, 0.242431640625, 
187, 3600515531, 0.699718713760376, -0.4894108772277832, -0.4562036991119385, -0.25053641200065613, 8.694622993469238, -4.4210076332092285, 1.129286289215088, -0.6261271238327026, -1.1142833232879639, 1.9784437417984009, -0.712890625, 0.44189453125, 0.242919921875, 
188, 3600523864, 0.6997420191764832, -0.48946046829223633, -0.45618075132369995, -0.2504165470600128, 8.688066482543945, -4.3627190589904785, 1.1120622158050537, -0.14309391379356384, -1.2880245447158813, 1.5596762895584106, -0.712890625, 0.4404296875, 0.242919921875, 
189, 3600532197, 0.6997742652893066, -0.48948052525520325, -0.4561811685562134, -0.25028640031814575, 8.664124488830566, -4.329103946685791, 1.1100685596466064, 0.3615705966949463, -1.523393988609314, 1.407604694366455, -0.71240234375, 0.43994140625, 0.243408203125, 
190, 3600540530, 0.6998041868209839, -0.48947873711586, -0.45620590448379517, -0.25016123056411743, 8.691676139831543, -4.318270683288574, 1.0916712284088135, 0.591842532157898, -1.5631216764450073, 0.9908609986305237, -0.71337890625, 0.44140625, 0.243408203125, 
191, 3600548863, 0.699836015701294, -0.48945215344429016, -0.4562501013278961, -0.2500438392162323, 8.679033279418945, -4.331574440002441, 1.1072924137115479, 0.7493957281112671, -1.6349183320999146, 0.6818765997886658, -0.7138671875, 0.44140625, 0.243896484375, 
192, 3600557196, 0.6998623609542847, -0.4894236922264099, -0.45629191398620605, -0.2499493956565857, 8.662528038024902, -4.3185296058654785, 1.077797532081604, 0.6909695863723755, -1.4522629976272583, 0.3994539976119995, -0.71240234375, 0.44091796875, 0.243896484375, 
193, 3600565529, 0.6998825669288635, -0.48938924074172974, -0.4563322067260742, -0.24988654255867004, 8.646400451660156, -4.31425142288208, 1.06759774684906, 0.49817121028900146, -1.3312357664108276, 0.10875803977251053, -0.71435546875, 0.4404296875, 0.243896484375, 
194, 3600573862, 0.6998987197875977, -0.4893554449081421, -0.45636317133903503, -0.2498510181903839, 8.70318603515625, -4.311233043670654, 1.0975394248962402, 0.26638802886009216, -0.9964320659637451, -0.1622021347284317, -0.715087890625, 0.44140625, 0.243896484375, 
195, 3600582195, 0.6999015808105469, -0.4893278479576111, -0.45638197660446167, -0.2498626708984375, 8.696927070617676, -4.3194804191589355, 1.1015664339065552, -0.10702909529209137, -0.8182852268218994, -0.46388664841651917, -0.71240234375, 0.44091796875, 0.243408203125, 
196, 3600590528, 0.6998978853225708, -0.4893040955066681, -0.4563983678817749, -0.2498898059129715, 8.682629585266113, -4.337240695953369, 1.099785327911377, -0.4072535037994385, -0.5934945940971375, -0.672412097454071, -0.71240234375, 0.44140625, 0.245849609375, 
197, 3600598861, 0.6998989582061768, -0.48927491903305054, -0.4563918709754944, -0.24995562434196472, 8.643317222595215, -4.354128360748291, 1.1451990604400635, -0.6045600175857544, -0.17603382468223572, -0.8392632007598877, -0.712890625, 0.4404296875, 0.244873046875, 
198, 3600607194, 0.6998999118804932, -0.4892358183860779, -0.45638594031333923, -0.2500401735305786, 8.657651901245117, -4.362304210662842, 1.1469372510910034, -0.6647789478302002, 0.08795927464962006, -1.1541389226913452, -0.71484375, 0.442138671875, 0.246337890625, 
199, 3600615527, 0.6999011039733887, -0.48918232321739197, -0.45638400316238403, -0.2501450479030609, 8.642858505249023, -4.3575119972229, 1.1280748844146729, -0.7730504870414734, 0.21498028934001923, -1.417197346687317, -0.71240234375, 0.43994140625, 0.243896484375, 
200, 3600623860, 0.6998985409736633, -0.48913365602493286, -0.4563683569431305, -0.2502758502960205, 8.671162605285645, -4.352700710296631, 1.114911675453186, -0.9208444952964783, 0.5049846172332764, -1.6061021089553833, -0.71337890625, 0.439697265625, 0.246337890625, 
201, 3600632193, 0.6999022364616394, -0.4890688955783844, -0.4563482403755188, -0.25042861700057983, 8.674976348876953, -4.357461452484131, 1.0780054330825806, -0.9509924650192261, 0.7348979711532593, -1.8108110427856445, -0.7109375, 0.44189453125, 0.242431640625, 
202, 3600640526, 0.6999002695083618, -0.48901334404945374, -0.4563206732273102, -0.2505929470062256, 8.712615966796875, -4.395671367645264, 1.0554128885269165, -1.1004258394241333, 0.8721391558647156, -1.8908556699752808, -0.712890625, 0.4423828125, 0.243408203125, 
203, 3600648859, 0.6998978853225708, -0.48894622921943665, -0.4562903642654419, -0.2507858872413635, 8.722670555114746, -4.411224365234375, 1.0627163648605347, -1.0677422285079956, 0.9730592966079712, -2.138340473175049, -0.7158203125, 0.440185546875, 0.243408203125, 
204, 3600657192, 0.6998885273933411, -0.48886269330978394, -0.45628032088279724, -0.2509932518005371, 8.732422828674316, -4.421090602874756, 1.0312511920928955, -1.090590238571167, 1.0433958768844604, -2.6254208087921143, -0.7138671875, 0.440673828125, 0.245361328125, 
205, 3600665525, 0.6998775005340576, -0.488768994808197, -0.4562778174877167, -0.25121045112609863, 8.739590644836426, -4.437571048736572, 1.0225855112075806, -1.0441770553588867, 0.967552125453949, -2.769731283187866, -0.712890625, 0.43896484375, 0.243408203125, 
206, 3600673858, 0.6998597979545593, -0.4886654019355774, -0.4562978148460388, -0.2514249086380005, 8.756921768188477, -4.440744876861572, 1.001169204711914, -0.8945900201797485, 0.818835973739624, -3.0482091903686523, -0.71240234375, 0.44140625, 0.242919921875, 
207, 3600682191, 0.699847400188446, -0.4885282814502716, -0.4563468396663666, -0.25163689255714417, 8.744513511657715, -4.468978404998779, 1.0101566314697266, -0.5279478430747986, 0.6330558061599731, -3.356015920639038, -0.71435546875, 0.439208984375, 0.244384765625, 
208, 3600690524, 0.6998358368873596, -0.4883754551410675, -0.4564225971698761, -0.2518281936645508, 8.71060562133789, -4.468151569366455, 1.0248419046401978, -0.04181523621082306, 0.3360331356525421, -3.487877368927002, -0.7119140625, 0.4404296875, 0.243896484375, 
209, 3600698857, 0.6998218894004822, -0.4882001280784607, -0.45653587579727173, -0.25200140476226807, 8.709101676940918, -4.48291540145874, 1.0343961715698242, 0.27494317293167114, -0.11010278761386871, -3.664769172668457, -0.71435546875, 0.4384765625, 0.240966796875, 
210, 3600707190, 0.6998082399368286, -0.4880146384239197, -0.45667406916618347, -0.2521480917930603, 8.704913139343262, -4.486122131347656, 1.0377503633499146, 0.7552356123924255, -0.46432197093963623, -3.6892051696777344, -0.71533203125, 0.441162109375, 0.245361328125, 
211, 3600715523, 0.6998032927513123, -0.48780879378318787, -0.4568308889865875, -0.2522762715816498, 8.718525886535645, -4.469354629516602, 1.0169410705566406, 1.14106285572052, -0.7079902291297913, -3.6741185188293457, -0.7158203125, 0.440185546875, 0.243408203125, 
212, 3600723856, 0.6997970342636108, -0.4876096546649933, -0.45699214935302734, -0.25238680839538574, 8.701128959655762, -4.49430513381958, 1.0132888555526733, 1.2417010068893433, -0.8371115326881409, -3.555933952331543, -0.712890625, 0.436767578125, 0.244384765625, 
213, 3600732189, 0.6997991800308228, -0.4874013066291809, -0.4571639597415924, -0.2524716556072235, 8.692115783691406, -4.477547645568848, 1.005589246749878, 1.3928508758544922, -1.014669418334961, -3.3679258823394775, -0.71484375, 0.437255859375, 0.241943359375, 
214, 3600740522, 0.6997929811477661, -0.4872179925441742, -0.45732778310775757, -0.25254589319229126, 8.695280075073242, -4.483198642730713, 0.9748201370239258, 1.3276114463806152, -1.158544659614563, -3.1244630813598633, -0.7158203125, 0.437255859375, 0.24072265625, 
215, 3600748855, 0.6997871398925781, -0.48703569173812866, -0.45749253034591675, -0.25261539220809937, 8.705531120300293, -4.489848613739014, 0.9766722917556763, 1.2697490453720093, -1.2438400983810425, -3.0234146118164062, -0.71435546875, 0.438232421875, 0.242431640625, 
216, 3600757188, 0.699776828289032, -0.48687201738357544, -0.4576500654220581, -0.2526742219924927, 8.725581169128418, -4.5002031326293945, 0.9794272184371948, 1.1865026950836182, -1.2950173616409302, -2.8265950679779053, -0.7138671875, 0.435791015625, 0.242431640625, 
217, 3600765521, 0.6997713446617126, -0.4867003858089447, -0.45780616998672485, -0.2527373135089874, 8.703981399536133, -4.516887187957764, 1.0510752201080322, 1.3048149347305298, -1.3018052577972412, -2.8222663402557373, -0.71435546875, 0.437255859375, 0.241455078125, 
218, 3600773854, 0.6997765302658081, -0.48652324080467224, -0.45796582102775574, -0.25277507305145264, 8.653068542480469, -4.530654430389404, 1.0855892896652222, 1.560060739517212, -1.312665581703186, -2.6675305366516113, -0.71533203125, 0.436767578125, 0.24267578125, 
219, 3600782187, 0.6997898817062378, -0.48633909225463867, -0.45811769366264343, -0.25281673669815063, 8.624364852905273, -4.5206217765808105, 1.0905553102493286, 1.590208649635315, -1.1991944313049316, -2.6134331226348877, -0.716796875, 0.435302734375, 0.2392578125, 
220, 3600790520, 0.6998019218444824, -0.48617154359817505, -0.4582598805427551, -0.2528483271598816, 8.613680839538574, -4.4966535568237305, 1.089802622795105, 1.4919523000717163, -1.1759111881256104, -2.4063422679901123, -0.7138671875, 0.4375, 0.241455078125, 
221, 3600798853, 0.699817419052124, -0.48601260781288147, -0.4583882987499237, -0.25287801027297974, 8.594247817993164, -4.479848861694336, 1.0711907148361206, 1.3301985263824463, -1.1149237155914307, -2.1811418533325195, -0.716796875, 0.437255859375, 0.2412109375, 
222, 3600807186, 0.6998311877250671, -0.4858763515949249, -0.4585023820400238, -0.25289520621299744, 8.596556663513184, -4.469669818878174, 1.0539402961730957, 1.1943917274475098, -1.100707769393921, -1.8772547245025635, -0.718994140625, 0.440185546875, 0.2412109375, 
223, 3600815519, 0.6998410224914551, -0.4857664406299591, -0.4586051404476166, -0.25289231538772583, 8.654534339904785, -4.518678665161133, 1.0561330318450928, 1.0098155736923218, -1.3284951448440552, -1.3987804651260376, -0.71533203125, 0.434814453125, 0.24169921875, 
224, 3600823852, 0.699846625328064, -0.4856953024864197, -0.4586896002292633, -0.2528602182865143, 8.723734855651855, -4.5332489013671875, 1.1174992322921753, 0.7213993072509766, -1.4212698936462402, -0.8223577737808228, -0.716796875, 0.436767578125, 0.24169921875, 
225, 3600832185, 0.6998608112335205, -0.48564016819000244, -0.45875173807144165, -0.25281399488449097, 8.766973495483398, -4.568914890289307, 1.1715424060821533, 0.6503454446792603, -1.3935296535491943, -0.35156819224357605, -0.7109375, 0.435546875, 0.240966796875, 
226, 3600840518, 0.6998842358589172, -0.4856036901473999, -0.45879316329956055, -0.2527443766593933, 8.77942180633545, -4.5649800300598145, 1.2415977716445923, 0.5948393940925598, -1.2664061784744263, 0.10532572865486145, -0.716796875, 0.436279296875, 0.24267578125, 
227, 3600848851, 0.6999285817146301, -0.4855674207210541, -0.4588128626346588, -0.2526554465293884, 8.791781425476074, -4.550296306610107, 1.2403031587600708, 0.7151750326156616, -1.1079308986663818, 0.5560850501060486, -0.71435546875, 0.437744140625, 0.242431640625, 
228, 3600857184, 0.6999867558479309, -0.48553532361984253, -0.4588214159011841, -0.25254058837890625, 8.758910179138184, -4.53087854385376, 1.2137736082077026, 0.9550779461860657, -1.047122597694397, 0.908511221408844, -0.71484375, 0.436767578125, 0.24072265625, 
229, 3600865517, 0.7000657320022583, -0.48548734188079834, -0.45882657170295715, -0.25240471959114075, 8.715024948120117, -4.546798229217529, 1.224053144454956, 1.3618319034576416, -1.0532701015472412, 1.1558421850204468, -0.71142578125, 0.435546875, 0.240966796875, 
230, 3600873850, 0.7001724243164062, -0.4854171872138977, -0.45882225036621094, -0.2522515654563904, 8.756277084350586, -4.531231880187988, 1.196334719657898, 1.8440966606140137, -0.741339921951294, 1.2924941778182983, -0.71484375, 0.4375, 0.24072265625, 
231, 3600882183, 0.7002943754196167, -0.4853193163871765, -0.4588361978530884, -0.2520753741264343, 8.73045539855957, -4.475701332092285, 1.1765562295913696, 2.347109317779541, -0.9305779337882996, 1.3099377155303955, -0.71337890625, 0.436767578125, 0.241455078125, 
232, 3600890516, 0.7004260420799255, -0.48520001769065857, -0.4588581323623657, -0.2518994212150574, 8.729924201965332, -4.416064262390137, 1.1636521816253662, 2.7167739868164062, -0.8182851672172546, 1.1135532855987549, -0.71240234375, 0.4384765625, 0.242919921875, 
233, 3600898849, 0.7005655169487, -0.4850625693798065, -0.4588746130466461, -0.25174614787101746, 8.730594635009766, -4.400768280029297, 1.1893489360809326, 2.858856201171875, -0.6307121515274048, 0.9004428386688232, -0.71337890625, 0.43896484375, 0.239990234375, 
234, 3600907182, 0.700706958770752, -0.484912246465683, -0.45889586210250854, -0.25160348415374756, 8.747079849243164, -4.370594024658203, 1.2141464948654175, 2.868077039718628, -0.42093151807785034, 0.6349000930786133, -0.71728515625, 0.437744140625, 0.24072265625, 
235, 3600915515, 0.7008512020111084, -0.48473691940307617, -0.4589231610298157, -0.2514895498752594, 8.750326156616211, -4.37364387512207, 1.249401330947876, 2.811187982559204, -0.1953725963830948, 0.19971421360969543, -0.71337890625, 0.43701171875, 0.23779296875, 
236, 3600923848, 0.700984537601471, -0.4845615029335022, -0.45895129442214966, -0.2514045536518097, 8.749863624572754, -4.352769374847412, 1.2232924699783325, 2.7172091007232666, -0.06776245683431625, -0.15244311094284058, -0.71337890625, 0.4384765625, 0.241455078125, 
237, 3600932181, 0.7011135220527649, -0.484378844499588, -0.45898064970970154, -0.2513432204723358, 8.687087059020996, -4.316900730133057, 1.2222346067428589, 2.431431293487549, 0.07768797874450684, -0.4247737228870392, -0.71044921875, 0.43798828125, 0.238037109375, 
238, 3600940514, 0.7012292146682739, -0.48421788215637207, -0.4590024948120117, -0.2512907385826111, 8.669355392456055, -4.3287458419799805, 1.223789930343628, 2.2324342727661133, 0.049409858882427216, -0.3949587047100067, -0.71044921875, 0.43798828125, 0.237548828125, 
239, 3600948847, 0.7013394236564636, -0.48406776785850525, -0.4590146839618683, -0.25125014781951904, 8.66225528717041, -4.300494194030762, 1.193307876586914, 1.8932249546051025, 0.1015092134475708, -0.35710081458091736, -0.71533203125, 0.43896484375, 0.23876953125, 
240, 3600957180, 0.7014405727386475, -0.4839460849761963, -0.4590134620666504, -0.25120478868484497, 8.621929168701172, -4.274052143096924, 1.1668217182159424, 1.6314729452133179, 0.09190387278795242, -0.11212630569934845, -0.712890625, 0.44091796875, 0.237548828125, 
241, 3600965513, 0.7015420198440552, -0.48383480310440063, -0.4589988589286804, -0.25116199254989624, 8.5785551071167, -4.272336006164551, 1.17649245262146, 1.2794054746627808, 0.2060409039258957, 0.044312622398138046, -0.715576171875, 0.4404296875, 0.23779296875, 
242, 3600973846, 0.7016305923461914, -0.4837545156478882, -0.4589705467224121, -0.2511211931705475, 8.606865882873535, -4.291197776794434, 1.1315797567367554, 1.0272077322006226, 0.16088300943374634, 0.2430022656917572, -0.71630859375, 0.4375, 0.2373046875, 
243, 3600982179, 0.7017350196838379, -0.4836580157279968, -0.4589369595050812, -0.25107675790786743, 8.628567695617676, -4.3114190101623535, 1.1490899324417114, 0.9351756572723389, 0.42939701676368713, 0.2709217369556427, -0.7158203125, 0.43896484375, 0.23583984375, 
244, 3600990512, 0.7018333673477173, -0.4835824966430664, -0.4588775336742401, -0.2510562241077423, 8.641764640808105, -4.297321319580078, 1.1185829639434814, 0.8111259341239929, 0.6417133808135986, 0.3159515857696533, -0.71337890625, 0.43994140625, 0.236083984375, 
245, 3600998845, 0.7019306421279907, -0.48351097106933594, -0.45880478620529175, -0.2510548233985901, 8.653702735900879, -4.286949157714844, 1.102760910987854, 0.5319308042526245, 0.8134824633598328, 0.2866232693195343, -0.716552734375, 0.43896484375, 0.2353515625, 
246, 3601007178, 0.7020127773284912, -0.4834573268890381, -0.45873120427131653, -0.25106281042099, 8.669795989990234, -4.258066177368164, 1.073470115661621, 0.2631606161594391, 0.789456307888031, 0.21928343176841736, -0.716552734375, 0.44091796875, 0.23681640625, 
247, 3601015511, 0.7020923495292664, -0.48340731859207153, -0.4586459696292877, -0.2510923743247986, 8.682785987854004, -4.27477502822876, 1.0762238502502441, -0.006493208464235067, 0.9440895915031433, 0.14738430082798004, -0.71337890625, 0.4404296875, 0.236572265625, 
248, 3601023844, 0.7021510601043701, -0.48337581753730774, -0.45856142044067383, -0.2511434853076935, 8.72932243347168, -4.307313442230225, 1.0717891454696655, -0.41591107845306396, 0.9572808146476746, -0.06476558744907379, -0.71484375, 0.43994140625, 0.23681640625, 
249, 3601032177, 0.7022092938423157, -0.4833360016345978, -0.4584762454032898, -0.25121286511421204, 8.786489486694336, -4.328921318054199, 1.0505595207214355, -0.5125023722648621, 1.0462646484375, -0.24731823801994324, -0.712646484375, 0.441162109375, 0.235595703125, 
250, 3601040510, 0.7022515535354614, -0.4833006262779236, -0.4584060311317444, -0.2512904703617096, 8.756811141967773, -4.366596221923828, 1.0430346727371216, -0.6074030995368958, 0.9048740267753601, -0.4972619414329529, -0.717041015625, 0.439453125, 0.23486328125, 
251, 3601048843, 0.7022911906242371, -0.4832593500614166, -0.45833930373191833, -0.2513810396194458, 8.766303062438965, -4.354608058929443, 1.0469974279403687, -0.5554062128067017, 0.8294657468795776, -0.6284324526786804, -0.70751953125, 0.440185546875, 0.233154296875, 
252, 3601057176, 0.7023263573646545, -0.48320966958999634, -0.45829570293426514, -0.25145775079727173, 8.758370399475098, -4.389671325683594, 1.0278205871582031, -0.4176529049873352, 0.6481938362121582, -0.7823226451873779, -0.714111328125, 0.44140625, 0.236572265625, 
253, 3601065509, 0.7023582458496094, -0.4831458032131195, -0.4582735598087311, -0.25153154134750366, 8.790579795837402, -4.395750999450684, 1.0322840213775635, -0.2609706521034241, 0.38485386967658997, -0.9497373700141907, -0.715087890625, 0.43994140625, 0.2353515625, 
254, 3601073842, 0.7023797631263733, -0.4830806851387024, -0.4582744240760803, -0.2515951693058014, 8.745437622070312, -4.412874698638916, 0.9899248480796814, -0.12314042448997498, 0.09810251742601395, -1.0948163270950317, -0.714599609375, 0.4423828125, 0.236083984375, 
255, 3601082175, 0.7023977041244507, -0.48301440477371216, -0.45828014612197876, -0.2516615688800812, 8.724172592163086, -4.413948059082031, 0.9703689813613892, 0.05035758391022682, -0.13033802807331085, -1.0962252616882324, -0.7158203125, 0.43896484375, 0.2353515625, 
256, 3601090508, 0.7024130821228027, -0.48294928669929504, -0.45831066370010376, -0.2516881227493286, 8.750967025756836, -4.402453422546387, 0.9777507185935974, 0.17240943014621735, -0.4744909107685089, -0.9539380669593811, -0.716552734375, 0.44189453125, 0.234375, 
257, 3601098841, 0.7024292349815369, -0.4828854203224182, -0.458342045545578, -0.2517085075378418, 8.747969627380371, -4.427438259124756, 1.0168625116348267, 0.2775046229362488, -0.6424177885055542, -0.8288381695747375, -0.713623046875, 0.441650390625, 0.22998046875, 
258, 3601107174, 0.7024467587471008, -0.4828220009803772, -0.45837897062301636, -0.2517140507698059, 8.734694480895996, -4.417681694030762, 1.025588870048523, 0.3245067298412323, -0.6662902235984802, -0.7766619920730591, -0.715576171875, 0.44091796875, 0.2353515625, 
259, 3601115507, 0.7024633884429932, -0.4827668368816376, -0.4584140181541443, -0.2517092823982239, 8.692971229553223, -4.413440227508545, 1.0483635663986206, 0.24671630561351776, -0.8073734641075134, -0.5692891478538513, -0.716064453125, 0.43896484375, 0.23388671875, 
260, 3601123840, 0.7024729251861572, -0.4827260673046112, -0.4584508240222931, -0.2516940236091614, 8.665140151977539, -4.402231693267822, 1.0419975519180298, 0.1839614361524582, -0.9342151284217834, -0.45976272225379944, -0.716796875, 0.43701171875, 0.23583984375, 
261, 3601132173, 0.7024750113487244, -0.4826999008655548, -0.4584827721118927, -0.25168007612228394, 8.651105880737305, -4.3800506591796875, 1.0643715858459473, 0.15929493308067322, -1.1511164903640747, -0.2975221276283264, -0.716552734375, 0.439453125, 0.234375, 
262, 3601140506, 0.702481746673584, -0.482666939496994, -0.4585273861885071, -0.25164318084716797, 8.631807327270508, -4.374292373657227, 1.0611170530319214, 0.25255635380744934, -1.1970171928405762, -0.26263555884361267, -0.7138671875, 0.439697265625, 0.23291015625, 
263, 3601148839, 0.7024899125099182, -0.4826352894306183, -0.45856237411499023, -0.251617431640625, 8.582317352294922, -4.379385471343994, 1.073248267173767, 0.3050655126571655, -1.185209035873413, -0.22213944792747498, -0.716064453125, 0.43994140625, 0.2353515625, 
264, 3601157172, 0.7025010585784912, -0.48259857296943665, -0.45861345529556274, -0.2515637278556824, 8.554312705993652, -4.373727321624756, 1.0554590225219727, 0.4489406645298004, -1.3292121887207031, -0.15190520882606506, -0.7119140625, 0.43896484375, 0.235595703125, 
265, 3601165505, 0.7025228142738342, -0.4825482666492462, -0.4586677551269531, -0.25150036811828613, 8.539514541625977, -4.376488208770752, 1.0731481313705444, 0.633952260017395, -1.3455028533935547, -0.09050789475440979, -0.713623046875, 0.441162109375, 0.235107421875, 
266, 3601173838, 0.7025446891784668, -0.4825001060962677, -0.45872026681900024, -0.25143611431121826, 8.57512092590332, -4.3593645095825195, 1.0889917612075806, 0.6997039914131165, -1.3063386678695679, -0.09411949664354324, -0.715576171875, 0.4404296875, 0.23291015625, 
267, 3601182171, 0.7025684118270874, -0.48243966698646545, -0.45877063274383545, -0.2513939440250397, 8.595664024353027, -4.357762336730957, 1.0847214460372925, 0.7202466726303101, -1.1808545589447021, -0.3116099238395691, -0.71337890625, 0.4384765625, 0.2333984375, 
268, 3601190504, 0.7025887966156006, -0.48239049315452576, -0.4588173031806946, -0.2513463497161865, 8.59492015838623, -4.340924263000488, 1.0955795049667358, 0.5752700567245483, -1.1440213918685913, -0.22810758650302887, -0.716552734375, 0.43994140625, 0.2353515625, 
269, 3601198837, 0.7026039361953735, -0.48234304785728455, -0.4588572382926941, -0.2513220012187958, 8.630541801452637, -4.34799861907959, 1.1089481115341187, 0.2930268347263336, -1.0099307298660278, -0.3754918575286865, -0.71240234375, 0.438720703125, 0.23486328125, 
270, 3601207170, 0.7026036977767944, -0.4823085367679596, -0.4588967263698578, -0.25131672620773315, 8.696998596191406, -4.334494113922119, 1.0956796407699585, 0.0034066932275891304, -0.9761713147163391, -0.5680084824562073, -0.71435546875, 0.439453125, 0.234375, 
271, 3601215503, 0.7025923728942871, -0.48228365182876587, -0.45892518758773804, -0.25134408473968506, 8.694552421569824, -4.360322952270508, 1.0891705751419067, -0.42426130175590515, -0.8224602341651917, -0.7419546842575073, -0.713623046875, 0.441162109375, 0.234619140625, 
272, 3601223836, 0.7025725841522217, -0.48227161169052124, -0.45894938707351685, -0.2513785660266876, 8.663294792175293, -4.363369941711426, 1.0854439735412598, -0.6458756327629089, -0.765442967414856, -0.7777121067047119, -0.715576171875, 0.43994140625, 0.236328125, 
273, 3601232169, 0.7025472521781921, -0.4822648763656616, -0.45897698402404785, -0.2514118254184723, 8.674824714660645, -4.39210319519043, 1.0978684425354004, -0.8211026787757874, -0.8792470097541809, -0.7400592565536499, -0.70654296875, 0.438720703125, 0.236572265625, 
274, 3601240502, 0.7025100588798523, -0.48227426409721375, -0.4590069651603699, -0.2514428496360779, 8.662164688110352, -4.374549865722656, 1.0829476118087769, -0.9267870187759399, -1.028680443763733, -0.7061203122138977, -0.7138671875, 0.43701171875, 0.23583984375, 
275, 3601248835, 0.7024667263031006, -0.482292115688324, -0.4590393900871277, -0.251470148563385, 8.665032386779785, -4.403018474578857, 1.0977182388305664, -0.926838219165802, -1.264203429222107, -0.5947497487068176, -0.715087890625, 0.44091796875, 0.23486328125, 
276, 3601257168, 0.7024262547492981, -0.48232388496398926, -0.45907047390937805, -0.25146564841270447, 8.673101425170898, -4.4213080406188965, 1.1207717657089233, -0.9344200491905212, -1.3722184896469116, -0.24206732213497162, -0.716064453125, 0.44140625, 0.23681640625, 
277, 3601265501, 0.7023882269859314, -0.48235973715782166, -0.4591030180454254, -0.2514435648918152, 8.649349212646484, -4.434704780578613, 1.12617027759552, -0.999659538269043, -1.4971903562545776, -0.019607696682214737, -0.71044921875, 0.440185546875, 0.234130859375, 
278, 3601273834, 0.7023445963859558, -0.4824030101299286, -0.4591505527496338, -0.251395583152771, 8.666308403015137, -4.429505825042725, 1.0805531740188599, -0.735986590385437, -1.8794316053390503, 0.13119609653949738, -0.71435546875, 0.43798828125, 0.23583984375, 
279, 3601282167, 0.7023128271102905, -0.4824433922767639, -0.45919620990753174, -0.251323938369751, 8.640885353088379, -4.465144157409668, 1.1338021755218506, -0.593417763710022, -1.9528419971466064, 0.42670753598213196, -0.7119140625, 0.441162109375, 0.234130859375, 
280, 3601290500, 0.7022812962532043, -0.48249879479408264, -0.4592423439025879, -0.25122150778770447, 8.664583206176758, -4.451624870300293, 1.1136144399642944, -0.4343022108078003, -2.1926937103271484, 0.7856910824775696, -0.714599609375, 0.4404296875, 0.236328125, 
281, 3601298833, 0.7022528052330017, -0.48255378007888794, -0.459286093711853, -0.25111517310142517, 8.678340911865234, -4.4409403800964355, 1.1161518096923828, -0.29611337184906006, -2.2986857891082764, 0.9033372402191162, -0.712646484375, 0.440673828125, 0.234130859375, 
282, 3601307166, 0.702229380607605, -0.4826105237007141, -0.4593334197998047, -0.25098544359207153, 8.65332317352295, -4.399850368499756, 1.1258232593536377, -0.2151723951101303, -2.3384644985198975, 1.0778727531433105, -0.716796875, 0.43798828125, 0.23583984375, 
283, 3601315499, 0.7022080421447754, -0.4826725423336029, -0.45935890078544617, -0.25087881088256836, 8.644901275634766, -4.415140628814697, 1.1583901643753052, -0.18904589116573334, -2.1966640949249268, 1.119290828704834, -0.71337890625, 0.439208984375, 0.23388671875, 
284, 3601323832, 0.7021936178207397, -0.4827328324317932, -0.45938989520072937, -0.2507465183734894, 8.651423454284668, -4.4220733642578125, 1.1422374248504639, -0.23194973170757294, -2.1542983055114746, 1.264370083808899, -0.70654296875, 0.438232421875, 0.233642578125, 
285, 3601332165, 0.7021813988685608, -0.48278653621673584, -0.4594108462333679, -0.25063884258270264, 8.637709617614746, -4.3982133865356445, 1.1365511417388916, -0.2355613261461258, -1.984040379524231, 1.1140398979187012, -0.712890625, 0.439453125, 0.238037109375, 
286, 3601340498, 0.7021674513816833, -0.4828435778617859, -0.4594293534755707, -0.2505342364311218, 8.661661148071289, -4.405126571655273, 1.149571180343628, -0.41450235247612, -1.8350167274475098, 1.060249924659729, -0.7119140625, 0.440673828125, 0.234619140625, 
287, 3601348831, 0.7021524906158447, -0.48290392756462097, -0.4594305157661438, -0.25045785307884216, 8.667109489440918, -4.386690139770508, 1.144189715385437, -0.6504606604576111, -1.5926034450531006, 0.966732382774353, -0.714111328125, 0.44189453125, 0.237060546875, 
288, 3601357164, 0.7021251320838928, -0.48297107219696045, -0.4594372510910034, -0.2503926753997803, 8.683083534240723, -4.380374431610107, 1.1429710388183594, -0.8911576271057129, -1.5790278911590576, 0.7761625647544861, -0.7119140625, 0.439453125, 0.236083984375, 
289, 3601365497, 0.7020988464355469, -0.48303383588790894, -0.4594341814517975, -0.25035083293914795, 8.729833602905273, -4.35387659072876, 1.126541018486023, -0.9633899927139282, -1.4101277589797974, 0.6387678384780884, -0.713623046875, 0.44140625, 0.235595703125, 
290, 3601373830, 0.7020684480667114, -0.4831082224845886, -0.45942026376724243, -0.25031790137290955, 8.737013816833496, -4.400358200073242, 1.1295239925384521, -1.2565447092056274, -1.2102084159851074, 0.6376664042472839, -0.70654296875, 0.439208984375, 0.236572265625, 
291, 3601382163, 0.7020301818847656, -0.4831848740577698, -0.4594023823738098, -0.25031036138534546, 8.762297630310059, -4.420019626617432, 1.1248987913131714, -1.4488050937652588, -1.1617463827133179, 0.45316705107688904, -0.71142578125, 0.439697265625, 0.236572265625, 
292, 3601390496, 0.7019950747489929, -0.4832705557346344, -0.4593721628189087, -0.25029903650283813, 8.773253440856934, -4.3972086906433105, 1.1353219747543335, -1.5885565280914307, -0.976658046245575, 0.5917912721633911, -0.712890625, 0.43994140625, 0.235595703125, 
293, 3601398829, 0.7019545435905457, -0.4833734929561615, -0.4593254029750824, -0.250299870967865, 8.756120681762695, -4.3972907066345215, 1.111562728881836, -1.6826632022857666, -1.0265289545059204, 0.7453486919403076, -0.713134765625, 0.441650390625, 0.236572265625, 
294, 3601407162, 0.7019155025482178, -0.483469694852829, -0.459303617477417, -0.2502632141113281, 8.754141807556152, -4.4016828536987305, 1.1276311874389648, -1.5264674425125122, -1.2891515493392944, 0.8346142172813416, -0.7138671875, 0.4404296875, 0.238037109375, 
295, 3601415495, 0.70188307762146, -0.48355844616889954, -0.45928701758384705, -0.25021329522132874, 8.71841049194336, -4.426013946533203, 1.1321749687194824, -1.2910213470458984, -1.441658616065979, 0.9456774592399597, -0.7109375, 0.440185546875, 0.235107421875, 
296, 3601423828, 0.7018536329269409, -0.48363611102104187, -0.45929157733917236, -0.2501372694969177, 8.718652725219727, -4.433713436126709, 1.137865424156189, -0.9464333653450012, -1.6798456907272339, 0.9543352723121643, -0.7099609375, 0.437744140625, 0.236572265625, 
297, 3601432161, 0.701830267906189, -0.48369544744491577, -0.45931366086006165, -0.2500477433204651, 8.720306396484375, -4.43355655670166, 1.1752243041992188, -0.6153692007064819, -1.8930330276489258, 0.9074099659919739, -0.7109375, 0.441650390625, 0.236083984375, 
298, 3601440494, 0.701815128326416, -0.48373597860336304, -0.4593539237976074, -0.24993793666362762, 8.735600471496582, -4.415499210357666, 1.1355479955673218, -0.15679755806922913, -2.031196117401123, 0.8572060465812683, -0.712890625, 0.44140625, 0.237060546875, 
299, 3601448827, 0.7018164992332458, -0.4837417006492615, -0.45941516757011414, -0.2498098611831665, 8.739636421203613, -4.400381565093994, 1.1433137655258179, 0.4251962900161743, -2.1780166625976562, 0.7638164162635803, -0.7119140625, 0.439453125, 0.238037109375, 
300, 3601457160, 0.701825737953186, -0.48372215032577515, -0.45949089527130127, -0.24968262016773224, 8.739056587219238, -4.403465747833252, 1.1512089967727661, 0.819117546081543, -2.1288373470306396, 0.49376559257507324, -0.7109375, 0.43994140625, 0.238525390625, 
301, 3601465493, 0.7018468379974365, -0.4836800694465637, -0.45957231521606445, -0.24955488741397858, 8.750133514404297, -4.3903350830078125, 1.1398018598556519, 1.1094038486480713, -2.0948219299316406, 0.3955606520175934, -0.71044921875, 0.43994140625, 0.239013671875, 
302, 3601473826, 0.7018717527389526, -0.48362675309181213, -0.4596560001373291, -0.24943456053733826, 8.790849685668945, -4.381653785705566, 1.1364696025848389, 1.231967806816101, -1.9442611932754517, 0.213904470205307, -0.71240234375, 0.44189453125, 0.238525390625, 
303, 3601482159, 0.7018972039222717, -0.48357075452804565, -0.45972469449043274, -0.24934446811676025, 8.783696174621582, -4.3560686111450195, 1.1319661140441895, 1.0468792915344238, -1.6742616891860962, 0.05076741427183151, -0.71044921875, 0.440185546875, 0.237548828125, 
304, 3601490492, 0.7019180655479431, -0.4835278391838074, -0.45977747440338135, -0.24927158653736115, 8.77316951751709, -4.351961135864258, 1.10542893409729, 0.698397696018219, -1.3925819396972656, 0.01488187164068222, -0.71142578125, 0.440673828125, 0.237060546875, 
305, 3601498825, 0.7019292712211609, -0.48349761962890625, -0.459808886051178, -0.24924057722091675, 8.789055824279785, -4.324294090270996, 1.0893350839614868, 0.10837382823228836, -1.0530140399932861, -0.1676323562860489, -0.70947265625, 0.442138671875, 0.239013671875, 
306, 3601507158, 0.7019274830818176, -0.48349303007125854, -0.45982658863067627, -0.24922195076942444, 8.774842262268066, -4.310560703277588, 1.0776829719543457, -0.2852528989315033, -0.9666939973831177, -0.11233122646808624, -0.70751953125, 0.442626953125, 0.238037109375, 
307, 3601515491, 0.7019195556640625, -0.48350095748901367, -0.459837406873703, -0.24920889735221863, 8.759958267211914, -4.34691858291626, 1.0939271450042725, -0.7783781290054321, -0.8807326555252075, -0.05395638570189476, -0.712158203125, 0.443603515625, 0.238525390625, 
308, 3601523824, 0.7018912434577942, -0.48353874683380127, -0.4598400890827179, -0.24921058118343353, 8.74814224243164, -4.323864936828613, 1.0993633270263672, -1.0504525899887085, -1.0004023313522339, -0.03123655915260315, -0.711181640625, 0.442626953125, 0.237060546875, 
309, 3601532157, 0.7018585801124573, -0.4835857152938843, -0.4598368704319, -0.24921704828739166, 8.721769332885742, -4.349822521209717, 1.1254855394363403, -1.1820329427719116, -1.0613898038864136, 0.05340568348765373, -0.7119140625, 0.4404296875, 0.237548828125, 
310, 3601540490, 0.7018277645111084, -0.4836373031139374, -0.4598442614078522, -0.24919021129608154, 8.70704174041748, -4.330231189727783, 1.1338257789611816, -1.0037833452224731, -1.2994228601455688, 0.2922840118408203, -0.7099609375, 0.440185546875, 0.237060546875, 
311, 3601548823, 0.7017979025840759, -0.48367834091186523, -0.4598689377307892, -0.2491491436958313, 8.669909477233887, -4.319572925567627, 1.1036615371704102, -0.8905172348022461, -1.517886757850647, 0.2757371962070465, -0.7099609375, 0.441162109375, 0.240478515625, 
312, 3601557156, 0.7017636299133301, -0.4837265908718109, -0.45990535616874695, -0.2490847408771515, 8.627032279968262, -4.31893253326416, 1.0947130918502808, -0.6569411754608154, -1.8383464813232422, 0.42924338579177856, -0.712890625, 0.44091796875, 0.240966796875, 
313, 3601565489, 0.7017409801483154, -0.48376044631004333, -0.4599493741989136, -0.24900145828723907, 8.617870330810547, -4.307761192321777, 1.0978198051452637, -0.19857434928417206, -2.038726568222046, 0.5652037262916565, -0.7099609375, 0.441162109375, 0.238037109375, 
314, 3601573822, 0.7017228603363037, -0.4837753176689148, -0.46001696586608887, -0.24889877438545227, 8.607654571533203, -4.285309791564941, 1.1018152236938477, 0.12051498144865036, -2.1771717071533203, 0.43446868658065796, -0.712646484375, 0.443359375, 0.239990234375, 
315, 3601582155, 0.701714038848877, -0.4837699234485626, -0.4600871801376343, -0.24880436062812805, 8.577733993530273, -4.236622333526611, 1.078037977218628, 0.3405412435531616, -2.0957183837890625, 0.28605973720550537, -0.70947265625, 0.44091796875, 0.241455078125, 
316, 3601590488, 0.7017072439193726, -0.4837547540664673, -0.46016108989715576, -0.24871641397476196, 8.579859733581543, -4.224487781524658, 1.085086464881897, 0.4144895672798157, -1.96657133102417, 0.09892218559980392, -0.711181640625, 0.442626953125, 0.238525390625, 
317, 3601598821, 0.7017124891281128, -0.4837070107460022, -0.46024927496910095, -0.24863103032112122, 8.585986137390137, -4.257373809814453, 1.0988706350326538, 0.6425331234931946, -1.8702106475830078, -0.1638927012681961, -0.70654296875, 0.440673828125, 0.239013671875, 
318, 3601607154, 0.7017039060592651, -0.4836570620536804, -0.46034756302833557, -0.2485707849264145, 8.569281578063965, -4.267046928405762, 1.0594338178634644, 0.6444797515869141, -1.9113725423812866, -0.5570198893547058, -0.711181640625, 0.442626953125, 0.239013671875, 
319, 3601615487, 0.7016884088516235, -0.48359349370002747, -0.4604519307613373, -0.24854452908039093, 8.579760551452637, -4.311298847198486, 1.0637685060501099, 0.47819212079048157, -1.7835575342178345, -0.9961503148078918, -0.7109375, 0.44091796875, 0.239013671875, 
320, 3601623820, 0.7016551494598389, -0.48353636264801025, -0.4605666399002075, -0.24853704869747162, 8.582676887512207, -4.406053066253662, 1.075373888015747, 0.2725098431110382, -1.8488483428955078, -1.3046482801437378, -0.71044921875, 0.442138671875, 0.238525390625, 
321, 3601632153, 0.7016029953956604, -0.4835078716278076, -0.46066269278526306, -0.24856232106685638, 8.630412101745605, -4.585752010345459, 1.171586275100708, -0.3833554685115814, -1.7494139671325684, -1.331594467163086, -0.7109375, 0.441162109375, 0.237060546875, 
322, 3601640486, 0.7015060782432556, -0.48357293009757996, -0.46070343255996704, -0.24863386154174805, 8.676329612731934, -4.72523832321167, 1.370658040046692, -2.082911252975464, -1.4308240413665771, -1.018870234489441, -0.711181640625, 0.442626953125, 0.237060546875, 
323, 3601648819, 0.7013775706291199, -0.4837228059768677, -0.46063894033432007, -0.24882382154464722, 8.641377449035645, -4.756719589233398, 1.373742938041687, -4.358095645904541, -0.12331974506378174, -1.0063449144363403, -0.70947265625, 0.442138671875, 0.239501953125, 
324, 3601657152, 0.7012227773666382, -0.48396575450897217, -0.4604647755622864, -0.24910995364189148, 8.590133666992188, -4.846364974975586, 1.3904920816421509, -6.278061389923096, 1.0949573516845703, -0.7314272522926331, -0.7109375, 0.4404296875, 0.239990234375, 
325, 3601665485, 0.7010142803192139, -0.484384149312973, -0.46012476086616516, -0.2495115101337433, 8.615720748901367, -5.182924270629883, 1.6424304246902466, -9.623435020446777, 2.441804885864258, 0.22491858899593353, -0.7119140625, 0.44189453125, 0.241455078125, 
326, 3601673818, 0.7007696032524109, -0.48499852418899536, -0.4595853090286255, -0.24999913573265076, 8.682601928710938, -5.529916286468506, 1.8944091796875, -12.98425579071045, 4.114978790283203, 1.8018079996109009, -0.70703125, 0.438720703125, 0.239990234375, 
327, 3601682151, 0.7004873156547546, -0.485811710357666, -0.458834707736969, -0.2505893409252167, 8.532768249511719, -5.734270095825195, 2.1154708862304688, -16.57608985900879, 5.849985122680664, 3.36922025680542, -0.7109375, 0.439453125, 0.239990234375, 
328, 3601690484, 0.7001676559448242, -0.4867785573005676, -0.45790109038352966, -0.2513129711151123, 8.314889907836914, -5.727206707000732, 2.2778878211975098, -19.72800064086914, 7.801713466644287, 4.128145217895508, -0.70654296875, 0.438232421875, 0.239990234375, 
329, 3601698817, 0.6998558640480042, -0.48789674043655396, -0.4567762315273285, -0.2520589232444763, 8.171561241149902, -5.791786193847656, 2.2184457778930664, -22.004470825195312, 9.253787994384766, 6.171753883361816, -0.7119140625, 0.43994140625, 0.241455078125, 
330, 3601707150, 0.6995564699172974, -0.4892365336418152, -0.45537054538726807, -0.25283563137054443, 8.03534984588623, -6.048386573791504, 2.086057662963867, -25.151391983032227, 11.537145614624023, 9.197514533996582, -0.71044921875, 0.439453125, 0.239501953125, 
331, 3601715483, 0.6993457078933716, -0.49074786901474, -0.4535869061946869, -0.25369423627853394, 7.8874287605285645, -6.876232147216797, 2.199842691421509, -28.036178588867188, 15.568757057189941, 12.320869445800781, -0.70947265625, 0.440185546875, 0.238525390625, 
332, 3601723816, 0.6992504596710205, -0.4923502504825592, -0.4515514373779297, -0.25448235869407654, 7.681726455688477, -7.733682155609131, 2.3472766876220703, -28.56465721130371, 18.033056259155273, 15.6805419921875, -0.7109375, 0.439453125, 0.239990234375, 
333, 3601732149, 0.6992806196212769, -0.4939815402030945, -0.4493435025215149, -0.25514549016952515, 7.5595293045043945, -8.261670112609863, 2.558058500289917, -27.740392684936523, 19.346302032470703, 18.631175994873047, -0.7119140625, 0.439453125, 0.239501953125, 
334, 3601740482, 0.6994389295578003, -0.49557244777679443, -0.44706860184669495, -0.2556220293045044, 7.560060977935791, -8.544758796691895, 2.7514092922210693, -25.645071029663086, 19.83135986328125, 21.118144989013672, -0.7109375, 0.442138671875, 0.236572265625, 
335, 3601748815, 0.6997469663619995, -0.49708202481269836, -0.444755494594574, -0.2558828592300415, 7.445184230804443, -8.793072700500488, 2.9945366382598877, -22.795530319213867, 19.860454559326172, 23.363618850708008, -0.710693359375, 0.447021484375, 0.237060546875, 
336, 3601757148, 0.700263500213623, -0.4984356462955475, -0.442462295293808, -0.2558121681213379, 7.337411403656006, -9.040822982788086, 3.622255802154541, -17.629518508911133, 19.30229377746582, 26.313560485839844, -0.712158203125, 0.447021484375, 0.235107421875, 
337, 3601765481, 0.7010353207588196, -0.49970611929893494, -0.4400295317173004, -0.25541552901268005, 7.322657108306885, -9.239494323730469, 4.074131011962891, -13.504650115966797, 20.03353500366211, 30.659589767456055, -0.712890625, 0.44970703125, 0.232177734375, 
338, 3601773814, 0.7020385265350342, -0.5009338855743408, -0.43737074732780457, -0.25482073426246643, 7.3553147315979, -9.55169677734375, 4.073570251464844, -11.177928924560547, 22.624780654907227, 34.819278717041016, -0.71240234375, 0.45361328125, 0.229736328125, 
339, 3601782147, 0.7033069133758545, -0.5021075010299683, -0.4344494044780731, -0.254009485244751, 7.345877170562744, -10.075437545776367, 3.8419783115386963, -8.096611022949219, 25.040088653564453, 39.16106414794922, -0.70556640625, 0.4580078125, 0.22412109375, 
340, 3601790480, 0.7048798203468323, -0.5032052993774414, -0.4313187301158905, -0.2528095841407776, 7.394031047821045, -10.685184478759766, 3.677445888519287, -4.019997596740723, 26.878053665161133, 45.13492965698242, -0.71142578125, 0.4638671875, 0.22265625, 
341, 3601798813, 0.7067731618881226, -0.5042874217033386, -0.42791858315467834, -0.2511400282382965, 7.490515232086182, -11.035785675048828, 3.428774356842041, -0.8520217537879944, 28.551097869873047, 52.14747619628906, -0.7099609375, 0.468505859375, 0.22021484375, 
342, 3601807146, 0.7088901996612549, -0.505500853061676, -0.4241442084312439, -0.24912863969802856, 7.569112777709961, -11.106184959411621, 3.186851739883423, 1.191015362739563, 30.325197219848633, 60.03505325317383, -0.711669921875, 0.4755859375, 0.21337890625, 
343, 3601815479, 0.7112571597099304, -0.5069298148155212, -0.41989219188690186, -0.24666959047317505, 7.620460033416748, -11.053314208984375, 3.0285661220550537, 1.597286343574524, 32.43870162963867, 69.46015930175781, -0.708251953125, 0.486328125, 0.207275390625, 
344, 3601823812, 0.7137884497642517, -0.5086686611175537, -0.41512465476989746, -0.24383097887039185, 7.6890459060668945, -11.083332061767578, 2.9312150478363037, 0.3614192306995392, 34.88118362426758, 79.48628997802734, -0.705810546875, 0.4912109375, 0.2021484375, 
345, 3601832145, 0.7165085077285767, -0.510710597038269, -0.4097801446914673, -0.2406041920185089, 7.831575870513916, -11.244244575500488, 2.8963053226470947, -1.096183180809021, 37.65223693847656, 89.27576446533203, -0.704345703125, 0.5029296875, 0.1962890625, 
346, 3601840478, 0.71934574842453, -0.5130213499069214, -0.4039475619792938, -0.23705890774726868, 7.88230562210083, -11.495440483093262, 2.816265106201172, -2.658950090408325, 40.23516082763672, 98.16356658935547, -0.697265625, 0.513671875, 0.188720703125, 
347, 3601848811, 0.7223133444786072, -0.5155470967292786, -0.3976469337940216, -0.23317670822143555, 7.893856525421143, -11.592469215393066, 2.7932684421539307, -3.604079484939575, 42.26015853881836, 105.935791015625, -0.693115234375, 0.52587890625, 0.185791015625, 
348, 3601857144, 0.7253437042236328, -0.5182569622993469, -0.39102232456207275, -0.22892701625823975, 7.876045227050781, -11.669607162475586, 2.8469765186309814, -3.9325146675109863, 42.87697219848633, 113.57308959960938, -0.68798828125, 0.538330078125, 0.1796875, 
349, 3601865477, 0.7284573316574097, -0.5211206674575806, -0.3840729892253876, -0.22425681352615356, 7.987300872802734, -11.84774398803711, 2.899038553237915, -3.7534234523773193, 42.846473693847656, 120.62230682373047, -0.680908203125, 0.548828125, 0.172607421875, 
350, 3601873810, 0.7316223978996277, -0.5240368843078613, -0.3769288659095764, -0.21922263503074646, 8.098840713500977, -12.159456253051758, 3.025974988937378, -2.4693408012390137, 42.53620529174805, 126.6500244140625, -0.668701171875, 0.564697265625, 0.165771484375, 
351, 3601882143, 0.734922468662262, -0.5269458293914795, -0.369528204202652, -0.21374210715293884, 8.035054206848145, -12.48337173461914, 3.2565739154815674, 0.0335296094417572, 42.355499267578125, 132.76077270507812, -0.6640625, 0.5791015625, 0.1591796875, 
352, 3601890476, 0.7382880449295044, -0.5298358798027039, -0.3619205951690674, -0.20793753862380981, 8.007746696472168, -12.585041999816895, 3.2971415519714355, 1.8175427913665771, 42.752357482910156, 138.22984313964844, -0.6533203125, 0.59619140625, 0.15478515625, 
353, 3601898809, 0.7417641878128052, -0.5326768755912781, -0.35404738783836365, -0.20177124440670013, 8.113184928894043, -12.541653633117676, 3.1926109790802, 3.224806070327759, 43.96177673339844, 143.05140686035156, -0.643310546875, 0.610107421875, 0.150390625, 
354, 3601907142, 0.7452380061149597, -0.5355297327041626, -0.34589916467666626, -0.19545352458953857, 8.193587303161621, -12.663888931274414, 2.9282219409942627, 4.000938415527344, 45.15660858154297, 147.51939392089844, -0.630859375, 0.625, 0.14404296875, 
355, 3601915475, 0.7487390041351318, -0.5383586883544922, -0.337521493434906, -0.1888347864151001, 8.175948143005371, -12.896513938903809, 2.694430112838745, 4.273099422454834, 46.05503845214844, 151.31561279296875, -0.618896484375, 0.640625, 0.13720703125, 
356, 3601923808, 0.7521434426307678, -0.5412483811378479, -0.3289061486721039, -0.18212935328483582, 8.270281791687012, -12.972192764282227, 2.5971035957336426, 3.70519757270813, 46.68400573730469, 154.93728637695312, -0.607421875, 0.65576171875, 0.13134765625, 
357, 3601932141, 0.7555285692214966, -0.5441440939903259, -0.32007110118865967, -0.17509472370147705, 8.401124000549316, -12.943587303161621, 2.709792375564575, 3.4319167137145996, 47.08436584472656, 158.9467315673828, -0.590087890625, 0.671875, 0.124755859375, 
358, 3601940474, 0.7588207721710205, -0.5470689535140991, -0.3109852075576782, -0.1679723560810089, 8.507940292358398, -12.919438362121582, 2.7131731510162354, 3.220674991607666, 47.87590026855469, 162.6491241455078, -0.5771484375, 0.68701171875, 0.120361328125, 
359, 3601948807, 0.7620599269866943, -0.549996554851532, -0.3016381561756134, -0.16063286364078522, 8.529369354248047, -12.752542495727539, 2.7116308212280273, 3.119577407836914, 48.73375701904297, 166.76953125, -0.561279296875, 0.7021484375, 0.113525390625, 
360, 3601957140, 0.7652609348297119, -0.5529106855392456, -0.29204127192497253, -0.15296155214309692, 8.457769393920898, -12.774334907531738, 2.885845899581909, 2.828850507736206, 49.51299285888672, 170.9227294921875, -0.5458984375, 0.71875, 0.109375, 
361, 3601965473, 0.7683212161064148, -0.5559380650520325, -0.2820865213871002, -0.14512839913368225, 8.458456039428711, -13.002184867858887, 2.985844373703003, 0.32575860619544983, 51.49759292602539, 175.41627502441406, -0.526123046875, 0.733154296875, 0.102783203125, 
362, 3601973806, 0.7711649537086487, -0.5591567754745483, -0.27167654037475586, -0.13733135163784027, 8.569576263427734, -13.25042724609375, 3.0164570808410645, -3.2928380966186523, 54.3104362487793, 179.9893035888672, -0.50927734375, 0.748779296875, 0.099853515625, 
363, 3601982139, 0.7738156914710999, -0.5625620484352112, -0.2608189582824707, -0.12933118641376495, 8.749529838562012, -13.27817153930664, 3.1054787635803223, -7.9961066246032715, 57.718116760253906, 184.67703247070312, -0.49072265625, 0.761962890625, 0.09716796875, 
364, 3601990472, 0.7761253714561462, -0.5662689805030823, -0.24946600198745728, -0.12147226929664612, 8.776942253112793, -13.06680679321289, 2.9771783351898193, -14.079379081726074, 61.02580642700195, 188.72315979003906, -0.47021484375, 0.777587890625, 0.094970703125, 
365, 3601998805, 0.778115451335907, -0.5702254772186279, -0.2377682328224182, -0.11342603713274002, 8.511448860168457, -12.854691505432129, 2.536010503768921, -20.258831024169922, 63.17527389526367, 192.45677185058594, -0.451904296875, 0.791748046875, 0.091796875, 
366, 3602007138, 0.779748260974884, -0.5743787288665771, -0.22583448886871338, -0.1053580790758133, 8.089254379272461, -12.906302452087402, 2.0716304779052734, -24.368331909179688, 62.61408615112305, 195.89976501464844, -0.429443359375, 0.8046875, 0.091064453125, 
367, 3602015471, 0.7811418175697327, -0.5785388350486755, -0.21391189098358154, -0.0968097373843193, 7.790163993835449, -13.120172500610352, 1.996774435043335, -25.912004470825195, 59.68031692504883, 199.30853271484375, -0.4052734375, 0.81494140625, 0.087890625, 
368, 3602023804, 0.7823548316955566, -0.5825873613357544, -0.2019558548927307, -0.08801567554473877, 7.753523826599121, -13.149867057800293, 2.06245493888855, -24.382360458374023, 55.97002029418945, 202.97360229492188, -0.38134765625, 0.830078125, 0.08984375, 
369, 3602032137, 0.7835822105407715, -0.5862596035003662, -0.1901051104068756, -0.07860271632671356, 7.802151203155518, -13.336376190185547, 2.244967460632324, -19.261781692504883, 52.06765365600586, 206.4792022705078, -0.35791015625, 0.842529296875, 0.088623046875, 
370, 3602040470, 0.7848622798919678, -0.5894941687583923, -0.17823471128940582, -0.06884962320327759, 7.940927505493164, -13.45768928527832, 2.5142147541046143, -12.366064071655273, 48.45512771606445, 210.4969024658203, -0.33349609375, 0.851318359375, 0.08984375, 
371, 3602048803, 0.7862456440925598, -0.5922362804412842, -0.16634388267993927, -0.058510564267635345, 8.119759559631348, -13.186386108398438, 2.8834784030914307, -5.642338752746582, 46.66465377807617, 214.54933166503906, -0.309326171875, 0.86279296875, 0.085205078125, 
372, 3602057136, 0.7875884175300598, -0.5946587920188904, -0.15426065027713776, -0.0480511337518692, 8.163227081298828, -12.584599494934082, 3.0163679122924805, -1.5514194965362549, 45.909385681152344, 217.98345947265625, -0.27734375, 0.874267578125, 0.087158203125, 
373, 3602065469, 0.7887928485870361, -0.5968528389930725, -0.14216196537017822, -0.0371815487742424, 8.02794075012207, -12.144261360168457, 2.9735679626464844, -0.02533361129462719, 44.60835647583008, 220.6963348388672, -0.2509765625, 0.883056640625, 0.08251953125, 
374, 3602073802, 0.7897903323173523, -0.5988782048225403, -0.13002724945545197, -0.026248663663864136, 7.786282539367676, -11.897717475891113, 2.8977088928222656, 0.8892509341239929, 42.13156509399414, 222.5243682861328, -0.223388671875, 0.892578125, 0.0810546875, 
375, 3602082135, 0.7905784249305725, -0.6007006764411926, -0.11806875467300415, -0.014972023665904999, 7.473068714141846, -11.627555847167969, 2.946165084838867, 1.4951318502426147, 39.26881408691406, 223.1080780029297, -0.1982421875, 0.897705078125, 0.083740234375, 
376, 3602090468, 0.7910920977592468, -0.6024169325828552, -0.10617399215698242, -0.003748178482055664, 7.009385108947754, -11.524432182312012, 2.9722819328308105, 0.8636610507965088, 36.40549087524414, 223.03839111328125, -0.16552734375, 0.905517578125, 0.0791015625, 
377, 3602098801, 0.7913438081741333, -0.6040079593658447, -0.09440632909536362, 0.007527388632297516, 6.592057228088379, -11.625473022460938, 2.8029210567474365, 0.1373368352651596, 34.21744155883789, 222.35122680664062, -0.136962890625, 0.911376953125, 0.080078125, 
378, 3602107134, 0.7914127111434937, -0.6053641438484192, -0.08281943202018738, 0.018998518586158752, 6.257442951202393, -11.683784484863281, 2.8768930435180664, 1.0959663391113281, 32.5940055847168, 221.4867401123047, -0.110595703125, 0.916748046875, 0.080810546875, 
379, 3602115467, 0.7913703322410583, -0.6064065098762512, -0.0713702067732811, 0.030496425926685333, 5.940548419952393, -11.65417194366455, 2.683934211730957, 3.654529571533203, 30.759262084960938, 220.34210205078125, -0.08154296875, 0.922607421875, 0.08154296875, 
380, 3602123800, 0.7913705110549927, -0.6069608926773071, -0.060007914900779724, 0.041833631694316864, 5.645687103271484, -11.66365909576416, 2.5621120929718018, 9.363030433654785, 28.665897369384766, 218.53842163085938, -0.048828125, 0.9248046875, 0.078369140625, 
381, 3602132133, 0.7915013432502747, -0.6068884134292603, -0.04888146370649338, 0.053314778953790665, 5.368042469024658, -11.656976699829102, 2.4956095218658447, 17.18837547302246, 26.829675674438477, 216.4711456298828, -0.02099609375, 0.9287109375, 0.0771484375, 
382, 3602140466, 0.791808009147644, -0.6061885952949524, -0.037833426147699356, 0.06452736258506775, 5.127470016479492, -11.528457641601562, 2.479764223098755, 25.31719398498535, 25.690715789794922, 213.41580200195312, 0.0078125, 0.92919921875, 0.075439453125, 
383, 3602148799, 0.792224109172821, -0.6049229502677917, -0.027018245309591293, 0.07575716078281403, 4.8118696212768555, -11.274131774902344, 2.429640054702759, 32.2736930847168, 24.7795352935791, 210.2395782470703, 0.04296875, 0.927001953125, 0.07080078125, 
384, 3602157132, 0.7927406430244446, -0.6031527519226074, -0.016272731125354767, 0.08674174547195435, 4.39260196685791, -11.140210151672363, 2.525493860244751, 38.36141586303711, 23.360074996948242, 207.72584533691406, 0.06689453125, 0.9267578125, 0.0703125, 
385, 3602165465, 0.793193519115448, -0.6010613441467285, -0.005767717957496643, 0.0977531149983406, 4.101080417633057, -11.114039421081543, 2.641160249710083, 41.27729415893555, 22.25222396850586, 205.05877685546875, 0.09375, 0.927734375, 0.064697265625, 
386, 3602173798, 0.7935401797294617, -0.5987623929977417, 0.004640109837055206, 0.1085164025425911, 3.8528435230255127, -10.965702056884766, 2.7069456577301025, 42.29111099243164, 20.821720123291016, 202.6439208984375, 0.1240234375, 0.92578125, 0.059326171875, 
387, 3602182131, 0.7937394380569458, -0.5962633490562439, 0.014760404825210571, 0.11937164515256882, 3.460235357284546, -10.901625633239746, 3.0353314876556396, 43.17116928100586, 18.67477035522461, 200.60671997070312, 0.14697265625, 0.922607421875, 0.057373046875, 
388, 3602190464, 0.7937607765197754, -0.5936748385429382, 0.024822533130645752, 0.1299903839826584, 3.120307445526123, -10.914514541625977, 3.2928011417388916, 42.29452896118164, 17.83106803894043, 198.76385498046875, 0.174560546875, 0.919189453125, 0.051025390625, 
389, 3602198797, 0.7935526967048645, -0.5910295248031616, 0.034695640206336975, 0.14062030613422394, 3.0158329010009766, -10.966078758239746, 3.3578665256500244, 41.220584869384766, 17.89790916442871, 196.83287048339844, 0.201416015625, 0.915771484375, 0.044189453125, 
390, 3602207130, 0.7931954860687256, -0.5882858037948608, 0.04458846151828766, 0.15097180008888245, 2.9016659259796143, -10.952250480651855, 3.2390425205230713, 40.73295211791992, 18.012372970581055, 195.2293243408203, 0.227294921875, 0.909912109375, 0.042724609375, 
391, 3602215463, 0.792729914188385, -0.5853260159492493, 0.05433124303817749, 0.16137127578258514, 2.6612911224365234, -10.774842262268066, 3.1013331413269043, 42.475067138671875, 17.642536163330078, 194.0567626953125, 0.25439453125, 0.902587890625, 0.037841796875, 
392, 3602223796, 0.7922868132591248, -0.5820346474647522, 0.0641009509563446, 0.1715468317270279, 2.2829930782318115, -10.602984428405762, 2.941957712173462, 45.89624786376953, 16.947519302368164, 192.87049865722656, 0.281982421875, 0.896484375, 0.034912109375, 
393, 3602232129, 0.7918521761894226, -0.5783784985542297, 0.07372116297483444, 0.18175145983695984, 1.9225623607635498, -10.60908031463623, 2.811552047729492, 50.21933364868164, 16.04276466369629, 191.55764770507812, 0.304931640625, 0.890380859375, 0.0263671875, 
394, 3602240462, 0.7914961576461792, -0.5743085741996765, 0.08339536935091019, 0.19175109267234802, 1.6200278997421265, -10.601632118225098, 2.840148687362671, 55.032222747802734, 15.324006080627441, 190.7114715576172, 0.3330078125, 0.88330078125, 0.02197265625, 
395, 3602248795, 0.7911516427993774, -0.5699007511138916, 0.09305822104215622, 0.20162329077720642, 1.3999606370925903, -10.503384590148926, 2.975635290145874, 58.916988372802734, 15.301724433898926, 189.59288024902344, 0.355224609375, 0.873291015625, 0.016357421875, 
396, 3602257128, 0.7907323837280273, -0.5652472376823425, 0.10267386585474014, 0.21146102249622345, 1.1457138061523438, -10.35399341583252, 3.389798879623413, 61.65755844116211, 16.0406436920166, 188.73194885253906, 0.379638671875, 0.8642578125, 0.0078125, 
397, 3602265461, 0.7900803089141846, -0.5605911612510681, 0.1123935878276825, 0.22112981975078583, 0.949641764163971, -10.018226623535156, 3.874112606048584, 60.524757385253906, 18.91693687438965, 188.38470458984375, 0.40625, 0.853759765625, 0.001953125, 
398, 3602273794, 0.7890399098396301, -0.5561927556991577, 0.12235498428344727, 0.23046617209911346, 1.048183560371399, -9.545957565307617, 4.24562406539917, 55.13251876831055, 23.81069564819336, 188.05543518066406, 0.427001953125, 0.842529296875, -0.001708984375, 
399, 3602282127, 0.7873548269271851, -0.5523874163627625, 0.1323392391204834, 0.23968002200126648, 1.09483802318573, -8.994437217712402, 4.039572715759277, 45.003116607666016, 29.627708435058594, 187.33738708496094, 0.4521484375, 0.832763671875, -0.00634765625, 
400, 3602290460, 0.7850822806358337, -0.5491802096366882, 0.1423659771680832, 0.24859307706356049, 0.5272376537322998, -8.644850730895996, 3.6123290061950684, 33.794715881347656, 33.74568557739258, 185.86024475097656, 0.47607421875, 0.819580078125, -0.008056640625, 
401, 3602298793, 0.782223105430603, -0.5465410947799683, 0.15214043855667114, 0.25747406482696533, -0.4715879559516907, -8.38359546661377, 3.372061014175415, 23.33551788330078, 35.76163101196289, 184.04379272460938, 0.498046875, 0.809814453125, -0.00830078125, 
402, 3602307126, 0.7790257334709167, -0.5441724061965942, 0.16176606714725494, 0.2661705017089844, -1.364761233329773, -8.440166473388672, 3.2232768535614014, 16.83917236328125, 35.80685806274414, 182.02806091308594, 0.517578125, 0.796875, -0.008056640625, 
403, 3602315459, 0.7757055163383484, -0.5417958498001099, 0.17116528749465942, 0.27470046281814575, -1.7909443378448486, -8.6910982131958, 3.3808274269104004, 15.579075813293457, 34.94081497192383, 179.22108459472656, 0.539794921875, 0.781982421875, -0.0048828125, 
404, 3602323792, 0.7724903225898743, -0.5390855669975281, 0.18045562505722046, 0.28302130103111267, -2.0192604064941406, -8.987825393676758, 3.806037187576294, 19.96821403503418, 33.758262634277344, 176.36550903320312, 0.56103515625, 0.769775390625, -0.005859375, 
405, 3602332125, 0.7695169448852539, -0.5358579754829407, 0.18976899981498718, 0.2910456657409668, -2.134061098098755, -9.230525016784668, 4.233610153198242, 28.121294021606445, 33.67238998413086, 173.9707489013672, 0.580322265625, 0.75634765625, -0.00537109375, 
406, 3602340458, 0.7667962312698364, -0.5320842862129211, 0.19923779368400574, 0.2987206280231476, -2.064866781234741, -9.187276840209961, 4.259044170379639, 37.256710052490234, 34.96419906616211, 171.59039306640625, 0.5986328125, 0.744384765625, -0.004638671875, 
407, 3602348791, 0.7643167972564697, -0.5277940630912781, 0.2089037001132965, 0.30599355697631836, -2.1459457874298096, -8.827554702758789, 4.264550685882568, 46.42525863647461, 37.30497360229492, 169.50474548339844, 0.61962890625, 0.7275390625, -0.00634765625, 
408, 3602357124, 0.7619961500167847, -0.523059070110321, 0.2187644988298416, 0.3129426836967468, -2.511138439178467, -8.327898025512695, 3.9240646362304688, 53.95671463012695, 39.27127456665039, 167.83934020996094, 0.635986328125, 0.712646484375, -0.0048828125, 
409, 3602365457, 0.7597699761390686, -0.5179852247238159, 0.22870734333992004, 0.3196151554584503, -2.926847219467163, -7.9831223487854, 3.7533953189849854, 59.42283248901367, 40.507022857666016, 166.4729766845703, 0.65576171875, 0.69775390625, -0.008056640625, 
410, 3602373790, 0.7574594616889954, -0.5127906799316406, 0.23874764144420624, 0.3260680139064789, -3.1411070823669434, -7.640641212463379, 3.767133951187134, 61.15338134765625, 42.695926666259766, 165.2917938232422, 0.671142578125, 0.681884765625, -0.011474609375, 
411, 3602382123, 0.7548420429229736, -0.5078554153442383, 0.24880103766918182, 0.33228620886802673, -2.787189483642578, -7.131739139556885, 3.67431902885437, 57.17204284667969, 46.80669403076172, 163.8308868408203, 0.68701171875, 0.666259765625, -0.010498046875, 
412, 3602390456, 0.7517750859260559, -0.5033670663833618, 0.2588295638561249, 0.33835339546203613, -2.3394501209259033, -6.66085958480835, 3.427739381790161, 49.74139404296875, 51.032798767089844, 162.24957275390625, 0.70458984375, 0.6494140625, -0.01123046875, 
413, 3602398789, 0.7481921315193176, -0.49947410821914673, 0.2686748504638672, 0.3443366289138794, -2.5295464992523193, -6.39156436920166, 3.335224151611328, 39.52229690551758, 54.495933532714844, 160.79383850097656, 0.719482421875, 0.6357421875, -0.00732421875, 
414, 3602407122, 0.7440435886383057, -0.49622243642807007, 0.27829983830451965, 0.3503307104110718, -3.1637141704559326, -6.117275714874268, 3.162461042404175, 27.89307403564453, 57.11335372924805, 159.3015899658203, 0.73193359375, 0.61962890625, -0.005859375, 
415, 3602415455, 0.7396140098571777, -0.49329760670661926, 0.28759273886680603, 0.3562846779823303, -3.8918612003326416, -5.944145202636719, 3.0447325706481934, 21.25359535217285, 56.820594787597656, 157.16021728515625, 0.747802734375, 0.6044921875, 0.000244140625, 
416, 3602423788, 0.7353479266166687, -0.4900128245353699, 0.29673638939857483, 0.36210232973098755, -4.419121742248535, -6.401521682739258, 2.724109172821045, 25.764022827148438, 53.63521194458008, 154.9502716064453, 0.76123046875, 0.587158203125, 0.002197265625, 
417, 3602432121, 0.7317453026771545, -0.4857599437236786, 0.3058532476425171, 0.3675044775009155, -4.4911651611328125, -7.260268688201904, 2.286597728729248, 41.66153335571289, 48.8287467956543, 151.67459106445312, 0.775634765625, 0.571533203125, 0.008544921875, 
418, 3602440454, 0.7290083169937134, -0.4801449477672577, 0.31524115800857544, 0.3723580837249756, -4.233755588531494, -7.723329544067383, 1.92326819896698, 64.7518310546875, 44.503787994384766, 148.8614959716797, 0.78515625, 0.553466796875, 0.007568359375, 
419, 3602448787, 0.7272923588752747, -0.47293421626091003, 0.3249845802783966, 0.3765418529510498, -3.9833168983459473, -7.574379920959473, 2.159937858581543, 92.31024932861328, 40.091739654541016, 146.68214416503906, 0.801513671875, 0.538330078125, 0.004638671875, 
420, 3602457120, 0.7263002395629883, -0.46426546573638916, 0.33527639508247375, 0.3802039623260498, -3.545668840408325, -6.794872283935547, 2.798326015472412, 116.67585754394531, 37.985870361328125, 147.30101013183594, 0.810546875, 0.523681640625, 0.002197265625, 
421, 3602465453, 0.7255350947380066, -0.4549396336078644, 0.34589216113090515, 0.3834150731563568, -2.888897180557251, -5.575719833374023, 3.000411033630371, 128.57484436035156, 39.837745666503906, 147.24774169921875, 0.8203125, 0.505615234375, -0.00048828125, 
422, 3602473786, 0.7241693735122681, -0.4460219740867615, 0.3566281795501709, 0.3866255283355713, -2.5809080600738525, -3.8980774879455566, 2.773515462875366, 121.26966857910156, 45.83211135864258, 148.67710876464844, 0.834228515625, 0.48876953125, -0.00390625, 
423, 3602482119, 0.721900999546051, -0.4381932020187378, 0.36695927381515503, 0.39013633131980896, -2.7505462169647217, -2.4926042556762695, 2.1047182083129883, 101.38330078125, 50.422096252441406, 149.20831298828125, 0.8427734375, 0.471435546875, -0.007080078125, 
424, 3602490452, 0.7185909748077393, -0.431780070066452, 0.37662196159362793, 0.3941686153411865, -3.099323272705078, -1.94935142993927, 1.5510571002960205, 74.71435546875, 53.2474365234375, 148.23822021484375, 0.852294921875, 0.45361328125, -0.005615234375, 
425, 3602498785, 0.7144213914871216, -0.42662274837493896, 0.38547253608703613, 0.39878031611442566, -3.990840196609497, -1.9989300966262817, 1.0104825496673584, 49.92127227783203, 53.29974365234375, 147.8616180419922, 0.8662109375, 0.4365234375, -0.003173828125, 
426, 3602507118, 0.7096176743507385, -0.42236328125, 0.39369210600852966, 0.40382957458496094, -4.929750442504883, -2.4025120735168457, 0.9535008072853088, 31.477327346801758, 52.55882263183594, 146.6116180419922, 0.872802734375, 0.419677734375, -0.00048828125, 
427, 3602515451, 0.7045596837997437, -0.41847723722457886, 0.40142667293548584, 0.4090830683708191, -5.152761936187744, -2.761730670928955, 1.2792437076568604, 22.68633460998535, 50.34174728393555, 145.7436065673828, 0.88134765625, 0.400146484375, 0.0087890625, 
428, 3602523784, 0.6996785402297974, -0.41430965065956116, 0.4089893698692322, 0.4141799509525299, -5.204197883605957, -3.216809034347534, 1.9423874616622925, 26.199665069580078, 46.76570510864258, 143.23243713378906, 0.888427734375, 0.38232421875, 0.010986328125, 
429, 3602532117, 0.695237934589386, -0.4096147119998932, 0.4165758788585663, 0.4187414050102234, -5.5093207359313965, -3.4011693000793457, 2.7512404918670654, 37.06801223754883, 44.81047439575195, 139.24937438964844, 0.89599609375, 0.364501953125, 0.016845703125, 
430, 3602540450, 0.6912065148353577, -0.40429919958114624, 0.42447903752326965, 0.4226266145706177, -5.655981540679932, -3.1524901390075684, 3.658700942993164, 50.866580963134766, 45.483001708984375, 135.18760681152344, 0.905029296875, 0.345703125, 0.022216796875, 
431, 3602548783, 0.6874514222145081, -0.398637592792511, 0.4327019155025482, 0.42577874660491943, -5.005687713623047, -2.77099609375, 3.991589307785034, 61.97178268432617, 49.23601531982422, 131.00634765625, 0.916015625, 0.33251953125, 0.025146484375, 
432, 3602557116, 0.683530867099762, -0.3930823802947998, 0.44124147295951843, 0.42848289012908936, -4.309760570526123, -1.9814751148223877, 4.041737079620361, 64.43707275390625, 56.03035354614258, 128.24778747558594, 0.9169921875, 0.31640625, 0.029296875, 
433, 3602565449, 0.67903071641922, -0.3882167935371399, 0.4498049020767212, 0.43116164207458496, -4.436830043792725, -0.6095693707466125, 3.5267622470855713, 55.25795364379883, 64.26405334472656, 127.97179412841797, 0.922607421875, 0.29931640625, 0.03564453125, 
434, 3602573782, 0.6735610961914062, -0.3846130967140198, 0.4579937160015106, 0.43433845043182373, -4.6677937507629395, 0.1418638378381729, 2.4609484672546387, 32.85530090332031, 71.29425048828125, 127.96292877197266, 0.927978515625, 0.284423828125, 0.042236328125, 
435, 3602582115, 0.6672313809394836, -0.3823826313018799, 0.46539396047592163, 0.43819427490234375, -5.174600124359131, 0.5272276401519775, 1.2313439846038818, 6.736045837402344, 74.32615661621094, 127.16405487060547, 0.93408203125, 0.268310546875, 0.050537109375, 
436, 3602590448, 0.6600275635719299, -0.3813455104827881, 0.47202959656715393, 0.44288522005081177, -5.406339645385742, 0.27864590287208557, 0.9557317495346069, -18.897249221801758, 75.39601135253906, 127.84231567382812, 0.937744140625, 0.2509765625, 0.062255859375, 
437, 3602598781, 0.6520331501960754, -0.3812718689441681, 0.47804877161979675, 0.44830095767974854, -5.101450443267822, -0.16138359904289246, 1.9738860130310059, -40.11685562133789, 77.29257202148438, 130.33311462402344, 0.937255859375, 0.23681640625, 0.07373046875, 
438, 3602607114, 0.6431012153625488, -0.38186877965927124, 0.48386016488075256, 0.4544186592102051, -4.283188343048096, -0.43097826838493347, 2.767777681350708, -57.07051086425781, 81.75383758544922, 136.3246307373047, 0.94775390625, 0.2158203125, 0.0859375, 
439, 3602615447, 0.6334689855575562, -0.3828396797180176, 0.4895753860473633, 0.4609625041484833, -4.157612323760986, -0.767184853553772, 3.3338851928710938, -67.36676025390625, 85.95075988769531, 142.06460571289062, 0.948486328125, 0.197509765625, 0.099853515625, 
440, 3602623780, 0.6232995986938477, -0.384024977684021, 0.4953235387802124, 0.4676503837108612, -4.2445454597473145, -0.8167793154716492, 3.119896411895752, -72.95096588134766, 90.16699981689453, 144.8677978515625, 0.94677734375, 0.177490234375, 0.115478515625, 
441, 3602632113, 0.6130019426345825, -0.3850570619106293, 0.5010817646980286, 0.47423255443573, -4.595572471618652, -0.5713531970977783, 2.62955379486084, -71.4055404663086, 90.99519348144531, 146.48419189453125, 0.94970703125, 0.15380859375, 0.12841796875, 
442, 3602640446, 0.6028115749359131, -0.3855879604816437, 0.5069583654403687, 0.4805760681629181, -5.386264324188232, -0.39282098412513733, 2.1805074214935303, -64.31961059570312, 88.95146942138672, 147.2503662109375, 0.951171875, 0.135009765625, 0.144287109375, 
443, 3602648779, 0.5929518342018127, -0.38564053177833557, 0.5128205418586731, 0.4865433871746063, -5.7329230308532715, -0.18544641137123108, 1.6226930618286133, -55.95399475097656, 85.65333557128906, 145.81690979003906, 0.949462890625, 0.114501953125, 0.1572265625, 
444, 3602657112, 0.5833910703659058, -0.3852124810218811, 0.5186904072761536, 0.49218517541885376, -5.611513614654541, 0.1516074687242508, 1.0325677394866943, -48.22169876098633, 81.82936096191406, 143.9815673828125, 0.9521484375, 0.09326171875, 0.169677734375, 
445, 3602665445, 0.5738787055015564, -0.3845921754837036, 0.5243266224861145, 0.49784865975379944, -5.535285949707031, 0.8188175559043884, 0.814887523651123, -48.040557861328125, 78.47163391113281, 144.5789337158203, 0.951416015625, 0.074462890625, 0.182373046875, 
446, 3602673778, 0.5643758177757263, -0.38379552960395813, 0.5297158360481262, 0.5035889148712158, -5.543493270874023, 1.6851344108581543, 0.6792144775390625, -48.964237213134766, 74.55882263183594, 144.4654083251953, 0.94921875, 0.0556640625, 0.192138671875, 
447, 3602682111, 0.555011510848999, -0.38296228647232056, 0.5347061157226562, 0.5093241930007935, -5.639223575592041, 1.845700740814209, 0.5163381099700928, -50.558868408203125, 70.48931121826172, 142.23988342285156, 0.9462890625, 0.0341796875, 0.20263671875, 
448, 3602690444, 0.5457659959793091, -0.3820286989212036, 0.5394178032875061, 0.5150161981582642, -5.664926052093506, 2.066445827484131, 0.2004711776971817, -50.91432571411133, 66.75176239013672, 139.73809814453125, 0.947509765625, 0.013427734375, 0.213134765625, 
