sep=,
PacketCounter,SampleTimeFine,Quat_W,Quat_X,Quat_Y,Quat_Z,Acc_X,Acc_Y,Acc_Z,Gyr_X,Gyr_Y,Gyr_Z,Mag_X,Mag_Y,Mag_Z,
0, 2927200798, 0.39080363512039185, -0.7976096868515015, 0.45630931854248047, 0.053740955889225006, 0, 0, 0, 0, 0, 0, 0.2265625, 0.800048828125, 0.491455078125, 
1, 2927209131, 0.39086291193962097, -0.7975820302963257, 0.456304669380188, 0.05375749617815018, -4.517341613769531, -5.653621196746826, -6.926533222198486, 0.24694682657718658, -1.3026758432388306, -0.00016649252211209387, 0.228515625, 0.801513671875, 0.49072265625, 
2, 2927217464, 0.3909212052822113, -0.7975538372993469, 0.45630210638046265, 0.05377430468797684, -4.537341594696045, -5.677804946899414, -6.896756649017334, 0.19151760637760162, -1.2865900993347168, 0.06744226813316345, 0.2275390625, 0.801025390625, 0.490966796875, 
3, 2927225797, 0.3909604549407959, -0.7975248098373413, 0.4563156068325043, 0.05380522459745407, -4.5567474365234375, -5.695923328399658, -6.909381866455078, -0.042148225009441376, -1.2375645637512207, 0.30194059014320374, 0.228515625, 0.801513671875, 0.48974609375, 
4, 2927234130, 0.39099231362342834, -0.7974916696548462, 0.45634323358535767, 0.053830765187740326, -4.540302276611328, -5.698948383331299, -6.92311429977417, -0.10416027903556824, -1.058546781539917, 0.4964294731616974, 0.22705078125, 0.800537109375, 0.491943359375, 
5, 2927242463, 0.39101913571357727, -0.7974593639373779, 0.4563741683959961, 0.053851962089538574, -4.483530521392822, -5.735642910003662, -6.890212059020996, -0.08766471594572067, -0.9622628092765808, 0.46815136075019836, 0.22900390625, 0.80078125, 0.4892578125, 
6, 2927250796, 0.39104247093200684, -0.7974233627319336, 0.45641493797302246, 0.05387110263109207, -4.442516326904297, -5.718655109405518, -6.8648481369018555, -0.131541907787323, -0.865312933921814, 0.6288551092147827, 0.22607421875, 0.801513671875, 0.491455078125, 
7, 2927259129, 0.3910703659057617, -0.7973787784576416, 0.45646655559539795, 0.053890831768512726, -4.397582054138184, -5.7171101570129395, -6.8312153816223145, 0.014472042210400105, -0.8506102561950684, 0.7643542885780334, 0.2294921875, 0.799560546875, 0.4921875, 
8, 2927267462, 0.39110231399536133, -0.7973259687423706, 0.45652878284454346, 0.05391266942024231, -4.382246494293213, -5.713740825653076, -6.852802753448486, 0.05081864446401596, -0.8459485173225403, 0.9801031351089478, 0.22900390625, 0.80224609375, 0.4912109375, 
9, 2927275795, 0.39115476608276367, -0.7972741723060608, 0.4565731883049011, 0.053923241794109344, -4.377468585968018, -5.702919006347656, -6.833432674407959, 0.37560713291168213, -0.9482773542404175, 0.6632806062698364, 0.228515625, 0.801025390625, 0.49072265625, 
10, 2927284128, 0.3912234306335449, -0.7972174882888794, 0.4566117823123932, 0.05393461138010025, -4.364199638366699, -5.6588287353515625, -6.883566856384277, 0.5230682492256165, -1.0909231901168823, 0.661154568195343, 0.22705078125, 0.800537109375, 0.491943359375, 
11, 2927292461, 0.3912840485572815, -0.7971646785736084, 0.45665112137794495, 0.053943924605846405, -4.349700927734375, -5.585197448730469, -6.8679094314575195, 0.47337672114372253, -1.0130815505981445, 0.6007562875747681, 0.22705078125, 0.800048828125, 0.490966796875, 
12, 2927300794, 0.3913253843784332, -0.797126054763794, 0.4566843509674072, 0.053933486342430115, -4.406101226806641, -5.572494029998779, -6.839663028717041, 0.2593953609466553, -0.6974884271621704, 0.3911549746990204, 0.2275390625, 0.799560546875, 0.492431640625, 
13, 2927309127, 0.3913532793521881, -0.7970954179763794, 0.4567146599292755, 0.05392785370349884, -4.415099620819092, -5.549883842468262, -6.885562896728516, 0.08514171093702316, -0.6764335036277771, 0.3092150092124939, 0.22705078125, 0.799072265625, 0.491455078125, 
14, 2927317460, 0.3913704752922058, -0.7970762848854065, 0.45673561096191406, 0.05390956252813339, -4.44003438949585, -5.585912704467773, -6.898852825164795, -0.07093861699104309, -0.5121694207191467, 0.10773346573114395, 0.228515625, 0.801025390625, 0.490234375, 
15, 2927325793, 0.3913763761520386, -0.797067403793335, 0.45674917101860046, 0.053879544138908386, -4.436314582824707, -5.551242828369141, -6.875706195831299, -0.13325805962085724, -0.344191312789917, -0.12839137017726898, 0.22900390625, 0.799560546875, 0.490966796875, 
16, 2927334126, 0.3913577198982239, -0.797080397605896, 0.4567480683326721, 0.05383429676294327, -4.407939434051514, -5.517281532287598, -6.862530708312988, -0.48227763175964355, -0.08538505434989929, -0.4516430199146271, 0.228515625, 0.797119140625, 0.490966796875, 
17, 2927342459, 0.3913349211215973, -0.797102153301239, 0.4567345976829529, 0.05379043519496918, -4.383026123046875, -5.554676055908203, -6.877065181732178, -0.5455960035324097, -0.13651105761528015, -0.6706959009170532, 0.22802734375, 0.799072265625, 0.489013671875, 
18, 2927350792, 0.39131268858909607, -0.7971264123916626, 0.45671916007995605, 0.053722940385341644, -4.3738274574279785, -5.624874114990234, -6.863832473754883, -0.4539226293563843, 0.11216472834348679, -0.7973583340644836, 0.2265625, 0.798583984375, 0.493408203125, 
19, 2927359125, 0.3912964463233948, -0.7971474528312683, 0.4567057192325592, 0.05364469438791275, -4.387918472290039, -5.596134185791016, -6.8625664710998535, -0.2531070411205292, 0.19738328456878662, -0.8558355569839478, 0.2275390625, 0.799560546875, 0.491455078125, 
20, 2927367458, 0.3912797272205353, -0.7971662878990173, 0.4566965103149414, 0.053563982248306274, -4.413425922393799, -5.562258243560791, -6.840170860290527, -0.2771332263946533, 0.2524282932281494, -0.7704120874404907, 0.22900390625, 0.798583984375, 0.490478515625, 
21, 2927375791, 0.3912478983402252, -0.7971950769424438, 0.45668259263038635, 0.05348747968673706, -4.493215560913086, -5.590747833251953, -6.832581520080566, -0.4768216907978058, 0.2811930477619171, -0.8886986374855042, 0.2275390625, 0.798583984375, 0.489501953125, 
22, 2927384124, 0.39123067259788513, -0.7972161769866943, 0.4566691517829895, 0.05341324210166931, -4.563506603240967, -5.605010509490967, -6.808977127075195, -0.3371473550796509, 0.16236864030361176, -0.7945919632911682, 0.23095703125, 0.7998046875, 0.4912109375, 
23, 2927392457, 0.39121559262275696, -0.79722660779953, 0.4566735625267029, 0.05332936346530914, -4.58294153213501, -5.694507598876953, -6.81168794631958, -0.13597317039966583, 0.3432563245296478, -0.6252050399780273, 0.2275390625, 0.800537109375, 0.4921875, 
24, 2927400790, 0.39120230078697205, -0.7972292900085449, 0.4566911458969116, 0.05323570966720581, -4.572211742401123, -5.692182540893555, -6.80344820022583, -0.05083145201206207, 0.5052664279937744, -0.44598227739334106, 0.2275390625, 0.801513671875, 0.489501953125, 
25, 2927409123, 0.3911900222301483, -0.797232985496521, 0.4567073583602905, 0.053131021559238434, -4.509374141693115, -5.6798224449157715, -6.882479667663574, 0.07161740213632584, 0.6118728518486023, -0.5672913193702698, 0.172119140625, 0.80322265625, 0.49169921875, 
26, 2927417456, 0.3911879062652588, -0.7972400188446045, 0.4567108750343323, 0.053013257682323456, -4.478365898132324, -5.805870056152344, -6.9258904457092285, 0.18872568011283875, 0.6257045269012451, -0.7678250670433044, 0.17333984375, 0.8017578125, 0.49072265625, 
27, 2927425789, 0.39118725061416626, -0.7972471117973328, 0.4567112326622009, 0.05290742963552475, -4.398319244384766, -5.706538200378418, -6.925997734069824, 0.1766357570886612, 0.4695602059364319, -0.7774049043655396, 0.1728515625, 0.8017578125, 0.49169921875, 
28, 2927434122, 0.391191303730011, -0.7972527742385864, 0.45670926570892334, 0.052809588611125946, -4.355430603027344, -5.790376663208008, -6.968764305114746, 0.13493578135967255, 0.33869701623916626, -0.7139327526092529, 0.17138671875, 0.7998046875, 0.4931640625, 
29, 2927442455, 0.3912056088447571, -0.797257661819458, 0.45669883489608765, 0.05272027105093002, -4.305661201477051, -5.758760929107666, -6.960159778594971, 0.240261510014534, 0.13334770500659943, -0.8044791221618652, 0.172119140625, 0.8037109375, 0.4921875, 
30, 2927450788, 0.39121419191360474, -0.7972612380981445, 0.45669427514076233, 0.052640244364738464, -4.319523334503174, -5.6905012130737305, -6.950939655303955, 0.0820423886179924, 0.1002541109919548, -0.6357068419456482, 0.172119140625, 0.80224609375, 0.49169921875, 
31, 2927459121, 0.39122527837753296, -0.7972646951675415, 0.4566860496997833, 0.05257771164178848, -4.359578609466553, -5.7165656089782715, -6.9651594161987305, 0.04515789449214935, -0.1273667812347412, -0.6242573261260986, 0.17333984375, 0.80224609375, 0.4912109375, 
32, 2927467454, 0.39122211933135986, -0.7972742915153503, 0.456678569316864, 0.05252101272344589, -4.394620895385742, -5.630402565002441, -6.9386372566223145, -0.22733913362026215, -0.09565635025501251, -0.5739765763282776, 0.1728515625, 0.802734375, 0.4931640625, 
33, 2927475787, 0.3911535143852234, -0.7972947359085083, 0.4567047357559204, 0.05249388515949249, -4.433374881744385, -5.587751388549805, -6.893946647644043, -1.1153334379196167, 0.18011930584907532, -0.10615818947553635, 0.173583984375, 0.8037109375, 0.492431640625, 
34, 2927484120, 0.3910738229751587, -0.7973159551620483, 0.4567388594150543, 0.05246856063604355, -4.481334686279297, -5.616584777832031, -6.916406631469727, -1.2973480224609375, 0.27496880292892456, 0.033605873584747314, 0.172607421875, 0.80322265625, 0.490234375, 
35, 2927492453, 0.39099255204200745, -0.7973474264144897, 0.45675671100616455, 0.05244193226099014, -4.442137241363525, -5.5854411125183105, -6.936713695526123, -1.3231929540634155, 0.21697817742824554, -0.25433653593063354, 0.174072265625, 0.803466796875, 0.490234375, 
36, 2927500786, 0.3909313380718231, -0.797370195388794, 0.4567715525627136, 0.052422113716602325, -4.448331356048584, -5.633091926574707, -6.913493633270264, -1.1506553888320923, -0.0041366987861692905, -0.17116710543632507, 0.17236328125, 0.80224609375, 0.4912109375, 
37, 2927509119, 0.39087390899658203, -0.7974013686180115, 0.4567696154117584, 0.05239293724298477, -4.465605735778809, -5.639744758605957, -6.909274578094482, -1.0582393407821655, -0.0104378005489707, -0.5002331733703613, 0.171142578125, 0.8037109375, 0.49072265625, 
38, 2927517452, 0.39082029461860657, -0.7974332571029663, 0.45676225423812866, 0.052371762692928314, -4.428310871124268, -5.673727989196777, -6.882944583892822, -1.122889518737793, -0.15044520795345306, -0.4850183129310608, 0.1728515625, 0.80224609375, 0.48974609375, 
39, 2927525785, 0.39076802134513855, -0.7974647879600525, 0.45675575733184814, 0.05233803391456604, -4.405614376068115, -5.699901103973389, -6.8521528244018555, -0.9787584543228149, -0.016866974532604218, -0.5812510251998901, 0.172607421875, 0.8037109375, 0.4921875, 
40, 2927534118, 0.3907517194747925, -0.797484815120697, 0.4567399024963379, 0.05229361355304718, -4.4381818771362305, -5.704778671264648, -6.889496803283691, -0.5106581449508667, -0.18461458384990692, -0.655378520488739, 0.169677734375, 0.802734375, 0.4912109375, 
41, 2927542451, 0.3907393515110016, -0.7974960207939148, 0.45673638582229614, 0.052245646715164185, -4.446300029754639, -5.6583638191223145, -6.928536891937256, -0.33960628509521484, -0.11030769348144531, -0.5259498357772827, 0.171142578125, 0.80322265625, 0.49169921875, 
42, 2927550784, 0.39074552059173584, -0.7975053787231445, 0.45671993494033813, 0.05219881236553192, -4.426329612731934, -5.66758394241333, -6.904760837554932, -0.19398941099643707, -0.30886924266815186, -0.6253075003623962, 0.170166015625, 0.8046875, 0.4912109375, 
43, 2927559117, 0.3907633125782013, -0.7975006103515625, 0.456717848777771, 0.05215660482645035, -4.4236040115356445, -5.624102592468262, -6.9115424156188965, 0.044184550642967224, -0.36642441153526306, -0.399850994348526, 0.170166015625, 0.805419921875, 0.48876953125, 
44, 2927567450, 0.3907701373100281, -0.7975015640258789, 0.4567162096500397, 0.0521068200469017, -4.4120097160339355, -5.610589981079102, -6.916348457336426, -0.11204946786165237, -0.20874319970607758, -0.42648980021476746, 0.169189453125, 0.80419921875, 0.49267578125, 
45, 2927575783, 0.39073383808135986, -0.7975165247917175, 0.4567258954048157, 0.05206330865621567, -4.392096042633057, -5.590640544891357, -6.944365978240967, -0.6404711008071899, 0.06644332408905029, -0.36388862133026123, 0.173095703125, 0.802734375, 0.49072265625, 
46, 2927584116, 0.390677273273468, -0.7975427508354187, 0.4567333459854126, 0.052022263407707214, -4.391209125518799, -5.599438667297363, -6.959537506103516, -0.9901822209358215, 0.16139529645442963, -0.39247408509254456, 0.169677734375, 0.80419921875, 0.4912109375, 
47, 2927592449, 0.390616238117218, -0.797577977180481, 0.45672881603240967, 0.051980160176754, -4.3687920570373535, -5.611748695373535, -6.984014511108398, -1.0392334461212158, 0.1415698528289795, -0.6216446161270142, 0.170654296875, 0.8056640625, 0.490234375, 
48, 2927600782, 0.3905598521232605, -0.7976207137107849, 0.45670831203460693, 0.05192841589450836, -4.340917110443115, -5.610611438751221, -6.9886064529418945, -1.0297818183898926, 0.13977687060832977, -0.8605742454528809, 0.171142578125, 0.8017578125, 0.4912109375, 
49, 2927609115, 0.3905046284198761, -0.7976630926132202, 0.45668697357177734, 0.0518793910741806, -4.336732864379883, -5.641103744506836, -6.984343528747559, -0.9824211001396179, 0.09677058458328247, -0.893642246723175, 0.170166015625, 0.80419921875, 0.4912109375, 
50, 2927617448, 0.39045244455337524, -0.7977099418640137, 0.4566543698310852, 0.051839619874954224, -4.346066951751709, -5.585075855255127, -6.9244384765625, -1.089078664779663, -0.08013413101434708, -0.9569862484931946, 0.171630859375, 0.8037109375, 0.4912109375, 
51, 2927625781, 0.3904092013835907, -0.7977491617202759, 0.45662665367126465, 0.0518050417304039, -4.387360572814941, -5.656032085418701, -6.937335014343262, -0.9274274110794067, -0.17575205862522125, -0.8741753697395325, 0.167724609375, 0.80419921875, 0.49072265625, 
52, 2927634114, 0.390370637178421, -0.7977900505065918, 0.456591933965683, 0.051772333681583405, -4.433296203613281, -5.698233604431152, -6.919309616088867, -0.9556542634963989, -0.2579737603664398, -0.9156191945075989, 0.171142578125, 0.80419921875, 0.48974609375, 
53, 2927642447, 0.39031341671943665, -0.7978330254554749, 0.4565685987472534, 0.05174711346626282, -4.445370197296143, -5.6568474769592285, -6.885176181793213, -1.1571871042251587, -0.1632523089647293, -0.7890848517417908, 0.169677734375, 0.8046875, 0.4892578125, 
54, 2927650780, 0.3902464509010315, -0.7978741526603699, 0.4565569758415222, 0.05172107368707657, -4.506984710693359, -5.7016377449035645, -6.856728553771973, -1.292020320892334, -0.030058301985263824, -0.6059175133705139, 0.170166015625, 0.80517578125, 0.49267578125, 
55, 2927659113, 0.3901841640472412, -0.7979105114936829, 0.4565504789352417, 0.05168695002794266, -4.524523735046387, -5.715851306915283, -6.880155086517334, -1.1088274717330933, 0.05220181122422218, -0.6091705560684204, 0.171142578125, 0.80224609375, 0.4912109375, 
56, 2927667446, 0.3901478946208954, -0.7979405522346497, 0.4565328359603882, 0.051654234528541565, -4.488651752471924, -5.714027404785156, -6.890369415283203, -0.858883798122406, -0.18850797414779663, -0.6594769954681396, 0.168212890625, 0.8037109375, 0.490234375, 
57, 2927675779, 0.3901239335536957, -0.7979564070701599, 0.4565305709838867, 0.05160988122224808, -4.484854221343994, -5.725242614746094, -6.889010429382324, -0.5113241076469421, -0.06914561986923218, -0.5157041549682617, 0.171630859375, 0.80419921875, 0.490234375, 
58, 2927684112, 0.3901043236255646, -0.7979645729064941, 0.4565393626689911, 0.051553405821323395, -4.439798355102539, -5.693090915679932, -6.896148681640625, -0.39134708046913147, 0.09484951198101044, -0.37313535809516907, 0.168701171875, 0.80517578125, 0.49365234375, 
59, 2927692445, 0.3900895118713379, -0.7979711294174194, 0.4565473198890686, 0.05149499326944351, -4.403597831726074, -5.718075752258301, -6.924123764038086, -0.26606786251068115, 0.07715007662773132, -0.4262336790561676, 0.169677734375, 0.8037109375, 0.49169921875, 
60, 2927700778, 0.3900921046733856, -0.7979713082313538, 0.4565508961677551, 0.051440492272377014, -4.361445903778076, -5.706788539886475, -6.951497554779053, -0.11927267163991928, -0.10106095671653748, -0.38448241353034973, 0.169677734375, 0.8046875, 0.49072265625, 
61, 2927709111, 0.39010921120643616, -0.7979647517204285, 0.4565531313419342, 0.051391422748565674, -4.339865684509277, -5.718562126159668, -6.99204683303833, 0.09121228754520416, -0.2631734311580658, -0.37900102138519287, 0.170166015625, 0.80615234375, 0.48974609375, 
62, 2927717444, 0.3901249170303345, -0.79796302318573, 0.4565468430519104, 0.05135510861873627, -4.310267448425293, -5.709649562835693, -6.988720893859863, -0.0869731456041336, -0.4370429217815399, -0.39270466566085815, 0.173583984375, 0.804931640625, 0.48974609375, 
63, 2927725777, 0.3901071548461914, -0.7979696989059448, 0.4565516412258148, 0.051344312727451324, -4.328800201416016, -5.675516128540039, -6.988735198974609, -0.601486325263977, -0.44334399700164795, -0.20277510583400726, 0.169677734375, 0.8046875, 0.4912109375, 
64, 2927734110, 0.3900856375694275, -0.7979826927185059, 0.45654815435409546, 0.051335811614990234, -4.365573406219482, -5.677204132080078, -6.98390007019043, -0.7470775842666626, -0.4829435646533966, -0.2794128656387329, 0.168701171875, 0.802734375, 0.4912109375, 
65, 2927742443, 0.39006611704826355, -0.7979906797409058, 0.45655155181884766, 0.05133041739463806, -4.393619537353516, -5.669457912445068, -7.016559600830078, -0.6603733897209167, -0.4990293085575104, -0.19644838571548462, 0.167724609375, 0.8037109375, 0.49169921875, 
66, 2927750776, 0.390074759721756, -0.7979874610900879, 0.4565509557723999, 0.05131992697715759, -4.398004055023193, -5.6717681884765625, -6.969508647918701, -0.3140433132648468, -0.6471307873725891, -0.17928682267665863, 0.170166015625, 0.80517578125, 0.48974609375, 
67, 2927759109, 0.39005786180496216, -0.7979950904846191, 0.4565522372722626, 0.05131831020116806, -4.4048357009887695, -5.657182693481445, -6.97036600112915, -0.6554555296897888, -0.5689050555229187, -0.2005210518836975, 0.172119140625, 0.805908203125, 0.490234375, 
68, 2927767442, 0.39003971219062805, -0.798007607460022, 0.456545889377594, 0.05131707340478897, -4.393025875091553, -5.632313251495361, -6.975966930389404, -0.756862223148346, -0.5991297960281372, -0.26888543367385864, 0.169677734375, 0.80419921875, 0.490234375, 
69, 2927775775, 0.39001235365867615, -0.7980180382728577, 0.4565499424934387, 0.05132816731929779, -4.393948554992676, -5.617921352386475, -6.975488185882568, -0.8620599508285522, -0.6258710622787476, -0.1127154529094696, 0.169189453125, 0.8056640625, 0.490234375, 
70, 2927784108, 0.3900144696235657, -0.7980244159698486, 0.45653554797172546, 0.051339395344257355, -4.3680338859558105, -5.6915459632873535, -6.950353145599365, -0.5840173959732056, -0.9117516279220581, -0.26732298731803894, 0.169677734375, 0.80615234375, 0.49169921875, 
71, 2927792441, 0.3900180757045746, -0.7980307340621948, 0.45652127265930176, 0.05134174972772598, -4.328099250793457, -5.668950080871582, -6.925547122955322, -0.45942968130111694, -0.8239203095436096, -0.3556920886039734, 0.170654296875, 0.80322265625, 0.49267578125, 
72, 2927800774, 0.39005446434020996, -0.7980274558067322, 0.4564960300922394, 0.05134044587612152, -4.344873428344727, -5.6815104484558105, -6.916149139404297, -0.08461661636829376, -1.0544739961624146, -0.41788339614868164, 0.170166015625, 0.80419921875, 0.49267578125, 
73, 2927809107, 0.3900655210018158, -0.7980276942253113, 0.4564858675003052, 0.05134379863739014, -4.333271503448486, -5.613100528717041, -6.925555229187012, -0.34875062108039856, -0.8649030327796936, -0.27160051465034485, 0.169677734375, 0.80517578125, 0.4921875, 
74, 2927817440, 0.39007365703582764, -0.7980276942253113, 0.4564758241176605, 0.051370829343795776, -4.364035129547119, -5.62747049331665, -6.906949520111084, -0.5785102844238281, -1.1043449640274048, -0.10075359791517258, 0.170166015625, 0.80517578125, 0.49072265625, 
75, 2927825773, 0.3900967836380005, -0.7980267405509949, 0.4564568102359772, 0.05137988179922104, -4.415078163146973, -5.701094627380371, -6.925532817840576, -0.2509298324584961, -1.0521942377090454, -0.339811235666275, 0.171630859375, 0.80322265625, 0.4921875, 
76, 2927834106, 0.3901471197605133, -0.7980163097381592, 0.4564337432384491, 0.05136508494615555, -4.43144416809082, -5.704213619232178, -6.895219802856445, 0.19249098002910614, -0.9863401651382446, -0.4309210777282715, 0.169677734375, 0.80517578125, 0.49169921875, 
77, 2927842439, 0.3901718258857727, -0.7980124354362488, 0.45642000436782837, 0.05135738104581833, -4.481241703033447, -5.690830707550049, -6.889761924743652, -0.10951366275548935, -0.8530948758125305, -0.3562811613082886, 0.167236328125, 0.8046875, 0.490234375, 
78, 2927850772, 0.3901508152484894, -0.798023521900177, 0.4564207196235657, 0.05133835971355438, -4.456228256225586, -5.6238789558410645, -6.911405086517334, -0.662038266658783, -0.350671648979187, -0.27692827582359314, 0.171142578125, 0.8056640625, 0.49267578125, 
79, 2927859105, 0.3901163339614868, -0.7980343103408813, 0.4564313292503357, 0.05134059488773346, -4.43308162689209, -5.610711574554443, -6.876664638519287, -0.8818084597587585, -0.44815945625305176, -0.08428363502025604, 0.169677734375, 0.80517578125, 0.490234375, 
80, 2927867438, 0.39009782671928406, -0.7980474233627319, 0.4564254879951477, 0.05132769048213959, -4.403554916381836, -5.680351734161377, -6.896720886230469, -0.6888563632965088, -0.46634551882743835, -0.3309231102466583, 0.170166015625, 0.80517578125, 0.49267578125, 
81, 2927875771, 0.39009013772010803, -0.7980560064315796, 0.45641908049583435, 0.05131065845489502, -4.3765740394592285, -5.7070746421813965, -6.890662670135498, -0.46826663613319397, -0.4979279041290283, -0.37930840253829956, 0.170166015625, 0.80517578125, 0.490234375, 
82, 2927884104, 0.3901163637638092, -0.7980543375015259, 0.4564041495323181, 0.051270246505737305, -4.342047691345215, -5.728611469268799, -6.880670070648193, 0.049230560660362244, -0.5051255226135254, -0.5183168053627014, 0.167724609375, 0.806640625, 0.4912109375, 
83, 2927892437, 0.3901218771934509, -0.798059344291687, 0.4563954472541809, 0.05122748017311096, -4.347240924835205, -5.696516990661621, -6.873352527618408, -0.14457954466342926, -0.31317245960235596, -0.5302530527114868, 0.171142578125, 0.8046875, 0.49072265625, 
84, 2927900770, 0.39012202620506287, -0.7980664372444153, 0.45638608932495117, 0.051198750734329224, -4.329007625579834, -5.610482692718506, -6.881278038024902, -0.35523098707199097, -0.43212494254112244, -0.4311515986919403, 0.168701171875, 0.8076171875, 0.490234375, 
85, 2927909103, 0.3901378810405731, -0.7980719804763794, 0.45636558532714844, 0.05117539316415787, -4.373863220214844, -5.660058975219727, -6.913187026977539, -0.16279128193855286, -0.6540210247039795, -0.5657544136047363, 0.170654296875, 0.80517578125, 0.4931640625, 
86, 2927917436, 0.3901783227920532, -0.7980678081512451, 0.4563431739807129, 0.05113153159618378, -4.404828071594238, -5.680995464324951, -6.92551851272583, 0.23209057748317719, -0.5983100533485413, -0.6124235391616821, 0.168701171875, 0.80419921875, 0.49267578125, 
87, 2927925769, 0.39021843671798706, -0.7980613708496094, 0.4563257396221161, 0.05108039081096649, -4.429204940795898, -5.649937629699707, -6.935568332672119, 0.3456385135650635, -0.4950079321861267, -0.6235402226448059, 0.168701171875, 0.8056640625, 0.49072265625, 
88, 2927934102, 0.3902348279953003, -0.798067569732666, 0.45630642771720886, 0.05103202164173126, -4.429176330566406, -5.616269111633301, -6.946662425994873, -0.056620266288518906, -0.3723413348197937, -0.6495898365974426, 0.168701171875, 0.80419921875, 0.490234375, 
89, 2927942435, 0.3902096152305603, -0.7980855107307434, 0.4562986493110657, 0.05101478844881058, -4.482264041900635, -5.496424198150635, -7.002812385559082, -0.7091172337532043, -0.3861730098724365, -0.44303658604621887, 0.166748046875, 0.80615234375, 0.49072265625, 
90, 2927950768, 0.39016082882881165, -0.7981218099594116, 0.45627865195274353, 0.05099952220916748, -4.449368953704834, -5.649280071258545, -6.948114395141602, -1.140512228012085, -0.31096962094306946, -0.6237450242042542, 0.169677734375, 0.8046875, 0.49169921875, 
91, 2927959101, 0.3901353180408478, -0.7981428503990173, 0.45626476407051086, 0.050986841320991516, -4.4317946434021, -5.664178848266602, -6.938680171966553, -0.7628815174102783, -0.4642964005470276, -0.5060219764709473, 0.168701171875, 0.80615234375, 0.4912109375, 
92, 2927967434, 0.39015254378318787, -0.7981462478637695, 0.4562450349330902, 0.05097796022891998, -4.411129474639893, -5.760985851287842, -6.936734676361084, -0.2785932421684265, -0.8157236576080322, -0.4249529540538788, 0.167724609375, 0.80615234375, 0.49072265625, 
93, 2927975767, 0.39017438888549805, -0.7981443405151367, 0.456232488155365, 0.0509529784321785, -4.375701427459717, -5.751021862030029, -6.94094705581665, -0.040483295917510986, -0.6360910534858704, -0.444624662399292, 0.170654296875, 0.80615234375, 0.490234375, 
94, 2927984100, 0.39018672704696655, -0.7981442213058472, 0.4562237858772278, 0.05093876272439957, -4.368827819824219, -5.67824125289917, -6.9143242835998535, -0.27444368600845337, -0.6697738170623779, -0.30853626132011414, 0.167236328125, 0.806640625, 0.49072265625, 
95, 2927992433, 0.3901911973953247, -0.7981523871421814, 0.4562063217163086, 0.05093397945165634, -4.336217880249023, -5.708827018737793, -6.897436618804932, -0.4159623980522156, -0.7684655785560608, -0.4421401619911194, 0.169189453125, 0.80615234375, 0.49072265625, 
96, 2928000766, 0.39020711183547974, -0.7981563806533813, 0.4561874270439148, 0.05091634392738342, -4.33954381942749, -5.709699630737305, -6.903409004211426, -0.24124766886234283, -0.7074779272079468, -0.468292236328125, 0.168212890625, 0.80712890625, 0.4892578125, 
97, 2928009099, 0.3902236521244049, -0.7981588840484619, 0.45616990327835083, 0.050909921526908875, -4.335216999053955, -5.707618236541748, -6.898609638214111, -0.24222099781036377, -0.8290430903434753, -0.42387714982032776, 0.168212890625, 0.80517578125, 0.48974609375, 
98, 2928017432, 0.3902495205402374, -0.7981547117233276, 0.45615577697753906, 0.05090349167585373, -4.346282482147217, -5.675329685211182, -6.951176166534424, -0.15618279576301575, -0.8726897835731506, -0.31127700209617615, 0.16796875, 0.8076171875, 0.49072265625, 
99, 2928025765, 0.39026832580566406, -0.7981529235839844, 0.45614367723464966, 0.050896212458610535, -4.364799976348877, -5.625117778778076, -6.949365615844727, -0.18556232750415802, -0.8092176914215088, -0.34319230914115906, 0.169189453125, 0.806640625, 0.49072265625, 
100, 2928034098, 0.3902926743030548, -0.7981477975845337, 0.45613351464271545, 0.050880491733551025, -4.375265121459961, -5.664193153381348, -6.958135604858398, -0.10641434788703918, -0.7411606311798096, -0.3100731074810028, 0.168701171875, 0.806640625, 0.4921875, 
101, 2928042431, 0.3903215825557709, -0.7981402277946472, 0.4561235308647156, 0.05086613446474075, -4.369879245758057, -5.711745262145996, -6.925339698791504, 0.002100367099046707, -0.7867796421051025, -0.33138415217399597, 0.168701171875, 0.8076171875, 0.4892578125, 
102, 2928050764, 0.3903399407863617, -0.7981389760971069, 0.4561132788658142, 0.05083741992712021, -4.36443567276001, -5.6865315437316895, -6.891292095184326, -0.1115628108382225, -0.5575323104858398, -0.39816048741340637, 0.168212890625, 0.80615234375, 0.4921875, 
103, 2928059097, 0.39034828543663025, -0.7981444001197815, 0.4560987651348114, 0.050818584859371185, -4.383340835571289, -5.671195983886719, -6.926319599151611, -0.2685524523258209, -0.624590277671814, -0.4710072875022888, 0.168212890625, 0.806640625, 0.490234375, 
104, 2928067430, 0.39036718010902405, -0.7981475591659546, 0.4560803174972534, 0.05078902840614319, -4.377811908721924, -5.707675457000732, -6.926748752593994, -0.1292366236448288, -0.5924444794654846, -0.5230299234390259, 0.166748046875, 0.8056640625, 0.490234375, 
105, 2928075763, 0.39038538932800293, -0.7981531620025635, 0.4560573399066925, 0.050766997039318085, -4.3680620193481445, -5.72636604309082, -6.909532070159912, -0.1467055231332779, -0.6974371075630188, -0.5894219875335693, 0.167236328125, 0.80615234375, 0.4921875, 
106, 2928084096, 0.3904051184654236, -0.7981659770011902, 0.4560216963291168, 0.05073452740907669, -4.427946090698242, -5.6932549476623535, -6.919051647186279, -0.1651477813720703, -0.6525354981422424, -0.7884190678596497, 0.1669921875, 0.8076171875, 0.4912109375, 
107, 2928092429, 0.3903975784778595, -0.7981724143028259, 0.4560199975967407, 0.05070590227842331, -4.36476469039917, -5.6081366539001465, -6.913694858551025, -0.3774385452270508, -0.3482895493507385, -0.3763371407985687, 0.169189453125, 0.80810546875, 0.493408203125, 
108, 2928100762, 0.39038312435150146, -0.7981828451156616, 0.456015944480896, 0.0506884902715683, -4.386745452880859, -5.635303020477295, -6.897694110870361, -0.6011276245117188, -0.43381547927856445, -0.32183003425598145, 0.168212890625, 0.8076171875, 0.49169921875, 
109, 2928109095, 0.39037013053894043, -0.7981933355331421, 0.4560094177722931, 0.05068283528089523, -4.417259693145752, -5.715414524078369, -6.938179016113281, -0.607864260673523, -0.5894732475280762, -0.32959118485450745, 0.16796875, 0.80859375, 0.490234375, 
110, 2928117428, 0.39037275314331055, -0.7981910109519958, 0.4560127854347229, 0.05066980421543121, -4.421658515930176, -5.700572490692139, -6.9430999755859375, -0.36652690172195435, -0.5583518743515015, -0.14970239996910095, 0.168701171875, 0.80712890625, 0.490234375, 
111, 2928125761, 0.390386700630188, -0.7981783151626587, 0.45602381229400635, 0.05066375434398651, -4.474874973297119, -5.704986095428467, -6.959801197052002, -0.1716281622648239, -0.6763567328453064, -0.013255366124212742, 0.16943359375, 0.808349609375, 0.48974609375, 
112, 2928134094, 0.390400767326355, -0.7981626987457275, 0.45604151487350464, 0.050641171634197235, -4.4338178634643555, -5.69280481338501, -6.951839923858643, -0.10016446560621262, -0.45827704668045044, 0.03345219045877457, 0.167724609375, 0.8076171875, 0.49169921875, 
113, 2928142427, 0.39041346311569214, -0.7981408834457397, 0.4560691714286804, 0.05063783377408981, -4.4360857009887695, -5.7655134201049805, -6.95473051071167, -0.1418900489807129, -0.6133456826210022, 0.24274612963199615, 0.169189453125, 0.806640625, 0.49072265625, 
114, 2928150760, 0.3904360830783844, -0.798115611076355, 0.45609384775161743, 0.05063831806182861, -4.458874702453613, -5.7647624015808105, -6.948386192321777, -0.09381213039159775, -0.7353718280792236, 0.2871355414390564, 0.168212890625, 0.8076171875, 0.49169921875, 
115, 2928159093, 0.39048972725868225, -0.7980830073356628, 0.4561038017272949, 0.050650715827941895, -4.466042518615723, -5.736250877380371, -6.917279243469238, 0.2540932297706604, -1.1469415426254272, 0.17217889428138733, 0.16796875, 0.80810546875, 0.4912109375, 
116, 2928167426, 0.39055266976356506, -0.7980531454086304, 0.45610159635543823, 0.05065571516752243, -4.452873706817627, -5.751880168914795, -6.915790557861328, 0.3261716365814209, -1.1848760843276978, 0.01664925180375576, 0.16748046875, 0.8076171875, 0.4912109375, 
117, 2928175759, 0.3906169831752777, -0.7980301380157471, 0.45608586072921753, 0.050663210451602936, -4.403719902038574, -5.701852798461914, -6.921377658843994, 0.33283135294914246, -1.2894333600997925, -0.20372283458709717, 0.168701171875, 0.8076171875, 0.490234375, 
118, 2928184092, 0.390671968460083, -0.798010528087616, 0.45607155561447144, 0.05067795515060425, -4.370630741119385, -5.665988445281982, -6.914132118225098, 0.11457246541976929, -1.2998583316802979, -0.12250005453824997, 0.16845703125, 0.807861328125, 0.48828125, 
119, 2928192425, 0.3907015919685364, -0.7980011701583862, 0.4560616612434387, 0.05068444460630417, -4.351374626159668, -5.593222618103027, -6.885090351104736, -0.11169087141752243, -1.0206631422042847, -0.20602808892726898, 0.169677734375, 0.8056640625, 0.48876953125, 
120, 2928200758, 0.3907139003276825, -0.7980013489723206, 0.45605090260505676, 0.050683267414569855, -4.346096038818359, -5.563903331756592, -6.923044204711914, -0.3558969795703888, -0.8248423933982849, -0.26284047961235046, 0.16943359375, 0.808837890625, 0.48974609375, 
121, 2928209091, 0.3907296061515808, -0.7980092167854309, 0.45602378249168396, 0.05068293958902359, -4.3339433670043945, -5.532316207885742, -6.918200969696045, -0.32568496465682983, -0.938018798828125, -0.5305988192558289, 0.169189453125, 0.806640625, 0.4912109375, 
122, 2928217424, 0.390752375125885, -0.7980127930641174, 0.45599889755249023, 0.05067399889230728, -4.3298163414001465, -5.516308307647705, -6.918336868286133, -0.22295910120010376, -0.8784785866737366, -0.4876309633255005, 0.1650390625, 0.806640625, 0.48974609375, 
123, 2928225757, 0.39075708389282227, -0.7980234026908875, 0.45597630739212036, 0.05067356675863266, -4.348721027374268, -5.537108898162842, -6.899668216705322, -0.45684266090393066, -0.8441299200057983, -0.4922671616077423, 0.16796875, 0.809326171875, 0.48974609375, 
124, 2928234090, 0.39077070355415344, -0.7980338931083679, 0.4559488296508789, 0.05065106600522995, -4.361581802368164, -5.567558765411377, -6.851716041564941, -0.27618545293807983, -0.6800451278686523, -0.6264345049858093, 0.1708984375, 0.811767578125, 0.430908203125, 
125, 2928242423, 0.3907902240753174, -0.7980443835258484, 0.4559186100959778, 0.050608083605766296, -4.388462066650391, -5.61445951461792, -6.861178398132324, -0.03077550232410431, -0.5100435018539429, -0.812188982963562, 0.171142578125, 0.810791015625, 0.429443359375, 
126, 2928250756, 0.3908303380012512, -0.7980493903160095, 0.4558812975883484, 0.05055467039346695, -4.398983955383301, -5.649129390716553, -6.897336483001709, 0.2300157994031906, -0.5632441639900208, -0.8838319182395935, 0.18115234375, 0.820068359375, 0.431396484375, 
127, 2928259089, 0.390863835811615, -0.798064649105072, 0.455832839012146, 0.05049338936805725, -4.394234657287598, -5.67408561706543, -6.9048967361450195, 0.19866400957107544, -0.49231839179992676, -1.1525509357452393, 0.1708984375, 0.813232421875, 0.43017578125, 
128, 2928267422, 0.39089739322662354, -0.7980853915214539, 0.4557744860649109, 0.05043411999940872, -4.351531982421875, -5.6732988357543945, -6.908008098602295, 0.0962839126586914, -0.5612463355064392, -1.239946722984314, 0.17138671875, 0.814208984375, 0.4306640625, 
129, 2928275755, 0.3909149467945099, -0.7981199026107788, 0.45570501685142517, 0.050377361476421356, -4.368434906005859, -5.722196578979492, -6.909982681274414, -0.12319166958332062, -0.5405499935150146, -1.4677084684371948, 0.16845703125, 0.815185546875, 0.428955078125, 
130, 2928284088, 0.3909241557121277, -0.7981595396995544, 0.4556350111961365, 0.0503111407160759, -4.345187664031982, -5.6970391273498535, -6.908952236175537, -0.23643217980861664, -0.3833042085170746, -1.5086911916732788, 0.1669921875, 0.813720703125, 0.429443359375, 
131, 2928292421, 0.3909241557121277, -0.798200249671936, 0.4555709958076477, 0.05024571716785431, -4.33189058303833, -5.705322265625, -6.9520769119262695, -0.29068315029144287, -0.302542507648468, -1.4814120531082153, 0.1689453125, 0.815185546875, 0.429931640625, 
132, 2928300754, 0.3909277319908142, -0.7982422113418579, 0.4555026888847351, 0.050171904265880585, -4.328828811645508, -5.687947750091553, -6.973149299621582, -0.26260995864868164, -0.2538242042064667, -1.5406320095062256, 0.17333984375, 0.815673828125, 0.43115234375, 
133, 2928309087, 0.3909498453140259, -0.7982754111289978, 0.45543235540390015, 0.050108782947063446, -4.3596720695495605, -5.651260852813721, -6.966253757476807, -0.02654915675520897, -0.5054073333740234, -1.506334900856018, 0.1689453125, 0.815673828125, 0.429443359375, 
134, 2928317420, 0.3909735083580017, -0.7983041405677795, 0.45536890625953674, 0.05004265159368515, -4.348691940307617, -5.709169864654541, -6.925225257873535, -0.016098545864224434, -0.44531625509262085, -1.3760095834732056, 0.173828125, 0.81640625, 0.4287109375, 
135, 2928325753, 0.39098644256591797, -0.7983358502388, 0.4553091824054718, 0.04997928440570831, -4.343857288360596, -5.686002254486084, -6.907299995422363, -0.11046138405799866, -0.38922104239463806, -1.376163125038147, 0.1708984375, 0.815185546875, 0.4306640625, 
136, 2928334086, 0.39099645614624023, -0.7983676195144653, 0.4552520513534546, 0.049914754927158356, -4.327298641204834, -5.694250106811523, -6.8866143226623535, -0.1879444569349289, -0.3425007462501526, -1.309643030166626, 0.17333984375, 0.818359375, 0.43212890625, 
137, 2928342419, 0.3910258710384369, -0.7983907461166382, 0.4551944136619568, 0.049837931990623474, -4.345001697540283, -5.750613689422607, -6.89153528213501, 0.20335139334201813, -0.33950385451316833, -1.382361650466919, 0.1689453125, 0.816650390625, 0.43017578125, 
138, 2928350752, 0.39104995131492615, -0.7984113693237305, 0.45514488220214844, 0.04977285861968994, -4.318556785583496, -5.6935834884643555, -6.927928924560547, 0.03501466289162636, -0.39132148027420044, -1.16750967502594, 0.169921875, 0.816162109375, 0.43017578125, 
139, 2928359085, 0.3910377323627472, -0.7984445095062256, 0.4551011025905609, 0.04973679780960083, -4.34166145324707, -5.706088066101074, -6.9236369132995605, -0.5529216527938843, -0.4464176595211029, -1.0455859899520874, 0.17041015625, 0.817138671875, 0.42919921875, 
140, 2928367418, 0.3910335302352905, -0.7984833717346191, 0.4550402760505676, 0.04970209300518036, -4.360301494598389, -5.773853302001953, -6.942420482635498, -0.5715944766998291, -0.5952107906341553, -1.223912239074707, 0.16796875, 0.816650390625, 0.4306640625, 
141, 2928375751, 0.39103472232818604, -0.7985154986381531, 0.45498621463775635, 0.049672141671180725, -4.363970756530762, -5.777859210968018, -6.947620868682861, -0.44669944047927856, -0.6523561477661133, -1.1281918287277222, 0.16943359375, 0.81787109375, 0.42822265625, 
142, 2928384084, 0.39104288816452026, -0.7985464334487915, 0.45492714643478394, 0.04965317249298096, -4.389721393585205, -5.781521320343018, -6.946554660797119, -0.4907815456390381, -0.8413122892379761, -1.0792173147201538, 0.1689453125, 0.816162109375, 0.4296875, 
143, 2928392417, 0.39104634523391724, -0.798576295375824, 0.4548743963241577, 0.04962584376335144, -4.422051906585693, -5.784082412719727, -6.943057537078857, -0.42290380597114563, -0.6900602579116821, -1.0849549770355225, 0.16845703125, 0.818115234375, 0.4306640625, 
144, 2928400750, 0.3910456895828247, -0.798609733581543, 0.45481833815574646, 0.049607470631599426, -4.40873384475708, -5.759719371795654, -6.959951877593994, -0.6029974818229675, -0.774664044380188, -1.0529884099960327, 0.18017578125, 0.822509765625, 0.433837890625, 
145, 2928409083, 0.3910462260246277, -0.7986357808113098, 0.4547726511955261, 0.04960223287343979, -4.393984317779541, -5.7633891105651855, -6.940060138702393, -0.5696990489959717, -0.8786323666572571, -0.8644933104515076, 0.170166015625, 0.819580078125, 0.431640625, 
146, 2928417416, 0.39105209708213806, -0.7986570596694946, 0.4547308683395386, 0.04959782212972641, -4.375429630279541, -5.72532844543457, -6.900376319885254, -0.5423685908317566, -0.9003018736839294, -0.7484862804412842, 0.16796875, 0.816650390625, 0.431640625, 
147, 2928425749, 0.3910500407218933, -0.7986732125282288, 0.4547033905982971, 0.049605049192905426, -4.332212448120117, -5.7405500411987305, -6.900025844573975, -0.6114245653152466, -0.9098560214042664, -0.5339414477348328, 0.16943359375, 0.818603515625, 0.4306640625, 
148, 2928434082, 0.39105454087257385, -0.7986829280853271, 0.45468151569366455, 0.04961293190717697, -4.334650993347168, -5.717374801635742, -6.915439128875732, -0.5591971278190613, -0.9272224307060242, -0.3903225064277649, 0.169921875, 0.816650390625, 0.43115234375, 
149, 2928442415, 0.3910553455352783, -0.7986928224563599, 0.4546624422073364, 0.049622394144535065, -4.364678859710693, -5.713533401489258, -6.902243137359619, -0.5525374412536621, -0.9115722179412842, -0.39237165451049805, 0.1689453125, 0.817626953125, 0.42919921875, 
150, 2928450748, 0.391065388917923, -0.7986931800842285, 0.4546535015106201, 0.04961977154016495, -4.383626937866211, -5.752523899078369, -6.901606559753418, -0.37382692098617554, -0.7831168174743652, -0.2496747374534607, 0.168701171875, 0.819580078125, 0.43310546875, 
151, 2928459081, 0.39106014370918274, -0.798696756362915, 0.4546501338481903, 0.049632057547569275, -4.391294956207275, -5.776736259460449, -6.926920413970947, -0.5933409333229065, -0.8240482807159424, -0.16120317578315735, 0.169921875, 0.818115234375, 0.42919921875, 
152, 2928467414, 0.39105796813964844, -0.7986962795257568, 0.45465087890625, 0.04965055733919144, -4.385179042816162, -5.769933700561523, -6.9383649826049805, -0.6278689503669739, -0.8866238594055176, -0.01732802949845791, 0.168212890625, 0.819580078125, 0.4296875, 
153, 2928475747, 0.39106398820877075, -0.7986934781074524, 0.45464879274368286, 0.04966823756694794, -4.368870258331299, -5.7853264808654785, -6.903322219848633, -0.4686252176761627, -0.9515048265457153, -0.08671698719263077, 0.168212890625, 0.821044921875, 0.4306640625, 
154, 2928484080, 0.39108383655548096, -0.7986822128295898, 0.45464953780174255, 0.04968427121639252, -4.373498439788818, -5.772365570068359, -6.925904750823975, -0.31399208307266235, -1.005986213684082, 0.022002626210451126, 0.166748046875, 0.817138671875, 0.430908203125, 
155, 2928492413, 0.3911043107509613, -0.7986729741096497, 0.45464640855789185, 0.04970303177833557, -4.361639022827148, -5.731709003448486, -6.892801284790039, -0.2801300883293152, -1.0630803108215332, -0.060334328562021255, 0.1708984375, 0.817626953125, 0.43115234375, 
156, 2928500746, 0.3911309242248535, -0.7986629605293274, 0.45464032888412476, 0.04970892518758774, -4.374099254608154, -5.735592842102051, -6.880105018615723, -0.18717603385448456, -0.9727902412414551, -0.11865794658660889, 0.1689453125, 0.818115234375, 0.4296875, 
157, 2928509079, 0.3911539316177368, -0.798651397228241, 0.45464038848876953, 0.04971378296613693, -4.368870735168457, -5.691674709320068, -6.888187885284424, -0.15308347344398499, -0.9093181490898132, -0.08722927421331406, 0.16845703125, 0.816162109375, 0.43115234375, 
158, 2928517412, 0.3911861479282379, -0.7986405491828918, 0.45463263988494873, 0.04970667511224747, -4.3756937980651855, -5.664400577545166, -6.895919322967529, -0.04161032289266586, -0.8749694228172302, -0.20674529671669006, 0.171630859375, 0.82080078125, 0.431640625, 
159, 2928525745, 0.3911992311477661, -0.7986359596252441, 0.4546293318271637, 0.04970843344926834, -4.366302967071533, -5.634745121002197, -6.8584818840026855, -0.28174376487731934, -0.8272757530212402, -0.1787489354610443, 0.168212890625, 0.818115234375, 0.42919921875, 
160, 2928534078, 0.3912148177623749, -0.7986278533935547, 0.45463141798973083, 0.049696601927280426, -4.3950066566467285, -5.640753269195557, -6.827094554901123, -0.20244209468364716, -0.6639593839645386, -0.13015872240066528, 0.16943359375, 0.816650390625, 0.43115234375, 
161, 2928542411, 0.39120349287986755, -0.7986254096031189, 0.45464766025543213, 0.04967518895864487, -4.354078769683838, -5.643421649932861, -6.847580909729004, -0.40400052070617676, -0.31281381845474243, -0.08494959771633148, 0.17041015625, 0.815673828125, 0.43115234375, 
162, 2928550744, 0.39118945598602295, -0.7986228466033936, 0.4546676278114319, 0.04964331537485123, -4.345409393310547, -5.64790678024292, -6.884211540222168, -0.4194971024990082, -0.1593845784664154, -0.05638973414897919, 0.1875, 0.8251953125, 0.4326171875, 
163, 2928559077, 0.39116472005844116, -0.7986295223236084, 0.4546806216239929, 0.04961208254098892, -4.320367336273193, -5.6611247062683105, -6.920246601104736, -0.5401401519775391, -0.13064540922641754, -0.22083312273025513, 0.166748046875, 0.818115234375, 0.430419921875, 
164, 2928567410, 0.3911401331424713, -0.7986408472061157, 0.45468592643737793, 0.04957566410303116, -4.310396194458008, -5.679443359375, -6.921219825744629, -0.5914967060089111, -0.11297158151865005, -0.32142022252082825, 0.16796875, 0.817626953125, 0.43017578125, 
165, 2928575743, 0.39111366868019104, -0.7986553311347961, 0.45468607544898987, 0.04955023527145386, -4.342526912689209, -5.673399925231934, -6.905834674835205, -0.6469514966011047, -0.24931612610816956, -0.3796413540840149, 0.166259765625, 0.819580078125, 0.42919921875, 
166, 2928584076, 0.39110398292541504, -0.7986713647842407, 0.4546692967414856, 0.049521103501319885, -4.358255863189697, -5.684307098388672, -6.9252753257751465, -0.5136294364929199, -0.4019257426261902, -0.5637052059173584, 0.169189453125, 0.820556640625, 0.4306640625, 
167, 2928592409, 0.3911136984825134, -0.7986871600151062, 0.45463651418685913, 0.04949098080396652, -4.353792667388916, -5.720865249633789, -6.908880710601807, -0.24918806552886963, -0.6005641222000122, -0.8004320859909058, 0.1669921875, 0.816650390625, 0.429931640625, 
168, 2928600742, 0.39114856719970703, -0.7986918091773987, 0.45460206270217896, 0.04945690929889679, -4.382754325866699, -5.72499942779541, -6.915440082550049, 0.055864643305540085, -0.7279692888259888, -0.7424925565719604, 0.170654296875, 0.8193359375, 0.4287109375, 
169, 2928609075, 0.39119091629981995, -0.7986907362937927, 0.45457226037979126, 0.049413420259952545, -4.37578010559082, -5.732295513153076, -6.905712127685547, 0.2844460606575012, -0.6548663377761841, -0.7567341327667236, 0.16748046875, 0.817626953125, 0.4306640625, 
170, 2928617408, 0.39123857021331787, -0.798688530921936, 0.45453983545303345, 0.049370892345905304, -4.407016754150391, -5.703863143920898, -6.939273357391357, 0.288006454706192, -0.7074010968208313, -0.7305819988250732, 0.16748046875, 0.817626953125, 0.4306640625, 
171, 2928625741, 0.3912729024887085, -0.7986907958984375, 0.4545111060142517, 0.04932403564453125, -4.393640995025635, -5.676331520080566, -6.911842346191406, 0.20032893121242523, -0.5579676628112793, -0.7782244682312012, 0.172607421875, 0.82177734375, 0.43212890625, 
172, 2928634074, 0.3913023769855499, -0.7986927032470703, 0.4544868767261505, 0.049284376204013824, -4.362146854400635, -5.647162437438965, -6.93646240234375, 0.05407164618372917, -0.5809692740440369, -0.6397026777267456, 0.167724609375, 0.819580078125, 0.43115234375, 
173, 2928642407, 0.39130544662475586, -0.7986992597579956, 0.4544766843318939, 0.049248360097408295, -4.365852355957031, -5.61229944229126, -6.93571138381958, -0.2203720659017563, -0.37779712677001953, -0.5203403830528259, 0.167236328125, 0.818115234375, 0.431640625, 
174, 2928650740, 0.39129412174224854, -0.7987144589424133, 0.4544622302055359, 0.04922433942556381, -4.375300884246826, -5.655359745025635, -6.975094795227051, -0.5588129758834839, -0.4356597065925598, -0.5058939456939697, 0.168212890625, 0.819091796875, 0.43017578125, 
175, 2928659073, 0.39126938581466675, -0.798730731010437, 0.45445576310157776, 0.04921621084213257, -4.317048072814941, -5.637877941131592, -6.935461044311523, -0.7483327388763428, -0.4853769838809967, -0.371419221162796, 0.169189453125, 0.819091796875, 0.43017578125, 
176, 2928667406, 0.39126303791999817, -0.7987459301948547, 0.45443394780158997, 0.04922100156545639, -4.345358848571777, -5.698119163513184, -6.942326545715332, -0.6884722113609314, -0.8211538791656494, -0.43391790986061096, 0.167236328125, 0.818603515625, 0.4306640625, 
177, 2928675739, 0.39127102494239807, -0.7987587451934814, 0.4544048011302948, 0.04921834170818329, -4.335488319396973, -5.731837749481201, -6.915368556976318, -0.4211876392364502, -0.8749694228172302, -0.5922139286994934, 0.172607421875, 0.8212890625, 0.4306640625, 
178, 2928684072, 0.39129918813705444, -0.7987666130065918, 0.45436736941337585, 0.04921179264783859, -4.351188659667969, -5.781650066375732, -6.9104905128479, -0.20958848297595978, -1.003015160560608, -0.6446462273597717, 0.169677734375, 0.81982421875, 0.4296875, 
179, 2928692405, 0.3913474380970001, -0.7987630367279053, 0.4543345868587494, 0.049190789461135864, -4.376739501953125, -5.814524173736572, -6.941949367523193, 0.2216399908065796, -0.9540918469429016, -0.656428873538971, 0.166748046875, 0.820068359375, 0.43115234375, 
180, 2928700738, 0.391411155462265, -0.798757016658783, 0.4542933702468872, 0.04916173964738846, -4.433010101318359, -5.746644020080566, -6.930832862854004, 0.3937676250934601, -1.0078048706054688, -0.7440294623374939, 0.1875, 0.82666015625, 0.4306640625, 
181, 2928709071, 0.3914521634578705, -0.7987549304962158, 0.45426374673843384, 0.04914318770170212, -4.35798454284668, -5.740177631378174, -6.914926052093506, 0.12220551818609238, -0.9182575941085815, -0.6120137572288513, 0.167236328125, 0.818603515625, 0.4296875, 
182, 2928717404, 0.3914867341518402, -0.7987617254257202, 0.4542236924171448, 0.04912792891263962, -4.415664196014404, -5.775599479675293, -6.925174713134766, -0.08021098375320435, -0.9618528485298157, -0.7150854468345642, 0.166748046875, 0.821044921875, 0.4296875, 
183, 2928725737, 0.391493022441864, -0.7987693548202515, 0.45420488715171814, 0.049126677215099335, -4.392754077911377, -5.69447135925293, -6.8762640953063965, -0.4127606153488159, -0.8265841007232666, -0.43747830390930176, 0.166748046875, 0.819091796875, 0.42919921875, 
184, 2928734070, 0.39147475361824036, -0.7987854480743408, 0.4541913866996765, 0.04913412779569626, -4.355295181274414, -5.682496547698975, -6.847508907318115, -0.8346782326698303, -0.7320676445960999, -0.32664552330970764, 0.172119140625, 0.822265625, 0.43115234375, 
185, 2928742403, 0.39144814014434814, -0.7987945675849915, 0.45419684052467346, 0.04914996773004532, -4.344393730163574, -5.734570026397705, -6.890777587890625, -0.8740473389625549, -0.6767920851707458, -0.06604630500078201, 0.167724609375, 0.819091796875, 0.431640625, 
186, 2928750736, 0.3914058804512024, -0.7988029718399048, 0.45421671867370605, 0.049164965748786926, -4.344222068786621, -5.707467079162598, -6.9073567390441895, -1.0804213285446167, -0.49106332659721375, 0.14638535678386688, 0.162841796875, 0.820556640625, 0.429931640625, 
187, 2928759069, 0.391375333070755, -0.7988057136535645, 0.4542366862297058, 0.04917830973863602, -4.31566047668457, -5.77979040145874, -6.9254326820373535, -0.8560917377471924, -0.5515128374099731, 0.12284586578607559, 0.167724609375, 0.818603515625, 0.43115234375, 
188, 2928767402, 0.3913493752479553, -0.7988055348396301, 0.45425844192504883, 0.0491865798830986, -4.314072608947754, -5.762301445007324, -6.924123764038086, -0.8133671879768372, -0.514602780342102, 0.1726655513048172, 0.169189453125, 0.8193359375, 0.42919921875, 
189, 2928775735, 0.39133986830711365, -0.7987967133522034, 0.45428138971328735, 0.04919572174549103, -4.311154365539551, -5.736336708068848, -6.904489040374756, -0.5363237261772156, -0.6267932057380676, 0.19044186174869537, 0.170166015625, 0.8203125, 0.431640625, 
190, 2928784068, 0.39134544134140015, -0.798787534236908, 0.4542921781539917, 0.04920025169849396, -4.351932525634766, -5.7958269119262695, -6.889468193054199, -0.40177208185195923, -0.7354230880737305, 0.06690438836812973, 0.167236328125, 0.820068359375, 0.43115234375, 
191, 2928792401, 0.391348659992218, -0.7987815737724304, 0.4542999267578125, 0.049199000000953674, -4.346826076507568, -5.780970573425293, -6.919346332550049, -0.35615313053131104, -0.6749222874641418, -0.05920730158686638, 0.167236328125, 0.820068359375, 0.4287109375, 
192, 2928800734, 0.3913729190826416, -0.7987735867500305, 0.45429450273513794, 0.049186572432518005, -4.354722499847412, -5.787100791931152, -6.901957035064697, -0.10879646986722946, -0.7516369223594666, -0.22062820196151733, 0.168701171875, 0.818603515625, 0.4306640625, 
193, 2928809067, 0.3913983106613159, -0.7987668514251709, 0.4542860686779022, 0.04917261004447937, -4.367483139038086, -5.773996353149414, -6.898881435394287, -0.039740484207868576, -0.7602689266204834, -0.3159131407737732, 0.16845703125, 0.818115234375, 0.43017578125, 
194, 2928817400, 0.3914235234260559, -0.7987660765647888, 0.4542665481567383, 0.04916517436504364, -4.338957786560059, -5.733604431152344, -6.873589515686035, -0.17708401381969452, -0.8851638436317444, -0.39524045586586, 0.167724609375, 0.822021484375, 0.43017578125, 
195, 2928825733, 0.3914266526699066, -0.7987642288208008, 0.45426782965660095, 0.049157992005348206, -4.36671781539917, -5.70128059387207, -6.9004693031311035, -0.3467014729976654, -0.6390879154205322, -0.1875346153974533, 0.170166015625, 0.8212890625, 0.4296875, 
196, 2928834066, 0.3914068043231964, -0.7987695932388306, 0.4542756974697113, 0.049156367778778076, -4.361510276794434, -5.640674591064453, -6.880047798156738, -0.7233332395553589, -0.5153200030326843, -0.07198881357908249, 0.169921875, 0.819091796875, 0.4306640625, 
197, 2928842399, 0.3913591802120209, -0.7987807989120483, 0.45429569482803345, 0.0491691455245018, -4.30976676940918, -5.646904945373535, -6.87768030166626, -1.0854672193527222, -0.43422532081604004, 0.0783795565366745, 0.172607421875, 0.82275390625, 0.432373046875, 
198, 2928850732, 0.39132973551750183, -0.7987866401672363, 0.4543100893497467, 0.04917401075363159, -4.310117244720459, -5.717961311340332, -6.858238697052002, -0.8672595620155334, -0.4883737862110138, 0.03931784629821777, 0.18798828125, 0.826416015625, 0.4306640625, 
199, 2928859065, 0.3913086950778961, -0.7987812757492065, 0.45433831214904785, 0.04916706681251526, -4.3176493644714355, -5.760262966156006, -6.882816314697266, -0.577536940574646, -0.35031306743621826, 0.1473330855369568, 0.1689453125, 0.818603515625, 0.431640625, 
200, 2928867398, 0.39129793643951416, -0.7987717390060425, 0.45436739921569824, 0.04913948476314545, -4.325467109680176, -5.726767063140869, -6.896993637084961, -0.3661426603794098, -0.18284720182418823, 0.1078871563076973, 0.170166015625, 0.820068359375, 0.43115234375, 
201, 2928875731, 0.3912922143936157, -0.7987675666809082, 0.45438268780708313, 0.04911253601312637, -4.3360676765441895, -5.736937999725342, -6.894811630249023, -0.2980600595474243, -0.2935775816440582, -0.11876040697097778, 0.168212890625, 0.818603515625, 0.42919921875, 
202, 2928884064, 0.3912995755672455, -0.7987681031227112, 0.45437878370285034, 0.049080558121204376, -4.3447723388671875, -5.753997802734375, -6.888981342315674, -0.216094508767128, -0.4167051911354065, -0.35062047839164734, 0.169677734375, 0.81982421875, 0.42724609375, 
203, 2928892397, 0.39132076501846313, -0.7987633347511292, 0.4543728232383728, 0.049045540392398834, -4.344951629638672, -5.773896217346191, -6.860842227935791, 0.03580869734287262, -0.4878615736961365, -0.41132619976997375, 0.168701171875, 0.8212890625, 0.43017578125, 
204, 2928900730, 0.39134901762008667, -0.7987580299377441, 0.4543636441230774, 0.048989102244377136, -4.331075191497803, -5.746100425720215, -6.880212306976318, 0.19366921484470367, -0.3120454251766205, -0.5183167457580566, 0.167236328125, 0.820068359375, 0.42822265625, 
205, 2928909063, 0.391358345746994, -0.79875648021698, 0.45436394214630127, 0.04893910139799118, -4.318414211273193, -5.666089057922363, -6.899203777313232, -0.012871152721345425, -0.21553097665309906, -0.4360695481300354, 0.169677734375, 0.819580078125, 0.43017578125, 
206, 2928917396, 0.3913556933403015, -0.798760175704956, 0.4543652832508087, 0.04888695478439331, -4.318243026733398, -5.666939735412598, -6.897343635559082, -0.21553097665309906, -0.10208553075790405, -0.41644901037216187, 0.169677734375, 0.82177734375, 0.4267578125, 
207, 2928925729, 0.39132893085479736, -0.7987746000289917, 0.4543665647506714, 0.048851847648620605, -4.301726341247559, -5.660145282745361, -6.930210590362549, -0.5870141983032227, -0.13743317127227783, -0.4208802878856659, 0.17138671875, 0.8203125, 0.43310546875, 
208, 2928934062, 0.39127930998802185, -0.7987977266311646, 0.45437365770339966, 0.04880647361278534, -4.261299133300781, -5.647605895996094, -6.9484076499938965, -0.873099684715271, 0.16065248847007751, -0.40558862686157227, 0.169189453125, 0.8212890625, 0.4306640625, 
209, 2928942395, 0.39122557640075684, -0.798819899559021, 0.45438528060913086, 0.048767827451229095, -4.358005523681641, -5.657562732696533, -6.9473490715026855, -0.8974586725234985, 0.13137540221214294, -0.35387343168258667, 0.169189453125, 0.818603515625, 0.4296875, 
210, 2928950728, 0.3911830484867096, -0.7988396883010864, 0.4543895423412323, 0.04874268174171448, -4.383626937866211, -5.628343105316162, -6.974801540374756, -0.9054504632949829, -0.12436992675065994, -0.3130187690258026, 0.172607421875, 0.82177734375, 0.43212890625, 
211, 2928959061, 0.3911597728729248, -0.798852264881134, 0.4543899893760681, 0.04871891438961029, -4.388683795928955, -5.650652885437012, -6.985123157501221, -0.6103999614715576, -0.2873789072036743, -0.35827910900115967, 0.169677734375, 0.82080078125, 0.427734375, 
212, 2928967394, 0.3911536633968353, -0.7988636493682861, 0.4543779492378235, 0.04869440943002701, -4.440413475036621, -5.6952009201049805, -6.937950134277344, -0.47505438327789307, -0.4540506899356842, -0.46088963747024536, 0.169189453125, 0.82177734375, 0.4306640625, 
213, 2928975727, 0.39116448163986206, -0.7988706827163696, 0.4543594717979431, 0.04866643249988556, -4.484610557556152, -5.730435848236084, -6.922264099121094, -0.19229885935783386, -0.5608620643615723, -0.5768197178840637, 0.168701171875, 0.819580078125, 0.42919921875, 
214, 2928984060, 0.39119625091552734, -0.7988705635070801, 0.4543357789516449, 0.04863224923610687, -4.462772369384766, -5.783123970031738, -6.913143634796143, 0.054788846522569656, -0.6529964804649353, -0.5945960879325867, 0.168212890625, 0.82080078125, 0.42822265625, 
215, 2928992393, 0.3912450075149536, -0.7988612055778503, 0.45431333780288696, 0.04860270023345947, -4.457995414733887, -5.797078609466553, -6.898015975952148, 0.320843905210495, -0.8125987648963928, -0.5528703927993774, 0.168701171875, 0.8193359375, 0.42822265625, 
216, 2929000726, 0.3913020193576813, -0.7988497018814087, 0.45428887009620667, 0.04856228828430176, -4.388197422027588, -5.826913356781006, -6.906363010406494, 0.4325987994670868, -0.7536860704421997, -0.5815327763557434, 0.189453125, 0.827880859375, 0.430419921875, 
217, 2929009059, 0.3913278877735138, -0.7988457083702087, 0.4542762041091919, 0.048538535833358765, -4.323994159698486, -5.702911376953125, -6.91070556640625, 0.008324624970555305, -0.6769969463348389, -0.4317150413990021, 0.170654296875, 0.81982421875, 0.4296875, 
218, 2929017392, 0.39133214950561523, -0.7988494634628296, 0.45426660776138306, 0.04853121191263199, -4.285332202911377, -5.665738105773926, -6.919524192810059, -0.4254140257835388, -0.6975396275520325, -0.301287442445755, 0.167724609375, 0.820556640625, 0.4287109375, 
219, 2929025725, 0.391307532787323, -0.7988656759262085, 0.45426011085510254, 0.04852408170700073, -4.270118713378906, -5.682390213012695, -6.9254326820373535, -0.7536860108375549, -0.4977229833602905, -0.36724406480789185, 0.168701171875, 0.820068359375, 0.4306640625, 
220, 2929034058, 0.391276091337204, -0.7988859415054321, 0.45425188541412354, 0.048520855605602264, -4.221714973449707, -5.630367279052734, -6.942005634307861, -0.9310389757156372, -0.5015138983726501, -0.34139931201934814, 0.167236328125, 0.820556640625, 0.42919921875, 
221, 2929042391, 0.3912453055381775, -0.798908531665802, 0.45423829555511475, 0.0485253632068634, -4.208568096160889, -5.656403064727783, -6.951782703399658, -0.932524561882019, -0.6199285387992859, -0.41834449768066406, 0.167236328125, 0.822021484375, 0.431640625, 
222, 2929050724, 0.39121249318122864, -0.7989373207092285, 0.45421648025512695, 0.04851951450109482, -4.246120929718018, -5.624537944793701, -6.950589179992676, -0.9860582947731018, -0.5327120423316956, -0.5585824251174927, 0.167724609375, 0.82080078125, 0.4287109375, 
223, 2929059057, 0.3911896347999573, -0.798961877822876, 0.45419415831565857, 0.04850882291793823, -4.309466361999512, -5.63667631149292, -6.890462398529053, -0.7659039497375488, -0.549105167388916, -0.6141396760940552, 0.173583984375, 0.8212890625, 0.4306640625, 
224, 2929067390, 0.39117729663848877, -0.7989867925643921, 0.45416438579559326, 0.04847756028175354, -4.342941761016846, -5.6938276290893555, -6.871020793914795, -0.5867580771446228, -0.4243125915527344, -0.7711806297302246, 0.169189453125, 0.820068359375, 0.4326171875, 
225, 2929075723, 0.3911716938018799, -0.7990057468414307, 0.4541410207748413, 0.04842907190322876, -4.424039840698242, -5.704112529754639, -6.853961944580078, -0.30981698632240295, -0.25174954533576965, -0.8038387894630432, 0.167724609375, 0.821533203125, 0.4296875, 
226, 2929084056, 0.39118731021881104, -0.7990140914916992, 0.4541192054748535, 0.04836898297071457, -4.441593647003174, -5.758768081665039, -6.845163345336914, -0.004930740687996149, -0.2513653039932251, -0.754172682762146, 0.165771484375, 0.822509765625, 0.4306640625, 
227, 2929092389, 0.3912211060523987, -0.7990173101425171, 0.45409202575683594, 0.04829918593168259, -4.439648628234863, -5.780563831329346, -6.829062461853027, 0.3365454375743866, -0.2946789562702179, -0.8920284509658813, 0.167236328125, 0.820556640625, 0.431640625, 
228, 2929100722, 0.3912634253501892, -0.7990188598632812, 0.45406103134155273, 0.048222072422504425, -4.425492763519287, -5.7878804206848145, -6.807811260223389, 0.4255293309688568, -0.2835111916065216, -0.9206909537315369, 0.167724609375, 0.823486328125, 0.43212890625, 
229, 2929109055, 0.3913135528564453, -0.7990147471427917, 0.454033762216568, 0.04813869297504425, -4.402124404907227, -5.768960952758789, -6.8531389236450195, 0.6408681273460388, -0.251493364572525, -0.9280421733856201, 0.167236328125, 0.822265625, 0.427734375, 
230, 2929117388, 0.39135459065437317, -0.799014687538147, 0.4540068507194519, 0.048061393201351166, -4.299302101135254, -5.726258277893066, -6.8800048828125, 0.4241461753845215, -0.2557709515094757, -0.8673620820045471, 0.167724609375, 0.82177734375, 0.42919921875, 
231, 2929125721, 0.391389399766922, -0.7990154027938843, 0.4539834260940552, 0.04798572510480881, -4.275304317474365, -5.761993885040283, -6.949759483337402, 0.4000687301158905, -0.21612009406089783, -0.8646981120109558, 0.168701171875, 0.82373046875, 0.4306640625, 
232, 2929134054, 0.39141005277633667, -0.799025297164917, 0.4539564251899719, 0.047908663749694824, -4.217423915863037, -5.696231365203857, -6.9470415115356445, 0.14510464668273926, -0.12252569943666458, -0.9145178198814392, 0.166748046875, 0.8232421875, 0.4287109375, 
233, 2929142387, 0.39138293266296387, -0.7990516424179077, 0.45393893122673035, 0.047854408621788025, -4.1811370849609375, -5.67993688583374, -6.953335762023926, -0.5486185550689697, -0.01740487478673458, -0.8049657344818115, 0.170654296875, 0.8232421875, 0.431640625, 
234, 2929150720, 0.391348272562027, -0.7990779876708984, 0.4539271891117096, 0.047809720039367676, -4.229869365692139, -5.738940715789795, -6.922636032104492, -0.7432610392570496, -0.04125172272324562, -0.640957772731781, 0.189697265625, 0.831298828125, 0.430419921875, 
235, 2929159053, 0.39129751920700073, -0.7991095781326294, 0.4539206027984619, 0.04775959253311157, -4.250226020812988, -5.715050220489502, -6.947728157043457, -0.8563479781150818, 0.14679516851902008, -0.6807624101638794, 0.169189453125, 0.82275390625, 0.42919921875, 
236, 2929167386, 0.39123573899269104, -0.7991492748260498, 0.4539087414741516, 0.04771619290113449, -4.2870564460754395, -5.733311176300049, -6.915497303009033, -1.1198928356170654, 0.12153954803943634, -0.6981800198554993, 0.172607421875, 0.82373046875, 0.431396484375, 
237, 2929175719, 0.3911958634853363, -0.7991753816604614, 0.45390164852142334, 0.04767230153083801, -4.2934722900390625, -5.810948371887207, -6.898516654968262, -0.7451308965682983, 0.0043288059532642365, -0.622797429561615, 0.167236328125, 0.823486328125, 0.431640625, 
238, 2929184052, 0.39118635654449463, -0.7992000579833984, 0.4538729786872864, 0.04760891944169998, -4.328007221221924, -5.755127906799316, -6.924123764038086, -0.3525158762931824, -0.08471907675266266, -0.9340870976448059, 0.1650390625, 0.824462890625, 0.42919921875, 
239, 2929192385, 0.3911930322647095, -0.7992212772369385, 0.4538358747959137, 0.04755190759897232, -4.305782794952393, -5.818544387817383, -6.955939292907715, -0.1448357105255127, -0.3057699501514435, -1.0232247114181519, 0.165771484375, 0.823974609375, 0.4296875, 
240, 2929200718, 0.39122676849365234, -0.7992417216300964, 0.45377692580223083, 0.047494374215602875, -4.28280782699585, -5.785097599029541, -6.983442306518555, 0.09100738167762756, -0.5849394202232361, -1.2357715368270874, 0.1650390625, 0.824951171875, 0.4296875, 
241, 2929209051, 0.39126884937286377, -0.7992655634880066, 0.4537035822868347, 0.04744551330804825, -4.280239582061768, -5.723011016845703, -6.955817699432373, 0.1547612100839615, -0.8107289671897888, -1.417734980583191, 0.164794921875, 0.822998046875, 0.43115234375, 
242, 2929217384, 0.39130112528800964, -0.7992929816246033, 0.45363113284111023, 0.047409288585186005, -4.294388294219971, -5.702103137969971, -6.980330467224121, -0.10603012144565582, -0.8778126239776611, -1.3111029863357544, 0.166259765625, 0.82373046875, 0.42919921875, 
243, 2929225717, 0.39132288098335266, -0.7993255257606506, 0.45355820655822754, 0.04738014191389084, -4.271456241607666, -5.705286502838135, -7.008234024047852, -0.23699569702148438, -0.8941288590431213, -1.3506512641906738, 0.1650390625, 0.824462890625, 0.43017578125, 
244, 2929234050, 0.39133086800575256, -0.7993630170822144, 0.45348626375198364, 0.04737082123756409, -4.340908050537109, -5.6738762855529785, -6.995419502258301, -0.5950314402580261, -1.0122361183166504, -1.2066737413406372, 0.16650390625, 0.82666015625, 0.43115234375, 
245, 2929242383, 0.3913179636001587, -0.7994032502174377, 0.45342734456062317, 0.047361038625240326, -4.338256359100342, -5.660688400268555, -6.965817451477051, -0.7703608870506287, -0.8101397752761841, -1.1151797771453857, 0.1650390625, 0.82666015625, 0.43017578125, 
246, 2929250716, 0.3913058042526245, -0.7994469404220581, 0.453361839056015, 0.047349803149700165, -4.299802780151367, -5.671839714050293, -6.964730262756348, -0.8338586091995239, -0.8274806141853333, -1.174092411994934, 0.166748046875, 0.822509765625, 0.4296875, 
247, 2929259049, 0.39128491282463074, -0.7994930744171143, 0.45329949259757996, 0.04734111577272415, -4.329989910125732, -5.650352478027344, -6.939890384674072, -0.899635910987854, -0.7850378155708313, -1.1800861358642578, 0.166259765625, 0.824951171875, 0.43212890625, 
248, 2929267382, 0.3912689983844757, -0.7995440363883972, 0.4532243311405182, 0.04733321815729141, -4.319643974304199, -5.6816301345825195, -6.939378261566162, -0.9403369426727295, -0.8880070447921753, -1.3029320240020752, 0.1689453125, 0.828125, 0.430908203125, 
249, 2929275715, 0.3912644386291504, -0.7995882034301758, 0.4531511068344116, 0.047324471175670624, -4.340212821960449, -5.762840270996094, -6.95117712020874, -0.7154183387756348, -0.9478163123130798, -1.2981421947479248, 0.172119140625, 0.82666015625, 0.431396484375, 
250, 2929284048, 0.39127254486083984, -0.7996196746826172, 0.45308804512023926, 0.04732908308506012, -4.405843734741211, -5.763525009155273, -6.928751468658447, -0.6416749358177185, -1.1226589679718018, -0.9987117648124695, 0.16650390625, 0.8251953125, 0.4306640625, 
251, 2929292381, 0.3912840783596039, -0.7996478080749512, 0.4530275762081146, 0.047340668737888336, -4.450491905212402, -5.794997215270996, -6.901620864868164, -0.5706979632377625, -1.2138971090316772, -0.9592146873474121, 0.166259765625, 0.82421875, 0.4306640625, 
252, 2929300714, 0.39129048585891724, -0.799673318862915, 0.45297515392303467, 0.0473579540848732, -4.428196907043457, -5.813101291656494, -6.873124122619629, -0.700049877166748, -1.197247862815857, -0.7751763463020325, 0.188720703125, 0.833740234375, 0.431884765625, 
253, 2929309047, 0.39128321409225464, -0.7996963262557983, 0.45293763279914856, 0.04738695174455643, -4.423167705535889, -5.807343006134033, -6.847938537597656, -0.8441299200057983, -1.167483925819397, -0.5701857209205627, 0.16455078125, 0.824462890625, 0.43017578125, 
254, 2929317380, 0.3912753462791443, -0.7997094392776489, 0.4529179334640503, 0.047420673072338104, -4.454897880554199, -5.854272842407227, -6.8672943115234375, -0.8713065981864929, -1.1213783025741577, -0.24006938934326172, 0.16455078125, 0.825439453125, 0.43212890625, 
255, 2929325713, 0.39127203822135925, -0.7997166514396667, 0.4529043436050415, 0.04745631664991379, -4.435277462005615, -5.840053081512451, -6.843782901763916, -0.7413399815559387, -1.1466339826583862, -0.17313942313194275, 0.166015625, 0.82568359375, 0.431640625, 
256, 2929334046, 0.3912769556045532, -0.7997177839279175, 0.4528949558734894, 0.04748380184173584, -4.398690700531006, -5.823337078094482, -6.804170608520508, -0.6214398145675659, -1.0838022232055664, -0.094913549721241, 0.16650390625, 0.82666015625, 0.431640625, 
257, 2929342379, 0.39129653573036194, -0.7997114062309265, 0.45288848876953125, 0.047492615878582, -4.367040157318115, -5.849888324737549, -6.81010103225708, -0.24360419809818268, -0.9641070365905762, -0.16960465908050537, 0.168212890625, 0.82568359375, 0.43310546875, 
258, 2929350712, 0.3913208544254303, -0.7996997833251953, 0.45288777351379395, 0.047495923936367035, -4.3458027839660645, -5.8248820304870605, -6.822982311248779, -0.18415354192256927, -0.9006604552268982, -0.06287013739347458, 0.166259765625, 0.82470703125, 0.4306640625, 
259, 2929359045, 0.39132797718048096, -0.7996898889541626, 0.4528998136520386, 0.047486141324043274, -4.308228969573975, -5.7841033935546875, -6.817274570465088, -0.23417814075946808, -0.5836331248283386, -0.03525799512863159, 0.167236328125, 0.824951171875, 0.43310546875, 
260, 2929367378, 0.3913356065750122, -0.7996794581413269, 0.4529132843017578, 0.047470323741436005, -4.306469917297363, -5.769711971282959, -6.808441638946533, -0.2451922744512558, -0.5102227926254272, -0.007748306728899479, 0.16650390625, 0.825439453125, 0.43212890625, 
261, 2929375711, 0.39133408665657043, -0.7996678352355957, 0.45293718576431274, 0.0474519357085228, -4.262121677398682, -5.771278381347656, -6.827374458312988, -0.2600741684436798, -0.37346839904785156, 0.06393313407897949, 0.166015625, 0.826171875, 0.43017578125, 
262, 2929384044, 0.3913278579711914, -0.7996587157249451, 0.4529619514942169, 0.047420620918273926, -4.255426406860352, -5.769289970397949, -6.848238945007324, -0.29944321513175964, -0.19196587800979614, 0.036577124148607254, 0.173583984375, 0.827880859375, 0.431396484375, 
263, 2929392377, 0.391322523355484, -0.7996448278427124, 0.4529959559440613, 0.047373391687870026, -4.251821517944336, -5.738532543182373, -6.87288761138916, -0.10441642999649048, 0.021490341052412987, 0.03755046799778938, 0.16650390625, 0.82568359375, 0.43017578125, 
264, 2929400710, 0.39133384823799133, -0.7996302843093872, 0.45301786065101624, 0.047316864132881165, -4.27385950088501, -5.718855381011963, -6.892908573150635, 0.07620234042406082, -0.04255804792046547, -0.11084560304880142, 0.1669921875, 0.82568359375, 0.4287109375, 
265, 2929409043, 0.3913295269012451, -0.7996277213096619, 0.45303285121917725, 0.04725167900323868, -4.284452438354492, -5.686588287353516, -6.914388656616211, -0.05364901199936867, 0.11705704778432846, -0.3386586010456085, 0.167236328125, 0.823974609375, 0.431640625, 
266, 2929417376, 0.39131104946136475, -0.7996343374252319, 0.45304471254348755, 0.04718068242073059, -4.270905494689941, -5.63125467300415, -6.9190521240234375, -0.28125709295272827, 0.261418879032135, -0.40994298458099365, 0.16357421875, 0.824951171875, 0.43017578125, 
267, 2929425709, 0.3912889063358307, -0.7996459603309631, 0.45305049419403076, 0.04711068421602249, -4.281763553619385, -5.675938129425049, -6.973199367523193, -0.3026449978351593, 0.24233625829219818, -0.5445458292961121, 0.166748046875, 0.82421875, 0.42919921875, 
268, 2929434042, 0.3912681043148041, -0.7996666431427002, 0.4530399441719055, 0.04703391343355179, -4.267056941986084, -5.683556079864502, -6.972634315490723, -0.3603794574737549, 0.22712139785289764, -0.7733065485954285, 0.166015625, 0.826171875, 0.4306640625, 
269, 2929442375, 0.39123427867889404, -0.7996949553489685, 0.45302680134773254, 0.046961188316345215, -4.259368419647217, -5.677097797393799, -6.943886756896973, -0.5149614214897156, 0.2533504366874695, -0.8632125854492188, 0.166015625, 0.82861328125, 0.4306640625, 
270, 2929450708, 0.3911934792995453, -0.7997280359268188, 0.4530112147331238, 0.04688844084739685, -4.2643818855285645, -5.637061595916748, -6.959651947021484, -0.6754857897758484, 0.28992751240730286, -0.8716395497322083, 0.185546875, 0.836669921875, 0.428955078125, 
271, 2929459041, 0.3911430239677429, -0.7997637391090393, 0.4529983699321747, 0.046823419630527496, -4.248974800109863, -5.6601948738098145, -6.9493303298950195, -0.7845255136489868, 0.2769154906272888, -0.8531204462051392, 0.16455078125, 0.8291015625, 0.43310546875, 
272, 2929467374, 0.39109551906585693, -0.7998014688491821, 0.45297932624816895, 0.046760231256484985, -4.238903522491455, -5.725214958190918, -6.9417338371276855, -0.8361894488334656, 0.21016478538513184, -0.8831660151481628, 0.16650390625, 0.82763671875, 0.4296875, 
273, 2929475707, 0.3910435140132904, -0.7998396158218384, 0.45296257734298706, 0.04670588672161102, -4.257100582122803, -5.749404430389404, -6.8982367515563965, -0.8840625286102295, 0.1495358943939209, -0.8536583781242371, 0.16455078125, 0.824951171875, 0.4306640625, 
274, 2929484040, 0.3909856975078583, -0.7998760342597961, 0.45295441150665283, 0.04664523899555206, -4.294917583465576, -5.75816011428833, -6.930375099182129, -0.9511973261833191, 0.30396413803100586, -0.733527660369873, 0.16455078125, 0.82861328125, 0.4296875, 
275, 2929492373, 0.39093726873397827, -0.7999086380004883, 0.45294538140296936, 0.04658094793558121, -4.323020935058594, -5.7617292404174805, -6.937900066375732, -0.7475642561912537, 0.2759934067726135, -0.7894435524940491, 0.17138671875, 0.829833984375, 0.431884765625, 
276, 2929500706, 0.3909209668636322, -0.7999371886253357, 0.4529154300689697, 0.04651830345392227, -4.336933135986328, -5.763339042663574, -6.960309982299805, -0.4547167122364044, -0.05439182370901108, -0.9631080031394958, 0.1650390625, 0.824951171875, 0.43115234375, 
277, 2929509039, 0.39091190695762634, -0.7999577522277832, 0.45289212465286255, 0.046465255320072174, -4.342204570770264, -5.791691780090332, -6.962456226348877, -0.32992416620254517, -0.17877458035945892, -0.8366506099700928, 0.1650390625, 0.8271484375, 0.4306640625, 
278, 2929517372, 0.39092469215393066, -0.7999714612960815, 0.4528622031211853, 0.046414509415626526, -4.36713171005249, -5.794210433959961, -6.993821620941162, -0.12790466845035553, -0.3745953440666199, -0.8243557214736938, 0.1650390625, 0.82666015625, 0.42919921875, 
279, 2929525705, 0.3909294307231903, -0.7999864220619202, 0.4528362452983856, 0.04636853188276291, -4.368120193481445, -5.765141487121582, -6.979679107666016, -0.19347712397575378, -0.360738068819046, -0.8019176125526428, 0.1640625, 0.826416015625, 0.43115234375, 
280, 2929534038, 0.3909548223018646, -0.7999943494796753, 0.4528048634529114, 0.04632467031478882, -4.34224796295166, -5.782036304473877, -6.987819671630859, -0.0016777323326095939, -0.5416257977485657, -0.7754068970680237, 0.166015625, 0.82568359375, 0.43115234375, 
281, 2929542371, 0.39097830653190613, -0.799995481967926, 0.4527848958969116, 0.04630053788423538, -4.306147575378418, -5.796270370483398, -6.993027210235596, -0.0447864904999733, -0.6936718821525574, -0.5455960035324097, 0.1669921875, 0.82568359375, 0.4296875, 
282, 2929550704, 0.3910078704357147, -0.7999944686889648, 0.4527647793292999, 0.046265825629234314, -4.297335147857666, -5.794775485992432, -6.970917701721191, 0.041930507868528366, -0.6140373349189758, -0.5498480200767517, 0.16552734375, 0.825927734375, 0.431640625, 
283, 2929559037, 0.3910262882709503, -0.7999957203865051, 0.45275014638900757, 0.046233147382736206, -4.263401508331299, -5.743626594543457, -6.936184406280518, -0.04460718855261803, -0.5391156077384949, -0.5291004776954651, 0.1630859375, 0.825927734375, 0.4296875, 
284, 2929567370, 0.3910422921180725, -0.7999911308288574, 0.45274683833122253, 0.04620830714702606, -4.271249294281006, -5.748260021209717, -6.9197821617126465, -0.139482319355011, -0.548080563545227, -0.2807960510253906, 0.1640625, 0.828125, 0.42919921875, 
285, 2929575703, 0.3910428583621979, -0.7999913692474365, 0.4527474641799927, 0.04619360715150833, -4.283079624176025, -5.780755996704102, -6.909109592437744, -0.33755719661712646, -0.5440592169761658, -0.24752314388751984, 0.16259765625, 0.82861328125, 0.42919921875, 
286, 2929584036, 0.3910475969314575, -0.7999923825263977, 0.4527439475059509, 0.04616931825876236, -4.281555652618408, -5.806198596954346, -6.921777725219727, -0.2966000437736511, -0.4830460846424103, -0.3070250451564789, 0.16455078125, 0.828125, 0.43017578125, 
287, 2929592369, 0.39103537797927856, -0.7999925017356873, 0.4527561068534851, 0.04615256190299988, -4.28666353225708, -5.749762058258057, -6.923572063446045, -0.4574830234050751, -0.38138312101364136, -0.12319165468215942, 0.16357421875, 0.82666015625, 0.4287109375, 
288, 2929600702, 0.39102843403816223, -0.7999946475028992, 0.452758252620697, 0.04615383595228195, -4.310997009277344, -5.745728492736816, -6.90639066696167, -0.5867069363594055, -0.6597074270248413, -0.1068497896194458, 0.194580078125, 0.840576171875, 0.43017578125, 
289, 2929609035, 0.39101994037628174, -0.8000032901763916, 0.4527500867843628, 0.04615553468465805, -4.3368120193481445, -5.748032093048096, -6.895218372344971, -0.5898061394691467, -0.712703287601471, -0.3041050136089325, 0.16552734375, 0.8271484375, 0.4306640625, 
290, 2929617368, 0.3910382091999054, -0.8000038862228394, 0.45273417234420776, 0.04614634066820145, -4.316132545471191, -5.787644386291504, -6.9405107498168945, -0.24793295562267303, -0.7994330525398254, -0.36808934807777405, 0.16455078125, 0.83056640625, 0.42919921875, 
291, 2929625701, 0.3910754919052124, -0.7999979257583618, 0.45271414518356323, 0.04613024741411209, -4.307713985443115, -5.766993999481201, -6.943028450012207, 0.095028817653656, -0.8731253147125244, -0.4654747247695923, 0.1640625, 0.8291015625, 0.43017578125, 
292, 2929634034, 0.39112117886543274, -0.7999971508979797, 0.45267778635025024, 0.04611252248287201, -4.290618419647217, -5.739005088806152, -6.9408183097839355, 0.10217518359422684, -0.9886709451675415, -0.649333655834198, 0.1689453125, 0.82666015625, 0.4296875, 
293, 2929642367, 0.39116838574409485, -0.7999895811080933, 0.45265209674835205, 0.046096332371234894, -4.26632022857666, -5.731945037841797, -6.941991329193115, 0.20965252816677094, -0.9637484550476074, -0.5276404619216919, 0.166015625, 0.828125, 0.42822265625, 
294, 2929650700, 0.39121943712234497, -0.7999825477600098, 0.4526218771934509, 0.04608132690191269, -4.272936820983887, -5.739977836608887, -6.932027339935303, 0.18164335191249847, -1.0217006206512451, -0.5297279953956604, 0.16455078125, 0.8291015625, 0.43017578125, 
295, 2929659033, 0.3912404775619507, -0.7999770045280457, 0.4526146650314331, 0.04607180505990982, -4.275282859802246, -5.737395286560059, -6.901091575622559, -0.11911899596452713, -0.7763802409172058, -0.28458696603775024, 0.166015625, 0.830078125, 0.42822265625, 
296, 2929667366, 0.39123526215553284, -0.7999801635742188, 0.45261406898498535, 0.04606667160987854, -4.298379421234131, -5.73636531829834, -6.868774890899658, -0.5341976881027222, -0.6149081587791443, -0.17920999228954315, 0.16552734375, 0.82861328125, 0.42919921875, 
297, 2929675699, 0.39121004939079285, -0.7999879121780396, 0.4526224732398987, 0.04606218636035919, -4.284095287322998, -5.776206970214844, -6.884975910186768, -0.7208998203277588, -0.44972190260887146, -0.13651105761528015, 0.166015625, 0.82666015625, 0.427734375, 
298, 2929684032, 0.39120104908943176, -0.7999926805496216, 0.45262229442596436, 0.04605710506439209, -4.336947441101074, -5.767308712005615, -6.869540214538574, -0.5844271779060364, -0.5883973836898804, -0.18143843114376068, 0.16455078125, 0.8271484375, 0.4306640625, 
299, 2929692365, 0.39119014143943787, -0.7999986410140991, 0.45262235403060913, 0.046047136187553406, -4.312728404998779, -5.751372337341309, -6.899810791015625, -0.5252071022987366, -0.5240288376808167, -0.25676989555358887, 0.16650390625, 0.828125, 0.43310546875, 
300, 2929700698, 0.39119991660118103, -0.7999926209449768, 0.4526280462741852, 0.04601321369409561, -4.260397911071777, -5.761035442352295, -6.9105119705200195, -0.13674159348011017, -0.36401671171188354, -0.21750326454639435, 0.1650390625, 0.828125, 0.42919921875, 
301, 2929709031, 0.3912185728549957, -0.7999956607818604, 0.4526089131832123, 0.04598800092935562, -4.320439338684082, -5.703977108001709, -6.9066996574401855, -0.10054867714643478, -0.6461830735206604, -0.549617350101471, 0.1708984375, 0.831787109375, 0.432373046875, 
302, 2929717364, 0.3912406861782074, -0.8000105023384094, 0.45256730914115906, 0.04595101624727249, -4.302871227264404, -5.728847980499268, -6.905619144439697, -0.12575308978557587, -0.6470284461975098, -0.8933861255645752, 0.1650390625, 0.828125, 0.4287109375, 
303, 2929725697, 0.3912569284439087, -0.8000264763832092, 0.4525289535522461, 0.04591318219900131, -4.2879791259765625, -5.770126819610596, -6.91973876953125, -0.1310296356678009, -0.586988627910614, -0.9083960652351379, 0.16455078125, 0.830078125, 0.4296875, 
304, 2929734030, 0.39125099778175354, -0.800049364566803, 0.4524970054626465, 0.045881398022174835, -4.2546610832214355, -5.73336124420166, -6.886228084564209, -0.5028458833694458, -0.4740810990333557, -0.7902120351791382, 0.169921875, 0.830078125, 0.431396484375, 
305, 2929742363, 0.3912220001220703, -0.8000816106796265, 0.4524669647216797, 0.04586074501276016, -4.23861026763916, -5.73539924621582, -6.904911041259766, -0.8180034160614014, -0.4402446448802948, -0.7965642809867859, 0.1650390625, 0.8310546875, 0.43115234375, 
306, 2929750696, 0.3911789357662201, -0.8001240491867065, 0.4524313807487488, 0.045839905738830566, -4.229025840759277, -5.69841194152832, -6.929738998413086, -1.0867736339569092, -0.36921635270118713, -0.8709480166435242, 0.188232421875, 0.8369140625, 0.431884765625, 
307, 2929759029, 0.39110174775123596, -0.8001790642738342, 0.45240074396133423, 0.04584057629108429, -4.192319393157959, -5.681259632110596, -6.9385223388671875, -1.6021318435668945, -0.3642728328704834, -0.8006113171577454, 0.16455078125, 0.82861328125, 0.4296875, 
308, 2929767362, 0.3910442888736725, -0.8002316951751709, 0.4523581564426422, 0.04583209753036499, -4.204226493835449, -5.742304801940918, -6.962522029876709, -1.381951928138733, -0.4476984143257141, -0.9331393837928772, 0.1630859375, 0.828125, 0.42822265625, 
309, 2929775695, 0.3909927010536194, -0.8002802133560181, 0.4523179531097412, 0.04582025855779648, -4.230470657348633, -5.744926452636719, -6.918236255645752, -1.2135639190673828, -0.4415253698825836, -0.949634850025177, 0.16455078125, 0.8291015625, 0.43115234375, 
310, 2929784028, 0.39094486832618713, -0.8003242611885071, 0.4522833526134491, 0.04580238461494446, -4.217416763305664, -5.72238826751709, -6.90401029586792, -1.165614128112793, -0.36588650941848755, -0.8490990400314331, 0.1650390625, 0.8291015625, 0.4296875, 
311, 2929792361, 0.3909153640270233, -0.800353467464447, 0.45226025581359863, 0.04577009379863739, -4.271978378295898, -5.875388145446777, -6.933115005493164, -0.7299928665161133, -0.274699866771698, -0.763778030872345, 0.16455078125, 0.82763671875, 0.42919921875, 
312, 2929800694, 0.39089399576187134, -0.8003888726234436, 0.45222070813179016, 0.04572680592536926, -4.3739776611328125, -5.700422286987305, -6.9576921463012695, -0.672719419002533, -0.28363922238349915, -1.0051666498184204, 0.16455078125, 0.83056640625, 0.4306640625, 
313, 2929809027, 0.3909185230731964, -0.8004143238067627, 0.45215708017349243, 0.0456993505358696, -4.321475505828857, -5.825827121734619, -7.0086212158203125, -0.16939973831176758, -0.8830891251564026, -1.1934568881988525, 0.1630859375, 0.8291015625, 0.43017578125, 
314, 2929817360, 0.3909149169921875, -0.8004374504089355, 0.45212259888648987, 0.04566596448421478, -4.287034511566162, -5.824251651763916, -6.944430828094482, -0.47000837326049805, -0.4840705990791321, -0.8310666680335999, 0.17333984375, 0.831787109375, 0.431396484375, 
315, 2929825693, 0.3909133970737457, -0.8004530668258667, 0.45209693908691406, 0.04565821588039398, -4.35198974609375, -5.86496639251709, -6.908380031585693, -0.5039729475975037, -0.7399824857711792, -0.5938276648521423, 0.166015625, 0.83056640625, 0.4296875, 
316, 2929834026, 0.3909166157245636, -0.8004645705223083, 0.4520779848098755, 0.0456182137131691, -4.324630260467529, -5.849545001983643, -6.905733585357666, -0.28153884410858154, -0.3773360848426819, -0.6265369653701782, 0.16162109375, 0.829833984375, 0.43212890625, 
317, 2929842359, 0.39090293645858765, -0.8004730939865112, 0.45207613706588745, 0.0456024706363678, -4.301004886627197, -5.807651042938232, -6.913179397583008, -0.5339158773422241, -0.4528723955154419, -0.3212665021419525, 0.16552734375, 0.830078125, 0.4296875, 
318, 2929850692, 0.39087051153182983, -0.8004838228225708, 0.4520861506462097, 0.04559341073036194, -4.263545036315918, -5.773352146148682, -6.94138240814209, -0.8440786600112915, -0.34037473797798157, -0.11368878185749054, 0.16455078125, 0.82958984375, 0.4306640625, 
319, 2929859025, 0.3908214867115021, -0.8004932999610901, 0.45211151242256165, 0.04559703171253204, -4.239568710327148, -5.855538845062256, -6.903401851654053, -1.0315237045288086, -0.2994175851345062, 0.09674496203660965, 0.1669921875, 0.831787109375, 0.428466796875, 
320, 2929867358, 0.39076361060142517, -0.8005008101463318, 0.4521479606628418, 0.04559944570064545, -4.229254245758057, -5.7996110916137695, -6.902851104736328, -1.1618489027023315, -0.16811905801296234, 0.274405300617218, 0.1640625, 0.82861328125, 0.43017578125, 
321, 2929875691, 0.39070338010787964, -0.8005091547966003, 0.4521852135658264, 0.04559970647096634, -4.2653045654296875, -5.779705047607422, -6.876951694488525, -1.1206867694854736, -0.128801167011261, 0.22456000745296478, 0.16357421875, 0.83056640625, 0.43212890625, 
322, 2929884024, 0.390667587518692, -0.800508439540863, 0.4522191286087036, 0.04558371752500534, -4.253044605255127, -5.833386421203613, -6.9010701179504395, -0.7622411251068115, -0.12216708809137344, 0.18449930846691132, 0.16552734375, 0.8291015625, 0.43115234375, 
323, 2929892357, 0.39064788818359375, -0.8004993200302124, 0.45225441455841064, 0.045561157166957855, -4.254997253417969, -5.794024467468262, -6.896005630493164, -0.4414997398853302, -0.15251995623111725, 0.16277845203876495, 0.16162109375, 0.829345703125, 0.43115234375, 
324, 2929900690, 0.3906421363353729, -0.8004839420318604, 0.4522897005081177, 0.04552990198135376, -4.24922513961792, -5.796985626220703, -6.886027812957764, -0.2557453513145447, -0.1426328718662262, 0.19110780954360962, 0.1875, 0.83984375, 0.428466796875, 
325, 2929909023, 0.3906373679637909, -0.8004643321037292, 0.45233097672462463, 0.04550614207983017, -4.258180618286133, -5.778016567230225, -6.9240593910217285, -0.208768829703331, -0.20592565834522247, 0.2800660729408264, 0.166015625, 0.82958984375, 0.4296875, 
326, 2929917356, 0.39065152406692505, -0.8004390001296997, 0.4523664712905884, 0.04547815024852753, -4.29245662689209, -5.768138408660889, -6.927642822265625, -0.004239156376570463, -0.30738365650177, 0.259728342294693, 0.166015625, 0.83056640625, 0.42919921875, 
327, 2929925689, 0.3906615376472473, -0.8004086017608643, 0.4524135887622833, 0.04545777291059494, -4.305704116821289, -5.750885963439941, -6.91342306137085, -0.005161268636584282, -0.310892790555954, 0.41904890537261963, 0.17138671875, 0.832763671875, 0.431396484375, 
328, 2929934022, 0.3906534016132355, -0.8003826141357422, 0.45246773958206177, 0.04544582962989807, -4.274989604949951, -5.7350850105285645, -6.9765753746032715, -0.33417609333992004, -0.2454739809036255, 0.5693531632423401, 0.16748046875, 0.830078125, 0.429931640625, 
329, 2929942355, 0.39063313603401184, -0.800356388092041, 0.45253148674964905, 0.04544690251350403, -4.3413825035095215, -5.817214012145996, -6.995866775512695, -0.48614534735679626, -0.2644285261631012, 0.7116402387619019, 0.1650390625, 0.8291015625, 0.43017578125, 
330, 2929950688, 0.3906048536300659, -0.8003289103507996, 0.45260196924209595, 0.04547154903411865, -4.3094377517700195, -5.828494071960449, -7.014821529388428, -0.7645208835601807, -0.4374014735221863, 0.9676545858383179, 0.1650390625, 0.8291015625, 0.4306640625, 
331, 2929959021, 0.3905504047870636, -0.8003050088882446, 0.45268571376800537, 0.045526981353759766, -4.285212993621826, -5.840744495391846, -7.043202877044678, -1.1995017528533936, -0.5412159562110901, 1.2295345067977905, 0.166015625, 0.8291015625, 0.43115234375, 
332, 2929967354, 0.3905070424079895, -0.8002751469612122, 0.452766478061676, 0.04562154412269592, -4.3550920486450195, -5.945226192474365, -7.12115478515625, -1.3459126949310303, -1.0593150854110718, 1.4797086715698242, 0.1640625, 0.82958984375, 0.42822265625, 
333, 2929975687, 0.39047300815582275, -0.800235390663147, 0.45285236835479736, 0.045757636427879333, -4.369299411773682, -6.030252456665039, -7.252233028411865, -1.391147494316101, -1.5558470487594604, 1.7730686664581299, 0.1640625, 0.825927734375, 0.42919921875, 
334, 2929984020, 0.39045271277427673, -0.8001787066459656, 0.4529501795768738, 0.04595455527305603, -4.351555347442627, -6.192802906036377, -7.382281303405762, -1.5762104988098145, -2.252067804336548, 2.371058702468872, 0.1630859375, 0.828125, 0.42919921875, 
335, 2929992353, 0.3904191851615906, -0.8001057505607605, 0.45307624340057373, 0.04626186937093735, -4.40339469909668, -6.376528739929199, -7.609361171722412, -2.247406005859375, -3.2508180141448975, 3.339148759841919, 0.1650390625, 0.8291015625, 0.43115234375, 
336, 2930000686, 0.3903689384460449, -0.8000121712684631, 0.45323675870895386, 0.04672989994287491, -4.497631549835205, -6.462684631347656, -7.761149883270264, -3.3561694622039795, -4.73634147644043, 4.764119625091553, 0.16748046875, 0.82861328125, 0.4306640625, 
337, 2930009019, 0.3903428614139557, -0.7998813986778259, 0.4534233808517456, 0.047373369336128235, -4.597642421722412, -6.5796003341674805, -7.828908443450928, -3.9123823642730713, -6.70733118057251, 6.167754173278809, 0.16650390625, 0.826171875, 0.43115234375, 
338, 2930017352, 0.3903375267982483, -0.7996960878372192, 0.45366862416267395, 0.04819246381521225, -4.722675323486328, -6.619678497314453, -7.940982818603516, -4.5017924308776855, -8.483756065368652, 8.125604629516602, 0.168212890625, 0.82275390625, 0.431640625, 
339, 2930025685, 0.39035314321517944, -0.7994479537010193, 0.45398133993148804, 0.04922741651535034, -4.772446632385254, -6.700164794921875, -8.030749320983887, -5.1832075119018555, -10.6728515625, 10.36098575592041, 0.168701171875, 0.822509765625, 0.43212890625, 
340, 2930034018, 0.39039847254753113, -0.7991224527359009, 0.4543754458427429, 0.05050043761730194, -4.825685977935791, -6.776665210723877, -8.103736877441406, -5.92612361907959, -13.085790634155273, 13.037673950195312, 0.1787109375, 0.822998046875, 0.434814453125, 
341, 2930042351, 0.3904508054256439, -0.7987325191497803, 0.4548456072807312, 0.052007243037223816, -4.874699592590332, -6.758142948150635, -8.165149688720703, -6.857919692993164, -15.34266471862793, 15.485784530639648, 0.171875, 0.815185546875, 0.43408203125, 
342, 2930050684, 0.39052897691726685, -0.7982712388038635, 0.455385684967041, 0.053747862577438354, -4.905742168426514, -6.776374340057373, -8.189948081970215, -7.655908107757568, -17.740365982055664, 17.977643966674805, 0.197021484375, 0.821044921875, 0.434326171875, 
343, 2930059017, 0.39064669609069824, -0.7977429032325745, 0.45597171783447266, 0.05573279410600662, -4.929159164428711, -6.71586799621582, -8.14620304107666, -8.30510139465332, -20.48260498046875, 20.143434524536133, 0.180908203125, 0.8115234375, 0.434814453125, 
344, 2930067350, 0.390820175409317, -0.7971383929252625, 0.4566028118133545, 0.05795358121395111, -4.941499710083008, -6.747496604919434, -8.152718544006348, -8.781734466552734, -23.223567962646484, 22.38243293762207, 0.181640625, 0.806884765625, 0.43505859375, 
345, 2930075683, 0.3910588026046753, -0.7964470982551575, 0.4572843313217163, 0.06042260676622391, -4.954226493835449, -6.763075828552246, -8.162687301635742, -9.067642211914062, -26.16457748413086, 24.720584869384766, 0.188720703125, 0.801513671875, 0.438232421875, 
346, 2930084016, 0.3914634883403778, -0.795629620552063, 0.45799487829208374, 0.06313006579875946, -5.013553142547607, -6.77672004699707, -8.234354972839355, -8.098143577575684, -29.757061004638672, 27.017396926879883, 0.1904296875, 0.794189453125, 0.43994140625, 
347, 2930092349, 0.3919527232646942, -0.7947056293487549, 0.458764910697937, 0.06607204675674438, -5.03699254989624, -6.710120677947998, -8.295899391174316, -7.972840785980225, -32.64066696166992, 29.48843765258789, 0.195068359375, 0.789794921875, 0.439697265625, 
348, 2930100682, 0.3924877345561981, -0.7936849594116211, 0.45960313081741333, 0.0692635029554367, -5.08494234085083, -6.714376926422119, -8.291495323181152, -8.515379905700684, -35.36378479003906, 32.185604095458984, 0.197265625, 0.784912109375, 0.439453125, 
349, 2930109015, 0.393081396818161, -0.7925695180892944, 0.4604881703853607, 0.07270549982786179, -5.034842491149902, -6.62111759185791, -8.172263145446777, -8.850955963134766, -38.32255935668945, 34.5524787902832, 0.2060546875, 0.777099609375, 0.440673828125, 
350, 2930117348, 0.3937198221683502, -0.7913535833358765, 0.46143704652786255, 0.07638736069202423, -5.031839370727539, -6.589908599853516, -8.170552253723145, -9.327309608459473, -40.9600830078125, 37.17473602294922, 0.209228515625, 0.771728515625, 0.442626953125, 
351, 2930125681, 0.3943464457988739, -0.7900518178939819, 0.4624592065811157, 0.08034492284059525, -5.107645034790039, -6.794761657714844, -8.300810813903809, -10.611639976501465, -43.59627151489258, 39.9854850769043, 0.2158203125, 0.7646484375, 0.445556640625, 
352, 2930134014, 0.3950224220752716, -0.7886568307876587, 0.4635070562362671, 0.08457984775304794, -5.175854206085205, -6.691077709197998, -8.202539443969727, -11.357097625732422, -46.86918258666992, 42.34552764892578, 0.223388671875, 0.759521484375, 0.446533203125, 
353, 2930142347, 0.39575254917144775, -0.787169337272644, 0.46457451581954956, 0.08904809504747391, -5.225809097290039, -6.447052478790283, -8.014484405517578, -11.68168830871582, -49.76787567138672, 44.313751220703125, 0.237548828125, 0.75244140625, 0.44873046875, 
354, 2930150680, 0.3965590298175812, -0.7855793237686157, 0.4656538963317871, 0.09374040365219116, -5.261188507080078, -6.346303462982178, -7.920419692993164, -11.763863563537598, -52.719085693359375, 46.26279830932617, 0.239013671875, 0.743408203125, 0.44873046875, 
355, 2930159013, 0.39743831753730774, -0.783879816532135, 0.4667556881904602, 0.09863607585430145, -5.285604953765869, -6.316269874572754, -7.803356170654297, -11.604598045349121, -55.42759323120117, 48.183448791503906, 0.24560546875, 0.736083984375, 0.4501953125, 
356, 2930167346, 0.3983936905860901, -0.7820786237716675, 0.46785810589790344, 0.1037273183465004, -5.3308258056640625, -6.140349864959717, -7.739470481872559, -11.532191276550293, -58.13325881958008, 49.84456253051758, 0.2529296875, 0.726806640625, 0.451171875, 
357, 2930175679, 0.3994070291519165, -0.7801821827888489, 0.4689599275588989, 0.10900019109249115, -5.404575824737549, -5.999842166900635, -7.649174690246582, -11.509733200073242, -60.626407623291016, 51.32822799682617, 0.260986328125, 0.720458984375, 0.45361328125, 
358, 2930184012, 0.40047702193260193, -0.7781937718391418, 0.47005605697631836, 0.11443193256855011, -5.32428503036499, -5.78751277923584, -7.394287109375, -11.476000785827637, -62.83771514892578, 52.68328857421875, 0.268310546875, 0.710693359375, 0.45361328125, 
359, 2930192345, 0.40151292085647583, -0.7761335372924805, 0.4711897075176239, 0.11999617516994476, -5.34217643737793, -5.680591106414795, -7.286787033081055, -12.196512222290039, -63.97019958496094, 54.298728942871094, 0.279541015625, 0.7021484375, 0.453857421875, 
360, 2930200678, 0.4025314152240753, -0.7740132212638855, 0.4723244905471802, 0.12568382918834686, -5.3980512619018555, -5.609314918518066, -7.221188545227051, -12.894686698913574, -65.23928833007812, 55.44245147705078, 0.311767578125, 0.702392578125, 0.45751953125, 
361, 2930209011, 0.4035462737083435, -0.7718336582183838, 0.47344455122947693, 0.13148514926433563, -5.3871660232543945, -5.462676048278809, -7.153111934661865, -13.326626777648926, -66.64204406738281, 56.274574279785156, 0.29638671875, 0.68408203125, 0.456787109375, 
362, 2930217344, 0.40457820892333984, -0.7696016430854797, 0.47452306747436523, 0.13737717270851135, -5.51765775680542, -5.361523151397705, -7.079399108886719, -13.562615394592285, -68.00863647460938, 56.681373596191406, 0.309326171875, 0.67529296875, 0.45849609375, 
363, 2930225677, 0.40561625361442566, -0.767313539981842, 0.4755794405937195, 0.14333295822143555, -5.492918491363525, -5.168918609619141, -6.783875942230225, -13.601064682006836, -68.98745727539062, 57.12364196777344, 0.314453125, 0.666015625, 0.459228515625, 
364, 2930234010, 0.4066629111766815, -0.7649641633033752, 0.4766160845756531, 0.14935597777366638, -5.499283790588379, -5.0118889808654785, -6.53110408782959, -13.689693450927734, -69.9498291015625, 57.70517349243164, 0.32568359375, 0.65869140625, 0.4609375, 
365, 2930242343, 0.4077337980270386, -0.7625494003295898, 0.47764337062835693, 0.15537987649440765, -5.66318941116333, -4.824127197265625, -6.370805263519287, -13.053508758544922, -70.34260559082031, 57.957481384277344, 0.331787109375, 0.650390625, 0.4609375, 
366, 2930250676, 0.40884721279144287, -0.7600753307342529, 0.478641152381897, 0.16139015555381775, -5.694134712219238, -4.8187947273254395, -6.419399261474609, -12.288444519042969, -70.73365020751953, 57.90665054321289, 0.3515625, 0.64501953125, 0.462158203125, 
367, 2930259009, 0.40993520617485046, -0.7575744390487671, 0.47960537672042847, 0.16741415858268738, -5.762319564819336, -4.658895015716553, -6.262321472167969, -12.530821800231934, -70.99946594238281, 57.83095169067383, 0.352294921875, 0.634033203125, 0.461669921875, 
368, 2930267342, 0.41105324029922485, -0.7550179362297058, 0.48054659366607666, 0.17341552674770355, -5.904566287994385, -4.442483425140381, -6.000133037567139, -11.84678840637207, -71.17446899414062, 57.79552459716797, 0.364501953125, 0.625, 0.462158203125, 
369, 2930275675, 0.4121883809566498, -0.7524216771125793, 0.4814622104167938, 0.17936429381370544, -6.054071426391602, -4.296624660491943, -5.994920253753662, -11.117697715759277, -71.02750396728516, 57.42023849487305, 0.373291015625, 0.61572265625, 0.464111328125, 
370, 2930284008, 0.4133053123950958, -0.749795138835907, 0.4823576807975769, 0.18528884649276733, -6.1564621925354, -4.294589042663574, -5.979576110839844, -11.065136909484863, -70.8005142211914, 57.35246276855469, 0.38330078125, 0.610107421875, 0.4619140625, 
371, 2930292341, 0.4143846333026886, -0.7471427917480469, 0.483243852853775, 0.19118906557559967, -6.1524200439453125, -4.286194324493408, -5.993454456329346, -11.130555152893066, -70.46733856201172, 57.35320281982422, 0.3974609375, 0.60107421875, 0.4599609375, 
372, 2930300674, 0.4154409170150757, -0.744471549987793, 0.4840840697288513, 0.19710054993629456, -6.28558874130249, -4.158194065093994, -5.869577407836914, -11.492668151855469, -70.69348907470703, 57.1631965637207, 0.4013671875, 0.591064453125, 0.46142578125, 
373, 2930309007, 0.4164958596229553, -0.7417802214622498, 0.4848785996437073, 0.20298044383525848, -6.431973934173584, -4.007113933563232, -5.8954596519470215, -11.268205642700195, -70.72526550292969, 56.62070083618164, 0.411376953125, 0.58544921875, 0.4599609375, 
374, 2930317340, 0.4175965487957001, -0.7390345931053162, 0.4856402575969696, 0.2088286578655243, -6.452456951141357, -4.060242176055908, -5.667238235473633, -10.407844543457031, -70.998046875, 56.367919921875, 0.421142578125, 0.576416015625, 0.459228515625, 
375, 2930325673, 0.41875189542770386, -0.7362500429153442, 0.48636358976364136, 0.21458816528320312, -6.462525367736816, -3.86096453666687, -5.441168308258057, -9.112649917602539, -70.84581756591797, 55.543025970458984, 0.432861328125, 0.568603515625, 0.461181640625, 
376, 2930334006, 0.41989627480506897, -0.7334284782409668, 0.4870847761631012, 0.22030198574066162, -6.555098056793213, -3.930806875228882, -5.544814109802246, -8.7442626953125, -70.3783950805664, 55.56984329223633, 0.440185546875, 0.560791015625, 0.459228515625, 
377, 2930342339, 0.42100411653518677, -0.730593740940094, 0.48778003454208374, 0.22599497437477112, -6.627060890197754, -3.9869637489318848, -5.453665256500244, -8.944618225097656, -70.16702270507812, 55.352210998535156, 0.45166015625, 0.555419921875, 0.45654296875, 
378, 2930350672, 0.4221586585044861, -0.7277110815048218, 0.4884489178657532, 0.23162710666656494, -6.700664043426514, -3.7507545948028564, -5.335634708404541, -7.903264045715332, -70.11624145507812, 54.94699478149414, 0.46142578125, 0.546630859375, 0.455078125, 
379, 2930359005, 0.4232994616031647, -0.7247978448867798, 0.4891241192817688, 0.2371877133846283, -6.859059810638428, -3.693727970123291, -5.262457370758057, -7.331881999969482, -69.42683410644531, 54.80931091308594, 0.476806640625, 0.542236328125, 0.454345703125, 
380, 2930367338, 0.4243985712528229, -0.7218811511993408, 0.48977556824684143, 0.242710143327713, -7.030746936798096, -3.561461925506592, -5.139832496643066, -7.578214645385742, -68.85883331298828, 54.54267501831055, 0.478271484375, 0.53173828125, 0.4521484375, 
381, 2930375671, 0.425487756729126, -0.7189409732818604, 0.4904171824455261, 0.24817320704460144, -7.122574806213379, -3.6179137229919434, -5.130932331085205, -7.1439995765686035, -68.39453125, 54.258365631103516, 0.48779296875, 0.524169921875, 0.44921875, 
382, 2930384004, 0.42659232020378113, -0.7159799933433533, 0.4910234212875366, 0.25357943773269653, -7.2712578773498535, -3.503899574279785, -4.981226444244385, -6.6377034187316895, -68.15809631347656, 53.694400787353516, 0.49609375, 0.517333984375, 0.448486328125, 
383, 2930392337, 0.4277363121509552, -0.7129632234573364, 0.4916336238384247, 0.25891387462615967, -7.358455657958984, -3.4561100006103516, -4.85455846786499, -5.395302772521973, -67.94598388671875, 53.520118713378906, 0.508056640625, 0.509765625, 0.445068359375, 
384, 2930400670, 0.4288767874240875, -0.709916889667511, 0.4922468662261963, 0.264178991317749, -7.385949611663818, -3.5471043586730957, -4.700212001800537, -4.805428504943848, -67.27274322509766, 53.387054443359375, 0.515380859375, 0.504150390625, 0.441650390625, 
385, 2930409003, 0.4300437271595001, -0.7068417072296143, 0.4928540885448456, 0.2693449854850769, -7.358761787414551, -3.465153932571411, -4.559025764465332, -3.699986457824707, -66.68255615234375, 52.810401916503906, 0.52392578125, 0.495361328125, 0.440673828125, 
386, 2930417336, 0.4312162697315216, -0.7037442922592163, 0.4934561252593994, 0.274430513381958, -7.339339256286621, -3.4299888610839844, -4.529787540435791, -3.0157485008239746, -65.99356842041016, 52.44497299194336, 0.535400390625, 0.492919921875, 0.4365234375, 
387, 2930425669, 0.4323786497116089, -0.7006352543830872, 0.4940366744995117, 0.2794664204120636, -7.496443271636963, -3.3460330963134766, -4.493120193481445, -2.764677047729492, -65.67234802246094, 52.029930114746094, 0.542236328125, 0.486572265625, 0.4365234375, 
388, 2930434002, 0.43358659744262695, -0.6974911689758301, 0.49459341168403625, 0.2844305634498596, -7.654216289520264, -3.2427732944488525, -4.326503753662109, -1.7435075044631958, -65.5102310180664, 51.468509674072266, 0.5498046875, 0.47705078125, 0.43212890625, 
389, 2930442335, 0.43478912115097046, -0.6943312287330627, 0.4951576590538025, 0.2893029451370239, -7.669529914855957, -3.220031499862671, -4.36752986907959, -1.0284175872802734, -64.66859436035156, 51.09159851074219, 0.55810546875, 0.46923828125, 0.4267578125, 
390, 2930450668, 0.43593961000442505, -0.6911755800247192, 0.49569547176361084, 0.29416656494140625, -7.863524913787842, -3.2714250087738037, -4.414692401885986, -1.616575002670288, -64.31407928466797, 50.99440383911133, 0.564697265625, 0.462646484375, 0.42529296875, 
391, 2930459001, 0.4370456635951996, -0.688010573387146, 0.4962252080440521, 0.29901111125946045, -8.008164405822754, -3.109999179840088, -4.240512847900391, -1.8670709133148193, -63.97355270385742, 51.01640319824219, 0.5732421875, 0.4560546875, 0.421875, 
392, 2930467334, 0.4381353557109833, -0.6848450303077698, 0.49673208594322205, 0.3038036823272705, -7.997413158416748, -3.107524871826172, -4.202423095703125, -1.7767798900604248, -63.451446533203125, 50.58906936645508, 0.58984375, 0.451171875, 0.418701171875, 
393, 2930475667, 0.4391511082649231, -0.681703507900238, 0.4972049593925476, 0.30859142541885376, -8.112767219543457, -3.0506720542907715, -4.149785995483398, -2.7100658416748047, -63.06462478637695, 50.35702896118164, 0.588134765625, 0.443115234375, 0.4169921875, 
394, 2930484000, 0.4401126503944397, -0.678553581237793, 0.49767088890075684, 0.31337571144104004, -8.151361465454102, -2.9986939430236816, -4.1021904945373535, -3.1894640922546387, -62.67900848388672, 50.58514404296875, 0.595703125, 0.436767578125, 0.41357421875, 
395, 2930492333, 0.4411029815673828, -0.6753650903701782, 0.4981306195259094, 0.3181048631668091, -8.20221996307373, -2.9632108211517334, -3.882141351699829, -2.3224687576293945, -62.626380920410156, 50.30582046508789, 0.604736328125, 0.43115234375, 0.408203125, 
396, 2930500666, 0.442175954580307, -0.6721204519271851, 0.4985831379890442, 0.32274484634399414, -8.254530906677246, -2.7923502922058105, -3.8472330570220947, -0.649260401725769, -62.59307098388672, 49.75267791748047, 0.61083984375, 0.425048828125, 0.404296875, 
397, 2930508999, 0.44330787658691406, -0.6688014268875122, 0.4990677237510681, 0.32730555534362793, -8.268938064575195, -3.019667863845825, -3.928370237350464, 1.0469621419906616, -62.45957565307617, 49.78502655029297, 0.62255859375, 0.4208984375, 0.402587890625, 
398, 2930517332, 0.44448015093803406, -0.6654180884361267, 0.49956268072128296, 0.3318251967430115, -8.31188678741455, -2.7583045959472656, -3.6848793029785156, 2.1243796348571777, -62.524837493896484, 49.91740798950195, 0.626708984375, 0.41162109375, 0.39697265625, 
399, 2930525665, 0.44563764333724976, -0.6620282530784607, 0.5000405311584473, 0.3363032937049866, -8.345076560974121, -2.5203135013580322, -3.6344852447509766, 2.2491726875305176, -62.236473083496094, 49.593177795410156, 0.633544921875, 0.403564453125, 0.39306640625, 
400, 2930533998, 0.44666433334350586, -0.6586790680885315, 0.5005218982696533, 0.34077173471450806, -8.328368186950684, -2.734673023223877, -3.75808048248291, 0.8791621923446655, -60.98135757446289, 49.918907165527344, 0.637939453125, 0.398193359375, 0.38916015625, 
401, 2930542331, 0.44751715660095215, -0.6553886532783508, 0.5009751915931702, 0.3453007936477661, -8.387557029724121, -2.5850560665130615, -3.5377044677734375, -1.5949174165725708, -60.292606353759766, 50.42043685913086, 0.653564453125, 0.395751953125, 0.384033203125, 
402, 2930550664, 0.448265016078949, -0.6521703600883484, 0.5013641119003296, 0.3498300611972809, -8.529642105102539, -2.197176694869995, -3.450619697570801, -3.301858901977539, -59.56093215942383, 49.868900299072266, 0.65234375, 0.386474609375, 0.38037109375, 
403, 2930558997, 0.4488324522972107, -0.649054765701294, 0.5017038583755493, 0.35438019037246704, -8.637589454650879, -2.1918299198150635, -3.5045087337493896, -5.925973892211914, -58.37723159790039, 49.690364837646484, 0.657958984375, 0.379150390625, 0.376220703125, 
404, 2930567330, 0.4492958188056946, -0.6459860801696777, 0.5019975900650024, 0.3589545488357544, -8.704294204711914, -2.235739231109619, -3.241504430770874, -7.543212413787842, -57.86819076538086, 49.637794494628906, 0.666015625, 0.37158203125, 0.374267578125, 
405, 2930575663, 0.4497622847557068, -0.642930269241333, 0.5022762417793274, 0.36343875527381897, -8.616377830505371, -2.090510606765747, -2.801846742630005, -7.040056228637695, -57.1800422668457, 48.8199577331543, 0.67333984375, 0.36279296875, 0.370361328125, 
406, 2930583996, 0.4502764344215393, -0.6398723721504211, 0.5025662183761597, 0.36777210235595703, -8.560324668884277, -1.976531744003296, -2.620716094970703, -5.515590667724609, -56.05393981933594, 47.788230895996094, 0.679931640625, 0.359130859375, 0.365966796875, 
407, 2930592329, 0.4508381485939026, -0.6368002891540527, 0.5028825998306274, 0.3719598948955536, -8.501860618591309, -1.9331855773925781, -2.541194200515747, -3.8628878593444824, -55.06990051269531, 46.949981689453125, 0.68359375, 0.352783203125, 0.363525390625, 
408, 2930600662, 0.45148876309394836, -0.6336956024169922, 0.5032263994216919, 0.3759864568710327, -8.504525184631348, -1.7844598293304443, -2.310548782348633, -1.6337984800338745, -54.209957122802734, 45.986358642578125, 0.690673828125, 0.3466796875, 0.355712890625, 
409, 2930608995, 0.45217233896255493, -0.6306219696998596, 0.503591775894165, 0.3798235058784485, -8.638437271118164, -1.468446969985962, -2.3873777389526367, -0.11138394474983215, -52.55077362060547, 44.58785629272461, 0.697265625, 0.33837890625, 0.353759765625, 
410, 2930617328, 0.4528149366378784, -0.6276149749755859, 0.5039755702018738, 0.38351190090179443, -8.620771408081055, -1.5692756175994873, -2.379800796508789, 0.24074912071228027, -50.456207275390625, 43.60082244873047, 0.705810546875, 0.334228515625, 0.348876953125, 
411, 2930625661, 0.45347535610198975, -0.6246364116668701, 0.5043476223945618, 0.3870885968208313, -8.817115783691406, -1.3318322896957397, -2.1675899028778076, 0.931593120098114, -49.59550094604492, 42.48658752441406, 0.705078125, 0.327880859375, 0.34521484375, 
412, 2930633994, 0.45406487584114075, -0.6217795610427856, 0.504665732383728, 0.3905671238899231, -8.910707473754883, -1.0455495119094849, -2.152937173843384, -0.044914718717336655, -47.89334487915039, 40.97175598144531, 0.710205078125, 0.322265625, 0.3408203125, 
413, 2930642327, 0.4545954167842865, -0.6190152764320374, 0.5049490928649902, 0.3939594626426697, -8.945066452026367, -1.195379614830017, -2.1983187198638916, -0.7113736271858215, -46.51871871948242, 39.78072738647461, 0.71630859375, 0.31787109375, 0.3388671875, 
414, 2930650660, 0.45506012439727783, -0.6163536310195923, 0.505193829536438, 0.39726877212524414, -8.96216106414795, -1.1725025177001953, -2.2174243927001953, -1.5499862432479858, -44.98994064331055, 38.606101989746094, 0.720947265625, 0.31005859375, 0.33544921875, 
415, 2930658993, 0.4554171562194824, -0.6138314008712769, 0.5053879022598267, 0.40050479769706726, -8.94761848449707, -0.9349023103713989, -2.073774814605713, -3.1015470027923584, -43.223060607910156, 37.309364318847656, 0.724853515625, 0.307861328125, 0.330322265625, 
416, 2930667326, 0.45568713545799255, -0.6114165782928467, 0.5055469274520874, 0.40367811918258667, -9.040631294250488, -0.8218790292739868, -1.9114625453948975, -4.266651630401611, -41.66786575317383, 36.382572174072266, 0.730712890625, 0.302001953125, 0.328369140625, 
417, 2930675659, 0.4559127688407898, -0.6090664863586426, 0.5057322382926941, 0.40673279762268066, -9.094974517822266, -0.8841115832328796, -1.7644084692001343, -4.074620246887207, -39.88658905029297, 35.624996185302734, 0.73681640625, 0.2939453125, 0.324951171875, 
418, 2930683992, 0.4561771750450134, -0.6067357063293457, 0.505944013595581, 0.40964561700820923, -9.08950424194336, -1.0957785844802856, -1.846738338470459, -2.7367210388183594, -38.647247314453125, 34.637290954589844, 0.73828125, 0.29248046875, 0.319580078125, 
419, 2930692325, 0.4565180838108063, -0.6044262051582336, 0.5061819553375244, 0.41237694025039673, -9.072172164916992, -0.9971431493759155, -1.7648723125457764, -0.8210787773132324, -37.425025939941406, 33.103546142578125, 0.740966796875, 0.28564453125, 0.317138671875, 
420, 2930700658, 0.4569340646266937, -0.6021231412887573, 0.5064547061920166, 0.41494250297546387, -9.135433197021484, -0.7607874274253845, -1.5577915906906128, 1.113222599029541, -36.26910400390625, 31.91724967956543, 0.7470703125, 0.281005859375, 0.314697265625, 
421, 2930708991, 0.4574313461780548, -0.5998366475105286, 0.5067687630653381, 0.41731587052345276, -9.175093650817871, -0.5713130831718445, -1.4248141050338745, 3.25748348236084, -34.933502197265625, 30.436365127563477, 0.74609375, 0.280029296875, 0.3095703125, 
422, 2930717324, 0.4579944610595703, -0.5976118445396423, 0.5071051716804504, 0.41947615146636963, -9.173287391662598, -0.5592589378356934, -1.4405947923660278, 5.0246500968933105, -33.09645080566406, 28.508071899414062, 0.752685546875, 0.27685546875, 0.3056640625, 
423, 2930725657, 0.45859307050704956, -0.5954716205596924, 0.5074341297149658, 0.4214630126953125, -9.105032920837402, -0.38548630475997925, -1.4293228387832642, 5.950528621673584, -31.517528533935547, 26.522146224975586, 0.755859375, 0.27197265625, 0.30810546875, 
424, 2930733990, 0.45918598771095276, -0.5934444069862366, 0.5077424645423889, 0.4233015179634094, -9.178165435791016, -0.2685771584510803, -1.3776878118515015, 6.10532808303833, -29.700180053710938, 24.699752807617188, 0.7578125, 0.26708984375, 0.30224609375, 
425, 2930742323, 0.45967718958854675, -0.5916030406951904, 0.5079926252365112, 0.4250425100326538, -9.31786060333252, -0.10994216799736023, -1.6124242544174194, 4.44640588760376, -27.514446258544922, 22.864700317382812, 0.75927734375, 0.2646484375, 0.29931640625, 
426, 2930750656, 0.4600476026535034, -0.5899410843849182, 0.5081648826599121, 0.4267422556877136, -9.286857604980469, -0.3036639392375946, -1.6687794923782349, 2.1607418060302734, -25.742929458618164, 21.461135864257812, 0.762451171875, 0.2626953125, 0.2978515625, 
427, 2930758989, 0.46023663878440857, -0.5884910821914673, 0.5082641243934631, 0.4284190833568573, -9.235106468200684, -0.24420472979545593, -1.688844084739685, -0.917208194732666, -23.54156494140625, 20.264183044433594, 0.76611328125, 0.259033203125, 0.2939453125, 
428, 2930767322, 0.4603283107280731, -0.5871819257736206, 0.5083122253417969, 0.43005651235580444, -9.323902130126953, -0.3322657644748688, -1.530062198638916, -2.6258068084716797, -22.003015518188477, 19.232925415039062, 0.7646484375, 0.25537109375, 0.294189453125, 
429, 2930775655, 0.460380494594574, -0.5859600901603699, 0.5083716511726379, 0.43159419298171997, -9.373183250427246, -0.4456420838832855, -1.520705223083496, -2.7304282188415527, -20.365325927734375, 18.27104377746582, 0.769775390625, 0.251220703125, 0.290283203125, 
430, 2930783988, 0.46053096652030945, -0.5847087502479553, 0.5084611177444458, 0.43302279710769653, -9.487854957580566, -0.6977226734161377, -1.5778253078460693, -0.8144690990447998, -20.126304626464844, 17.490997314453125, 0.769775390625, 0.252685546875, 0.293701171875, 
431, 2930792321, 0.4608055055141449, -0.5834174156188965, 0.5085978507995605, 0.4343102276325226, -9.569396018981934, -0.7279708981513977, -1.6147723197937012, 1.7082397937774658, -19.827669143676758, 16.47126579284668, 0.7802734375, 0.249755859375, 0.28662109375, 
432, 2930800654, 0.46120685338974, -0.5820607542991638, 0.5087805390357971, 0.43548887968063354, -9.63315486907959, -0.6504587531089783, -1.625084400177002, 4.172407150268555, -19.909812927246094, 15.897791862487793, 0.775634765625, 0.24755859375, 0.285400390625, 
433, 2930808987, 0.4616943597793579, -0.580680251121521, 0.5089883208274841, 0.4365710914134979, -9.641733169555664, -0.6186476349830627, -1.6434274911880493, 5.840995788574219, -19.753948211669922, 15.088250160217285, 0.77734375, 0.24560546875, 0.285888671875, 
434, 2930817320, 0.46224522590637207, -0.5792922973632812, 0.5091926455497742, 0.43759268522262573, -9.633065223693848, -0.6832298636436462, -1.7593474388122559, 6.794435977935791, -19.750980377197266, 14.397026062011719, 0.77587890625, 0.241943359375, 0.282958984375, 
435, 2930825653, 0.4627396762371063, -0.577973484992981, 0.5093501806259155, 0.43862950801849365, -9.666888236999512, -0.7228321433067322, -1.8502204418182373, 5.520370006561279, -19.38686180114746, 13.926018714904785, 0.7783203125, 0.24267578125, 0.279541015625, 
436, 2930833986, 0.46310022473335266, -0.5767751336097717, 0.5094080567359924, 0.43975746631622314, -9.809135437011719, -0.5342909693717957, -1.6835731267929077, 2.448042869567871, -19.053104400634766, 13.72689151763916, 0.780029296875, 0.23828125, 0.2783203125, 
437, 2930842319, 0.4633159637451172, -0.5756887197494507, 0.5094259977340698, 0.4409313201904297, -9.778371810913086, -0.5613552927970886, -1.6234458684921265, 0.02639547921717167, -18.005638122558594, 13.744437217712402, 0.781494140625, 0.23828125, 0.27783203125, 
438, 2930850652, 0.463410884141922, -0.574711263179779, 0.5093887448310852, 0.4421481192111969, -9.661877632141113, -0.7194411158561707, -1.6954468488693237, -2.2631595134735107, -17.16362953186035, 13.601190567016602, 0.783447265625, 0.23486328125, 0.275390625, 
439, 2930858985, 0.46345117688179016, -0.5737618207931519, 0.5093282461166382, 0.44340699911117554, -9.60895824432373, -0.7542445659637451, -1.6459264755249023, -3.307452440261841, -17.1192684173584, 13.772140502929688, 0.785888671875, 0.235595703125, 0.27392578125, 
440, 2930867318, 0.46345290541648865, -0.5728613138198853, 0.509255588054657, 0.44465163350105286, -9.593341827392578, -0.7000885605812073, -1.5874500274658203, -3.898756980895996, -16.489490509033203, 13.525679588317871, 0.78662109375, 0.231689453125, 0.2724609375, 
441, 2930875651, 0.46349552273750305, -0.5719143748283386, 0.509213924407959, 0.4458717703819275, -9.663360595703125, -0.6732943058013916, -1.5498634576797485, -2.9187560081481934, -16.694583892822266, 13.640507698059082, 0.7890625, 0.229248046875, 0.27099609375, 
442, 2930883984, 0.46355336904525757, -0.5709640979766846, 0.5092039108276367, 0.44703951478004456, -9.551539421081543, -0.874178409576416, -1.5953532457351685, -2.219230890274048, -16.18173599243164, 13.533644676208496, 0.790283203125, 0.227294921875, 0.26806640625, 
443, 2930892317, 0.46365880966186523, -0.5699776411056519, 0.5092322826385498, 0.44815513491630554, -9.630703926086426, -0.6532893776893616, -1.5062893629074097, -1.0115065574645996, -16.108516693115234, 13.416061401367188, 0.789306640625, 0.224365234375, 0.26708984375, 
444, 2930900650, 0.4638204574584961, -0.568964421749115, 0.5092796683311462, 0.44922056794166565, -9.641837120056152, -0.793699324131012, -1.5265953540802002, 0.06535474210977554, -16.12736701965332, 13.134099960327148, 0.791259765625, 0.223388671875, 0.26708984375, 
445, 2930908983, 0.4640113115310669, -0.5679240226745605, 0.5093531012535095, 0.4502553939819336, -9.716341972351074, -0.8368951082229614, -1.6199357509613037, 0.844424843788147, -16.11841583251953, 13.102376937866211, 0.794189453125, 0.22216796875, 0.26416015625, 
446, 2930917316, 0.4642001688480377, -0.5669034719467163, 0.5094152688980103, 0.4512753188610077, -9.86291217803955, -0.6657314896583557, -1.5607216358184814, 0.7358971834182739, -15.91352653503418, 12.842905044555664, 0.795166015625, 0.2216796875, 0.26318359375, 
447, 2930925649, 0.46435388922691345, -0.5659112334251404, 0.5094515085220337, 0.452320396900177, -9.89082145690918, -0.5688897371292114, -1.4780210256576538, -0.05480167269706726, -15.877025604248047, 12.772848129272461, 0.7958984375, 0.2197265625, 0.263671875, 
