sep=,
PacketCounter,SampleTimeFine,Quat_W,Quat_X,Quat_Y,Quat_Z,Acc_X,Acc_Y,Acc_Z,Gyr_X,Gyr_Y,Gyr_Z,Mag_X,Mag_Y,Mag_Z,
0, 3709261181, 0.9621809720993042, -0.04757814109325409, 0.08279318362474442, -0.2551623582839966, 0, 0, 0, 0, 0, 0, -0.109375, 0.34521484375, -0.879638671875, 
1, 3709269514, 0.9621905088424683, -0.047554802149534225, 0.08272190392017365, -0.25515395402908325, -1.2812812328338623, -1.2588311433792114, 9.432519912719727, 0.10549221932888031, -1.6733522415161133, 0.37636274099349976, -0.11083984375, 0.349609375, -0.879150390625, 
2, 3709277847, 0.9621961116790771, -0.04755745083093643, 0.08265849947929382, -0.25515297055244446, -1.334412932395935, -1.2211834192276, 9.486572265625, -0.25150614976882935, -1.6400794982910156, 0.17367732524871826, -0.11083984375, 0.345703125, -0.877197265625, 
3, 3709286180, 0.9621999263763428, -0.04760544002056122, 0.0825815200805664, -0.255154550075531, -1.3816605806350708, -1.224576711654663, 9.56092357635498, -0.850162148475647, -1.879700779914856, -0.244897723197937, -0.11279296875, 0.343505859375, -0.878173828125, 
4, 3709294513, 0.9621806144714355, -0.04770386219024658, 0.08250849694013596, -0.2552328109741211, -1.3660935163497925, -1.2509270906448364, 9.576744079589844, -1.4609078168869019, -2.0742664337158203, -0.7257280945777893, -0.1142578125, 0.345458984375, -0.876220703125, 
5, 3709302846, 0.9621691107749939, -0.047806136310100555, 0.08242127299308777, -0.2552851438522339, -1.3710479736328125, -1.345133662223816, 9.64295482635498, -1.4848570823669434, -2.1546950340270996, -1.0389132499694824, -0.11083984375, 0.34765625, -0.878662109375, 
6, 3709311179, 0.9621468186378479, -0.04789953678846359, 0.08233331888914108, -0.25537967681884766, -1.3525816202163696, -1.389444351196289, 9.627137184143066, -1.2896255254745483, -2.2032086849212646, -1.220441460609436, -0.111328125, 0.34765625, -0.877685546875, 
7, 3709319512, 0.9621356725692749, -0.04794920235872269, 0.08222541958093643, -0.2554473578929901, -1.3176029920578003, -1.3746544122695923, 9.630999565124512, -0.6990125775337219, -2.232818603515625, -1.1956725120544434, -0.112060546875, 0.3525390625, -0.879150390625, 
8, 3709327845, 0.9621238708496094, -0.04795615002512932, 0.0821036547422409, -0.25552964210510254, -1.2956894636154175, -1.4174903631210327, 9.629090309143066, -0.029328299686312675, -2.3621702194213867, -0.9729823470115662, -0.11181640625, 0.345947265625, -0.876220703125, 
9, 3709336178, 0.9621260166168213, -0.047919463366270065, 0.08197476714849472, -0.25556981563568115, -1.271804928779602, -1.410552978515625, 9.596207618713379, 0.49398335814476013, -2.2401700019836426, -0.7011640667915344, -0.1142578125, 0.344970703125, -0.876708984375, 
10, 3709344511, 0.9621394872665405, -0.047855667769908905, 0.08183658123016357, -0.2555754780769348, -1.2419768571853638, -1.3064597845077515, 9.560737609863281, 0.8549648523330688, -2.3054094314575195, -0.17835193872451782, -0.11376953125, 0.345458984375, -0.878662109375, 
11, 3709352844, 0.9621446132659912, -0.04778608679771423, 0.08172472566366196, -0.25560492277145386, -1.245652198791504, -1.276963233947754, 9.540029525756836, 0.8750463724136353, -2.041403293609619, 0.05877186357975006, -0.115234375, 0.345947265625, -0.876220703125, 
12, 3709361177, 0.9621529579162598, -0.04772123694419861, 0.08162019401788712, -0.2556189298629761, -1.2536470890045166, -1.2302895784378052, 9.556241989135742, 0.7726149559020996, -1.9738073348999023, 0.2724713981151581, -0.11181640625, 0.345703125, -0.878173828125, 
13, 3709369510, 0.962169349193573, -0.04770784452557564, 0.08155056089162827, -0.25558173656463623, -1.2638787031173706, -1.1383248567581177, 9.545197486877441, -0.09958814084529877, -1.60593581199646, 0.3865828514099121, -0.115234375, 0.358642578125, -0.884033203125, 
14, 3709377843, 0.9621785879135132, -0.04775708168745041, 0.08154093474149704, -0.25554078817367554, -1.2893500328063965, -1.0873966217041016, 9.614737510681152, -1.0714434385299683, -1.0875804424285889, 0.4690093994140625, -0.11572265625, 0.346923828125, -0.877197265625, 
15, 3709386176, 0.9621785283088684, -0.04787217080593109, 0.08157110959291458, -0.25551003217697144, -1.3279304504394531, -1.144533395767212, 9.663185119628906, -2.154003381729126, -0.7139711976051331, 0.1642768830060959, -0.11376953125, 0.346923828125, -0.876708984375, 
16, 3709394509, 0.9621654748916626, -0.048025209456682205, 0.08164430409669876, -0.2555072009563446, -1.3436309099197388, -1.2385538816452026, 9.647746086120605, -2.731886148452759, -0.33178117871284485, -0.006506015080958605, -0.1162109375, 0.346923828125, -0.875244140625, 
17, 3709402842, 0.9621537923812866, -0.048176538199186325, 0.081718310713768, -0.25549933314323425, -1.347771406173706, -1.308213710784912, 9.649996757507324, -2.7689757347106934, -0.2324235737323761, -0.19231168925762177, -0.11376953125, 0.345947265625, -0.878173828125, 
18, 3709411175, 0.9621299505233765, -0.04827096313238144, 0.08178851008415222, -0.25554895401000977, -1.343724012374878, -1.371740460395813, 9.61146354675293, -1.9349249601364136, -0.16047318279743195, -0.3848026692867279, -0.11181640625, 0.34619140625, -0.876708984375, 
19, 3709419508, 0.9621201157569885, -0.04830210283398628, 0.08182919025421143, -0.25556647777557373, -1.3516513109207153, -1.4012633562088013, 9.609966278076172, -1.031818151473999, -0.2378537654876709, -0.40657469630241394, -0.11328125, 0.3466796875, -0.878173828125, 
20, 3709427841, 0.962104320526123, -0.048255179077386856, 0.08184652775526047, -0.25562894344329834, -1.3459218740463257, -1.3640114068984985, 9.583629608154297, 0.16117756068706512, -0.3426159918308258, -0.5469407439231873, -0.113037109375, 0.353515625, -0.879150390625, 
21, 3709436174, 0.9620956182479858, -0.04814159497618675, 0.08184046298265457, -0.2556855082511902, -1.329749584197998, -1.2856804132461548, 9.57746410369873, 1.0912047624588013, -0.3228418231010437, -0.7872022390365601, -0.11279296875, 0.343994140625, -0.876708984375, 
22, 3709444507, 0.9620787501335144, -0.04799606651067734, 0.08183592557907104, -0.25577765703201294, -1.3019951581954956, -1.2384374141693115, 9.553146362304688, 1.5790793895721436, -0.2587806284427643, -0.8844596147537231, -0.11376953125, 0.34765625, -0.878173828125, 
23, 3709452840, 0.9620677828788757, -0.047843605279922485, 0.081832155585289, -0.25584906339645386, -1.3198449611663818, -1.2012382745742798, 9.549922943115234, 1.6132742166519165, -0.14279934763908386, -0.9472655057907104, -0.114501953125, 0.35302734375, -0.880126953125, 
24, 3709461173, 0.9620462656021118, -0.04770125821232796, 0.08183996379375458, -0.2559536397457123, -1.3135769367218018, -1.2096630334854126, 9.521210670471191, 1.515581488609314, -0.07945536077022552, -1.1535626649856567, -0.11474609375, 0.347900390625, -0.877197265625, 
25, 3709469506, 0.9620320796966553, -0.04756384342908859, 0.0818442851305008, -0.25603142380714417, -1.2806880474090576, -1.1940828561782837, 9.50694465637207, 1.3911986351013184, -0.08053115010261536, -1.0545892715454102, -0.111328125, 0.34716796875, -0.877197265625, 
26, 3709477839, 0.9620125889778137, -0.04744685813784599, 0.08185816556215286, -0.2561217248439789, -1.272083044052124, -1.1855264902114868, 9.490699768066406, 1.132546067237854, -0.11055102199316025, -0.9094076752662659, -0.1142578125, 0.343505859375, -0.878662109375, 
27, 3709486172, 0.9619983434677124, -0.04736738279461861, 0.08188628405332565, -0.2561812400817871, -1.2928260564804077, -1.097968578338623, 9.514110565185547, 0.5193926095962524, 0.017942771315574646, -0.8620214462280273, -0.11181640625, 0.34619140625, -0.878173828125, 
28, 3709494505, 0.9619714021682739, -0.04736047238111496, 0.08194149285554886, -0.2562655806541443, -1.2826406955718994, -1.0752081871032715, 9.506056785583496, -0.48569709062576294, 0.04816756770014763, -0.917117714881897, -0.1142578125, 0.3466796875, -0.879638671875, 
29, 3709502838, 0.9619444012641907, -0.04740464314818382, 0.08201975375413895, -0.25633352994918823, -1.2966578006744385, -1.1284269094467163, 9.476755142211914, -1.2916747331619263, 0.2652738392353058, -1.1252846717834473, -0.11328125, 0.3466796875, -0.878662109375, 
30, 3709511171, 0.9619041681289673, -0.04748760908842087, 0.08211194723844528, -0.2564396858215332, -1.3356561660766602, -1.2004761695861816, 9.434211730957031, -1.802345871925354, 0.23812273144721985, -1.2476437091827393, -0.11572265625, 0.345947265625, -0.876220703125, 
31, 3709519504, 0.9618721604347229, -0.047568004578351974, 0.08217693865299225, -0.2565242648124695, -1.3595075607299805, -1.2383062839508057, 9.464447021484375, -1.7090328931808472, -0.02100367471575737, -1.4130092859268188, -0.1123046875, 0.345703125, -0.877197265625, 
32, 3709527837, 0.9618296027183533, -0.047632381319999695, 0.08222195506095886, -0.25665736198425293, -1.3667649030685425, -1.318115234375, 9.490254402160645, -1.3621649742126465, -0.29912304878234863, -1.6316781044006348, -0.11328125, 0.344482421875, -0.877197265625, 
33, 3709536170, 0.9617980718612671, -0.04764610528945923, 0.08222846686840057, -0.2567707896232605, -1.3820003271102905, -1.4098187685012817, 9.485970497131348, -0.5864378809928894, -0.5408957600593567, -1.7562143802642822, -0.110595703125, 0.354736328125, -0.88330078125, 
34, 3709544503, 0.9617629051208496, -0.047621678560972214, 0.0821959525346756, -0.25691747665405273, -1.3523260354995728, -1.4000011682510376, 9.506118774414062, 0.12052777409553528, -0.9952666759490967, -1.843686819076538, -0.11328125, 0.34765625, -0.878173828125, 
35, 3709552836, 0.9617419838905334, -0.04757629334926605, 0.08212344348430634, -0.25702738761901855, -1.3988583087921143, -1.365499496459961, 9.527847290039062, 0.4764888286590576, -1.391775131225586, -1.6562165021896362, -0.114013671875, 0.3505859375, -0.881591796875, 
36, 3709561169, 0.9617149233818054, -0.04754980653524399, 0.08203502744436264, -0.2571617364883423, -1.387995719909668, -1.325163722038269, 9.498282432556152, 0.3196015954017639, -1.764231562614441, -1.5499941110610962, -0.11279296875, 0.349609375, -0.878173828125, 
37, 3709569502, 0.9616995453834534, -0.04754367470741272, 0.08193832635879517, -0.25725120306015015, -1.389632225036621, -1.285531997680664, 9.511000633239746, 0.02362913265824318, -1.8696341514587402, -1.427686333656311, -0.1142578125, 0.345458984375, -0.879638671875, 
38, 3709577835, 0.9616822600364685, -0.04757112264633179, 0.08184359967708588, -0.25734078884124756, -1.3506765365600586, -1.3149605989456177, 9.505989074707031, -0.38685181736946106, -2.0488827228546143, -1.2018711566925049, -0.115234375, 0.347900390625, -0.877197265625, 
39, 3709586168, 0.9616798758506775, -0.04760149121284485, 0.08173871785402298, -0.2573777437210083, -1.331207036972046, -1.3271139860153198, 9.513106346130371, -0.47985708713531494, -2.15653920173645, -0.7337197065353394, -0.1142578125, 0.347412109375, -0.877197265625, 
40, 3709594501, 0.9616735577583313, -0.04765249788761139, 0.0816471129655838, -0.25742119550704956, -1.3572012186050415, -1.2939560413360596, 9.510736465454102, -0.7700151801109314, -2.149393081665039, -0.46459102630615234, -0.1162109375, 0.346435546875, -0.878173828125, 
41, 3709602834, 0.9616787433624268, -0.0476900152862072, 0.08156469464302063, -0.2574208974838257, -1.3558379411697388, -1.313581109046936, 9.511601448059082, -0.6912257075309753, -1.9172253608703613, -0.2076033651828766, -0.11572265625, 0.347900390625, -0.874755859375, 
42, 3709611167, 0.9616807699203491, -0.04772505164146423, 0.08148922771215439, -0.2574306130409241, -1.35763418674469, -1.339795708656311, 9.498626708984375, -0.6510882377624512, -1.913741946220398, 0.058387644588947296, -0.11572265625, 0.344970703125, -0.877197265625, 
43, 3709619500, 0.9616936445236206, -0.04774658381938934, 0.0814230740070343, -0.25739961862564087, -1.362919569015503, -1.3563975095748901, 9.507524490356445, -0.5670478940010071, -1.6749916076660156, 0.25466954708099365, -0.11474609375, 0.347412109375, -0.877197265625, 
44, 3709627833, 0.9616993069648743, -0.0477859191596508, 0.08138666301965714, -0.2573821544647217, -1.3500299453735352, -1.3924838304519653, 9.570947647094727, -0.8692190051078796, -1.429940104484558, 0.41475850343704224, -0.1142578125, 0.343994140625, -0.879150390625, 
45, 3709636166, 0.9617106914520264, -0.04782357066869736, 0.08136671036481857, -0.2573390603065491, -1.3674805164337158, -1.4402177333831787, 9.58642578125, -0.9585103392601013, -1.1266165971755981, 0.422263503074646, -0.11572265625, 0.344970703125, -0.878662109375, 
46, 3709644499, 0.9617117643356323, -0.04782921075820923, 0.08135826885700226, -0.25733673572540283, -1.3964710235595703, -1.4869612455368042, 9.57507610321045, -0.5372841954231262, -0.9578955173492432, 0.47333824634552, -0.114501953125, 0.35400390625, -0.881103515625, 
47, 3709652832, 0.96172696352005, -0.047820717096328735, 0.08134955167770386, -0.2572839558124542, -1.4024937152862549, -1.4312047958374023, 9.600082397460938, -0.396175354719162, -0.825674831867218, 0.6232070922851562, -0.115234375, 0.347412109375, -0.878662109375, 
48, 3709661165, 0.9617365002632141, -0.047801777720451355, 0.08136332035064697, -0.2572474777698517, -1.3880020380020142, -1.4494377374649048, 9.59485912322998, -0.29766300320625305, -0.5831336379051208, 0.8146478533744812, -0.11376953125, 0.3466796875, -0.880126953125, 
49, 3709669498, 0.961753249168396, -0.047792498022317886, 0.08138015866279602, -0.257181316614151, -1.4109841585159302, -1.4127222299575806, 9.601790428161621, -0.49056383967399597, -0.4960196614265442, 0.8226138949394226, -0.1142578125, 0.345947265625, -0.877685546875, 
50, 3709677831, 0.9617602825164795, -0.047819990664720535, 0.08142789453268051, -0.25713497400283813, -1.4183300733566284, -1.3613719940185547, 9.601181983947754, -1.0409624576568604, -0.2966896891593933, 0.8746620416641235, -0.1142578125, 0.345947265625, -0.878662109375, 
51, 3709686164, 0.961768388748169, -0.04789929464459419, 0.08151526749134064, -0.25706204771995544, -1.4126107692718506, -1.3335596323013306, 9.591919898986816, -1.9242950677871704, 0.12831450998783112, 0.8294786214828491, -0.11572265625, 0.346923828125, -0.878662109375, 
52, 3709694497, 0.9617645144462585, -0.048018597066402435, 0.081623375415802, -0.2570199966430664, -1.4425793886184692, -1.3508509397506714, 9.5327730178833, -2.485964059829712, 0.1749580353498459, 0.8250729441642761, -0.1142578125, 0.344970703125, -0.878173828125, 
53, 3709702830, 0.9617672562599182, -0.04816209897398949, 0.0817343145608902, -0.2569476366043091, -1.4344068765640259, -1.3648275136947632, 9.48421859741211, -2.8586769104003906, 0.22057700157165527, 0.7448491454124451, -0.115234375, 0.348388671875, -0.877685546875, 
54, 3709711163, 0.9617656469345093, -0.04830433428287506, 0.08185482025146484, -0.2568886876106262, -1.4650317430496216, -1.3767943382263184, 9.459197044372559, -2.8412845134735107, 0.25290215015411377, 0.972072958946228, -0.11572265625, 0.346923828125, -0.879150390625, 
55, 3709719496, 0.9617751836776733, -0.04842828959226608, 0.08195354044437408, -0.25679832696914673, -1.4362128973007202, -1.378121018409729, 9.458207130432129, -2.57456374168396, 0.10761821269989014, 1.0224050283432007, -0.11474609375, 0.34716796875, -0.879150390625, 
56, 3709727829, 0.9617794752120972, -0.048537254333496094, 0.08205211907625198, -0.25672996044158936, -1.4262604713439941, -1.3682184219360352, 9.486052513122559, -2.3443942070007324, 0.049909334629774094, 1.2476052045822144, -0.1142578125, 0.346923828125, -0.878173828125, 
57, 3709736162, 0.9617989659309387, -0.048615165054798126, 0.08213011920452118, -0.2566172480583191, -1.4454171657562256, -1.3868248462677002, 9.540328979492188, -1.9108730554580688, -0.028918471187353134, 1.3903790712356567, -0.114990234375, 0.35107421875, -0.881591796875, 
58, 3709744495, 0.9618119597434998, -0.048659056425094604, 0.08220906555652618, -0.25653499364852905, -1.4306628704071045, -1.4015543460845947, 9.518257141113281, -1.4125993251800537, 0.01338343694806099, 1.4300554990768433, -0.1123046875, 0.3466796875, -0.876220703125, 
59, 3709752828, 0.9618362188339233, -0.0486600361764431, 0.08225802332162857, -0.2564278841018677, -1.449602484703064, -1.341880440711975, 9.518109321594238, -0.780670702457428, -0.1435677856206894, 1.401444435119629, -0.113037109375, 0.355224609375, -0.88037109375, 
60, 3709761161, 0.9618566632270813, -0.04863506555557251, 0.08229544758796692, -0.2563440203666687, -1.4483648538589478, -1.3064382076263428, 9.507294654846191, -0.3431795537471771, -0.2925145626068115, 1.4550807476043701, -0.11376953125, 0.34912109375, -0.878662109375, 
61, 3709769494, 0.9618821740150452, -0.048599403351545334, 0.08232235163450241, -0.25624632835388184, -1.420011043548584, -1.2836849689483643, 9.5012788772583, -0.2052212506532669, -0.30165883898735046, 1.3072353601455688, -0.11279296875, 0.34814453125, -0.877197265625, 
62, 3709777827, 0.9618927836418152, -0.04856589809060097, 0.08235228806734085, -0.2562035918235779, -1.3886529207229614, -1.2514327764511108, 9.50853157043457, -0.2085510790348053, -0.37332743406295776, 1.2174060344696045, -0.1123046875, 0.34912109375, -0.877685546875, 
63, 3709786160, 0.961910605430603, -0.04855341836810112, 0.08238518238067627, -0.2561284899711609, -1.3542765378952026, -1.2169917821884155, 9.515583992004395, -0.5163573622703552, -0.2799379825592041, 0.9605723023414612, -0.1123046875, 0.34912109375, -0.877685546875, 
64, 3709794493, 0.9619166851043701, -0.04856888949871063, 0.08243414014577866, -0.2560867667198181, -1.3394132852554321, -1.1862918138504028, 9.473546028137207, -0.8830252289772034, -0.24208013713359833, 0.8294017314910889, -0.1142578125, 0.344970703125, -0.875244140625, 
65, 3709802826, 0.9619230031967163, -0.048620179295539856, 0.08247683942317963, -0.256040096282959, -1.3493478298187256, -1.1579309701919556, 9.455472946166992, -1.3698234558105469, -0.34243667125701904, 0.47679615020751953, -0.114501953125, 0.3525390625, -0.878662109375, 
66, 3709811159, 0.9619123935699463, -0.04870236665010452, 0.0825263261795044, -0.2560477554798126, -1.3281817436218262, -1.1985825300216675, 9.470428466796875, -1.7349544763565063, -0.4307289719581604, 0.12280744314193726, -0.1123046875, 0.34814453125, -0.877685546875, 
67, 3709819492, 0.9619048237800598, -0.04881160706281662, 0.0825665071606636, -0.2560425102710724, -1.331185221672058, -1.244335412979126, 9.499556541442871, -2.0879697799682617, -0.5368487238883972, -0.18683022260665894, -0.111328125, 0.34814453125, -0.877197265625, 
68, 3709827825, 0.9618852138519287, -0.048916980624198914, 0.08262357115745544, -0.2560778558254242, -1.3101681470870972, -1.2557430267333984, 9.498089790344238, -2.030696392059326, -0.36461859941482544, -0.4143102765083313, -0.114501953125, 0.35009765625, -0.876708984375, 
69, 3709836158, 0.9618703126907349, -0.04900223761796951, 0.08265522122383118, -0.2561074197292328, -1.325409173965454, -1.2493040561676025, 9.470782279968262, -1.7057801485061646, -0.5328528881072998, -0.6530605554580688, -0.113525390625, 0.35009765625, -0.879150390625, 
70, 3709844491, 0.9618467688560486, -0.04908299818634987, 0.08266927301883698, -0.25617536902427673, -1.3311156034469604, -1.2604268789291382, 9.439693450927734, -1.5376225709915161, -0.8413764238357544, -0.7264453172683716, -0.111328125, 0.3486328125, -0.877685546875, 
71, 3709852824, 0.9618343114852905, -0.049142032861709595, 0.08266567438840866, -0.2562122941017151, -1.3166004419326782, -1.3204723596572876, 9.481876373291016, -1.225512981414795, -0.9050789475440979, -0.7354358434677124, -0.110595703125, 0.356201171875, -0.880859375, 
72, 3709861157, 0.9618175625801086, -0.04917272925376892, 0.08265888690948486, -0.2562714219093323, -1.3160086870193481, -1.393602728843689, 9.543487548828125, -0.7971149682998657, -0.9429111480712891, -0.6205304265022278, -0.110595703125, 0.353759765625, -0.87939453125, 
73, 3709869490, 0.9618114829063416, -0.04916217178106308, 0.08263080567121506, -0.25630512833595276, -1.3025258779525757, -1.3753275871276855, 9.600933074951172, -0.21848942339420319, -0.9929614067077637, -0.6068780422210693, -0.11083984375, 0.34814453125, -0.877197265625, 
74, 3709877823, 0.9617974758148193, -0.04915380850434303, 0.0825962945818901, -0.2563704252243042, -1.323769450187683, -1.3365298509597778, 9.577357292175293, -0.15878263115882874, -1.1531015634536743, -0.7813365459442139, -0.112548828125, 0.35205078125, -0.879150390625, 
75, 3709886156, 0.9617868661880493, -0.04914288967847824, 0.08254452794790268, -0.2564290463924408, -1.2747583389282227, -1.2978622913360596, 9.524348258972168, -0.10309728980064392, -1.282479166984558, -0.9693706631660461, -0.113525390625, 0.35009765625, -0.878662109375, 
76, 3709894489, 0.9617606997489929, -0.04915977269411087, 0.08250503242015839, -0.25653648376464844, -1.2861957550048828, -1.266021490097046, 9.507244110107422, -0.4703541398048401, -1.3033802509307861, -1.1612980365753174, -0.111328125, 0.349609375, -0.878662109375, 
77, 3709902822, 0.9617424607276917, -0.04919286072254181, 0.0824689194560051, -0.25661009550094604, -1.2805594205856323, -1.2914832830429077, 9.490978240966797, -0.7297239303588867, -1.21221923828125, -1.2338119745254517, -0.10986328125, 0.3486328125, -0.87646484375, 
78, 3709911155, 0.9617108106613159, -0.049239762127399445, 0.08244384080171585, -0.25672781467437744, -1.306680679321289, -1.3255809545516968, 9.459676742553711, -0.8953711986541748, -1.186963677406311, -1.456015706062317, -0.113525390625, 0.3505859375, -0.878173828125, 
79, 3709919488, 0.961687445640564, -0.049280423671007156, 0.08240575343370438, -0.25682005286216736, -1.318514347076416, -1.3276739120483398, 9.454452514648438, -0.8045687675476074, -1.247746229171753, -1.5065782070159912, -0.114990234375, 0.3505859375, -0.878173828125, 
80, 3709927821, 0.9616550207138062, -0.04930911958217621, 0.08237066864967346, -0.25694677233695984, -1.3023985624313354, -1.3325368165969849, 9.417315483093262, -0.5864890813827515, -1.2218501567840576, -1.7408201694488525, -0.11328125, 0.34912109375, -0.878662109375, 
81, 3709936154, 0.9616279602050781, -0.04932674765586853, 0.0823272094130516, -0.2570589780807495, -1.3002715110778809, -1.3529108762741089, 9.40318775177002, -0.4615941047668457, -1.2186740636825562, -1.7622079849243164, -0.11279296875, 0.3486328125, -0.878173828125, 
82, 3709944487, 0.9615901112556458, -0.04934237152338028, 0.08229891955852509, -0.2572067975997925, -1.3280397653579712, -1.3385920524597168, 9.447274208068848, -0.45342323184013367, -1.1053566932678223, -1.7513734102249146, -0.113037109375, 0.35205078125, -0.878173828125, 
83, 3709952820, 0.9615664482116699, -0.049347344785928726, 0.0822644978761673, -0.2573053240776062, -1.356826663017273, -1.379027247428894, 9.496997833251953, -0.3380054831504822, -1.067908763885498, -1.5493539571762085, -0.115478515625, 0.35009765625, -0.878173828125, 
84, 3709961153, 0.9615375399589539, -0.049372222274541855, 0.08223400264978409, -0.25741785764694214, -1.388828992843628, -1.330902099609375, 9.593070983886719, -0.5773192644119263, -1.1721842288970947, -1.455836296081543, -0.11083984375, 0.394287109375, -0.89990234375, 
85, 3709969486, 0.9615171551704407, -0.049408599734306335, 0.08221978694200516, -0.25749123096466064, -1.3710155487060547, -1.3499397039413452, 9.625819206237793, -0.8523648977279663, -0.9333828091621399, -1.225051999092102, -0.1142578125, 0.34912109375, -0.877685546875, 
86, 3709977819, 0.9614930152893066, -0.04946416616439819, 0.08221878856420517, -0.25757119059562683, -1.407076358795166, -1.3956955671310425, 9.597943305969238, -1.1463650465011597, -0.8169916272163391, -1.3394708633422852, -0.114990234375, 0.35205078125, -0.877685546875, 
87, 3709986152, 0.9614647030830383, -0.04952402412891388, 0.08221735805273056, -0.25766581296920776, -1.398482322692871, -1.4061620235443115, 9.57043743133545, -1.1755653619766235, -0.940836489200592, -1.135299801826477, -0.113525390625, 0.35400390625, -0.879150390625, 
88, 3709994485, 0.9614385366439819, -0.04959682375192642, 0.08222217857837677, -0.2577477693557739, -1.4295425415039062, -1.4657658338546753, 9.527373313903809, -1.3691834211349487, -0.9019797444343567, -1.0610442161560059, -0.114013671875, 0.3515625, -0.879150390625, 
89, 3710002818, 0.961423933506012, -0.0496688187122345, 0.08222156018018723, -0.2577887177467346, -1.4363694190979004, -1.4230213165283203, 9.54379940032959, -1.4038904905319214, -0.9077427983283997, -0.8090767860412598, -0.11181640625, 0.349609375, -0.875732421875, 
90, 3710011151, 0.9614024758338928, -0.04977855458855629, 0.08222827315330505, -0.25784561038017273, -1.4356257915496826, -1.3794667720794678, 9.513671875, -1.8938652276992798, -1.0356347560882568, -0.7223213911056519, -0.115966796875, 0.35595703125, -0.879150390625, 
91, 3710019484, 0.9613865613937378, -0.04992071911692619, 0.08223392069339752, -0.2578756809234619, -1.4589005708694458, -1.3998669385910034, 9.461791038513184, -2.3669087886810303, -1.0790507793426514, -0.7448106408119202, -0.114501953125, 0.3505859375, -0.875732421875, 
92, 3710027817, 0.9613643288612366, -0.05006638541817665, 0.08224056661128998, -0.25792819261550903, -1.4510661363601685, -1.4469244480133057, 9.46144962310791, -2.37648868560791, -1.1710060834884644, -0.6858468055725098, -0.11279296875, 0.349609375, -0.875732421875, 
93, 3710036150, 0.9613531827926636, -0.05018450692296028, 0.08222012221813202, -0.25795355439186096, -1.4764724969863892, -1.4739351272583008, 9.47126293182373, -1.9577473402023315, -1.348154067993164, -0.655903697013855, -0.115966796875, 0.3525390625, -0.879638671875, 
94, 3710044483, 0.9613361954689026, -0.050281163305044174, 0.08217770606279373, -0.2580114006996155, -1.4740300178527832, -1.4463906288146973, 9.444985389709473, -1.5497636795043945, -1.6542953252792358, -0.6803140640258789, -0.115966796875, 0.3525390625, -0.877685546875, 
95, 3710052816, 0.9613266587257385, -0.05036885291337967, 0.08210773020982742, -0.2580523192882538, -1.4570926427841187, -1.3864718675613403, 9.479233741760254, -1.3619345426559448, -1.8854124546051025, -0.855131208896637, -0.114501953125, 0.3505859375, -0.878662109375, 
96, 3710061149, 0.9613076448440552, -0.05046667158603668, 0.08205264061689377, -0.25812071561813354, -1.403063178062439, -1.3643693923950195, 9.551567077636719, -1.4992780685424805, -1.8076735734939575, -0.9038496017456055, -0.113525390625, 0.3525390625, -0.879150390625, 
97, 3710069482, 0.9612959027290344, -0.05059085786342621, 0.08200796693563461, -0.2581546902656555, -1.3652174472808838, -1.388258934020996, 9.583650588989258, -1.942557692527771, -1.6835724115371704, -0.795731782913208, -0.113525390625, 0.35400390625, -0.8779296875, 
98, 3710077815, 0.9612799286842346, -0.05072598531842232, 0.0819794237613678, -0.25819700956344604, -1.329681158065796, -1.4451769590377808, 9.553007125854492, -2.110689640045166, -1.605628252029419, -0.608005166053772, -0.116943359375, 0.351806640625, -0.876220703125, 
99, 3710086148, 0.9612741470336914, -0.05084535852074623, 0.08194596320390701, -0.2582055330276489, -1.3426254987716675, -1.4052939414978027, 9.580574989318848, -1.945349931716919, -1.5424381494522095, -0.4239412248134613, -0.114990234375, 0.35107421875, -0.878173828125, 
100, 3710094481, 0.9612628221511841, -0.05096755921840668, 0.0819280743598938, -0.258229523897171, -1.3436154127120972, -1.3952372074127197, 9.546686172485352, -2.004851818084717, -1.4492278099060059, -0.2479202151298523, -0.115478515625, 0.353515625, -0.876708984375, 
101, 3710102814, 0.9612654447555542, -0.05107131972908974, 0.08188915252685547, -0.25821158289909363, -1.3706673383712769, -1.3590807914733887, 9.530111312866211, -1.7417423725128174, -1.587288498878479, -0.030122337862849236, -0.115966796875, 0.353515625, -0.876708984375, 
102, 3710111147, 0.961264431476593, -0.05116289481520653, 0.08184989541769028, -0.25820958614349365, -1.3750144243240356, -1.3449724912643433, 9.551937103271484, -1.5455116033554077, -1.6528096199035645, 0.14627009630203247, -0.116455078125, 0.35302734375, -0.875732421875, 
103, 3710119480, 0.9612752199172974, -0.05125797167420387, 0.08180481940507889, -0.2581646144390106, -1.3389424085617065, -1.2873194217681885, 9.539763450622559, -1.6310120820999146, -1.6663085222244263, 0.3625054955482483, -0.115966796875, 0.35595703125, -0.877197265625, 
104, 3710127813, 0.9612863063812256, -0.051368363201618195, 0.08177037537097931, -0.25811246037483215, -1.3342301845550537, -1.249108076095581, 9.596725463867188, -1.878112554550171, -1.5853930711746216, 0.44713491201400757, -0.114501953125, 0.3515625, -0.877197265625, 
105, 3710136146, 0.9612858891487122, -0.05149458721280098, 0.08176304399967194, -0.2580913007259369, -1.3276764154434204, -1.252087116241455, 9.657872200012207, -2.1379432678222656, -1.3660070896148682, 0.3767469823360443, -0.116455078125, 0.35302734375, -0.875732421875, 
106, 3710144479, 0.9612844586372375, -0.0516299270093441, 0.08175818622112274, -0.2580713629722595, -1.3237210512161255, -1.2385201454162598, 9.673003196716309, -2.26084041595459, -1.3565553426742554, 0.2982393205165863, -0.117431640625, 0.351318359375, -0.875244140625, 
107, 3710152812, 0.9612849950790405, -0.05176355689764023, 0.08176690340042114, -0.2580398619174957, -1.3305962085723877, -1.2622344493865967, 9.653968811035156, -2.3241076469421387, -1.0703164339065552, 0.141172856092453, -0.117431640625, 0.354736328125, -0.873779296875, 
108, 3710161145, 0.9612733721733093, -0.05192634463310242, 0.08178919553756714, -0.25804266333580017, -1.338958740234375, -1.2655744552612305, 9.652234077453613, -2.714289426803589, -1.080946445465088, 0.03323446959257126, -0.11572265625, 0.35791015625, -0.87744140625, 
109, 3710169478, 0.9612658619880676, -0.05207660049200058, 0.08180276304483414, -0.25803637504577637, -1.3435381650924683, -1.2956583499908447, 9.663552284240723, -2.537269115447998, -1.0382986068725586, -0.23647059500217438, -0.114013671875, 0.35205078125, -0.877197265625, 
110, 3710177811, 0.9612473249435425, -0.052184510976076126, 0.08180908858776093, -0.2580817639827728, -1.3493291139602661, -1.4292206764221191, 9.63433837890625, -1.9129221439361572, -1.0864276885986328, -0.32924535870552063, -0.116455078125, 0.353515625, -0.875732421875, 
111, 3710186144, 0.9612455368041992, -0.05222642794251442, 0.08176343888044357, -0.25809425115585327, -1.3472912311553955, -1.4362661838531494, 9.606977462768555, -0.8703972697257996, -1.4294536113739014, -0.3845977187156677, -0.114013671875, 0.357421875, -0.87744140625, 
112, 3710194477, 0.9612455368041992, -0.0522165484726429, 0.08169466257095337, -0.2581179738044739, -1.3311655521392822, -1.3747906684875488, 9.592427253723145, -0.0548400804400444, -1.6411553621292114, -0.2592929005622864, -0.117431640625, 0.354248046875, -0.874267578125, 
113, 3710202810, 0.9612508416175842, -0.05216556042432785, 0.08162001520395279, -0.2581321895122528, -1.3427889347076416, -1.3948043584823608, 9.603392601013184, 0.46847158670425415, -1.4910047054290771, -0.29838019609451294, -0.1142578125, 0.359375, -0.8759765625, 
114, 3710211143, 0.961255669593811, -0.05207985267043114, 0.0815228745341301, -0.2581624388694763, -1.3491216897964478, -1.381149172782898, 9.56229019165039, 1.0574451684951782, -1.7493497133255005, -0.24940580129623413, -0.116943359375, 0.3544921875, -0.878662109375, 
115, 3710219476, 0.9612706303596497, -0.05197656527161598, 0.08140332251787186, -0.2581655979156494, -1.3402504920959473, -1.3151861429214478, 9.580522537231445, 1.3128961324691772, -1.9171229600906372, -0.09103298932313919, -0.116455078125, 0.353271484375, -0.872802734375, 
116, 3710227809, 0.9612851142883301, -0.05188114196062088, 0.08127991110086441, -0.2581692337989807, -1.299660563468933, -1.2569657564163208, 9.623173713684082, 1.2357202768325806, -2.115684747695923, 0.2779785096645355, -0.115234375, 0.361083984375, -0.87939453125, 
117, 3710236142, 0.9613069891929626, -0.051815349608659744, 0.08117657154798508, -0.25813359022140503, -1.2750639915466309, -1.262709379196167, 9.64502239227295, 0.7233076095581055, -1.8710942268371582, 0.4147073030471802, -0.11669921875, 0.35791015625, -0.8759765625, 
118, 3710244475, 0.9613226056098938, -0.05178088694810867, 0.08110353350639343, -0.25810545682907104, -1.2413356304168701, -1.1745076179504395, 9.666160583496094, 0.23307670652866364, -1.6689722537994385, 0.5307909250259399, -0.116455078125, 0.35498046875, -0.877197265625, 
119, 3710252808, 0.9613372087478638, -0.05179452896118164, 0.08106444776058197, -0.2580604553222656, -1.2510894536972046, -1.188673734664917, 9.632461547851562, -0.5732722282409668, -1.3019205331802368, 0.4721600413322449, -0.118408203125, 0.352294921875, -0.875732421875, 
120, 3710261141, 0.9613343477249146, -0.0518464595079422, 0.08107058703899384, -0.2580588161945343, -1.2662104368209839, -1.2015200853347778, 9.62221908569336, -1.2000013589859009, -0.9193205237388611, 0.27603182196617126, -0.1162109375, 0.359619140625, -0.87890625, 
121, 3710269474, 0.9613333940505981, -0.05192650854587555, 0.08109794557094574, -0.25803762674331665, -1.2635682821273804, -1.263406753540039, 9.613110542297363, -1.670304298400879, -0.6253971457481384, 0.07519058883190155, -0.11767578125, 0.35693359375, -0.876220703125, 
122, 3710277807, 0.9613208174705505, -0.05197668448090553, 0.08113455027341843, -0.2580628991127014, -1.299392580986023, -1.3561861515045166, 9.59681224822998, -1.26444673538208, -0.35104307532310486, -0.5423814058303833, -0.118896484375, 0.354248046875, -0.875732421875, 
123, 3710286140, 0.9613043069839478, -0.0519629567861557, 0.08115032315254211, -0.25812196731567383, -1.337481141090393, -1.4447163343429565, 9.605145454406738, -0.30235040187835693, -0.4886939525604248, -0.5705570578575134, -0.118408203125, 0.354736328125, -0.874755859375, 
124, 3710294473, 0.9612879157066345, -0.051889508962631226, 0.08112912625074387, -0.2582044005393982, -1.3284119367599487, -1.4613183736801147, 9.60988712310791, 0.6490005850791931, -0.7431201338768005, -0.8730354309082031, -0.119140625, 0.35791015625, -0.877685546875, 
125, 3710302806, 0.9612790942192078, -0.051765166223049164, 0.08108481019735336, -0.2582762539386749, -1.3151699304580688, -1.3831286430358887, 9.555980682373047, 1.3857685327529907, -0.7720643281936646, -1.0076897144317627, -0.115966796875, 0.35400390625, -0.875732421875, 
126, 3710311139, 0.9612586498260498, -0.05164160579442978, 0.0810421034693718, -0.2583906650543213, -1.3470693826675415, -1.3032920360565186, 9.528515815734863, 1.4142003059387207, -0.830720841884613, -1.2150623798370361, -0.1171875, 0.3583984375, -0.878173828125, 
127, 3710319472, 0.9612445831298828, -0.051548659801483154, 0.08098668605089188, -0.2584792375564575, -1.3405039310455322, -1.2671945095062256, 9.48913860321045, 1.0231989622116089, -1.0128381252288818, -1.289420485496521, -0.1171875, 0.3564453125, -0.875, 
128, 3710327805, 0.9612174034118652, -0.05149541795253754, 0.08096358180046082, -0.25859737396240234, -1.3032677173614502, -1.2568213939666748, 9.475951194763184, 0.4340716302394867, -0.7869205474853516, -1.5122132301330566, -0.11865234375, 0.3564453125, -0.877197265625, 
129, 3710336138, 0.9611941576004028, -0.05148126929998398, 0.08095259964466095, -0.25869011878967285, -1.3161159753799438, -1.3246135711669922, 9.464055061340332, -0.17627714574337006, -0.6923782825469971, -1.4334748983383179, -0.1171875, 0.3564453125, -0.877197265625, 
130, 3710344471, 0.9611610770225525, -0.05149625614285469, 0.08095894753932953, -0.2588079869747162, -1.2727882862091064, -1.3446239233016968, 9.507142066955566, -0.5923804044723511, -0.6504734754562378, -1.4773266315460205, -0.1162109375, 0.359130859375, -0.87890625, 
131, 3710352804, 0.9611324071884155, -0.0515284463763237, 0.08098501712083817, -0.25890010595321655, -1.259533166885376, -1.3331953287124634, 9.560259819030762, -0.9262363314628601, -0.36162176728248596, -1.4700521230697632, -0.114990234375, 0.35546875, -0.87744140625, 
132, 3710361137, 0.9610961675643921, -0.051572032272815704, 0.08105158805847168, -0.25900524854660034, -1.250429391860962, -1.3434274196624756, 9.527066230773926, -1.1948786973953247, 0.04663071781396866, -1.3678771257400513, -0.117431640625, 0.3544921875, -0.875244140625, 
133, 3710369470, 0.9610643982887268, -0.051613278687000275, 0.08111291378736496, -0.25909554958343506, -1.262810468673706, -1.378029465675354, 9.449897766113281, -1.1749762296676636, 0.07357688993215561, -1.4414410591125488, -0.117431640625, 0.353271484375, -0.875244140625, 
134, 3710377803, 0.9610231518745422, -0.05162409693002701, 0.0811733826994896, -0.2592275142669678, -1.273513674736023, -1.4252897500991821, 9.436988830566406, -0.7416601181030273, 0.07421723753213882, -1.486112117767334, -0.117919921875, 0.353515625, -0.876708984375, 
135, 3710386136, 0.9609931707382202, -0.05160878971219063, 0.08123898506164551, -0.2593211531639099, -1.2797795534133911, -1.488585352897644, 9.4790620803833, -0.4382596015930176, 0.33294665813446045, -1.4143668413162231, -0.11767578125, 0.357421875, -0.8759765625, 
136, 3710394469, 0.9609545469284058, -0.051588691771030426, 0.08130981773138046, -0.2594456672668457, -1.285959243774414, -1.5090352296829224, 9.441216468811035, -0.370637983083725, 0.32134342193603516, -1.3855763673782349, -0.117919921875, 0.35400390625, -0.877685546875, 
137, 3710402802, 0.9609267711639404, -0.05155298486351967, 0.08136960864067078, -0.2595374584197998, -1.315171718597412, -1.5087062120437622, 9.501908302307129, -0.14861378073692322, 0.32423779368400574, -1.3618063926696777, -0.1162109375, 0.3564453125, -0.878173828125, 
138, 3710411135, 0.9608939290046692, -0.05149350315332413, 0.08142226934432983, -0.25965410470962524, -1.2751301527023315, -1.5388697385787964, 9.571927070617676, 0.22569981217384338, 0.2259303629398346, -1.3415710926055908, -0.119384765625, 0.353759765625, -0.876220703125, 
139, 3710419468, 0.960870087146759, -0.051430512219667435, 0.08148359507322311, -0.2597355842590332, -1.2636569738388062, -1.4957667589187622, 9.58581829071045, 0.19765223562717438, 0.43079301714897156, -1.1796636581420898, -0.11865234375, 0.3603515625, -0.87646484375, 
140, 3710427801, 0.9608461260795593, -0.0513877347111702, 0.08156659454107285, -0.25980648398399353, -1.2730987071990967, -1.449180245399475, 9.57950210571289, -0.15865458548069, 0.637141227722168, -1.0488516092300415, -0.1181640625, 0.35693359375, -0.878173828125, 
141, 3710436134, 0.960817813873291, -0.05138956010341644, 0.08167225867509842, -0.2598777413368225, -1.2955944538116455, -1.3985238075256348, 9.544088363647461, -0.7884573936462402, 0.7082464098930359, -0.9998772740364075, -0.115478515625, 0.35400390625, -0.879638671875, 
142, 3710444467, 0.9607893824577332, -0.05145203694701195, 0.08179814368486404, -0.25993046164512634, -1.3022665977478027, -1.3377074003219604, 9.550636291503906, -1.6597768068313599, 0.7757911682128906, -1.0001335144042969, -0.118896484375, 0.35400390625, -0.877197265625, 
143, 3710452800, 0.9607523679733276, -0.05158158764243126, 0.08196371048688889, -0.2599897086620331, -1.3145321607589722, -1.3134355545043945, 9.565067291259766, -2.754375457763672, 1.1189193725585938, -1.0755672454833984, -0.11865234375, 0.35498046875, -0.877197265625, 
144, 3710461133, 0.9607011079788208, -0.05175945162773132, 0.08217231929302216, -0.2600780725479126, -1.3024524450302124, -1.3189905881881714, 9.579266548156738, -3.50215744972229, 1.4514178037643433, -1.262756109237671, -0.115478515625, 0.35595703125, -0.87744140625, 
145, 3710469466, 0.960651159286499, -0.051961421966552734, 0.08239095658063889, -0.26015329360961914, -1.298129916191101, -1.3650829792022705, 9.533819198608398, -3.8911354541778564, 1.5866609811782837, -1.376867651939392, -0.117431640625, 0.35498046875, -0.876220703125, 
146, 3710477799, 0.9605883955955505, -0.05214507132768631, 0.08262979984283447, -0.26027190685272217, -1.2958693504333496, -1.4226629734039307, 9.541547775268555, -3.671391010284424, 1.8536381721496582, -1.6170010566711426, -0.11865234375, 0.35546875, -0.875732421875, 
147, 3710486132, 0.960534393787384, -0.05227195844054222, 0.08287956565618515, -0.2603665888309479, -1.3128528594970703, -1.4493963718414307, 9.562649726867676, -2.9917426109313965, 2.284879207611084, -1.5413621664047241, -0.115966796875, 0.3544921875, -0.877685546875, 
148, 3710494465, 0.9604739546775818, -0.05230017751455307, 0.0831419974565506, -0.26050013303756714, -1.3131788969039917, -1.5564887523651123, 9.595549583435059, -1.67709219455719, 2.73750901222229, -1.6651047468185425, -0.11767578125, 0.35791015625, -0.877197265625, 
149, 3710502798, 0.9604252576828003, -0.05223362147808075, 0.08338552713394165, -0.26061543822288513, -1.3366066217422485, -1.5550742149353027, 9.654104232788086, -0.38659563660621643, 2.9046413898468018, -1.5784258842468262, -0.11376953125, 0.358642578125, -0.8759765625, 
150, 3710511131, 0.9603734612464905, -0.052086979150772095, 0.08362159878015518, -0.2607598304748535, -1.330359935760498, -1.491866946220398, 9.674107551574707, 0.7655455470085144, 3.0381431579589844, -1.748786449432373, -0.11474609375, 0.360107421875, -0.880859375, 
151, 3710519464, 0.9603267908096313, -0.05189937353134155, 0.08385927975177765, -0.2608926296234131, -1.3443337678909302, -1.4379339218139648, 9.70197582244873, 1.2538552284240723, 3.2720775604248047, -1.667384147644043, -0.115966796875, 0.3544921875, -0.876708984375, 
152, 3710527797, 0.9602642059326172, -0.05174017325043678, 0.08413393050432205, -0.2610657215118408, -1.3404756784439087, -1.3828463554382324, 9.727754592895508, 0.7850890755653381, 3.5867996215820312, -1.875294804573059, -0.115234375, 0.35888671875, -0.876953125, 
153, 3710536130, 0.9602027535438538, -0.051616132259368896, 0.08444251865148544, -0.2612167000770569, -1.351666808128357, -1.3050694465637207, 9.717872619628906, 0.17042432725429535, 4.008973598480225, -1.982695460319519, -0.11279296875, 0.363037109375, -0.88037109375, 
154, 3710544463, 0.9601355791091919, -0.05156980827450752, 0.0847860798239708, -0.2613620460033417, -1.3808269500732422, -1.3169599771499634, 9.646759033203125, -0.9273121953010559, 4.1490325927734375, -2.063764810562134, -0.113037109375, 0.35498046875, -0.87744140625, 
155, 3710552796, 0.9600632190704346, -0.05158854275941849, 0.08514376729726791, -0.26150813698768616, -1.3904465436935425, -1.2914927005767822, 9.555520057678223, -1.9041621685028076, 4.1538987159729, -2.0904548168182373, -0.114501953125, 0.35546875, -0.876953125, 
156, 3710561129, 0.9599781632423401, -0.05163849517703056, 0.08552327752113342, -0.2616862952709198, -1.447042465209961, -1.3034309148788452, 9.499005317687988, -2.3919854164123535, 4.219624996185303, -1.9993962049484253, -0.112548828125, 0.357421875, -0.87548828125, 
157, 3710569462, 0.9599050283432007, -0.05172250419855118, 0.08588579297065735, -0.26181936264038086, -1.467888355255127, -1.365483045578003, 9.448647499084473, -2.798534393310547, 3.974804401397705, -1.994580626487732, -0.113037109375, 0.356689453125, -0.87890625, 
158, 3710577795, 0.9598327875137329, -0.05181325972080231, 0.08622248470783234, -0.2619555592536926, -1.4637982845306396, -1.3549871444702148, 9.395868301391602, -2.791900157928467, 3.610826015472412, -2.058513879776001, -0.110107421875, 0.358642578125, -0.8759765625, 
159, 3710586128, 0.9597613215446472, -0.0518827959895134, 0.08653656393289566, -0.2620998024940491, -1.4906418323516846, -1.3754093647003174, 9.363332748413086, -2.411810874938965, 3.2819907665252686, -1.8148199319839478, -0.112060546875, 0.356689453125, -0.87646484375, 
160, 3710594461, 0.9596982598304749, -0.05190287157893181, 0.08681031316518784, -0.26223617792129517, -1.5100408792495728, -1.427123785018921, 9.379319190979004, -1.6191781759262085, 2.913299083709717, -1.6545257568359375, -0.110595703125, 0.357177734375, -0.87939453125, 
161, 3710602794, 0.9596500992774963, -0.05185392498970032, 0.08701904863119125, -0.26235300302505493, -1.512083649635315, -1.4929450750350952, 9.387506484985352, -0.4923056364059448, 2.3828539848327637, -1.6397209167480469, -0.112060546875, 0.358154296875, -0.8759765625, 
162, 3710611127, 0.9596099853515625, -0.05172986909747124, 0.08716800808906555, -0.26247459650039673, -1.4643038511276245, -1.5054317712783813, 9.38853931427002, 0.7380101680755615, 1.7534351348876953, -1.3346807956695557, -0.112548828125, 0.357177734375, -0.87646484375, 
163, 3710619460, 0.9595882296562195, -0.05153986066579819, 0.0872596725821495, -0.26256129145622253, -1.4462257623672485, -1.5056356191635132, 9.423440933227539, 1.7744390964508057, 1.2933011054992676, -1.0615819692611694, -0.10986328125, 0.361328125, -0.87939453125, 
164, 3710627793, 0.9595666527748108, -0.051308177411556244, 0.08732972294092178, -0.26266199350357056, -1.450148582458496, -1.466048240661621, 9.520721435546875, 2.3967881202697754, 1.0244797468185425, -0.6710673570632935, -0.111328125, 0.359130859375, -0.87890625, 
165, 3710636126, 0.9595616459846497, -0.0511028915643692, 0.08737730234861374, -0.26270419359207153, -1.4552274942398071, -1.3739876747131348, 9.539923667907715, 2.0933873653411865, 0.716135561466217, -0.4280906915664673, -0.109375, 0.36279296875, -0.88037109375, 
166, 3710644459, 0.9595592021942139, -0.05096498131752014, 0.0874270424246788, -0.2627234160900116, -1.4341379404067993, -1.3084408044815063, 9.54109001159668, 1.2490909099578857, 0.449645072221756, -0.3665909171104431, -0.108154296875, 0.358642578125, -0.876953125, 
167, 3710652792, 0.9595507383346558, -0.050906017422676086, 0.08748581260442734, -0.2627462148666382, -1.4028370380401611, -1.291689395904541, 9.530305862426758, 0.09650162607431412, 0.3260820209980011, -0.3527848422527313, -0.110595703125, 0.356201171875, -0.8798828125, 
168, 3710661125, 0.9595315456390381, -0.050928521901369095, 0.08757096529006958, -0.26278364658355713, -1.3937243223190308, -1.295530080795288, 9.443376541137695, -1.071776270866394, 0.2751096785068512, -0.2386990189552307, -0.109130859375, 0.356689453125, -0.87841796875, 
169, 3710669458, 0.9595181941986084, -0.05100855231285095, 0.08766069263219833, -0.2627869248390198, -1.3953672647476196, -1.3237953186035156, 9.370774269104004, -1.8763195276260376, 0.22413738071918488, -0.25778165459632874, -0.109619140625, 0.358642578125, -0.876953125, 
170, 3710677791, 0.959494411945343, -0.0510968416929245, 0.08775163441896439, -0.2628260552883148, -1.4111005067825317, -1.3946932554244995, 9.335016250610352, -1.9468611478805542, 0.13745877146720886, -0.4550880789756775, -0.109619140625, 0.356201171875, -0.87890625, 
171, 3710686124, 0.9594804048538208, -0.05113765597343445, 0.08779383450746536, -0.2628552317619324, -1.4241667985916138, -1.559727430343628, 9.357792854309082, -1.157251000404358, -0.2421569675207138, -0.5883589386940002, -0.108154296875, 0.358154296875, -0.876953125, 
172, 3710694457, 0.9594641327857971, -0.051105521619319916, 0.08782139420509338, -0.2629117965698242, -1.3959417343139648, -1.5938966274261475, 9.427118301391602, -0.10688819736242294, -0.2655683755874634, -0.5265774130821228, -0.108154296875, 0.354736328125, -0.87890625, 
173, 3710702790, 0.9594610929489136, -0.05100584030151367, 0.0878259688615799, -0.2629406452178955, -1.4103120565414429, -1.537610650062561, 9.53911018371582, 0.8411842584609985, -0.24377065896987915, -0.4008115530014038, -0.109130859375, 0.355712890625, -0.87890625, 
174, 3710711123, 0.959450900554657, -0.050874318927526474, 0.08783476799726486, -0.26300033926963806, -1.4410475492477417, -1.4169853925704956, 9.6310453414917, 1.256263017654419, -0.18580564856529236, -0.2664392590522766, -0.110595703125, 0.355712890625, -0.87890625, 
175, 3710719456, 0.9594502449035645, -0.05077623575925827, 0.08785363286733627, -0.2630155682563782, -1.448722243309021, -1.3095498085021973, 9.653348922729492, 0.7531225681304932, -0.07438373565673828, -0.20358192920684814, -0.107666015625, 0.355224609375, -0.87890625, 
176, 3710727789, 0.9594346880912781, -0.0507408045232296, 0.08792413026094437, -0.2630557715892792, -1.4307259321212769, -1.2953941822052002, 9.656452178955078, -0.24356575310230255, 0.2968049645423889, -0.24295100569725037, -0.108642578125, 0.35888671875, -0.88134765625, 
177, 3710736122, 0.9594207406044006, -0.050743650645017624, 0.08802779018878937, -0.2630714178085327, -1.4547306299209595, -1.3673372268676758, 9.601789474487305, -0.8937062621116638, 0.6957209706306458, -0.32086947560310364, -0.110107421875, 0.356201171875, -0.87744140625, 
178, 3710744455, 0.9593930840492249, -0.05075572803616524, 0.08815321326255798, -0.2631281018257141, -1.4780635833740234, -1.399031639099121, 9.528117179870605, -1.0776677131652832, 0.8535815477371216, -0.385955274105072, -0.1103515625, 0.3642578125, -0.8818359375, 
179, 3710752788, 0.9593769907951355, -0.050721194595098495, 0.08826613426208496, -0.26315557956695557, -1.4848514795303345, -1.4397313594818115, 9.460314750671387, -0.41999658942222595, 0.9638251662254333, -0.43300861120224, -0.108642578125, 0.357177734375, -0.8779296875, 
180, 3710761121, 0.9593546390533447, -0.05063895136117935, 0.08837197721004486, -0.2632169723510742, -1.505415916442871, -1.4534791707992554, 9.394414901733398, 0.2724713981151581, 0.9610844850540161, -0.5085962414741516, -0.108642578125, 0.356201171875, -0.876953125, 
181, 3710769454, 0.9593418836593628, -0.050502240657806396, 0.08844156563282013, -0.26326656341552734, -1.5078834295272827, -1.4475709199905396, 9.370097160339355, 1.1114912033081055, 0.7741006016731262, -0.6192753314971924, -0.109130859375, 0.358154296875, -0.8779296875, 
182, 3710777787, 0.9593218564987183, -0.0503232516348362, 0.08849679678678513, -0.2633552849292755, -1.5132561922073364, -1.3988617658615112, 9.444465637207031, 1.757840871810913, 0.6503069400787354, -0.7168399691581726, -0.107177734375, 0.355712890625, -0.87841796875, 
183, 3710786120, 0.9593052864074707, -0.050150081515312195, 0.08854594081640244, -0.2634322941303253, -1.4751135110855103, -1.3760452270507812, 9.507140159606934, 1.6996452808380127, 0.6590157747268677, -0.9634793996810913, -0.106689453125, 0.35693359375, -0.87939453125, 
184, 3710794453, 0.9592733383178711, -0.05000743642449379, 0.08861813694238663, -0.26355087757110596, -1.4675790071487427, -1.3890377283096313, 9.566654205322266, 1.2408943176269531, 0.7737419605255127, -1.160119891166687, -0.107177734375, 0.356201171875, -0.87841796875, 
185, 3710802786, 0.9592481851577759, -0.049909450113773346, 0.08870988339185715, -0.2636306583881378, -1.4626848697662354, -1.382959246635437, 9.571634292602539, 0.5483111143112183, 0.9614430665969849, -1.0933436155319214, -0.107177734375, 0.356201171875, -0.87890625, 
186, 3710811119, 0.9592077136039734, -0.049856700003147125, 0.08882862329483032, -0.2637476325035095, -1.4633203744888306, -1.318138599395752, 9.600125312805176, -0.10617101192474365, 1.087260365486145, -1.353968620300293, -0.107666015625, 0.353759765625, -0.87890625, 
187, 3710819452, 0.9591727256774902, -0.04986182600259781, 0.08896677941083908, -0.2638275921344757, -1.4845274686813354, -1.3210028409957886, 9.55603313446045, -0.9846624732017517, 1.2118477821350098, -1.2268706560134888, -0.108154296875, 0.355712890625, -0.87939453125, 
188, 3710827785, 0.9591282606124878, -0.04988328740000725, 0.08911572396755219, -0.2639346122741699, -1.475675344467163, -1.3404260873794556, 9.528743743896484, -1.2301236391067505, 1.1933032274246216, -1.1735930442810059, -0.106201171875, 0.356201171875, -0.87841796875, 
189, 3710836118, 0.9590973258018494, -0.04990549758076668, 0.0892489030957222, -0.2639981508255005, -1.475771427154541, -1.3673603534698486, 9.49433422088623, -1.210221290588379, 1.0687410831451416, -1.0194463729858398, -0.107177734375, 0.356201171875, -0.87939453125, 
190, 3710844451, 0.9590696692466736, -0.04991403594613075, 0.0893881767988205, -0.26404979825019836, -1.461615800857544, -1.3890891075134277, 9.49089241027832, -1.0638103485107422, 1.185516357421875, -0.8285179734230042, -0.106201171875, 0.36083984375, -0.880615234375, 
191, 3710852784, 0.9590356349945068, -0.04988664388656616, 0.08954058587551117, -0.2641270160675049, -1.4644570350646973, -1.4420719146728516, 9.447327613830566, -0.6120265126228333, 1.4007271528244019, -0.7919408679008484, -0.10546875, 0.364013671875, -0.882568359375, 
192, 3710861117, 0.9590151906013489, -0.0497904010117054, 0.08968530595302582, -0.26417040824890137, -1.4508304595947266, -1.5638703107833862, 9.40893840789795, 0.34129688143730164, 1.563070297241211, -0.5606443881988525, -0.105712890625, 0.3603515625, -0.880615234375, 
193, 3710869450, 0.9590016603469849, -0.049630049616098404, 0.08978449553251266, -0.26421621441841125, -1.4639546871185303, -1.502797245979309, 9.38237190246582, 1.3110003471374512, 1.2496799230575562, -0.5208910703659058, -0.108154296875, 0.35693359375, -0.8818359375, 
194, 3710877783, 0.958984375, -0.0494636707007885, 0.0898565948009491, -0.26428502798080444, -1.4597035646438599, -1.3443676233291626, 9.449424743652344, 1.5228047370910645, 0.8287102580070496, -0.5597991347312927, -0.105712890625, 0.355224609375, -0.87744140625, 
195, 3710886116, 0.9589755535125732, -0.04930649697780609, 0.08992864936590195, -0.2643221616744995, -1.4634144306182861, -1.3429534435272217, 9.564216613769531, 1.3602566719055176, 0.8686169981956482, -0.41203054785728455, -0.107177734375, 0.355224609375, -0.87841796875, 
196, 3710894449, 0.9589581489562988, -0.049170807003974915, 0.09001252055168152, -0.2643818259239197, -1.4580353498458862, -1.3478600978851318, 9.62345027923584, 1.0616203546524048, 0.8641090393066406, -0.45747026801109314, -0.106201171875, 0.35693359375, -0.88037109375, 
197, 3710902782, 0.9589442610740662, -0.04907386749982834, 0.09009625762701035, -0.2644219696521759, -1.4700379371643066, -1.200239658355713, 9.633822441101074, 0.5244386792182922, 0.8121377825737, -0.5364389419555664, -0.105712890625, 0.354736328125, -0.87890625, 
198, 3710911115, 0.9589155316352844, -0.049061644822359085, 0.09021151810884476, -0.26448869705200195, -1.5184270143508911, -1.1783379316329956, 9.637990951538086, -0.686051607131958, 0.8442067503929138, -0.6960155963897705, -0.10595703125, 0.353759765625, -0.87939453125, 
199, 3710919448, 0.9588853716850281, -0.04911813139915466, 0.09035813063383102, -0.2645379304885864, -1.494006872177124, -1.2989850044250488, 9.673589706420898, -1.7279107570648193, 1.1086738109588623, -0.8629180788993835, -0.104736328125, 0.35498046875, -0.88037109375, 
200, 3710927781, 0.9588449001312256, -0.049224063754081726, 0.09052230417728424, -0.26460883021354675, -1.4887747764587402, -1.3609472513198853, 9.647839546203613, -2.4371178150177, 1.0652576684951782, -0.8307465314865112, -0.106689453125, 0.356689453125, -0.87890625, 
201, 3710936114, 0.9588091969490051, -0.04934865981340408, 0.09069734811782837, -0.2646549940109253, -1.485490083694458, -1.3630772829055786, 9.605347633361816, -2.7366509437561035, 1.241073727607727, -0.9075636267662048, -0.103271484375, 0.35595703125, -0.880859375, 
202, 3710944447, 0.9587712287902832, -0.049437016248703, 0.09087193757295609, -0.2647157907485962, -1.5218545198440552, -1.4106520414352417, 9.557477951049805, -2.23197340965271, 1.2798280715942383, -0.8139691948890686, -0.105224609375, 0.35595703125, -0.8818359375, 
203, 3710952780, 0.9587409496307373, -0.04943612962961197, 0.09100240468978882, -0.2647808790206909, -1.5320441722869873, -1.5075297355651855, 9.501306533813477, -0.8927841186523438, 1.1160762310028076, -1.0111987590789795, -0.105224609375, 0.35595703125, -0.8798828125, 
204, 3710961113, 0.9587114453315735, -0.049341339617967606, 0.09107767045497894, -0.2648793160915375, -1.5217888355255127, -1.558368444442749, 9.46311092376709, 0.5963889956474304, 0.6518438458442688, -1.1132714748382568, -0.103271484375, 0.35888671875, -0.880615234375, 
205, 3710969446, 0.9586977958679199, -0.04916974902153015, 0.09110260754823685, -0.26495254039764404, -1.4747002124786377, -1.4974621534347534, 9.440811157226562, 1.7632454633712769, 0.3313072919845581, -0.9159649610519409, -0.10400390625, 0.35498046875, -0.8798828125, 
206, 3710977779, 0.9586792588233948, -0.048963192850351334, 0.09113118052482605, -0.26504790782928467, -1.4647260904312134, -1.3591272830963135, 9.479290008544922, 2.2304747104644775, 0.41258129477500916, -0.828364372253418, -0.104736328125, 0.35693359375, -0.877685546875, 
207, 3710986112, 0.9586699604988098, -0.04878005385398865, 0.09115103632211685, -0.2651084363460541, -1.5143283605575562, -1.2587816715240479, 9.532466888427734, 1.9212340116500854, 0.29181015491485596, -0.721911609172821, -0.104248046875, 0.35595703125, -0.8798828125, 
208, 3710994445, 0.9586575627326965, -0.04865144565701485, 0.09119099378585815, -0.2651630640029907, -1.491682529449463, -1.2170062065124512, 9.518481254577637, 1.1203025579452515, 0.3579973578453064, -0.7092325687408447, -0.104248046875, 0.3544921875, -0.8818359375, 
209, 3711002778, 0.9586378335952759, -0.04857746139168739, 0.09125219285488129, -0.2652266025543213, -1.5271819829940796, -1.1826081275939941, 9.491364479064941, 0.3376852571964264, 0.357971727848053, -0.6686595678329468, -0.105224609375, 0.35498046875, -0.880859375, 
210, 3711011111, 0.958608865737915, -0.048565272241830826, 0.0913332849740982, -0.2653055787086487, -1.5512659549713135, -1.1833232641220093, 9.473397254943848, -0.5686615705490112, 0.38327857851982117, -0.7634834051132202, -0.105712890625, 0.3544921875, -0.88037109375, 
211, 3711019444, 0.9585877060890198, -0.048595234751701355, 0.09140558540821075, -0.26535192131996155, -1.5539982318878174, -1.2679415941238403, 9.448619842529297, -1.1044858694076538, 0.2113046497106552, -0.8101015090942383, -0.103759765625, 0.357421875, -0.88232421875, 
212, 3711027777, 0.9585586786270142, -0.04865061491727829, 0.09147368371486664, -0.2654229402542114, -1.5568233728408813, -1.3914425373077393, 9.457080841064453, -1.4055042266845703, -0.021823327988386154, -0.8658379316329956, -0.103271484375, 0.35595703125, -0.880615234375, 
213, 3711036110, 0.9585387110710144, -0.04870561510324478, 0.091529481112957, -0.26546570658683777, -1.5642763376235962, -1.368975281715393, 9.505097389221191, -1.3783787488937378, -0.10132991522550583, -0.8013157248497009, -0.1044921875, 0.3525390625, -0.8818359375, 
214, 3711044443, 0.9585087299346924, -0.048728734254837036, 0.09157421439886093, -0.26555418968200684, -1.5659074783325195, -1.4070357084274292, 9.541234016418457, -0.8977275490760803, -0.22473929822444916, -0.9203193187713623, -0.106689453125, 0.35498046875, -0.880859375, 
215, 3711052776, 0.9584885239601135, -0.04874967783689499, 0.09158622473478317, -0.2656193673610687, -1.5442487001419067, -1.4573273658752441, 9.51146411895752, -0.741557776927948, -0.5380269885063171, -1.0831235647201538, -0.104736328125, 0.3564453125, -0.88037109375, 
216, 3711061109, 0.9584652781486511, -0.04873519390821457, 0.09157678484916687, -0.265708863735199, -1.5416593551635742, -1.4640724658966064, 9.461780548095703, -0.1535060852766037, -0.7613062262535095, -1.1997963190078735, -0.104248046875, 0.360595703125, -0.882568359375, 
217, 3711069442, 0.958448588848114, -0.04872562363743782, 0.09154428541660309, -0.26578211784362793, -1.5535688400268555, -1.3916499614715576, 9.434062957763672, -0.1627272367477417, -1.0129660367965698, -1.1693922281265259, -0.10400390625, 0.363037109375, -0.884521484375, 
218, 3711077775, 0.9584312438964844, -0.04873832315206528, 0.09149788320064545, -0.2658582329750061, -1.5473344326019287, -1.3584613800048828, 9.390981674194336, -0.3815240263938904, -1.3570677042007446, -1.1168831586837769, -0.104248046875, 0.359619140625, -0.883544921875, 
219, 3711086108, 0.9584165215492249, -0.0487796925008297, 0.0914578065276146, -0.2659173309803009, -1.5385466814041138, -1.3237378597259521, 9.400826454162598, -0.822882890701294, -1.3102447986602783, -1.0450096130371094, -0.104248046875, 0.3564453125, -0.88134765625, 
220, 3711094441, 0.9583994746208191, -0.04882916808128357, 0.09141379594802856, -0.2659847140312195, -1.5117335319519043, -1.3862175941467285, 9.384035110473633, -0.9058217406272888, -1.4872905015945435, -0.9108933806419373, -0.105224609375, 0.3544921875, -0.8798828125, 
221, 3711102774, 0.9583911299705505, -0.04887930303812027, 0.09134124964475632, -0.2660307288169861, -1.5219783782958984, -1.3730334043502808, 9.36987590789795, -0.8330772519111633, -1.7876685857772827, -0.8817188143730164, -0.10400390625, 0.3544921875, -0.88134765625, 
222, 3711111107, 0.9583764672279358, -0.04890934377908707, 0.09127170592546463, -0.2661024034023285, -1.4990233182907104, -1.3922029733657837, 9.427935600280762, -0.5547275543212891, -1.7588526010513306, -0.9108677506446838, -0.106201171875, 0.35693359375, -0.87939453125, 
223, 3711119440, 0.9583699703216553, -0.04892367869615555, 0.09118901193141937, -0.26615166664123535, -1.4811291694641113, -1.4482043981552124, 9.408727645874023, -0.319793701171875, -1.790332555770874, -0.8787475228309631, -0.106201171875, 0.355224609375, -0.87939453125, 
224, 3711127773, 0.9583606719970703, -0.048936132341623306, 0.09109792113304138, -0.2662138342857361, -1.4707480669021606, -1.4036428928375244, 9.399754524230957, -0.2384941130876541, -1.9773162603378296, -0.8492143154144287, -0.106201171875, 0.354248046875, -0.880859375, 
225, 3711136106, 0.958356499671936, -0.048950809985399246, 0.09099827706813812, -0.26626044511795044, -1.4749666452407837, -1.348746657371521, 9.399836540222168, -0.26367294788360596, -2.019272565841675, -0.8478823304176331, -0.104248046875, 0.35595703125, -0.880859375, 
226, 3711144439, 0.9583494067192078, -0.04898367077112198, 0.09089910238981247, -0.2663138508796692, -1.4844675064086914, -1.3380324840545654, 9.42818546295166, -0.4973772168159485, -2.0724985599517822, -0.9706770181655884, -0.106689453125, 0.3603515625, -0.8818359375, 
227, 3711152772, 0.958328366279602, -0.04906485974788666, 0.09082826226949692, -0.26639822125434875, -1.48220694065094, -1.3685524463653564, 9.459651947021484, -1.2098114490509033, -1.9437360763549805, -1.181302785873413, -0.106689453125, 0.35888671875, -0.88232421875, 
228, 3711161105, 0.9583090543746948, -0.04916602373123169, 0.09077023714780807, -0.26646915078163147, -1.4663279056549072, -1.4250686168670654, 9.454930305480957, -1.494078278541565, -1.814896583557129, -1.306274652481079, -0.106689453125, 0.35595703125, -0.880859375, 
229, 3711169438, 0.9582884907722473, -0.049277275800704956, 0.09070012718439102, -0.26654666662216187, -1.4838950634002686, -1.4688340425491333, 9.461913108825684, -1.6159508228302002, -1.9433521032333374, -1.416569709777832, -0.107177734375, 0.35546875, -0.88232421875, 
230, 3711177771, 0.9582638740539551, -0.04936651885509491, 0.09063495695590973, -0.266640305519104, -1.5074522495269775, -1.4498311281204224, 9.504858016967773, -1.3265869617462158, -1.8861298561096191, -1.3348859548568726, -0.106689453125, 0.3564453125, -0.87939453125, 
231, 3711186104, 0.9582453966140747, -0.04945509880781174, 0.09056324511766434, -0.26671475172042847, -1.5312914848327637, -1.463136076927185, 9.538243293762207, -1.3142151832580566, -1.8860528469085693, -1.3392146825790405, -0.107666015625, 0.355712890625, -0.88037109375, 
232, 3711194437, 0.958220899105072, -0.04952403903007507, 0.09049034118652344, -0.26681479811668396, -1.5113747119903564, -1.434605360031128, 9.48440933227539, -1.0363775491714478, -1.9242438077926636, -1.3047891855239868, -0.105712890625, 0.35595703125, -0.87939453125, 
233, 3711202770, 0.9582045674324036, -0.049588508903980255, 0.09040814638137817, -0.26688945293426514, -1.5081433057785034, -1.4148130416870117, 9.504384994506836, -0.956870973110199, -1.938254714012146, -1.3114744424819946, -0.106201171875, 0.3564453125, -0.8798828125, 
234, 3711211103, 0.9581825733184814, -0.04965219274163246, 0.0903458222746849, -0.2669771909713745, -1.5130950212478638, -1.4445793628692627, 9.544007301330566, -1.0121209621429443, -1.7723002433776855, -1.1575841903686523, -0.106689453125, 0.355712890625, -0.8798828125, 
235, 3711219436, 0.9581711888313293, -0.04971081018447876, 0.09028293192386627, -0.2670285701751709, -1.4920055866241455, -1.5058070421218872, 9.556110382080078, -0.9762353301048279, -1.6835980415344238, -0.9672702550888062, -0.107666015625, 0.35791015625, -0.88134765625, 
236, 3711227769, 0.9581553339958191, -0.049774523824453354, 0.09024841338396072, -0.26708531379699707, -1.4778550863265991, -1.463263988494873, 9.602437019348145, -1.1479532718658447, -1.4330140352249146, -0.7213481068611145, -0.107177734375, 0.35888671875, -0.878662109375, 
237, 3711236102, 0.9581466913223267, -0.049845218658447266, 0.09023631364107132, -0.26710715889930725, -1.4729138612747192, -1.4481602907180786, 9.610214233398438, -1.3548905849456787, -1.0830211639404297, -0.5485544204711914, -0.107666015625, 0.35693359375, -0.88232421875, 
238, 3711244435, 0.9581272602081299, -0.04992426559329033, 0.090263731777668, -0.26715296506881714, -1.5067269802093506, -1.472594976425171, 9.593708038330078, -1.597278118133545, -0.6792638897895813, -0.5453014373779297, -0.107421875, 0.36181640625, -0.8837890625, 
239, 3711252768, 0.9581174850463867, -0.050012294203042984, 0.09030061960220337, -0.2671586275100708, -1.4789032936096191, -1.448504090309143, 9.57570743560791, -1.7840571403503418, -0.5109272003173828, -0.32686325907707214, -0.10791015625, 0.36083984375, -0.88427734375, 
240, 3711261101, 0.9581055641174316, -0.050106972455978394, 0.09036438912153244, -0.2671623229980469, -1.4847410917282104, -1.4612984657287598, 9.567490577697754, -1.9337977170944214, -0.2403639703989029, -0.30468133091926575, -0.109130859375, 0.358154296875, -0.88037109375, 
241, 3711269434, 0.9580968022346497, -0.050194162875413895, 0.0904153510928154, -0.2671601176261902, -1.552243947982788, -1.4753698110580444, 9.540491104125977, -1.8341329097747803, -0.32937344908714294, -0.20901215076446533, -0.109130859375, 0.357177734375, -0.880859375, 
242, 3711277767, 0.9580805897712708, -0.05027996003627777, 0.09047017991542816, -0.26718348264694214, -1.5631296634674072, -1.4597196578979492, 9.557356834411621, -1.826269507408142, -0.3782966732978821, -0.12937751412391663, -0.106689453125, 0.3564453125, -0.88134765625, 
243, 3711286100, 0.95807284116745, -0.05035964399576187, 0.0905168205499649, -0.26718053221702576, -1.5675934553146362, -1.4293327331542969, 9.566028594970703, -1.7196627855300903, -0.361032634973526, -0.18834146857261658, -0.107666015625, 0.35791015625, -0.8818359375, 
244, 3711294433, 0.9580695033073425, -0.05040773004293442, 0.09055615216493607, -0.2671700119972229, -1.5879526138305664, -1.461576223373413, 9.580102920532227, -1.2844513654708862, -0.3508125841617584, -0.03993258997797966, -0.107421875, 0.36083984375, -0.880615234375, 
245, 3711302766, 0.9580637812614441, -0.050421684980392456, 0.09058991819620132, -0.2671767473220825, -1.5759928226470947, -1.450618028640747, 9.589810371398926, -0.8003425002098083, -0.4004017412662506, 0.10152202844619751, -0.107666015625, 0.3564453125, -0.88232421875, 
246, 3711311099, 0.958062469959259, -0.050417251884937286, 0.0906059667468071, -0.2671767473220825, -1.5675028562545776, -1.4458545446395874, 9.564838409423828, -0.48659366369247437, -0.5647938251495361, 0.13638299703598022, -0.108154296875, 0.356201171875, -0.880859375, 
247, 3711319432, 0.9580698013305664, -0.05038685351610184, 0.0906134620308876, -0.26715365052223206, -1.5376108884811401, -1.3553564548492432, 9.551835060119629, -0.14187724888324738, -0.5047284960746765, 0.24263086915016174, -0.107177734375, 0.3603515625, -0.880126953125, 
248, 3711327765, 0.9580754041671753, -0.0503806546330452, 0.0906204879283905, -0.267132043838501, -1.536137342453003, -1.309077501296997, 9.564309120178223, -0.4358518123626709, -0.6840793490409851, 0.33238309621810913, -0.10595703125, 0.364501953125, -0.883056640625, 
249, 3711336098, 0.9580786824226379, -0.050396207720041275, 0.09064311534166336, -0.2671099305152893, -1.5233838558197021, -1.2982624769210815, 9.561405181884766, -0.8034930229187012, -0.4680233597755432, 0.1668127179145813, -0.10791015625, 0.36083984375, -0.8828125, 
250, 3711344431, 0.9580742120742798, -0.05045413598418236, 0.09068991988897324, -0.26709890365600586, -1.487426519393921, -1.3141560554504395, 9.516092300415039, -1.4003045558929443, -0.3510943055152893, -0.04485052451491356, -0.10986328125, 0.360107421875, -0.87841796875, 
251, 3711352764, 0.9580657482147217, -0.05053827539086342, 0.09073951095342636, -0.26709672808647156, -1.4914883375167847, -1.3119587898254395, 9.517440795898438, -1.7900763750076294, -0.3362380564212799, -0.20463210344314575, -0.107666015625, 0.35888671875, -0.88134765625, 
252, 3711361097, 0.958044707775116, -0.05060909688472748, 0.09081670641899109, -0.2671324610710144, -1.4855060577392578, -1.3505123853683472, 9.48234748840332, -1.6825989484786987, 0.005110039375722408, -0.40391087532043457, -0.108642578125, 0.358154296875, -0.87939453125, 
253, 3711369430, 0.9580305218696594, -0.05067029222846031, 0.0908658504486084, -0.26715537905693054, -1.4758386611938477, -1.4257402420043945, 9.452995300292969, -1.4583977460861206, -0.23342251777648926, -0.5283704400062561, -0.104736328125, 0.359375, -0.878662109375, 
254, 3711377763, 0.9580097794532776, -0.05070012807846069, 0.0909019336104393, -0.2672116458415985, -1.4597731828689575, -1.434631109237671, 9.50528335571289, -0.9630951285362244, -0.37007445096969604, -0.6707087159156799, -0.106201171875, 0.35791015625, -0.8798828125, 
255, 3711386096, 0.9579928517341614, -0.05071630701422691, 0.09094162285327911, -0.2672562003135681, -1.4780634641647339, -1.3565294742584229, 9.519161224365234, -0.8055933117866516, -0.17374135553836823, -0.7747281789779663, -0.107666015625, 0.35791015625, -0.88037109375, 
256, 3711394429, 0.9579704999923706, -0.050706446170806885, 0.0909719169139862, -0.26732736825942993, -1.492233157157898, -1.3885382413864136, 9.52974796295166, -0.4025533199310303, -0.28836503624916077, -0.818810224533081, -0.106689453125, 0.361328125, -0.879638671875, 
257, 3711402762, 0.9579569697380066, -0.050662461668252945, 0.09099069982767105, -0.26737770438194275, -1.4846941232681274, -1.4694514274597168, 9.544610977172852, 0.07411478459835052, -0.2290680855512619, -0.776623547077179, -0.105224609375, 0.359375, -0.879150390625, 
258, 3711411095, 0.9579421877861023, -0.05059079825878143, 0.09098333865404129, -0.2674465775489807, -1.4351750612258911, -1.4508464336395264, 9.552192687988281, 0.5552525520324707, -0.5636668801307678, -0.7384839653968811, -0.107666015625, 0.359375, -0.8818359375, 
259, 3711419428, 0.9579328894615173, -0.05050427466630936, 0.0909661203622818, -0.26750198006629944, -1.423136830329895, -1.427464246749878, 9.533609390258789, 0.7759959697723389, -0.5484519600868225, -0.8001117706298828, -0.107177734375, 0.36083984375, -0.881103515625, 
260, 3711427761, 0.9579176902770996, -0.05040945112705231, 0.09096502512693405, -0.2675752639770508, -1.4264485836029053, -1.388753056526184, 9.502301216125488, 0.8242277503013611, -0.4116207957267761, -0.6402790546417236, -0.108154296875, 0.357421875, -0.88134765625, 
261, 3711436094, 0.9579090476036072, -0.05034666135907173, 0.09095435589551926, -0.2676219344139099, -1.407128930091858, -1.3399275541305542, 9.435630798339844, 0.4286413788795471, -0.556315541267395, -0.707413911819458, -0.108154296875, 0.357666015625, -0.8798828125, 
262, 3711444427, 0.9578962326049805, -0.05033404380083084, 0.09098289906978607, -0.2676602303981781, -1.3758779764175415, -1.342839002609253, 9.423284530639648, -0.3891826868057251, -0.22504667937755585, -0.6478352546691895, -0.105224609375, 0.36083984375, -0.880126953125, 
263, 3711452760, 0.9578724503517151, -0.05037283897399902, 0.09105772525072098, -0.2677120864391327, -1.4036381244659424, -1.3435757160186768, 9.465156555175781, -1.2402923107147217, 0.10211113840341568, -0.5615664124488831, -0.1064453125, 0.361328125, -0.88330078125, 
264, 3711461093, 0.957850456237793, -0.05046159774065018, 0.09114803373813629, -0.2677433490753174, -1.4136962890625, -1.3622618913650513, 9.489409446716309, -1.9224506616592407, 0.16883620619773865, -0.7300312519073486, -0.107177734375, 0.35986328125, -0.879150390625, 
265, 3711469426, 0.9578230977058411, -0.05056607723236084, 0.09124068170785904, -0.26778969168663025, -1.442373275756836, -1.4315980672836304, 9.485220909118652, -2.1671178340911865, 0.2123291790485382, -0.9109702110290527, -0.107177734375, 0.35986328125, -0.880859375, 
266, 3711477759, 0.9577885866165161, -0.050662994384765625, 0.09132657200098038, -0.26786619424819946, -1.4848339557647705, -1.4807813167572021, 9.451949119567871, -2.019554376602173, 0.07088740915060043, -1.0253634452819824, -0.107666015625, 0.3603515625, -0.8818359375, 
267, 3711486092, 0.9577630758285522, -0.050744324922561646, 0.09137560427188873, -0.267925500869751, -1.5354065895080566, -1.476792573928833, 9.445599555969238, -1.6848018169403076, -0.26917997002601624, -1.0765405893325806, -0.1083984375, 0.35986328125, -0.8828125, 
268, 3711494425, 0.9577407240867615, -0.05082257091999054, 0.0914008617401123, -0.2679813802242279, -1.5236930847167969, -1.4504914283752441, 9.423336029052734, -1.5285550355911255, -0.6477583646774292, -0.9871469736099243, -0.105712890625, 0.35986328125, -0.882080078125, 
269, 3711502758, 0.95772385597229, -0.05089128762483597, 0.0913938358426094, -0.2680310308933258, -1.5093616247177124, -1.448467493057251, 9.418228149414062, -1.3181854486465454, -0.9792065620422363, -0.9404266476631165, -0.1083984375, 0.36181640625, -0.8818359375, 
270, 3711511091, 0.9577104449272156, -0.050958260893821716, 0.09138412028551102, -0.26806989312171936, -1.5100587606430054, -1.3997857570648193, 9.43693733215332, -1.2599128484725952, -1.0849677324295044, -0.7739596962928772, -0.10888671875, 0.3603515625, -0.8818359375, 
271, 3711519424, 0.9577035307884216, -0.0510108657181263, 0.09134732186794281, -0.2680971622467041, -1.5316944122314453, -1.4263559579849243, 9.413176536560059, -1.0176535844802856, -1.3402904272079468, -0.6096699833869934, -0.105712890625, 0.35888671875, -0.881103515625, 
272, 3711527757, 0.9576947689056396, -0.05103699117898941, 0.09127174317836761, -0.26814913749694824, -1.4998120069503784, -1.4845948219299316, 9.363581657409668, -0.5057787299156189, -1.8466328382492065, -0.6233993172645569, -0.107421875, 0.361328125, -0.880615234375, 
273, 3711536090, 0.9576965570449829, -0.05106270685791969, 0.09116263687610626, -0.26817500591278076, -1.486640453338623, -1.4908716678619385, 9.387198448181152, -0.39228200912475586, -2.205411195755005, -0.5762178301811218, -0.105712890625, 0.3583984375, -0.88037109375, 
274, 3711544423, 0.9576922655105591, -0.051066845655441284, 0.09105134010314941, -0.2682270407676697, -1.5082565546035767, -1.5099704265594482, 9.432149887084961, -0.07881499081850052, -2.2401697635650635, -0.6162272691726685, -0.10595703125, 0.368408203125, -0.882568359375, 
275, 3711552756, 0.9576970338821411, -0.05105789750814438, 0.09091268479824066, -0.2682587504386902, -1.5352908372879028, -1.5164324045181274, 9.475719451904297, 0.18195071816444397, -2.465805768966675, -0.6198900938034058, -0.10791015625, 0.36181640625, -0.880615234375, 
276, 3711561089, 0.9576919674873352, -0.051053933799266815, 0.0907767042517662, -0.2683238089084625, -1.4978947639465332, -1.4757684469223022, 9.529966354370117, 0.1308247148990631, -2.53117299079895, -0.762458860874176, -0.109619140625, 0.359130859375, -0.87890625, 
277, 3711569422, 0.9576900601387024, -0.05106792598962784, 0.09063505381345749, -0.26837611198425293, -1.4678916931152344, -1.442428469657898, 9.558422088623047, -0.08834350109100342, -2.567647933959961, -0.945190966129303, -0.108154296875, 0.35888671875, -0.88134765625, 
278, 3711577755, 0.9576779007911682, -0.051092568784952164, 0.09050348401069641, -0.2684593200683594, -1.4856603145599365, -1.4347549676895142, 9.586668014526367, -0.252197802066803, -2.5652401447296143, -1.0038987398147583, -0.1083984375, 0.361328125, -0.8798828125, 
279, 3711586088, 0.9576705694198608, -0.051116280257701874, 0.09038619697093964, -0.2685203552246094, -1.4608261585235596, -1.4281140565872192, 9.601289749145508, -0.2993023693561554, -2.270292043685913, -1.075413703918457, -0.107421875, 0.36181640625, -0.880615234375, 
280, 3711594421, 0.9576565623283386, -0.051168277859687805, 0.09029240906238556, -0.26859134435653687, -1.452441930770874, -1.3626774549484253, 9.642414093017578, -0.7408917546272278, -2.1454997062683105, -1.0430117845535278, -0.10986328125, 0.360107421875, -0.87890625, 
281, 3711602754, 0.9576442241668701, -0.051244527101516724, 0.09022499620914459, -0.26864364743232727, -1.4380534887313843, -1.28069007396698, 9.667180061340332, -1.1907033920288086, -1.8068794012069702, -1.0084068775177002, -0.108642578125, 0.3603515625, -0.87890625, 
282, 3711611087, 0.9576194286346436, -0.051351845264434814, 0.09020701795816422, -0.26871737837791443, -1.4485584497451782, -1.315053105354309, 9.646334648132324, -1.7660504579544067, -1.3475393056869507, -1.0649631023406982, -0.1103515625, 0.36328125, -0.88134765625, 
283, 3711619420, 0.9575974941253662, -0.05145223066210747, 0.09021105617284775, -0.2687755525112152, -1.4599707126617432, -1.4143803119659424, 9.64876651763916, -1.769815444946289, -0.9390690326690674, -1.100822925567627, -0.1103515625, 0.361328125, -0.87890625, 
284, 3711627753, 0.957567572593689, -0.051514655351638794, 0.09021947532892227, -0.26886698603630066, -1.4618104696273804, -1.4474812746047974, 9.609515190124512, -1.2748205661773682, -0.8354595303535461, -1.110761284828186, -0.109375, 0.360107421875, -0.87890625, 
285, 3711636086, 0.9575442671775818, -0.05151555314660072, 0.09021712839603424, -0.2689509987831116, -1.4857814311981201, -1.483106255531311, 9.593564987182617, -0.4044744074344635, -0.6352074146270752, -1.328405499458313, -0.1103515625, 0.36083984375, -0.88037109375, 
286, 3711644419, 0.9575148224830627, -0.05147276818752289, 0.09024222195148468, -0.2690553665161133, -1.4445881843566895, -1.4878485202789307, 9.653905868530273, 0.07990360260009766, -0.20340263843536377, -1.2342474460601807, -0.1103515625, 0.3662109375, -0.88330078125, 
287, 3711652752, 0.9574897885322571, -0.05138491839170456, 0.0902940183877945, -0.26914384961128235, -1.4719191789627075, -1.4967968463897705, 9.622405052185059, 0.5663691163063049, 0.41163355112075806, -1.24544095993042, -0.11181640625, 0.358642578125, -0.8798828125, 
288, 3711661085, 0.9574593305587769, -0.05123744159936905, 0.09036064147949219, -0.26925796270370483, -1.450341820716858, -1.5155205726623535, 9.599481582641602, 1.3155854940414429, 0.7375491261482239, -1.1970813274383545, -0.10888671875, 0.361328125, -0.8818359375, 
289, 3711669418, 0.9574396014213562, -0.051028743386268616, 0.09042638540267944, -0.26934581995010376, -1.4485058784484863, -1.447609305381775, 9.60049057006836, 2.108551025390625, 1.0352634191513062, -1.0561517477035522, -0.111328125, 0.359130859375, -0.8818359375, 
290, 3711677751, 0.9574103355407715, -0.05083991959691048, 0.09055336564779282, -0.269442617893219, -1.4608620405197144, -1.3308722972869873, 9.71769905090332, 1.668088436126709, 1.7315092086791992, -1.2339911460876465, -0.10986328125, 0.36181640625, -0.8798828125, 
291, 3711686084, 0.957353949546814, -0.05074874311685562, 0.09076403826475143, -0.26958945393562317, -1.460208535194397, -1.2210668325424194, 9.724210739135742, 0.07229617238044739, 2.5947346687316895, -2.0139191150665283, -0.108154296875, 0.359375, -0.87939453125, 
292, 3711694417, 0.9572808742523193, -0.0507219098508358, 0.09107057005167007, -0.2697503864765167, -1.484269142150879, -1.342082142829895, 9.602027893066406, -1.1163707971572876, 3.5558831691741943, -2.0832056999206543, -0.111328125, 0.360107421875, -0.880859375, 
293, 3711702750, 0.9571939706802368, -0.05061619356274605, 0.0914505198597908, -0.26995018124580383, -1.44377601146698, -1.3308483362197876, 9.280917167663574, -0.31784701347351074, 4.952986240386963, -2.6881628036499023, -0.107666015625, 0.359375, -0.88037109375, 
294, 3711711083, 0.9570962190628052, -0.05025697872042656, 0.09187106788158417, -0.27022069692611694, -1.4080511331558228, -1.5042593479156494, 8.732572555541992, 2.9406557083129883, 6.382594585418701, -3.025733232498169, -0.109375, 0.3603515625, -0.88037109375, 
295, 3711719416, 0.957014262676239, -0.049480389803647995, 0.09227582812309265, -0.27051615715026855, -1.3444838523864746, -1.7545456886291504, 8.053770065307617, 8.542923927307129, 7.83200216293335, -3.065486192703247, -0.10595703125, 0.362548828125, -0.885498046875, 
296, 3711727749, 0.9569308161735535, -0.04817896708846092, 0.09272456169128418, -0.27089282870292664, -1.1467857360839844, -1.8801006078720093, 7.010105133056641, 15.43351936340332, 10.36620044708252, -3.4988291263580322, -0.106689453125, 0.3583984375, -0.8828125, 
297, 3711736082, 0.9568973779678345, -0.04650029540061951, 0.09289677441120148, -0.2712448537349701, -0.9098202586174011, -1.9036259651184082, 6.170766830444336, 21.385555267333984, 8.105384826660156, -2.634963274002075, -0.105224609375, 0.35791015625, -0.8857421875, 
298, 3711744415, 0.9569079279899597, -0.044339075684547424, 0.09281659871339798, -0.27159684896469116, -0.9758163690567017, -2.1782755851745605, 5.7012939453125, 28.7449951171875, 6.466023921966553, -2.0057497024536133, -0.1025390625, 0.353515625, -0.884765625, 
299, 3711752748, 0.9569501280784607, -0.04163594916462898, 0.09244410693645477, -0.27200260758399963, -1.1268407106399536, -2.323338508605957, 6.094130992889404, 37.01403045654297, 4.697694301605225, -2.091353416442871, -0.10302734375, 0.34765625, -0.888916015625, 
300, 3711761081, 0.9570463299751282, -0.038399964570999146, 0.09192448854446411, -0.27231624722480774, -1.3310718536376953, -2.1443910598754883, 7.047059535980225, 44.54167938232422, 4.572597026824951, -0.07950671762228012, -0.102294921875, 0.34423828125, -0.890869140625, 
301, 3711769414, 0.9571902751922607, -0.03478866443037987, 0.0912674218416214, -0.27251672744750977, -1.3202464580535889, -1.8411582708358765, 8.406617164611816, 49.82793045043945, 4.109774589538574, 1.9857608079910278, -0.10302734375, 0.336669921875, -0.8916015625, 
302, 3711777747, 0.9573719501495361, -0.03158581256866455, 0.0907486230134964, -0.27244192361831665, -1.0434428453445435, -0.42763447761535645, 9.332898139953613, 43.655967712402344, 4.153547763824463, 5.351399898529053, -0.10107421875, 0.332763671875, -0.8935546875, 
303, 3711786080, 0.9575826525688171, -0.029364991933107376, 0.09082206338644028, -0.2719249129295349, -1.0056877136230469, 0.7360202670097351, 10.242535591125488, 27.9176025390625, 8.109435081481934, 10.267487525939941, -0.100341796875, 0.326904296875, -0.89794921875, 
304, 3711794413, 0.9578105807304382, -0.028363559395074844, 0.09186050295829773, -0.27087706327438354, -1.6483736038208008, 0.42891135811805725, 10.698487281799316, 7.647095203399658, 15.964271545410156, 16.189701080322266, -0.097412109375, 0.3251953125, -0.90087890625, 
305, 3711802746, 0.9580090045928955, -0.028580185025930405, 0.0939798355102539, -0.26942208409309387, -2.045417547225952, -0.5647220015525818, 11.04713249206543, -12.998750686645508, 25.599443435668945, 20.32285499572754, -0.09228515625, 0.32470703125, -0.8984375, 
306, 3711811079, 0.958203136920929, -0.029310137033462524, 0.09691117703914642, -0.267608642578125, -2.173137664794922, -2.0637941360473633, 11.972502708435059, -23.204444885253906, 34.19347381591797, 24.756864547729492, -0.090576171875, 0.3271484375, -0.8984375, 
307, 3711819412, 0.958313524723053, -0.029956694692373276, 0.1002228856086731, -0.26591646671295166, -2.239597797393799, -2.567655324935913, 12.898601531982422, -23.407546997070312, 39.73843765258789, 23.044475555419922, -0.0830078125, 0.32861328125, -0.897216796875, 
308, 3711827745, 0.9584025740623474, -0.03069988265633583, 0.10390167683362961, -0.2640926241874695, -2.5858566761016846, -1.5362794399261475, 13.501738548278809, -26.17201042175293, 44.13528823852539, 24.75691032409668, -0.075927734375, 0.338134765625, -0.898193359375, 
309, 3711836078, 0.9583661556243896, -0.03138428181409836, 0.10807125270366669, -0.26246553659439087, -2.9667887687683105, -0.9999436140060425, 13.897246360778809, -26.992116928100586, 51.141876220703125, 21.962167739868164, -0.070068359375, 0.33984375, -0.89697265625, 
310, 3711844411, 0.9580802917480469, -0.031612835824489594, 0.11297878623008728, -0.26141345500946045, -2.5021183490753174, -1.6419447660446167, 13.532902717590332, -22.863876342773438, 63.067352294921875, 14.513023376464844, -0.060546875, 0.339111328125, -0.893310546875, 
311, 3711852744, 0.9577147960662842, -0.030981220304965973, 0.1181904673576355, -0.26052239537239075, -2.686859130859375, -2.10267972946167, 13.12156867980957, -12.44716739654541, 70.42485046386719, 13.54147720336914, -0.05224609375, 0.343994140625, -0.89599609375, 
312, 3711861077, 0.9573063850402832, -0.029952343553304672, 0.12330013513565063, -0.2597745656967163, -3.244781494140625, -1.5756019353866577, 12.690232276916504, -6.588215351104736, 70.5774154663086, 12.100845336914062, -0.042724609375, 0.341796875, -0.894775390625, 
313, 3711869410, 0.9567933678627014, -0.028848953545093536, 0.12842103838920593, -0.2593079209327698, -3.3137876987457275, -1.2213068008422852, 12.02038288116455, -5.260931968688965, 71.34278869628906, 8.157748222351074, -0.03466796875, 0.343994140625, -0.897705078125, 
314, 3711877743, 0.956159770488739, -0.027347762137651443, 0.13354232907295227, -0.25922080874443054, -3.0647194385528564, -1.9859760999679565, 11.354674339294434, 0.6577125787734985, 73.0787582397461, 3.3637924194335938, -0.02392578125, 0.3447265625, -0.893310546875, 
315, 3711886076, 0.9554773569107056, -0.025752998888492584, 0.13846717774868011, -0.2593161463737488, -2.804088830947876, -1.6494730710983276, 10.554755210876465, 2.84061861038208, 71.03865051269531, 0.9622671604156494, -0.015869140625, 0.342529296875, -0.895263671875, 
316, 3711894409, 0.9547353982925415, -0.02435162663459778, 0.1432846039533615, -0.2595674991607666, -3.0976226329803467, -0.7547183036804199, 9.750142097473145, 0.9945920705795288, 69.03852844238281, -1.6598349809646606, -0.00732421875, 0.3427734375, -0.89501953125, 
317, 3711902742, 0.9539188742637634, -0.02348417602479458, 0.1479211002588272, -0.2600480616092682, -1.7938907146453857, -1.1891686916351318, 9.257240295410156, -4.976325988769531, 65.04841613769531, -6.095493316650391, 0.00146484375, 0.34375, -0.895751953125, 
318, 3711911075, 0.9530225992202759, -0.023300254717469215, 0.15242961049079895, -0.26074647903442383, -3.032270908355713, -0.37404555082321167, 8.868854522705078, -13.022810935974121, 61.09886932373047, -10.672645568847656, 0.009521484375, 0.345458984375, -0.89501953125, 
319, 3711919408, 0.9521083235740662, -0.023344187065958977, 0.15666955709457397, -0.26156821846961975, -4.0471649169921875, 1.0572646856307983, 8.684847831726074, -14.838886260986328, 56.8975830078125, -12.91335678100586, 0.016845703125, 0.34521484375, -0.896484375, 
320, 3711927741, 0.9511902332305908, -0.023560963571071625, 0.1607513725757599, -0.2624113857746124, -2.9456522464752197, 0.669156551361084, 8.54964542388916, -16.449098587036133, 54.15808868408203, -13.642257690429688, 0.02197265625, 0.345703125, -0.893310546875, 
321, 3711936074, 0.9502500891685486, -0.02375093847513199, 0.16469788551330566, -0.26335135102272034, -2.7329206466674805, 0.6768060922622681, 8.545303344726562, -15.442890167236328, 52.62818908691406, -14.961881637573242, 0.027587890625, 0.3525390625, -0.8955078125, 
322, 3711944407, 0.9493157863616943, -0.023725032806396484, 0.168513223528862, -0.26430755853652954, -1.8846145868301392, -0.18573230504989624, 8.582648277282715, -12.083291053771973, 51.622283935546875, -14.711191177368164, 0.03173828125, 0.359375, -0.899169921875, 
323, 3711952740, 0.9484813809394836, -0.023067545145750046, 0.17195408046245575, -0.2651437222957611, -2.5938374996185303, -0.23650296032428741, 8.74488639831543, -2.747645139694214, 48.82366943359375, -11.433810234069824, 0.0361328125, 0.354736328125, -0.893798828125, 
324, 3711961073, 0.9476802349090576, -0.0217289999127388, 0.17505496740341187, -0.2660906910896301, -2.3761584758758545, -0.6366500854492188, 8.864154815673828, 7.665345668792725, 46.767120361328125, -11.259529113769531, 0.04443359375, 0.35595703125, -0.8935546875, 
325, 3711969406, 0.946943998336792, -0.019905230030417442, 0.17773309350013733, -0.26707708835601807, -2.7466742992401123, -1.1335184574127197, 8.74594497680664, 15.631231307983398, 42.95176315307617, -10.489972114562988, 0.049560546875, 0.349609375, -0.892578125, 
326, 3711977739, 0.9461990594863892, -0.017849784344434738, 0.1802622377872467, -0.2681652307510376, -2.5678176879882812, -1.2076749801635742, 8.884671211242676, 19.457365036010742, 41.8524169921875, -11.325611114501953, 0.05322265625, 0.3466796875, -0.89306640625, 
327, 3711986072, 0.9454883337020874, -0.01595589704811573, 0.1827564686536789, -0.2691020369529724, -2.07089900970459, -1.6310620307922363, 8.825175285339355, 17.102590560913086, 40.73986053466797, -9.636476516723633, 0.05615234375, 0.346435546875, -0.892333984375, 
328, 3711994405, 0.9447895884513855, -0.01436973363161087, 0.1852782517671585, -0.26991942524909973, -3.0547854900360107, -1.763764500617981, 8.89963436126709, 12.717191696166992, 39.84859848022461, -8.804726600646973, 0.062744140625, 0.343505859375, -0.894775390625, 
329, 3712002738, 0.9440911412239075, -0.013232662342488766, 0.18780937790870667, -0.2706710696220398, -2.8987224102020264, -1.8379491567611694, 8.945069313049316, 6.66530704498291, 38.343910217285156, -9.094781875610352, 0.065673828125, 0.341796875, -0.894775390625, 
330, 3712011071, 0.9434803128242493, -0.012257184833288193, 0.1902792602777481, -0.2711215615272522, -3.0142691135406494, -1.9243277311325073, 8.735207557678223, 4.051677703857422, 36.612945556640625, -5.281329154968262, 0.0703125, 0.34228515625, -0.8955078125, 
331, 3712019404, 0.9428678154945374, -0.011398136615753174, 0.19266067445278168, -0.271607905626297, -3.0984933376312256, -1.8146013021469116, 8.836774826049805, 2.9466519355773926, 35.094112396240234, -6.075753688812256, 0.07421875, 0.343017578125, -0.89208984375, 
332, 3712027737, 0.9422616958618164, -0.010691704228520393, 0.1949922740459442, -0.2720755338668823, -3.036882162094116, -0.8829115629196167, 8.810770988464355, 1.131650686264038, 33.810882568359375, -6.230745315551758, 0.080078125, 0.342529296875, -0.892822265625, 
333, 3712036070, 0.9416448473930359, -0.010153068229556084, 0.19739440083503723, -0.2724991738796234, -3.1386208534240723, -0.4612077474594116, 8.83227252960205, -1.4519957304000854, 34.167137145996094, -6.13231086730957, 0.0810546875, 0.346923828125, -0.898681640625, 
334, 3712044403, 0.9410076141357422, -0.009759906679391861, 0.1999395191669464, -0.27285900712013245, -3.181093692779541, -0.24392551183700562, 8.924956321716309, -4.029789447784424, 35.471435546875, -5.749044418334961, 0.0869140625, 0.35107421875, -0.89892578125, 
335, 3712052736, 0.9402608275413513, -0.009175730869174004, 0.2024877369403839, -0.27357351779937744, -3.0942890644073486, -1.5665957927703857, 8.984516143798828, -0.6280362606048584, 36.62595748901367, -10.233539581298828, 0.090087890625, 0.343017578125, -0.8935546875, 
336, 3712061069, 0.9395906925201416, -0.008363215252757072, 0.2048587054014206, -0.2741362452507019, -3.2911643981933594, -1.8110580444335938, 9.128519058227539, 2.5974786281585693, 34.91553497314453, -7.365047931671143, 0.09423828125, 0.341064453125, -0.89208984375, 
337, 3712069402, 0.9390074610710144, -0.007664216682314873, 0.20718076825141907, -0.27440983057022095, -3.7035269737243652, -1.2645049095153809, 9.121429443359375, 0.4908076226711273, 33.62144470214844, -3.629310369491577, 0.097900390625, 0.3466796875, -0.895263671875, 
338, 3712077735, 0.9384269714355469, -0.007193583995103836, 0.20956864953041077, -0.2745949327945709, -3.927088737487793, -1.9142826795578003, 8.745867729187012, -2.937110424041748, 33.551517486572266, -3.1191253662109375, 0.1044921875, 0.34130859375, -0.891845703125, 
339, 3712086068, 0.9379230737686157, -0.0069395266473293304, 0.21189124882221222, -0.27454084157943726, -3.8639540672302246, -2.2432401180267334, 8.283803939819336, -6.187431812286377, 31.689233779907227, -0.374813437461853, 0.107666015625, 0.340576171875, -0.892333984375, 
340, 3712094401, 0.9375151991844177, -0.0066932011395692825, 0.21400731801986694, -0.2742987871170044, -4.127781867980957, -2.5261213779449463, 7.7503228187561035, -6.018837928771973, 28.656219482421875, 2.3681530952453613, 0.110107421875, 0.343505859375, -0.888671875, 
341, 3712102734, 0.9372023344039917, -0.006399104371666908, 0.21581648290157318, -0.27395713329315186, -4.1295952796936035, -2.1998744010925293, 7.76310920715332, -4.555647850036621, 24.63170051574707, 4.1244707107543945, 0.113525390625, 0.3447265625, -0.89111328125, 
342, 3712111067, 0.9369502067565918, -0.005994722247123718, 0.2173703908920288, -0.2736000418663025, -4.3098978996276855, -1.7251863479614258, 7.904388904571533, -2.1836400032043457, 21.529939651489258, 4.8664631843566895, 0.118408203125, 0.3427734375, -0.888916015625, 
343, 3712119400, 0.936765193939209, -0.005455870181322098, 0.2186126410961151, -0.2732546031475067, -4.176948070526123, -1.5424507856369019, 7.95939302444458, 0.7313762307167053, 17.8673038482666, 5.335484504699707, 0.120849609375, 0.3447265625, -0.887451171875, 
344, 3712127733, 0.9366070628166199, -0.004798064008355141, 0.21960890293121338, -0.2730104327201843, -4.354203224182129, -1.1601766347885132, 7.8297529220581055, 3.528143882751465, 15.020997047424316, 4.480225563049316, 0.12158203125, 0.3505859375, -0.892333984375, 
345, 3712136066, 0.9364373087882996, -0.004002006724476814, 0.22038647532463074, -0.2729789614677429, -4.325222015380859, -1.1123863458633423, 7.600693702697754, 6.737069606781006, 12.8250093460083, 2.0908517837524414, 0.121337890625, 0.344970703125, -0.887939453125, 
346, 3712144399, 0.9362626671791077, -0.003285801038146019, 0.22103537619113922, -0.27306297421455383, -4.296839714050293, -0.4235953688621521, 7.590126037597656, 6.576365947723389, 10.832863807678223, 0.34373030066490173, 0.12451171875, 0.341064453125, -0.888916015625, 
347, 3712152732, 0.9361026287078857, -0.0029602907598018646, 0.22165781259536743, -0.2731107771396637, -4.237804889678955, -0.2050163298845291, 7.67913293838501, 1.503312349319458, 9.034358978271484, -0.33157628774642944, 0.126708984375, 0.3466796875, -0.8916015625, 
348, 3712161065, 0.9359594583511353, -0.003185562789440155, 0.22231601178646088, -0.2730637192726135, -4.209359169006348, -0.2489006668329239, 7.71639347076416, -5.982410430908203, 7.310521602630615, -0.7167119979858398, 0.13037109375, 0.342529296875, -0.88671875, 
349, 3712169398, 0.935812771320343, -0.0037879440933465958, 0.22295860946178436, -0.27303510904312134, -4.272795677185059, -0.6371051073074341, 7.628998756408691, -10.750218391418457, 5.767007350921631, -2.1297216415405273, 0.13037109375, 0.340576171875, -0.88720703125, 
350, 3712177731, 0.9356569647789001, -0.004632219672203064, 0.22355671226978302, -0.27306729555130005, -4.255921840667725, -0.9254382848739624, 7.580027103424072, -13.484691619873047, 4.252513885498047, -3.6844286918640137, 0.12890625, 0.34716796875, -0.8876953125, 
351, 3712186064, 0.9355145692825317, -0.005728982388973236, 0.22404631972312927, -0.2731330394744873, -4.273317813873291, -1.0301355123519897, 7.5830254554748535, -16.246957778930664, 1.933221697807312, -4.852899074554443, 0.13037109375, 0.34765625, -0.88720703125, 
352, 3712194397, 0.9353850483894348, -0.006925096735358238, 0.22439239919185638, -0.273264080286026, -4.24813175201416, -1.2644717693328857, 7.5816497802734375, -16.756813049316406, -0.38826072216033936, -5.962714195251465, 0.12939453125, 0.346923828125, -0.88427734375, 
353, 3712202730, 0.9352652430534363, -0.00806339830160141, 0.22450804710388184, -0.2735480070114136, -4.1999921798706055, -1.4844496250152588, 7.73610258102417, -14.702265739440918, -3.082571029663086, -7.736371040344238, 0.131103515625, 0.35009765625, -0.883544921875, 
354, 3712211063, 0.9351539015769958, -0.009046170860528946, 0.22436565160751343, -0.27401453256607056, -4.24896764755249, -1.5266809463500977, 7.878573894500732, -11.140734672546387, -5.893862247467041, -9.597654342651367, 0.125732421875, 0.35302734375, -0.8837890625, 
355, 3712219396, 0.935066819190979, -0.009906742721796036, 0.22395184636116028, -0.2746196985244751, -4.23095703125, -1.4924285411834717, 7.971350193023682, -8.14130687713623, -8.909195899963379, -10.95059871673584, 0.12841796875, 0.35693359375, -0.885009765625, 
356, 3712227729, 0.9350287318229675, -0.010738974437117577, 0.22328653931617737, -0.27525871992111206, -4.194188117980957, -1.4479241371154785, 8.044380187988281, -6.688595294952393, -12.257362365722656, -11.141733169555664, 0.1240234375, 0.35888671875, -0.886962890625, 
357, 3712236062, 0.9350696802139282, -0.011623289436101913, 0.22235019505023956, -0.27584096789360046, -4.187006950378418, -1.3077811002731323, 8.333123207092285, -6.522513389587402, -16.116840362548828, -10.317981719970703, 0.1220703125, 0.353759765625, -0.8837890625, 
358, 3712244395, 0.9351391196250916, -0.012647755444049835, 0.22123399376869202, -0.27645736932754517, -4.159375190734863, -1.5620408058166504, 8.699182510375977, -7.509353160858154, -19.1196231842041, -11.09585952758789, 0.12109375, 0.356689453125, -0.88427734375, 
359, 3712252728, 0.9352728724479675, -0.013649387285113335, 0.21988260746002197, -0.27703529596328735, -4.338527202606201, -2.006028413772583, 9.085441589355469, -6.4506425857543945, -22.181840896606445, -10.337937355041504, 0.117919921875, 0.359619140625, -0.88134765625, 
360, 3712261061, 0.9354624152183533, -0.014436105266213417, 0.2182149440050125, -0.2776731848716736, -4.149904727935791, -1.916016697883606, 9.354151725769043, -2.265862464904785, -25.66716957092285, -10.294112205505371, 0.1142578125, 0.35595703125, -0.8828125, 
361, 3712269394, 0.935775101184845, -0.014783544465899467, 0.21619956195354462, -0.2781771719455719, -3.8631069660186768, -1.7803152799606323, 9.885465621948242, 4.311019420623779, -28.78045654296875, -6.86405611038208, 0.112060546875, 0.35791015625, -0.885498046875, 
362, 3712277727, 0.9362887144088745, -0.014593387022614479, 0.21380676329135895, -0.2783083915710449, -3.455252170562744, -1.6505753993988037, 10.70083999633789, 11.633191108703613, -32.32947540283203, 0.23066923022270203, 0.107177734375, 0.35693359375, -0.884033203125, 
363, 3712286060, 0.9370721578598022, -0.013332836329936981, 0.2109030932188034, -0.27795055508613586, -2.9312968254089355, -2.8356692790985107, 11.712986946105957, 25.95821762084961, -35.625186920166016, 10.594925880432129, 0.10302734375, 0.36181640625, -0.890380859375, 
364, 3712294393, 0.9379602670669556, -0.0114345233887434, 0.20772334933280945, -0.27743375301361084, -2.6045081615448, -1.774276614189148, 12.907013893127441, 34.829105377197266, -37.14070510864258, 14.8350191116333, 0.100830078125, 0.350830078125, -0.88916015625, 
365, 3712302726, 0.9391247034072876, -0.00950443372130394, 0.20452597737312317, -0.27593839168548584, -2.4350225925445557, -2.0397157669067383, 13.17042350769043, 32.51369094848633, -38.12846755981445, 28.60927391052246, 0.097412109375, 0.3486328125, -0.891357421875, 
366, 3712311059, 0.9401839375495911, -0.009588196873664856, 0.20065797865390778, -0.2751675546169281, -3.6708712577819824, -1.430209755897522, 12.750020027160645, 11.114444732666016, -54.0860481262207, 13.096071243286133, 0.093994140625, 0.3447265625, -0.89453125, 
367, 3712319392, 0.9411724209785461, -0.010603824630379677, 0.1961165964603424, -0.2750251293182373, -4.8588762283325195, 0.22324995696544647, 7.818840026855469, 3.3011372089385986, -65.9935302734375, 2.0479044914245605, 0.0849609375, 0.346923828125, -0.895751953125, 
368, 3712327725, 0.9423412680625916, -0.009924234822392464, 0.19087132811546326, -0.2747381031513214, -6.481127738952637, -1.1923936605453491, 4.893638610839844, 27.56583023071289, -69.24864196777344, 9.07907485961914, 0.07568359375, 0.342529296875, -0.8955078125, 
369, 3712336058, 0.943558931350708, -0.008181938901543617, 0.18459545075893402, -0.27490487694740295, -7.061201572418213, -2.4027228355407715, 4.267284870147705, 46.402896881103516, -78.60604858398438, 6.022655010223389, 0.0673828125, 0.3369140625, -0.898681640625, 
370, 3712344391, 0.9447518587112427, -0.006201554089784622, 0.17812296748161316, -0.2751295566558838, -5.061855316162109, -0.6988301873207092, 5.096586227416992, 50.409969329833984, -80.26668548583984, 5.775966167449951, 0.06103515625, 0.331787109375, -0.901611328125, 
371, 3712352724, 0.9461169838905334, -0.004561854526400566, 0.17147046327590942, -0.2746969759464264, -3.9982173442840576, 0.8172266483306885, 8.413716316223145, 45.03761291503906, -84.294189453125, 14.101531982421875, 0.0517578125, 0.324951171875, -0.90673828125, 
372, 3712361057, 0.9471639394760132, -0.004247935488820076, 0.16586361825466156, -0.27453672885894775, -2.5393664836883545, 1.3849736452102661, 12.386693000793457, 24.506668090820312, -75.0138931274414, 6.25250768661499, 0.041748046875, 0.32275390625, -0.90869140625, 
373, 3712369390, 0.9480553269386292, -0.00537329725921154, 0.16167187690734863, -0.2739400267601013, -1.592711091041565, 1.1116782426834106, 15.529727935791016, -0.6327762007713318, -61.60226058959961, 8.193214416503906, 0.031982421875, 0.31787109375, -0.908447265625, 
374, 3712377723, 0.9488639235496521, -0.007872897200286388, 0.1587069183588028, -0.27281105518341064, -1.9940286874771118, 0.35530343651771545, 16.509931564331055, -24.350807189941406, -50.71595001220703, 11.869070053100586, 0.028076171875, 0.322265625, -0.907958984375, 
375, 3712386056, 0.9494807720184326, -0.01142858061939478, 0.1566964089870453, -0.27169910073280334, -3.45518159866333, 0.11592654138803482, 15.228034973144531, -41.70161056518555, -41.72948455810547, 8.713541030883789, 0.0244140625, 0.32861328125, -0.904541015625, 
376, 3712394389, 0.9500475525856018, -0.01507285051047802, 0.155005544424057, -0.2705073356628418, -5.607349872589111, -0.7708754539489746, 11.398682594299316, -44.23942565917969, -37.853416442871094, 9.444111824035645, 0.0185546875, 0.337646484375, -0.909912109375, 
377, 3712402722, 0.9508187770843506, -0.0173887237906456, 0.15261167287826538, -0.2690157890319824, -7.264514923095703, -2.5297446250915527, 7.029310703277588, -24.860363006591797, -42.5328369140625, 16.79033660888672, 0.0126953125, 0.336669921875, -0.902099609375, 
378, 3712411055, 0.9518792629241943, -0.017837196588516235, 0.14859886467456818, -0.2674786448478699, -7.753342151641846, -5.4890031814575195, 2.815964460372925, 5.520282745361328, -57.49159622192383, 21.98975372314453, 0.009765625, 0.337158203125, -0.901123046875, 
379, 3712419388, 0.9530060291290283, -0.017350146546959877, 0.14283394813537598, -0.2666378319263458, -6.241552352905273, -6.429084300994873, -2.1773488521575928, 25.647621154785156, -76.8676528930664, 14.599265098571777, 0.003173828125, 0.33544921875, -0.90087890625, 
380, 3712427721, 0.9539180397987366, -0.01655244082212448, 0.13544879853725433, -0.26728013157844543, -4.356551647186279, -4.28143835067749, -2.924872398376465, 38.54009246826172, -96.31849670410156, -5.325480937957764, -0.007568359375, 0.3310546875, -0.902099609375, 
381, 3712436054, 0.954621434211731, -0.016128752380609512, 0.12722209095954895, -0.26883232593536377, -0.98176509141922, -1.6844035387039185, -0.12126590311527252, 38.35622024536133, -108.00563049316406, -18.991666793823242, -0.017578125, 0.328857421875, -0.907958984375, 
382, 3712444387, 0.9552174210548401, -0.01604044996201992, 0.11961045116186142, -0.2702118754386902, 1.0864719152450562, 1.2349469661712646, 4.337449550628662, 31.412063598632812, -101.1601791381836, -17.56939125061035, -0.03466796875, 0.322265625, -0.907470703125, 
383, 3712452720, 0.9557211995124817, -0.01607385091483593, 0.11307451128959656, -0.27124035358428955, 1.2956981658935547, 2.8468880653381348, 8.688423156738281, 25.159934997558594, -87.26969146728516, -13.266555786132812, -0.049560546875, 0.3193359375, -0.906494140625, 
384, 3712461053, 0.9561913013458252, -0.01776883564889431, 0.10774599015712738, -0.2716468870639801, 0.6861190795898438, 3.086946725845337, 12.076745986938477, -2.1227142810821533, -77.81063079833984, -7.4909749031066895, -0.057373046875, 0.317138671875, -0.908203125, 
385, 3712469386, 0.9565010070800781, -0.022150918841362, 0.1036253347992897, -0.2718374729156494, 0.1667112410068512, 3.1481902599334717, 13.528379440307617, -42.35885238647461, -71.65373229980469, -8.981225967407227, -0.0634765625, 0.3193359375, -0.90771484375, 
386, 3712477719, 0.9564220905303955, -0.029410628601908684, 0.10108931362628937, -0.27238067984580994, 0.07656006515026093, 1.7524850368499756, 13.437529563903809, -85.74494934082031, -61.01665496826172, -18.63556671142578, -0.07568359375, 0.326904296875, -0.90087890625, 
387, 3712486052, 0.9559113383293152, -0.039190180599689484, 0.10022923350334167, -0.27325859665870667, -0.38941410183906555, 0.3646758198738098, 12.900985717773438, -124.876953125, -47.56728744506836, -27.535064697265625, -0.08203125, 0.344970703125, -0.897705078125, 
388, 3712494385, 0.9550283551216125, -0.05050219967961311, 0.10030670464038849, -0.2744588255882263, -1.5896997451782227, -0.9347086548805237, 11.872108459472656, -148.30435180664062, -40.40559005737305, -34.78007125854492, -0.087890625, 0.35546875, -0.8857421875, 
389, 3712502718, 0.9539657235145569, -0.06144294515252113, 0.10018452256917953, -0.2759634256362915, -2.3021607398986816, -3.7856380939483643, 10.2189302444458, -142.3763427734375, -41.07655334472656, -39.0802116394043, -0.097412109375, 0.380615234375, -0.880126953125, 
390, 3712511051, 0.9528245329856873, -0.07112851738929749, 0.0993558019399643, -0.27787289023399353, -2.426766872406006, -6.333939552307129, 8.067462921142578, -122.7332992553711, -45.21800231933594, -43.577125549316406, -0.10498046875, 0.38916015625, -0.86572265625, 
391, 3712519384, 0.9517026543617249, -0.07938092201948166, 0.09766305238008499, -0.28007373213768005, -2.1250181198120117, -6.124159812927246, 6.826600074768066, -100.24068450927734, -50.71846008300781, -46.18680953979492, -0.11083984375, 0.40185546875, -0.859130859375, 
392, 3712527717, 0.9506309032440186, -0.08636937290430069, 0.09535884112119675, -0.2824300229549408, -1.4783494472503662, -5.23771858215332, 6.304001331329346, -81.08023834228516, -53.75010681152344, -46.99904251098633, -0.118896484375, 0.41943359375, -0.857177734375, 
393, 3712536050, 0.9497563242912292, -0.09194052219390869, 0.09249918162822723, -0.28455647826194763, -0.7404146194458008, -3.7127180099487305, 6.319609642028809, -60.44902420043945, -56.16965103149414, -41.880489349365234, -0.1279296875, 0.4208984375, -0.847900390625, 
394, 3712544383, 0.9491071105003357, -0.09652667492628098, 0.08931439369916916, -0.28621622920036316, -0.20369534194469452, -1.808715581893921, 6.971924781799316, -46.59199523925781, -57.4245491027832, -34.125736236572266, -0.13525390625, 0.421142578125, -0.841064453125, 
395, 3712552716, 0.9486339688301086, -0.10088219493627548, 0.08614363521337509, -0.2872526943683624, 0.08315795660018921, 0.033530090004205704, 7.7549872398376465, -44.210853576660156, -57.25889205932617, -25.081174850463867, -0.146240234375, 0.426025390625, -0.835205078125, 
396, 3712561049, 0.9482377767562866, -0.10557200759649277, 0.08328196406364441, -0.2877192497253418, 0.20826727151870728, 0.8058831691741943, 8.456344604492188, -50.33155822753906, -55.56257629394531, -17.152915954589844, -0.15234375, 0.432861328125, -0.831787109375, 
397, 3712569382, 0.947808563709259, -0.11099548637866974, 0.08093605935573578, -0.287761926651001, 0.23169776797294617, 1.159468412399292, 9.214447021484375, -62.5019416809082, -52.18462371826172, -12.00320816040039, -0.1611328125, 0.43896484375, -0.827392578125, 
398, 3712577715, 0.9472910761833191, -0.11738977581262589, 0.07917589694261551, -0.2874178886413574, -0.04799618571996689, 0.8364698886871338, 9.891322135925293, -78.03042602539062, -49.02880096435547, -7.285817623138428, -0.168212890625, 0.448486328125, -0.822509765625, 
399, 3712586048, 0.9466224312782288, -0.1248505488038063, 0.07804302871227264, -0.2867858409881592, -0.17420969903469086, -0.05238702893257141, 10.419921875, -94.9680404663086, -45.228214263916016, -4.493318557739258, -0.17041015625, 0.455810546875, -0.8134765625, 
400, 3712594381, 0.9458248615264893, -0.13297995924949646, 0.07736655324697495, -0.28594493865966797, -0.4270240068435669, -1.4941561222076416, 10.653975486755371, -105.9248046875, -42.2917594909668, -2.00303053855896, -0.1767578125, 0.471923828125, -0.806884765625, 
401, 3712602714, 0.9450050592422485, -0.140931636095047, 0.07674837112426758, -0.28501227498054504, -0.5474434494972229, -4.108613014221191, 10.203010559082031, -103.973388671875, -40.83124542236328, -0.8159759044647217, -0.180419921875, 0.478515625, -0.796875, 
402, 3712611047, 0.9441956281661987, -0.1482069194316864, 0.07607118785381317, -0.28418460488319397, -0.8695515394210815, -5.597539901733398, 9.787540435791016, -94.82948303222656, -38.905799865722656, -1.3293142318725586, -0.18408203125, 0.498291015625, -0.791259765625, 
403, 3712619380, 0.9435160756111145, -0.15457956492900848, 0.07508750259876251, -0.28330713510513306, -1.1908966302871704, -6.384064197540283, 9.469351768493652, -81.69156646728516, -39.44276809692383, -0.06764767318964005, -0.188720703125, 0.5048828125, -0.7802734375, 
404, 3712627713, 0.9429771304130554, -0.15987178683280945, 0.07374481856822968, -0.2825160026550293, -1.1642789840698242, -6.427333831787109, 9.228089332580566, -65.86557006835938, -39.943580627441406, -0.26559537649154663, -0.19384765625, 0.5126953125, -0.775390625, 
405, 3712636046, 0.9426036477088928, -0.163935124874115, 0.07204461842775345, -0.28187185525894165, -0.9706460237503052, -6.014115333557129, 9.225885391235352, -48.04911422729492, -39.559505462646484, -1.090478539466858, -0.1982421875, 0.51171875, -0.7666015625, 
406, 3712644379, 0.9423280954360962, -0.16691051423549652, 0.0701669454574585, -0.2815203368663788, -0.8304160237312317, -4.977382659912109, 9.490530014038086, -32.718719482421875, -37.228729248046875, -3.663790702819824, -0.202392578125, 0.51708984375, -0.759521484375, 
407, 3712652712, 0.9420913457870483, -0.16943027079105377, 0.06821680068969727, -0.28128716349601746, -0.7963534593582153, -3.176853895187378, 10.007702827453613, -26.360397338867188, -36.02281951904297, -4.934668064117432, -0.205810546875, 0.517822265625, -0.75830078125, 
408, 3712661045, 0.94171541929245, -0.17227372527122498, 0.0664290338754654, -0.28124603629112244, -0.6482630372047424, -1.9524803161621094, 10.234394073486328, -31.29094886779785, -34.74013900756836, -7.736255645751953, -0.207763671875, 0.520263671875, -0.753173828125, 
409, 3712669378, 0.9410914778709412, -0.17582973837852478, 0.06492671370506287, -0.28148460388183594, -0.20518644154071808, -1.3475983142852783, 10.14419937133789, -41.989013671875, -32.762203216552734, -12.44378662109375, -0.2109375, 0.523681640625, -0.750732421875, 
410, 3712677711, 0.9401935935020447, -0.1802639216184616, 0.06384752690792084, -0.28192687034606934, 0.15329058468341827, -1.2253375053405762, 9.885958671569824, -55.473636627197266, -29.948816299438477, -15.899174690246582, -0.218017578125, 0.528076171875, -0.741455078125, 
411, 3712686044, 0.9390305280685425, -0.18569251894950867, 0.0632718950510025, -0.2824093699455261, 0.3054504692554474, -1.5099948644638062, 9.517477989196777, -70.8778305053711, -27.089067459106445, -16.982559204101562, -0.22119140625, 0.535400390625, -0.737060546875, 
412, 3712694377, 0.9376131892204285, -0.19219158589839935, 0.06321273744106293, -0.28278353810310364, 0.5746722221374512, -2.0925354957580566, 9.201519012451172, -87.46544647216797, -24.655189514160156, -16.128225326538086, -0.22216796875, 0.541259765625, -0.73046875, 
413, 3712702710, 0.9361149668693542, -0.1992560476064682, 0.06335170567035675, -0.28282663226127625, 0.5774003863334656, -3.5190606117248535, 8.771196365356445, -96.0389175415039, -24.953401565551758, -12.2870512008667, -0.2275390625, 0.55078125, -0.722900390625, 
414, 3712711043, 0.9346662759780884, -0.20614127814769745, 0.06354233622550964, -0.28264009952545166, 0.7883874177932739, -5.289305686950684, 8.213071823120117, -93.99007415771484, -24.42650032043457, -8.670157432556152, -0.23095703125, 0.55859375, -0.712890625, 
415, 3712719376, 0.9333184361457825, -0.21262328326702118, 0.06375673413276672, -0.2822440564632416, 0.7066990733146667, -5.764395236968994, 8.209142684936523, -88.80369567871094, -23.072782516479492, -5.3368682861328125, -0.234130859375, 0.578857421875, -0.706298828125, 
416, 3712727709, 0.9321349859237671, -0.21848340332508087, 0.06388355791568756, -0.28165021538734436, 0.5049833059310913, -6.793842792510986, 8.168344497680664, -80.1577377319336, -22.58321189880371, -1.8724379539489746, -0.23681640625, 0.574462890625, -0.695068359375, 
417, 3712736042, 0.9310647249221802, -0.22366030514240265, 0.06392152607440948, -0.28111743927001953, 0.2948427200317383, -6.99327278137207, 8.377996444702148, -70.67967224121094, -20.91383934020996, -1.8809388875961304, -0.237060546875, 0.580322265625, -0.6884765625, 
418, 3712744375, 0.9300423264503479, -0.22837330400943756, 0.06399238109588623, -0.2806965112686157, 0.18414805829524994, -6.3675642013549805, 8.667791366577148, -64.58719635009766, -18.564603805541992, -2.449831962585449, -0.2431640625, 0.5888671875, -0.681396484375, 
419, 3712752708, 0.929032027721405, -0.23272760212421417, 0.06399176269769669, -0.28046536445617676, 0.06432464718818665, -5.681230068206787, 8.867757797241211, -59.551673889160156, -17.3422794342041, -4.908933639526367, -0.242431640625, 0.59423828125, -0.6748046875, 
420, 3712761041, 0.9279757738113403, -0.23692482709884644, 0.06387180835008621, -0.2804754674434662, 0.07953095436096191, -4.605520725250244, 8.935054779052734, -56.97969436645508, -17.604082107543945, -8.267046928405762, -0.241943359375, 0.59765625, -0.66748046875, 
421, 3712769374, 0.926824688911438, -0.24126997590065002, 0.06370628625154495, -0.28061485290527344, 0.3374958336353302, -3.3407366275787354, 8.863218307495117, -58.92705535888672, -18.09516143798828, -10.707274436950684, -0.243896484375, 0.60205078125, -0.663330078125, 
422, 3712777707, 0.9255170822143555, -0.2460693120956421, 0.06370357424020767, -0.2807636260986328, 0.7876033186912537, -2.5619306564331055, 8.763490676879883, -65.8184585571289, -17.75271224975586, -11.162652969360352, -0.24560546875, 0.60986328125, -0.65576171875, 
423, 3712786040, 0.923985481262207, -0.2515280842781067, 0.06412577629089355, -0.28087493777275085, 1.0205888748168945, -2.2739524841308594, 8.784069061279297, -76.67902374267578, -14.673937797546387, -10.816232681274414, -0.246826171875, 0.614501953125, -0.64892578125, 
424, 3712794373, 0.9221780896186829, -0.25782302021980286, 0.0651412159204483, -0.28087347745895386, 1.0858830213546753, -2.6149401664733887, 9.05939769744873, -90.62483978271484, -10.645559310913086, -9.030468940734863, -0.25, 0.621337890625, -0.639892578125, 
425, 3712802706, 0.9201396107673645, -0.26491016149520874, 0.06647902727127075, -0.2806505560874939, 1.048021674156189, -3.4869766235351562, 9.09086799621582, -102.95841979980469, -10.062032699584961, -6.785147190093994, -0.251708984375, 0.629150390625, -0.63232421875, 
426, 3712811039, 0.9180596470832825, -0.2720484733581543, 0.06792854517698288, -0.2802860736846924, 0.9438995122909546, -5.081311225891113, 8.574809074401855, -104.30230712890625, -9.496108055114746, -4.630457878112793, -0.254638671875, 0.647705078125, -0.623046875, 
427, 3712819372, 0.916239321231842, -0.27843382954597473, 0.06905298680067062, -0.27969658374786377, 0.7868521809577942, -7.690918445587158, 7.9777092933654785, -92.79744720458984, -11.610228538513184, -1.4639673233032227, -0.25390625, 0.646484375, -0.60693359375, 
428, 3712827705, 0.9148804545402527, -0.2832159698009491, 0.0697513073682785, -0.2791701555252075, 0.6694662570953369, -9.68624210357666, 7.548666000366211, -69.11209869384766, -11.15668773651123, -0.4696902930736542, -0.25390625, 0.660400390625, -0.60400390625, 
429, 3712836038, 0.9141684770584106, -0.28588995337486267, 0.06991064548492432, -0.2787364721298218, 0.43373748660087585, -10.114455223083496, 7.57515287399292, -37.931453704833984, -9.95621395111084, 0.6455948352813721, -0.2587890625, 0.662109375, -0.59814453125, 
430, 3712844371, 0.9140635132789612, -0.2865939140319824, 0.06951585412025452, -0.2784563899040222, 0.1702042520046234, -9.333612442016602, 7.850443363189697, -8.465531349182129, -9.477140426635742, 0.8497395515441895, -0.25830078125, 0.659912109375, -0.59130859375, 
431, 3712852704, 0.9144289493560791, -0.2857336103916168, 0.0686648041009903, -0.27835190296173096, -0.025054827332496643, -7.806700706481934, 8.136561393737793, 14.922691345214844, -8.85517692565918, 0.04962759464979172, -0.26123046875, 0.65966796875, -0.59130859375, 
432, 3712861037, 0.915034830570221, -0.28395017981529236, 0.06750963628292084, -0.27846837043762207, -0.07514657825231552, -5.943179607391357, 8.40476131439209, 28.906064987182617, -8.626574516296387, -2.0464513301849365, -0.256591796875, 0.657958984375, -0.59619140625, 
433, 3712869370, 0.9156742095947266, -0.2819046378135681, 0.06629034876823425, -0.2787378132343292, 0.11206932365894318, -4.355482578277588, 8.695109367370605, 32.664649963378906, -7.740117073059082, -3.9366812705993652, -0.259033203125, 0.655029296875, -0.597412109375, 
434, 3712877703, 0.9161573648452759, -0.28016260266304016, 0.06530071049928665, -0.2791394591331482, 0.23390182852745056, -3.1649651527404785, 8.941017150878906, 27.526498794555664, -5.409576892852783, -5.605039596557617, -0.262451171875, 0.650390625, -0.60205078125, 
435, 3712886036, 0.916391909122467, -0.2791258692741394, 0.06467121839523315, -0.2795543074607849, 0.3622341454029083, -2.77539324760437, 9.058941841125488, 16.264976501464844, -3.2527523040771484, -5.953492164611816, -0.2626953125, 0.6455078125, -0.60205078125, 
436, 3712894369, 0.9163525104522705, -0.27886033058166504, 0.06450545787811279, -0.27998629212379456, 0.5194730162620544, -3.1214346885681152, 9.048778533935547, 3.7679178714752197, -0.20965249836444855, -6.007126808166504, -0.262451171875, 0.64892578125, -0.6025390625, 
437, 3712902702, 0.9161117076873779, -0.27918076515197754, 0.06476478278636932, -0.2803950011730194, 0.5997614860534668, -3.831937551498413, 9.035390853881836, -6.087018013000488, 3.123668909072876, -5.498147010803223, -0.266357421875, 0.6484375, -0.60400390625, 
438, 3712911035, 0.9157585501670837, -0.2798255980014801, 0.06534922122955322, -0.2807701528072357, 0.549807071685791, -4.733146667480469, 9.06065559387207, -11.860342025756836, 5.797463893890381, -4.430239200592041, -0.265380859375, 0.6494140625, -0.60498046875, 
439, 3712919368, 0.9153468012809753, -0.28064876794815063, 0.06616482883691788, -0.28109991550445557, 0.4831921458244324, -5.3796257972717285, 9.06657886505127, -15.29277515411377, 8.04150104522705, -3.4755446910858154, -0.263427734375, 0.64990234375, -0.60400390625, 
440, 3712927701, 0.9149359464645386, -0.28142064809799194, 0.06707898527383804, -0.28144901990890503, 0.4245884418487549, -6.089827060699463, 8.821502685546875, -14.982413291931152, 9.397418022155762, -3.148425817489624, -0.26611328125, 0.6513671875, -0.6025390625, 
441, 3712936034, 0.9146132469177246, -0.281852662563324, 0.06800947338342667, -0.2818416953086853, 0.4907788336277008, -6.924856185913086, 8.55025577545166, -10.413212776184082, 11.161648750305176, -3.119225025177002, -0.26611328125, 0.654541015625, -0.607421875, 
442, 3712944367, 0.9144850373268127, -0.28162679076194763, 0.06888464093208313, -0.28227078914642334, 0.5023693442344666, -7.420863628387451, 8.434247970581055, -1.1363500356674194, 12.975621223449707, -2.423081159591675, -0.263671875, 0.655517578125, -0.60302734375, 
