sep=,
PacketCounter,SampleTimeFine,Quat_W,Quat_X,Quat_Y,Quat_Z,Acc_X,Acc_Y,Acc_Z,Gyr_X,Gyr_Y,Gyr_Z,Mag_X,Mag_Y,Mag_Z,
0, 3253504412, 0.7664210200309753, -0.317312628030777, -0.5067180395126343, -0.23487025499343872, 0, 0, 0, 0, 0, 0, -0.783447265625, 0.44873046875, -0.05078125, 
1, 3253512745, 0.7662938237190247, -0.3174794316291809, -0.5067338943481445, -0.23502616584300995, 9.190253257751465, -2.3651680946350098, 2.6245508193969727, -3.836193323135376, -1.5301176309585571, -1.0931131839752197, -0.783447265625, 0.44873046875, -0.0478515625, 
2, 3253521078, 0.7661727666854858, -0.3176499009132385, -0.5067414045333862, -0.23517422378063202, 9.18994426727295, -2.3485188484191895, 2.647160291671753, -3.8195693492889404, -1.5181045532226562, -0.9251606464385986, -0.780029296875, 0.44970703125, -0.048583984375, 
3, 3253529411, 0.7660527229309082, -0.3178221583366394, -0.5067461729049683, -0.23532219231128693, 9.116053581237793, -2.3465428352355957, 2.6745526790618896, -3.8424172401428223, -1.4158011674880981, -0.8999305963516235, -0.781494140625, 0.45068359375, -0.048583984375, 
4, 3253537744, 0.7659371495246887, -0.31799769401550293, -0.5067424774169922, -0.23546916246414185, 9.081208229064941, -2.2907769680023193, 2.670196056365967, -3.8772778511047363, -1.3848849534988403, -0.813277542591095, -0.783447265625, 0.44873046875, -0.048828125, 
5, 3253546077, 0.7658026814460754, -0.3181983232498169, -0.5067400932312012, -0.23564043641090393, 9.07862377166748, -2.282909393310547, 2.672316312789917, -4.389716625213623, -1.4293768405914307, -0.960328996181488, -0.781005859375, 0.44921875, -0.048095703125, 
6, 3253554410, 0.7656717300415039, -0.3183974325656891, -0.5067399144172668, -0.23579762876033783, 9.072896003723145, -2.2837164402008057, 2.6620025634765625, -4.253115653991699, -1.5580371618270874, -0.8208338022232056, -0.782470703125, 0.4501953125, -0.049072265625, 
7, 3253562743, 0.7655289173126221, -0.3186008036136627, -0.5067569017410278, -0.23594994843006134, 9.018942832946777, -2.3481690883636475, 2.6603481769561768, -4.259032726287842, -1.7858757972717285, -0.8544909358024597, -0.783935546875, 0.4501953125, -0.046630859375, 
8, 3253571076, 0.7653787136077881, -0.318803608417511, -0.5067914724349976, -0.23608924448490143, 9.06006908416748, -2.378537654876709, 2.681553840637207, -4.1390557289123535, -2.1490345001220703, -0.8220633268356323, -0.781982421875, 0.4501953125, -0.045166015625, 
9, 3253579409, 0.7652296423912048, -0.3190036118030548, -0.5068245530128479, -0.2362309992313385, 9.070818901062012, -2.386216163635254, 2.7365903854370117, -4.124481201171875, -2.032566547393799, -0.8573853373527527, -0.783447265625, 0.45068359375, -0.049072265625, 
10, 3253587742, 0.7650789022445679, -0.319203644990921, -0.5068598389625549, -0.2363734245300293, 9.076560020446777, -2.424470901489258, 2.7294833660125732, -4.132088661193848, -2.1362528800964355, -0.876724123954773, -0.765625, 0.4541015625, -0.047119140625, 
11, 3253596075, 0.7649152278900146, -0.3194023668766022, -0.5069116353988647, -0.2365231215953827, 9.098894119262695, -2.4305715560913086, 2.7496442794799805, -4.171637058258057, -2.293165922164917, -1.0791534185409546, -0.78271484375, 0.446533203125, -0.044677734375, 
12, 3253604408, 0.7647581100463867, -0.3195841908454895, -0.506963312625885, -0.2366749346256256, 9.089425086975098, -2.4526336193084717, 2.7628562450408936, -3.979863405227661, -2.25325870513916, -1.1965433359146118, -0.7802734375, 0.44775390625, -0.044189453125, 
13, 3253612741, 0.7645890712738037, -0.3197881281375885, -0.5070104598999023, -0.23684445023536682, 9.091753005981445, -2.479508638381958, 2.7735989093780518, -4.400577068328857, -2.2125320434570312, -1.248028039932251, -0.781005859375, 0.44921875, -0.044677734375, 
14, 3253621074, 0.7644296884536743, -0.31999120116233826, -0.5070348978042603, -0.23703232407569885, 9.089086532592773, -2.507692813873291, 2.7993459701538086, -4.554620742797852, -1.8923282623291016, -1.314215064048767, -0.783447265625, 0.447998046875, -0.0458984375, 
15, 3253629407, 0.764275848865509, -0.32018187642097473, -0.5070638656616211, -0.23720860481262207, 9.083784103393555, -2.5193891525268555, 2.779120445251465, -4.302909851074219, -1.843148946762085, -1.2828890085220337, -0.781494140625, 0.44921875, -0.044677734375, 
16, 3253637740, 0.7641257643699646, -0.3203613758087158, -0.507087230682373, -0.23739925026893616, 9.083742141723633, -2.5081393718719482, 2.766150951385498, -4.287951469421387, -1.728320598602295, -1.4727929830551147, -0.7841796875, 0.447021484375, -0.042236328125, 
17, 3253646073, 0.7639939188957214, -0.3205268979072571, -0.5070981979370117, -0.23757724463939667, 9.09677791595459, -2.4757277965545654, 2.766291856765747, -4.012444496154785, -1.4102174043655396, -1.3257160186767578, -0.7822265625, 0.447509765625, -0.043701171875, 
18, 3253654406, 0.7638781070709229, -0.3206930160522461, -0.5070852637290955, -0.23775285482406616, 9.089459419250488, -2.465939521789551, 2.7790310382843018, -4.009678363800049, -1.1297414302825928, -1.1362988948822021, -0.78369140625, 0.446533203125, -0.043212890625, 
19, 3253662739, 0.7637771964073181, -0.3208410441875458, -0.507064938545227, -0.23792123794555664, 9.076242446899414, -2.5131962299346924, 2.8014354705810547, -3.7271528244018555, -0.8525953888893127, -1.1075851917266846, -0.7822265625, 0.446533203125, -0.044677734375, 
20, 3253671072, 0.7637001276016235, -0.3209686577320099, -0.5070342421531677, -0.23806168138980865, 9.051362991333008, -2.5474088191986084, 2.7657828330993652, -3.2474241256713867, -0.7031363844871521, -0.8301573991775513, -0.783447265625, 0.448974609375, -0.041259765625, 
21, 3253679405, 0.7636305093765259, -0.32108166813850403, -0.5070100426673889, -0.23818382620811462, 9.043340682983398, -2.4921863079071045, 2.7729568481445312, -2.9111602306365967, -0.6826706528663635, -0.7462450861930847, -0.7802734375, 0.4482421875, -0.044189453125, 
22, 3253687738, 0.7635809183120728, -0.3211890757083893, -0.5069675445556641, -0.23828859627246857, 9.060951232910156, -2.508875846862793, 2.7922604084014893, -2.7040436267852783, -0.48011326789855957, -0.45647132396698, -0.78271484375, 0.447509765625, -0.043212890625, 
23, 3253696071, 0.7635425925254822, -0.3213002681732178, -0.5069087147712708, -0.2383863627910614, 9.095885276794434, -2.4990317821502686, 2.7954626083374023, -2.698024272918701, -0.20194262266159058, -0.24809947609901428, -0.779296875, 0.44775390625, -0.043212890625, 
24, 3253704404, 0.7635230422019958, -0.3214060962200165, -0.5068291425704956, -0.23847563564777374, 9.094529151916504, -2.505704879760742, 2.7850992679595947, -2.56851863861084, 0.05597991868853569, -0.040035050362348557, -0.78076171875, 0.448486328125, -0.041748046875, 
25, 3253712737, 0.7635011672973633, -0.32150977849960327, -0.5067525506019592, -0.23856842517852783, 9.073946952819824, -2.497373104095459, 2.7577242851257324, -2.5700809955596924, 0.09985709190368652, -0.11664723604917526, -0.78125, 0.448486328125, -0.042724609375, 
26, 3253721070, 0.7634864449501038, -0.3216119408607483, -0.5066666007041931, -0.23866087198257446, 9.079009056091309, -2.471212387084961, 2.739248037338257, -2.5526630878448486, 0.1824886053800583, -0.056069549173116684, -0.78271484375, 0.446533203125, -0.041259765625, 
27, 3253729403, 0.7634679675102234, -0.32171109318733215, -0.5065911412239075, -0.23874637484550476, 9.113116264343262, -2.4851274490356445, 2.7390692234039307, -2.452127695083618, 0.09496477991342545, -0.066340871155262, -0.7802734375, 0.447509765625, -0.039306640625, 
28, 3253737736, 0.7634585499763489, -0.3217847943305969, -0.5065233707427979, -0.23882117867469788, 9.125067710876465, -2.5288665294647217, 2.742750406265259, -2.046884775161743, 0.04404367879033089, -0.13163156807422638, -0.781005859375, 0.44970703125, -0.042724609375, 
29, 3253746069, 0.7634428143501282, -0.3218604624271393, -0.5064639449119568, -0.2388950139284134, 9.158055305480957, -2.5546228885650635, 2.738722085952759, -2.0601272583007812, -0.029763739556074142, -0.16915640234947205, -0.78076171875, 0.448486328125, -0.043212890625, 
30, 3253754402, 0.763434648513794, -0.3219372630119324, -0.5063964128494263, -0.238960862159729, 9.15715217590332, -2.5564627647399902, 2.7329530715942383, -2.0101797580718994, 0.0014215899864211679, -0.013345017097890377, -0.78271484375, 0.447998046875, -0.041748046875, 
31, 3253762735, 0.7634240984916687, -0.3220088481903076, -0.5063397884368896, -0.23901809751987457, 9.124649047851562, -2.547776937484741, 2.6659700870513916, -1.8694803714752197, -0.08301572501659393, -0.018749620765447617, -0.78271484375, 0.447509765625, -0.043212890625, 
32, 3253771068, 0.7634254097938538, -0.32205766439437866, -0.5062843561172485, -0.2390655279159546, 9.133779525756836, -2.506892681121826, 2.6402931213378906, -1.506731629371643, -0.050434429198503494, -0.03621852770447731, -0.78125, 0.44775390625, -0.045654296875, 
33, 3253779401, 0.7634230852127075, -0.32210439443588257, -0.5062373876571655, -0.2391095608472824, 9.134737968444824, -2.4757206439971924, 2.6096503734588623, -1.4483567476272583, -0.10348150134086609, -0.0709514170885086, -0.78271484375, 0.447509765625, -0.042724609375, 
34, 3253787734, 0.7634260654449463, -0.32215917110443115, -0.5061794519424438, -0.23914892971515656, 9.158270835876465, -2.442617177963257, 2.632303476333618, -1.513109803199768, -0.06908159703016281, 0.10487749427556992, -0.78076171875, 0.446533203125, -0.043212890625, 
35, 3253796067, 0.7634304761886597, -0.3222182095050812, -0.506120502948761, -0.239180326461792, 9.14997386932373, -2.410515308380127, 2.6219818592071533, -1.4998414516448975, -0.026818102225661278, 0.22444474697113037, -0.779296875, 0.447998046875, -0.041748046875, 
36, 3253804400, 0.7634367346763611, -0.3222771883010864, -0.5060560703277588, -0.23921701312065125, 9.12382984161377, -2.3878190517425537, 2.6318881511688232, -1.54656183719635, -0.001203869003802538, 0.20277509093284607, -0.781494140625, 0.44921875, -0.045166015625, 
37, 3253812733, 0.763436496257782, -0.32231953740119934, -0.5060184597969055, -0.23923996090888977, 9.145073890686035, -2.38814115524292, 2.6124613285064697, -1.2154465913772583, -0.2660294473171234, 0.08594856411218643, -0.78125, 0.447021484375, -0.042236328125, 
38, 3253821066, 0.7634363770484924, -0.322357177734375, -0.5059897303581238, -0.23925036191940308, 9.108887672424316, -2.41164493560791, 2.620722532272339, -1.05046546459198, -0.4669475555419922, 0.15072697401046753, -0.7841796875, 0.447021484375, -0.041259765625, 
39, 3253829399, 0.7634361982345581, -0.32239919900894165, -0.5059638619422913, -0.23924914002418518, 9.098530769348145, -2.3534140586853027, 2.6479108333587646, -1.0068186521530151, -0.4939448833465576, 0.2870715260505676, -0.77978515625, 0.44873046875, -0.044189453125, 
40, 3253837732, 0.7634259462356567, -0.3224443793296814, -0.5059436559677124, -0.23926351964473724, 9.062644958496094, -2.3338797092437744, 2.6464874744415283, -1.1735930442810059, -0.6339266300201416, 0.09022613614797592, -0.77978515625, 0.44775390625, -0.043212890625, 
41, 3253846065, 0.7634073495864868, -0.3224981129169464, -0.5059305429458618, -0.23927845060825348, 9.076778411865234, -2.3260116577148438, 2.651608943939209, -1.2822998762130737, -0.7232691645622253, 0.08315661549568176, -0.779052734375, 0.4501953125, -0.043212890625, 
42, 3253854398, 0.7633832097053528, -0.3225483298301697, -0.5059225559234619, -0.23930476605892181, 9.082293510437012, -2.3351099491119385, 2.594521999359131, -1.3303776979446411, -0.8248551487922668, -0.10109938681125641, -0.78076171875, 0.447509765625, -0.043701171875, 
43, 3253862731, 0.7633504271507263, -0.3226040005683899, -0.5059267282485962, -0.2393251657485962, 9.076449394226074, -2.3351385593414307, 2.5886709690093994, -1.3451060056686401, -0.9852003455162048, -0.08409152925014496, -0.7783203125, 0.44677734375, -0.043212890625, 
44, 3253871064, 0.7633147239685059, -0.3226543664932251, -0.5059429407119751, -0.23933713138103485, 9.09439468383789, -2.351355791091919, 2.591892719268799, -1.2047655582427979, -1.220748782157898, -0.09305652230978012, -0.781494140625, 0.4501953125, -0.044189453125, 
45, 3253879397, 0.7632725238800049, -0.3226931095123291, -0.5059822797775269, -0.23933617770671844, 9.10476303100586, -2.3800840377807617, 2.5819766521453857, -0.9443455934524536, -1.4593453407287598, -0.16521181166172028, -0.77978515625, 0.44970703125, -0.042236328125, 
46, 3253887730, 0.7632297873497009, -0.32272833585739136, -0.5060304403305054, -0.23932301998138428, 9.082670211791992, -2.437434434890747, 2.597743272781372, -0.7972687482833862, -1.6679480075836182, -0.10007482767105103, -0.7802734375, 0.448486328125, -0.042236328125, 
47, 3253896063, 0.7631758451461792, -0.32276979088783264, -0.5060889720916748, -0.23931503295898438, 9.106646537780762, -2.3956823348999023, 2.5752687454223633, -0.9136084914207458, -1.7814189195632935, -0.19395098090171814, -0.77783203125, 0.44970703125, -0.043212890625, 
48, 3253904396, 0.7631175518035889, -0.32282623648643494, -0.5061431527137756, -0.23931065201759338, 9.113893508911133, -2.372985363006592, 2.561190128326416, -1.130253791809082, -1.8700183629989624, -0.12374236434698105, -0.782470703125, 0.448486328125, -0.043212890625, 
49, 3253912729, 0.7630473971366882, -0.322893351316452, -0.506208062171936, -0.23930606245994568, 9.05276107788086, -2.3601455688476562, 2.5456905364990234, -1.257710337638855, -2.0279815196990967, -0.13283544778823853, -0.7783203125, 0.447509765625, -0.041259765625, 
50, 3253921062, 0.7629693150520325, -0.32296791672706604, -0.5062780380249023, -0.2393067479133606, 9.067221641540527, -2.358940839767456, 2.5519635677337646, -1.3914934396743774, -2.2107646465301514, -0.185011625289917, -0.7802734375, 0.447021484375, -0.041748046875, 
51, 3253929395, 0.762884795665741, -0.3230452239513397, -0.5063538551330566, -0.23931150138378143, 9.073586463928223, -2.3609495162963867, 2.5748934745788574, -1.4580135345458984, -2.2341504096984863, -0.25509217381477356, -0.78076171875, 0.446533203125, -0.043212890625, 
52, 3253937728, 0.7627886533737183, -0.32312706112861633, -0.506436824798584, -0.2393321543931961, 9.101208686828613, -2.357983350753784, 2.590329885482788, -1.6439214944839478, -2.408813714981079, -0.4619014859199524, -0.78173828125, 0.447021484375, -0.040771484375, 
53, 3253946061, 0.7626784443855286, -0.3232018053531647, -0.5065447688102722, -0.2393535077571869, 9.102949142456055, -2.3731822967529297, 2.5845096111297607, -1.55496346950531, -2.6679787635803223, -0.6747046113014221, -0.77880859375, 0.44921875, -0.043212890625, 
54, 3253954394, 0.7625672221183777, -0.32324767112731934, -0.5066770315170288, -0.2393662929534912, 9.124130249023438, -2.4333748817443848, 2.623476505279541, -1.1163196563720703, -2.9464566707611084, -0.8968056440353394, -0.77490234375, 0.44970703125, -0.0400390625, 
55, 3253962727, 0.7624387741088867, -0.32326793670654297, -0.5068548917770386, -0.2393713891506195, 9.093385696411133, -2.440049886703491, 2.6474106311798096, -0.7203490734100342, -3.4214212894439697, -1.2545851469039917, -0.78125, 0.448486328125, -0.040771484375, 
56, 3253971060, 0.7623064517974854, -0.3232695162296295, -0.5070506930351257, -0.23937593400478363, 9.105424880981445, -2.4606120586395264, 2.675797939300537, -0.4799850881099701, -3.650770664215088, -1.4703336954116821, -0.78076171875, 0.449462890625, -0.039306640625, 
57, 3253979393, 0.7621670365333557, -0.3232599198818207, -0.5072644948959351, -0.23938001692295074, 9.14258098602295, -2.463179588317871, 2.7244441509246826, -0.3308846950531006, -3.779021739959717, -1.647866129875183, -0.78076171875, 0.447509765625, -0.040771484375, 
58, 3253987726, 0.7620248794555664, -0.32326728105545044, -0.507461667060852, -0.23940490186214447, 9.170920372009277, -2.4494404792785645, 2.715766668319702, -0.7213224172592163, -3.662553310394287, -1.6825220584869385, -0.7822265625, 0.448486328125, -0.041259765625, 
59, 3253996059, 0.7618836164474487, -0.3232828974723816, -0.5076469779014587, -0.2394407093524933, 9.16895580291748, -2.486440420150757, 2.734518051147461, -0.9183214902877808, -3.4384803771972656, -1.6838538646697998, -0.78369140625, 0.44677734375, -0.038818359375, 
60, 3254004392, 0.7617506384849548, -0.32331642508506775, -0.507800817489624, -0.23949217796325684, 9.166695594787598, -2.4826250076293945, 2.725260019302368, -1.282069206237793, -3.1123855113983154, -1.5560903549194336, -0.77783203125, 0.447509765625, -0.039794921875, 
61, 3254012725, 0.7616235613822937, -0.32336536049842834, -0.5079346299171448, -0.23954616487026215, 9.13185977935791, -2.503232717514038, 2.695951223373413, -1.5021469593048096, -2.8271970748901367, -1.3656998872756958, -0.7802734375, 0.447021484375, -0.037841796875, 
62, 3254021058, 0.7615162134170532, -0.3234173059463501, -0.5080488920211792, -0.2395753115415573, 9.125760078430176, -2.5466885566711426, 2.6889212131500244, -1.3365507125854492, -2.678352117538452, -0.9329472780227661, -0.7822265625, 0.446533203125, -0.037353515625, 
63, 3254029391, 0.761423647403717, -0.32346972823143005, -0.508148193359375, -0.2395879626274109, 9.128120422363281, -2.5737991333007812, 2.7076897621154785, -1.2103238105773926, -2.4211344718933105, -0.6425330638885498, -0.78271484375, 0.447509765625, -0.037841796875, 
64, 3254037724, 0.761360764503479, -0.32350173592567444, -0.5082345604896545, -0.23956148326396942, 9.138111114501953, -2.635708808898926, 2.7166972160339355, -0.6330814361572266, -2.2579972743988037, -0.21895046532154083, -0.78076171875, 0.448974609375, -0.039306640625, 
65, 3254046057, 0.76133131980896, -0.3234994411468506, -0.5083142518997192, -0.23948867619037628, 9.114213943481445, -2.5952796936035156, 2.6851723194122314, 0.1783134937286377, -1.9753696918487549, 0.16571128368377686, -0.78125, 0.446533203125, -0.039794921875, 
66, 3254054390, 0.7613226771354675, -0.32347673177719116, -0.5083954930305481, -0.23937441408634186, 9.094319343566895, -2.5724127292633057, 2.6888203620910645, 0.7773535251617432, -2.034487247467041, 0.5180606842041016, -0.7802734375, 0.448974609375, -0.035400390625, 
67, 3254062723, 0.7613229155540466, -0.32345250248908997, -0.5084726810455322, -0.23924246430397034, 9.153168678283691, -2.516066551208496, 2.7128982543945312, 0.9447681903839111, -1.9335927963256836, 0.7397518157958984, -0.77587890625, 0.447265625, -0.03955078125, 
68, 3254071056, 0.7613322138786316, -0.3234350085258484, -0.5085300803184509, -0.23911471664905548, 9.16967487335205, -2.4698410034179688, 2.7405054569244385, 0.8188742995262146, -1.7371829748153687, 0.8606255650520325, -0.78173828125, 0.447998046875, -0.037353515625, 
69, 3254079389, 0.7613369822502136, -0.3234299123287201, -0.5085801482200623, -0.23899959027767181, 9.159041404724121, -2.4335172176361084, 2.7242910861968994, 0.5569174885749817, -1.6045523881912231, 0.8315020203590393, -0.78076171875, 0.446044921875, -0.036376953125, 
70, 3254087722, 0.7613468170166016, -0.32341787219047546, -0.508621096611023, -0.23889760673046112, 9.154180526733398, -2.4395854473114014, 2.708134889602661, 0.5304580330848694, -1.465364694595337, 0.7042762041091919, -0.78076171875, 0.449462890625, -0.036865234375, 
71, 3254096055, 0.7613482475280762, -0.3234030604362488, -0.5086714029312134, -0.2388058751821518, 9.148900985717773, -2.4369735717773438, 2.7152764797210693, 0.4802796542644501, -1.4972288608551025, 0.5056633949279785, -0.779296875, 0.447998046875, -0.037841796875, 
72, 3254104388, 0.7613523006439209, -0.323381245136261, -0.5087165236473083, -0.23872630298137665, 9.156840324401855, -2.433475971221924, 2.700348377227783, 0.4634511172771454, -1.4183369874954224, 0.36527177691459656, -0.78173828125, 0.448486328125, -0.035888671875, 
73, 3254112721, 0.7613519430160522, -0.323355108499527, -0.5087764859199524, -0.2386353313922882, 9.108707427978516, -2.4581308364868164, 2.6887290477752686, 0.6187758445739746, -1.568077802658081, 0.37021535634994507, -0.77734375, 0.447998046875, -0.03662109375, 
74, 3254121054, 0.7613567113876343, -0.3233133852481842, -0.5088419318199158, -0.23853740096092224, 9.139141082763672, -2.4952549934387207, 2.6717052459716797, 0.8700516223907471, -1.6424872875213623, 0.3291301131248474, -0.77783203125, 0.4501953125, -0.0390625, 
75, 3254129387, 0.7613665461540222, -0.3232644498348236, -0.5089127421379089, -0.2384207546710968, 9.147934913635254, -2.4778754711151123, 2.678184986114502, 1.118125319480896, -1.650811791419983, 0.4647318422794342, -0.7783203125, 0.447998046875, -0.037109375, 
76, 3254137720, 0.7613791227340698, -0.32321223616600037, -0.508979856967926, -0.23830808699131012, 9.185970306396484, -2.4403398036956787, 2.635230779647827, 1.1234018802642822, -1.6352896690368652, 0.42876946926116943, -0.779296875, 0.449462890625, -0.03662109375, 
77, 3254146053, 0.7613989114761353, -0.3231584429740906, -0.5090468525886536, -0.23817488551139832, 9.158981323242188, -2.382981300354004, 2.637411594390869, 1.3156623840332031, -1.599403977394104, 0.6540723443031311, -0.77978515625, 0.448974609375, -0.037353515625, 
78, 3254154386, 0.7614322304725647, -0.32310399413108826, -0.509096086025238, -0.2380373477935791, 9.144856452941895, -2.394620895385742, 2.645164966583252, 1.35482656955719, -1.4074254035949707, 0.8195658922195435, -0.78076171875, 0.449951171875, -0.037841796875, 
79, 3254162719, 0.7614690661430359, -0.32304733991622925, -0.5091421008110046, -0.237897589802742, 9.147704124450684, -2.408435821533203, 2.6515846252441406, 1.3998562097549438, -1.2805836200714111, 0.8541706800460815, -0.779296875, 0.448486328125, -0.038818359375, 
80, 3254171052, 0.7615073323249817, -0.323003888130188, -0.5091747045516968, -0.2377644181251526, 9.136189460754395, -2.3990983963012695, 2.6611690521240234, 1.176141619682312, -1.2131669521331787, 0.9418482184410095, -0.77197265625, 0.45068359375, -0.03759765625, 
81, 3254179385, 0.7615478038787842, -0.32295772433280945, -0.5092117786407471, -0.23761770129203796, 9.139936447143555, -2.396994113922119, 2.653378486633301, 1.325242042541504, -1.2280489206314087, 1.0496584177017212, -0.781494140625, 0.449951171875, -0.040283203125, 
82, 3254187718, 0.7615941762924194, -0.3228945732116699, -0.5092481970787048, -0.23747706413269043, 9.103178024291992, -2.358138084411621, 2.636190414428711, 1.4830001592636108, -1.1649609804153442, 0.8922334313392639, -0.7802734375, 0.448486328125, -0.038330078125, 
83, 3254196051, 0.7616293430328369, -0.32282257080078125, -0.5093086957931519, -0.23733240365982056, 9.133182525634766, -2.3314731121063232, 2.640868663787842, 1.6334326267242432, -1.416749119758606, 0.7264325022697449, -0.77880859375, 0.448486328125, -0.037841796875, 
84, 3254204384, 0.7616552114486694, -0.32274341583251953, -0.50937819480896, -0.23720784485340118, 9.154167175292969, -2.365313768386841, 2.6372294425964355, 1.555667757987976, -1.531449556350708, 0.39698222279548645, -0.7763671875, 0.45263671875, -0.0361328125, 
85, 3254212717, 0.7616771459579468, -0.3226599097251892, -0.509451687335968, -0.2370932251214981, 9.195328712463379, -2.4002163410186768, 2.6338889598846436, 1.5271590948104858, -1.4750981330871582, 0.2308482825756073, -0.77880859375, 0.449951171875, -0.0390625, 
86, 3254221050, 0.761693000793457, -0.3225770592689514, -0.5095258951187134, -0.23699547350406647, 9.19814682006836, -2.378204822540283, 2.606891393661499, 1.3772389888763428, -1.5198206901550293, 0.037921879440546036, -0.77978515625, 0.449951171875, -0.038330078125, 
87, 3254229383, 0.76169353723526, -0.3225000202655792, -0.5096100568771362, -0.23691757023334503, 9.161798477172852, -2.355780839920044, 2.613182544708252, 1.1422796249389648, -1.5936150550842285, -0.22438068687915802, -0.77783203125, 0.449951171875, -0.0361328125, 
88, 3254237716, 0.7616944909095764, -0.3224140405654907, -0.5096938014030457, -0.23685161769390106, 9.168386459350586, -2.3870670795440674, 2.597086191177368, 1.1521155834197998, -1.5746351480484009, -0.40890562534332275, -0.77880859375, 0.448486328125, -0.037353515625, 
89, 3254246049, 0.7616905570030212, -0.3223405182361603, -0.5097721815109253, -0.23679551482200623, 9.188261985778809, -2.41007137298584, 2.5952224731445312, 0.9146459102630615, -1.4779925346374512, -0.41525793075561523, -0.7802734375, 0.447998046875, -0.035888671875, 
90, 3254254382, 0.761696457862854, -0.3222651779651642, -0.5098319053649902, -0.23675064742565155, 9.188634872436523, -2.3988704681396484, 2.593899726867676, 0.8365736603736877, -1.229713797569275, -0.4324451684951782, -0.77978515625, 0.449951171875, -0.03759765625, 
91, 3254262715, 0.7616955041885376, -0.3222128748893738, -0.5098859071731567, -0.23670826852321625, 9.14670467376709, -2.3543007373809814, 2.6009812355041504, 0.5305604338645935, -1.2105029821395874, -0.29284751415252686, -0.779296875, 0.449462890625, -0.03564453125, 
92, 3254271048, 0.7617008686065674, -0.3221539258956909, -0.5099303722381592, -0.23667551577091217, 9.161482810974121, -2.333336114883423, 2.580094814300537, 0.5275636315345764, -1.0729546546936035, -0.3787064552307129, -0.77783203125, 0.449951171875, -0.037109375, 
93, 3254279381, 0.7617070078849792, -0.32209089398384094, -0.509983241558075, -0.23662754893302917, 9.125990867614746, -2.357698678970337, 2.60640287399292, 0.7087587118148804, -1.1388088464736938, -0.2816797196865082, -0.77099609375, 0.451171875, -0.03759765625, 
94, 3254287714, 0.7617196440696716, -0.3220227360725403, -0.5100388526916504, -0.23656035959720612, 9.099818229675293, -2.3780269622802734, 2.6096861362457275, 0.9344712495803833, -1.261014461517334, -0.10991068184375763, -0.77880859375, 0.450927734375, -0.03662109375, 
95, 3254296047, 0.7617362141609192, -0.32194846868515015, -0.5100964307785034, -0.23648326098918915, 9.093595504760742, -2.39269757270813, 2.6211307048797607, 1.0922549962997437, -1.2070451974868774, -0.039753299206495285, -0.77783203125, 0.450927734375, -0.03515625, 
96, 3254304380, 0.7617533206939697, -0.32186344265937805, -0.5101617574691772, -0.2364031821489334, 9.096222877502441, -2.351478099822998, 2.621793031692505, 1.25347101688385, -1.3341686725616455, -0.1209760308265686, -0.77880859375, 0.449951171875, -0.0390625, 
97, 3254312713, 0.7617734670639038, -0.32177677750587463, -0.5102197527885437, -0.23633097112178802, 9.08579158782959, -2.3335793018341064, 2.6035776138305664, 1.2043685913085938, -1.1248747110366821, -0.16787570714950562, -0.779296875, 0.450439453125, -0.0361328125, 
98, 3254321046, 0.7617884874343872, -0.3216865062713623, -0.5102819800376892, -0.23627127707004547, 9.09241008758545, -2.302015781402588, 2.588214159011841, 1.1443287134170532, -1.2079416513442993, -0.3632098138332367, -0.779296875, 0.450439453125, -0.0361328125, 
99, 3254329379, 0.7617969512939453, -0.32161399722099304, -0.5103315711021423, -0.2362353652715683, 9.109889030456543, -2.298931121826172, 2.5839786529541016, 0.7236148715019226, -1.0065624713897705, -0.45119473338127136, -0.78076171875, 0.449951171875, -0.036865234375, 
100, 3254337712, 0.7617939114570618, -0.321559876203537, -0.5103728771209717, -0.23622985184192657, 9.115254402160645, -2.2946248054504395, 2.5879127979278564, 0.23889118432998657, -0.991219699382782, -0.6431223154067993, -0.77783203125, 0.449462890625, -0.03759765625, 
101, 3254346045, 0.7617785334587097, -0.32150745391845703, -0.510414183139801, -0.2362610101699829, 9.129646301269531, -2.312671422958374, 2.558335781097412, -0.08988033980131149, -0.8543627858161926, -1.0531036853790283, -0.77880859375, 0.448486328125, -0.037841796875, 
102, 3254354378, 0.7617559432983398, -0.32146167755126953, -0.5104517936706543, -0.23631472885608673, 9.119223594665527, -2.3763961791992188, 2.5575203895568848, -0.3630305528640747, -0.8576157689094543, -1.2528691291809082, -0.77734375, 0.4501953125, -0.03857421875, 
103, 3254362711, 0.7617363929748535, -0.3214089274406433, -0.5104914903640747, -0.23636388778686523, 9.13625431060791, -2.4771010875701904, 2.5903091430664062, -0.2383916676044464, -0.7845127582550049, -1.2474387884140015, -0.7783203125, 0.450927734375, -0.03515625, 
104, 3254371044, 0.7617181539535522, -0.32134419679641724, -0.5105333924293518, -0.2364203780889511, 9.120410919189453, -2.495777130126953, 2.5915822982788086, -0.15102151036262512, -0.7976784706115723, -1.418260097503662, -0.77734375, 0.448486328125, -0.0361328125, 
105, 3254379377, 0.7617058157920837, -0.32127222418785095, -0.5105763673782349, -0.2364652454853058, 9.139065742492676, -2.4589900970458984, 2.6048436164855957, 0.036487478762865067, -0.7256256341934204, -1.3306083679199219, -0.77734375, 0.44921875, -0.0380859375, 
106, 3254387710, 0.7616971731185913, -0.32118865847587585, -0.5106233358383179, -0.2365051507949829, 9.140925407409668, -2.457087278366089, 2.5847299098968506, 0.2224724292755127, -0.7955012321472168, -1.369541883468628, -0.7705078125, 0.450927734375, -0.03955078125, 
107, 3254396043, 0.7616851329803467, -0.3211122155189514, -0.5106747150421143, -0.23653647303581238, 9.135753631591797, -2.4792253971099854, 2.5605103969573975, 0.20933231711387634, -0.8584098219871521, -1.2546876668930054, -0.77734375, 0.447509765625, -0.03564453125, 
108, 3254404376, 0.7616795301437378, -0.3210389018058777, -0.5107136368751526, -0.23657016456127167, 9.1331787109375, -2.451458215713501, 2.5408828258514404, 0.14468201994895935, -0.7493444085121155, -1.1864514350891113, -0.77783203125, 0.447509765625, -0.03662109375, 
109, 3254412709, 0.7616753578186035, -0.3209722936153412, -0.5107574462890625, -0.23657923936843872, 9.147198677062988, -2.4475812911987305, 2.552964210510254, 0.269653856754303, -0.8519039154052734, -0.8948589563369751, -0.77734375, 0.449462890625, -0.0361328125, 
110, 3254421042, 0.7616825699806213, -0.3209131062030792, -0.5107811689376831, -0.23658530414104462, 9.136834144592285, -2.491070508956909, 2.5410404205322266, 0.19929154217243195, -0.6707599759101868, -0.6911488771438599, -0.77685546875, 0.448486328125, -0.03662109375, 
111, 3254429375, 0.7616900205612183, -0.3208487927913666, -0.510816216468811, -0.236572727560997, 9.142047882080078, -2.482015371322632, 2.540189027786255, 0.4209827482700348, -0.7801583409309387, -0.5752444863319397, -0.77685546875, 0.447998046875, -0.037109375, 
112, 3254437708, 0.7617087364196777, -0.3207884132862091, -0.5108391046524048, -0.2365451604127884, 9.120625495910645, -2.4786388874053955, 2.5553817749023438, 0.49503350257873535, -0.7247803807258606, -0.3046557307243347, -0.77685546875, 0.448486328125, -0.03515625, 
113, 3254446041, 0.7617264986038208, -0.32072925567626953, -0.5108649134635925, -0.2365119904279709, 9.119231224060059, -2.4450061321258545, 2.5517337322235107, 0.5269232392311096, -0.7193244695663452, -0.25096824765205383, -0.77685546875, 0.447998046875, -0.0361328125, 
114, 3254454374, 0.7617432475090027, -0.320678174495697, -0.510883092880249, -0.2364881932735443, 9.111041069030762, -2.4294559955596924, 2.565603256225586, 0.3466246426105499, -0.7013946175575256, -0.2646718919277191, -0.77734375, 0.447998046875, -0.037109375, 
115, 3254462707, 0.7617583274841309, -0.32063332200050354, -0.5108934640884399, -0.23647792637348175, 9.109996795654297, -2.3958518505096436, 2.5334439277648926, 0.154774010181427, -0.5206348896026611, -0.3307565748691559, -0.7783203125, 0.447998046875, -0.038330078125, 
116, 3254471040, 0.7617695331573486, -0.32060059905052185, -0.5108968615531921, -0.2364789843559265, 9.123815536499023, -2.3783702850341797, 2.5154902935028076, -0.09213440120220184, -0.5382319092750549, -0.3493269681930542, -0.77587890625, 0.447998046875, -0.037109375, 
117, 3254479373, 0.7617738842964172, -0.3205730617046356, -0.5109047293663025, -0.2364853173494339, 9.106727600097656, -2.3707382678985596, 2.5045323371887207, -0.19676855206489563, -0.5520892143249512, -0.4049866497516632, -0.77783203125, 0.448486328125, -0.03857421875, 
118, 3254487706, 0.761766254901886, -0.32055115699768066, -0.5109213590621948, -0.236503466963768, 9.100203514099121, -2.4129257202148438, 2.4821009635925293, -0.3655407428741455, -0.7695028185844421, -0.5719146132469177, -0.77685546875, 0.44873046875, -0.0380859375, 
119, 3254496039, 0.7617477178573608, -0.3205377161502838, -0.5109524130821228, -0.2365148663520813, 9.1202392578125, -2.4232044219970703, 2.4996540546417236, -0.40713822841644287, -0.978233277797699, -0.5367462635040283, -0.76806640625, 0.449462890625, -0.038818359375, 
120, 3254504372, 0.7617331147193909, -0.3205048739910126, -0.510991096496582, -0.23652279376983643, 9.13432502746582, -2.4540977478027344, 2.5307834148406982, -0.13798388838768005, -1.057509183883667, -0.6605399250984192, -0.7783203125, 0.449462890625, -0.037109375, 
121, 3254512705, 0.7617135643959045, -0.32048264145851135, -0.5110388994216919, -0.23651272058486938, 9.120024681091309, -2.489389657974243, 2.5457539558410645, -0.11518722027540207, -1.2265377044677734, -0.4510154724121094, -0.7744140625, 0.44970703125, -0.0380859375, 
122, 3254521038, 0.7616978883743286, -0.3204572796821594, -0.51108318567276, -0.23650196194648743, 9.111520767211914, -2.444019079208374, 2.5482218265533447, -0.07077213376760483, -1.22996985912323, -0.4411795735359192, -0.775390625, 0.447021484375, -0.03662109375, 
123, 3254529371, 0.7616788744926453, -0.32043904066085815, -0.5111308097839355, -0.2364848405122757, 9.09216594696045, -2.40580153465271, 2.511234760284424, -0.10578678548336029, -1.2652406692504883, -0.3454591929912567, -0.77734375, 0.448974609375, -0.0380859375, 
124, 3254537704, 0.7616657018661499, -0.32042396068573, -0.5111731886863708, -0.23645612597465515, 9.070791244506836, -2.3635497093200684, 2.496678113937378, -0.04902564361691475, -1.3046098947525024, -0.1636749655008316, -0.77783203125, 0.446533203125, -0.037353515625, 
125, 3254546037, 0.7616396546363831, -0.3204305171966553, -0.5112181901931763, -0.23643361032009125, 9.055292129516602, -2.3486216068267822, 2.49360990524292, -0.3657456040382385, -1.3908528089523315, -0.1286090761423111, -0.775390625, 0.45068359375, -0.03857421875, 
126, 3254554370, 0.761608898639679, -0.32045188546180725, -0.5112566947937012, -0.2364204227924347, 9.08205795288086, -2.3274850845336914, 2.449169158935547, -0.6290599703788757, -1.4385210275650024, -0.10968015342950821, -0.77734375, 0.449462890625, -0.03759765625, 
127, 3254562703, 0.7615728378295898, -0.3204779624938965, -0.5112956166267395, -0.23641718924045563, 9.107343673706055, -2.3490796089172363, 2.437274217605591, -0.7694259881973267, -1.376739501953125, -0.19748574495315552, -0.775390625, 0.44873046875, -0.03662109375, 
128, 3254571036, 0.7615313529968262, -0.3204974830150604, -0.5113407969474792, -0.23642681539058685, 9.14379596710205, -2.3899729251861572, 2.4700658321380615, -0.796551525592804, -1.4765069484710693, -0.42637452483177185, -0.7763671875, 0.45166015625, -0.03564453125, 
129, 3254579369, 0.7614828944206238, -0.3205101490020752, -0.5114004611968994, -0.2364364117383957, 9.21130657196045, -2.4033517837524414, 2.500516653060913, -0.7074395418167114, -1.5802189111709595, -0.5588257312774658, -0.77734375, 0.449462890625, -0.033203125, 
130, 3254587702, 0.7614260911941528, -0.32051563262939453, -0.5114721655845642, -0.2364569902420044, 9.225284576416016, -2.417454481124878, 2.5111300945281982, -0.7074651122093201, -1.7668699026107788, -0.8054395914077759, -0.775390625, 0.447265625, -0.03857421875, 
131, 3254596035, 0.761359691619873, -0.3205282688140869, -0.511549711227417, -0.2364863008260727, 9.207765579223633, -2.4380314350128174, 2.573941230773926, -0.8678358197212219, -1.8058034181594849, -0.9030809998512268, -0.77587890625, 0.447265625, -0.03955078125, 
132, 3254604368, 0.7612900733947754, -0.3205546736717224, -0.5116236209869385, -0.23651441931724548, 9.237750053405762, -2.457181692123413, 2.5574657917022705, -1.0276432037353516, -1.9152277708053589, -0.7886623740196228, -0.77294921875, 0.44775390625, -0.03662109375, 
133, 3254612701, 0.7612247467041016, -0.320590615272522, -0.511685848236084, -0.23654094338417053, 9.216291427612305, -2.4714112281799316, 2.5501492023468018, -1.1327896118164062, -1.7270143032073975, -0.6365906000137329, -0.77734375, 0.449462890625, -0.03662109375, 
134, 3254621034, 0.7611552476882935, -0.32065218687057495, -0.5117365121841431, -0.23657207190990448, 9.188502311706543, -2.4414029121398926, 2.525324821472168, -1.4940013885498047, -1.7728379964828491, -0.47135311365127563, -0.77490234375, 0.44921875, -0.03515625, 
135, 3254629367, 0.761087954044342, -0.32074251770973206, -0.511770486831665, -0.23659257590770721, 9.189406394958496, -2.4321398735046387, 2.532571792602539, -1.763924241065979, -1.6466364860534668, -0.07407635450363159, -0.77978515625, 0.448486328125, -0.036376953125, 
136, 3254637700, 0.7610235214233398, -0.3208540678024292, -0.5117888450622559, -0.23660923540592194, 9.170098304748535, -2.4320638179779053, 2.5365352630615234, -1.9971164464950562, -1.6253770589828491, 0.19081325829029083, -0.77734375, 0.447998046875, -0.03564453125, 
137, 3254646033, 0.7609567642211914, -0.32097184658050537, -0.5118173956871033, -0.23660224676132202, 9.145976066589355, -2.4445555210113525, 2.5385382175445557, -1.875064492225647, -1.7954554557800293, 0.43099790811538696, -0.774169921875, 0.446533203125, -0.03466796875, 
138, 3254654366, 0.7608983516693115, -0.32107195258140564, -0.5118539333343506, -0.23657546937465668, 9.140716552734375, -2.4462618827819824, 2.527141571044922, -1.4852670431137085, -1.9288285970687866, 0.5044851303100586, -0.7783203125, 0.447021484375, -0.036865234375, 
139, 3254662699, 0.7608497142791748, -0.3211536109447479, -0.5119050145149231, -0.23650997877120972, 9.154892921447754, -2.4458811283111572, 2.5437119007110596, -0.9285417199134827, -2.044938087463379, 0.7495366334915161, -0.77587890625, 0.447998046875, -0.0361328125, 
140, 3254671032, 0.7608151435852051, -0.3212169408798218, -0.5119612812995911, -0.23641346395015717, 9.114828109741211, -2.45119309425354, 2.613579273223877, -0.4404624104499817, -2.153977870941162, 0.9670014381408691, -0.7763671875, 0.449951171875, -0.03466796875, 
141, 3254679365, 0.7607753276824951, -0.3212851285934448, -0.5120266079902649, -0.23630748689174652, 9.095989227294922, -2.298774480819702, 2.719067335128784, -0.4172302484512329, -2.2673721313476562, 1.044382095336914, -0.77685546875, 0.447998046875, -0.033203125, 
142, 3254687698, 0.7607356309890747, -0.3213687837123871, -0.5120742321014404, -0.2362183779478073, 9.118525505065918, -2.197082281112671, 2.8483893871307373, -0.7555687427520752, -2.132999897003174, 1.0531933307647705, -0.7763671875, 0.448974609375, -0.03369140625, 
143, 3254696031, 0.7606847286224365, -0.3215051293373108, -0.5120877623558044, -0.23616735637187958, 9.185159683227539, -2.1317172050476074, 3.055169105529785, -1.7350826263427734, -1.7833143472671509, 1.1424076557159424, -0.77587890625, 0.450927734375, -0.0341796875, 
144, 3254704364, 0.7606245279312134, -0.32167643308639526, -0.5120540261268616, -0.23620130121707916, 9.265117645263672, -2.1058332920074463, 3.2482423782348633, -2.894895553588867, -1.16721510887146, 0.676766574382782, -0.7744140625, 0.451171875, -0.03564453125, 
145, 3254712697, 0.7605597376823425, -0.32188570499420166, -0.5119537115097046, -0.2363419085741043, 9.313977241516113, -2.1707136631011963, 3.358106851577759, -4.278423309326172, -0.08334873616695404, 0.11294598132371902, -0.76708984375, 0.451904296875, -0.036376953125, 
146, 3254721030, 0.7604940533638, -0.3221374750137329, -0.511789858341217, -0.23656514286994934, 9.397932052612305, -2.330270528793335, 3.4342200756073, -5.515820503234863, 0.7294550538063049, -0.18070842325687408, -0.77392578125, 0.451171875, -0.03369140625, 
147, 3254729363, 0.7604507803916931, -0.3223685920238495, -0.5115960240364075, -0.23680801689624786, 9.414926528930664, -2.4666504859924316, 3.5481815338134766, -5.437390327453613, 1.4238313436508179, -0.3159515857696533, -0.775390625, 0.448486328125, -0.0341796875, 
148, 3254737696, 0.7604392766952515, -0.32256776094436646, -0.5113881826400757, -0.23702268302440643, 9.44429874420166, -2.5253500938415527, 3.7570507526397705, -4.808201789855957, 1.7065098285675049, -0.089572973549366, -0.77490234375, 0.449462890625, -0.03369140625, 
149, 3254746029, 0.7604683041572571, -0.3227619528770447, -0.5111442804336548, -0.23719088733196259, 9.44659423828125, -2.3730454444885254, 4.13901948928833, -4.366791725158691, 2.237262725830078, 0.6630629897117615, -0.7763671875, 0.450927734375, -0.0322265625, 
150, 3254754362, 0.7605806589126587, -0.3229244649410248, -0.5108082890510559, -0.23733358085155487, 9.399100303649902, -2.4486489295959473, 4.5663580894470215, -3.7878334522247314, 3.7174837589263916, 1.3792113065719604, -0.7734375, 0.449951171875, -0.0322265625, 
151, 3254762695, 0.76080322265625, -0.32298535108566284, -0.5103912949562073, -0.23743434250354767, 9.404834747314453, -2.714953899383545, 4.868689060211182, -2.20456600189209, 5.532585144042969, 1.833044171333313, -0.77587890625, 0.450439453125, -0.03466796875, 
152, 3254771028, 0.7611452341079712, -0.3229254484176636, -0.5099109411239624, -0.23745231330394745, 9.295343399047852, -2.4137508869171143, 5.307636260986328, -0.03601361811161041, 7.00911808013916, 2.5115396976470947, -0.7744140625, 0.44970703125, -0.03515625, 
153, 3254779361, 0.7616288661956787, -0.3227260112762451, -0.5093314051628113, -0.237416073679924, 9.121009826660156, -1.9209288358688354, 5.815154552459717, 2.108013153076172, 9.292703628540039, 3.016011953353882, -0.7724609375, 0.44921875, -0.0380859375, 
154, 3254787694, 0.7622981071472168, -0.32226359844207764, -0.5086390972137451, -0.2373807579278946, 9.065281867980957, -2.0687010288238525, 6.260112285614014, 5.313379764556885, 12.60180950164795, 2.258983612060547, -0.77197265625, 0.4501953125, -0.03662109375, 
155, 3254796027, 0.7631024122238159, -0.3216155767440796, -0.5078252553939819, -0.23741790652275085, 9.291057586669922, -2.3868510723114014, 6.584461212158203, 6.951590538024902, 15.759227752685547, 1.1965820789337158, -0.77099609375, 0.450439453125, -0.041015625, 
156, 3254804360, 0.7640789747238159, -0.3208125829696655, -0.5068132877349854, -0.23752570152282715, 9.393607139587402, -2.2347607612609863, 6.978113174438477, 8.202105522155762, 19.846521377563477, 0.7956938147544861, -0.7734375, 0.450927734375, -0.0419921875, 
157, 3254812693, 0.7652601003646851, -0.31984275579452515, -0.5055404901504517, -0.23774391412734985, 9.363431930541992, -2.1680526733398438, 7.348237991333008, 9.236102104187012, 25.03389549255371, 0.31043192744255066, -0.7724609375, 0.451416015625, -0.044921875, 
158, 3254821026, 0.7666134834289551, -0.3187158703804016, -0.5040336847305298, -0.238096222281456, 9.428596496582031, -2.3636858463287354, 7.508194446563721, 9.948436737060547, 29.809295654296875, -0.6194808483123779, -0.7646484375, 0.454345703125, -0.051025390625, 
159, 3254829359, 0.7681785821914673, -0.31738659739494324, -0.5022768378257751, -0.2385386824607849, 9.572500228881836, -2.447983503341675, 7.626118183135986, 11.564496040344238, 34.930137634277344, -1.161145806312561, -0.771484375, 0.4501953125, -0.053466796875, 
160, 3254837692, 0.7699719071388245, -0.31583699584007263, -0.5002888441085815, -0.23899158835411072, 9.582929611206055, -2.5049524307250977, 7.70274543762207, 14.058049201965332, 39.75546646118164, -1.0569987297058105, -0.7705078125, 0.450439453125, -0.059326171875, 
161, 3254846025, 0.7719818949699402, -0.31406521797180176, -0.49809175729751587, -0.239431232213974, 9.546470642089844, -2.636268377304077, 7.763114929199219, 16.75364875793457, 44.06500244140625, -0.8013428449630737, -0.772216796875, 0.450927734375, -0.066162109375, 
162, 3254854358, 0.774230420589447, -0.3119858205318451, -0.49571341276168823, -0.23982533812522888, 9.716405868530273, -2.732250213623047, 7.861263751983643, 20.76798439025879, 48.50662612915039, -0.8810294270515442, -0.772705078125, 0.447998046875, -0.072265625, 
163, 3254862691, 0.7767242193222046, -0.3096020221710205, -0.4931356906890869, -0.2401643693447113, 9.926727294921875, -2.9406116008758545, 8.00615406036377, 24.776790618896484, 52.97473907470703, -0.677575409412384, -0.773193359375, 0.44677734375, -0.081298828125, 
164, 3254871024, 0.7794703245162964, -0.3069128096103668, -0.4903567433357239, -0.24040892720222473, 10.011777877807617, -3.0948891639709473, 8.171310424804688, 29.09225845336914, 57.53715133666992, -0.0774577334523201, -0.769775390625, 0.44873046875, -0.091064453125, 
165, 3254879357, 0.7824550867080688, -0.30402427911758423, -0.48731982707977295, -0.24055875837802887, 9.933865547180176, -2.9493424892425537, 8.371485710144043, 32.01799392700195, 62.047855377197266, 1.5007059574127197, -0.770751953125, 0.4482421875, -0.099853515625, 
166, 3254887690, 0.785637378692627, -0.3009771704673767, -0.48402008414268494, -0.24068018794059753, 9.9041109085083, -2.925692558288574, 8.386160850524902, 33.87331771850586, 66.72732543945312, 2.4674956798553467, -0.766845703125, 0.447509765625, -0.108642578125, 
167, 3254896023, 0.7890017032623291, -0.2978288531303406, -0.48039716482162476, -0.24084922671318054, 10.10189437866211, -2.8617992401123047, 8.472756385803223, 34.33060073852539, 71.81352233886719, 3.2487094402313232, -0.7685546875, 0.448486328125, -0.12060546875, 
168, 3254904356, 0.7925426959991455, -0.29460155963897705, -0.4764151871204376, -0.241102397441864, 10.18891429901123, -2.691795587539673, 8.578439712524414, 34.16946792602539, 77.63143920898438, 3.8405590057373047, -0.76611328125, 0.44873046875, -0.132568359375, 
169, 3254912689, 0.7962152361869812, -0.29133495688438416, -0.47209614515304565, -0.2414664477109909, 10.210866928100586, -2.682154893875122, 8.629878044128418, 33.282997131347656, 82.57208251953125, 4.208128452301025, -0.765625, 0.446533203125, -0.143310546875, 
170, 3254921022, 0.7999938726425171, -0.28799593448638916, -0.46750038862228394, -0.241923525929451, 10.35592269897461, -2.7574915885925293, 8.70950984954834, 32.981868743896484, 87.07699584960938, 4.148858547210693, -0.76416015625, 0.44580078125, -0.15478515625, 
171, 3254929355, 0.8038939833641052, -0.28453871607780457, -0.4626215100288391, -0.24246490001678467, 10.54428482055664, -2.8754570484161377, 8.854960441589355, 33.273773193359375, 91.50363159179688, 4.02442741394043, -0.75244140625, 0.448974609375, -0.170654296875, 
172, 3254937688, 0.8079031705856323, -0.2809300422668457, -0.4574842154979706, -0.2430942952632904, 10.572375297546387, -2.9231932163238525, 8.985063552856445, 33.96023941040039, 96.10023498535156, 3.424846887588501, -0.756103515625, 0.44873046875, -0.181640625, 
173, 3254946021, 0.8120239973068237, -0.2771722674369812, -0.4520762860774994, -0.24379396438598633, 10.517778396606445, -2.7607309818267822, 9.178075790405273, 34.69342803955078, 100.36055755615234, 3.1650924682617188, -0.757568359375, 0.447509765625, -0.196533203125, 
174, 3254954354, 0.8162243366241455, -0.2732486128807068, -0.4464815855026245, -0.24450524151325226, 10.536385536193848, -2.7634472846984863, 9.222691535949707, 36.157039642333984, 103.760498046875, 2.9429402351379395, -0.754638671875, 0.447998046875, -0.2099609375, 
175, 3254962687, 0.8205061554908752, -0.2691139280796051, -0.4406713843345642, -0.24529917538166046, 10.794073104858398, -3.015000104904175, 9.11160659790039, 37.58984375, 107.45954895019531, 1.8481266498565674, -0.749755859375, 0.445068359375, -0.22509765625, 
176, 3254971020, 0.8248640298843384, -0.2647763192653656, -0.43463054299354553, -0.24618040025234222, 11.06714153289795, -3.151710271835327, 9.03332233428955, 38.86420440673828, 111.77110290527344, 0.6974971294403076, -0.744384765625, 0.444091796875, -0.240478515625, 
177, 3254979353, 0.8293198347091675, -0.2602652311325073, -0.42828527092933655, -0.24713940918445587, 11.068446159362793, -3.1010403633117676, 8.982926368713379, 39.684757232666016, 116.4234848022461, 0.2692476212978363, -0.742919921875, 0.44189453125, -0.255859375, 
178, 3254987686, 0.8338592052459717, -0.2555888295173645, -0.4216482937335968, -0.2481563836336136, 11.053508758544922, -3.0375161170959473, 8.956148147583008, 40.546016693115234, 121.26797485351562, -0.08857531100511551, -0.738525390625, 0.43896484375, -0.27099609375, 
179, 3254996019, 0.8384803533554077, -0.25076037645339966, -0.41468554735183716, -0.2492418736219406, 11.079243659973145, -2.9456100463867188, 8.901001930236816, 41.05583572387695, 125.9700927734375, -0.27868717908859253, -0.733154296875, 0.439208984375, -0.291259765625, 
180, 3255004352, 0.843137264251709, -0.24583780765533447, -0.4074205756187439, -0.25041481852531433, 11.05013656616211, -2.854862928390503, 8.780669212341309, 40.74204635620117, 130.55064392089844, -0.7107810974121094, -0.731201171875, 0.43896484375, -0.30517578125, 
181, 3255012685, 0.8478382229804993, -0.2408081293106079, -0.3998318314552307, -0.25165855884552, 11.00489330291748, -2.744370937347412, 8.703566551208496, 40.60639953613281, 134.88482666015625, -0.8307096362113953, -0.725341796875, 0.43603515625, -0.32373046875, 
182, 3255021018, 0.8525751829147339, -0.23567844927310944, -0.39194580912590027, -0.2529138922691345, 10.955122947692871, -2.7967705726623535, 8.640172958374023, 40.813392639160156, 139.20875549316406, -0.46257612109184265, -0.717529296875, 0.434814453125, -0.341064453125, 
183, 3255029351, 0.8573273420333862, -0.23045337200164795, -0.3837483525276184, -0.25423216819763184, 11.07484245300293, -3.0537636280059814, 8.390921592712402, 40.53832244873047, 143.20144653320312, -0.5944667458534241, -0.7109375, 0.432373046875, -0.359130859375, 
184, 3255037684, 0.8620625734329224, -0.2251528799533844, -0.3753047287464142, -0.255570650100708, 11.136816024780273, -3.247662305831909, 8.15095329284668, 40.4270133972168, 146.61672973632812, -0.5664703249931335, -0.70263671875, 0.43212890625, -0.37890625, 
185, 3255046017, 0.8667806386947632, -0.21972166001796722, -0.3666508197784424, -0.2568979859352112, 10.928717613220215, -3.2413101196289062, 8.031030654907227, 41.229095458984375, 149.1747283935547, -0.4549953043460846, -0.697265625, 0.429931640625, -0.3974609375, 
186, 3255054350, 0.8714385628700256, -0.2141987383365631, -0.35788798332214355, -0.2581579387187958, 10.731769561767578, -3.242182493209839, 7.864472389221191, 42.10890579223633, 150.56260681152344, -0.06203901022672653, -0.69189453125, 0.426025390625, -0.415283203125, 
187, 3255062683, 0.8760293126106262, -0.2085634171962738, -0.34902429580688477, -0.25936758518218994, 10.647278785705566, -3.3400392532348633, 7.73880672454834, 43.13225173950195, 151.4265899658203, 0.11025888472795486, -0.680908203125, 0.422607421875, -0.433837890625, 
188, 3255071016, 0.8805251717567444, -0.2028796374797821, -0.340048223733902, -0.26057302951812744, 10.580907821655273, -3.244418144226074, 7.529754638671875, 43.07737350463867, 152.75167846679688, -0.15238246321678162, -0.673583984375, 0.42041015625, -0.4521484375, 
189, 3255079349, 0.884925127029419, -0.1971566081047058, -0.3309326469898224, -0.2617936134338379, 10.316956520080566, -2.9830799102783203, 7.297471046447754, 42.69541931152344, 153.92225646972656, -0.4143964648246765, -0.66357421875, 0.417236328125, -0.470703125, 
190, 3255087682, 0.8891894817352295, -0.1914185881614685, -0.3217887580394745, -0.2629990875720978, 9.940937042236328, -2.8730692863464355, 7.131877899169922, 42.49592971801758, 153.9149627685547, -0.7706984281539917, -0.65478515625, 0.415283203125, -0.490478515625, 
191, 3255096015, 0.8933162689208984, -0.18568158149719238, -0.31260061264038086, -0.26420602202415466, 9.692110061645508, -2.838510751724243, 7.030487537384033, 41.92827606201172, 153.61485290527344, -1.1185730695724487, -0.644287109375, 0.41015625, -0.507080078125, 
192, 3255104348, 0.8972874879837036, -0.17992961406707764, -0.30348944664001465, -0.2653493285179138, 9.50594711303711, -2.6197447776794434, 6.865268707275391, 42.29655075073242, 152.1257781982422, -1.206559419631958, -0.6328125, 0.408935546875, -0.524169921875, 
193, 3255112681, 0.9010916948318481, -0.1741383969783783, -0.2944828271865845, -0.26646822690963745, 9.395780563354492, -2.599308967590332, 6.806778430938721, 42.82321548461914, 150.00474548339844, -1.8943156003952026, -0.62158203125, 0.40576171875, -0.540283203125, 
194, 3255121014, 0.9047168493270874, -0.16831353306770325, -0.2856000065803528, -0.2675933837890625, 9.358519554138184, -2.575737953186035, 6.767720699310303, 43.26538848876953, 148.10018920898438, -3.105586290359497, -0.613525390625, 0.4013671875, -0.558349609375, 
195, 3255129347, 0.9081741571426392, -0.16255336999893188, -0.2767084836959839, -0.2687823176383972, 9.24042797088623, -2.450808525085449, 6.741977214813232, 41.77592849731445, 147.26138305664062, -4.186861515045166, -0.59716796875, 0.399658203125, -0.572998046875, 
196, 3255137680, 0.9114551544189453, -0.1569649577140808, -0.2677881121635437, -0.2700309157371521, 9.034314155578613, -2.190661668777466, 6.561916828155518, 38.9177131652832, 146.64610290527344, -4.920518398284912, -0.591796875, 0.396240234375, -0.589111328125, 
197, 3255146013, 0.9145534038543701, -0.1515485942363739, -0.258862167596817, -0.27135035395622253, 8.731222152709961, -1.8498177528381348, 6.194270610809326, 36.0594482421875, 145.38583374023438, -5.808680534362793, -0.580322265625, 0.39306640625, -0.604736328125, 
198, 3255154346, 0.9175022840499878, -0.14620238542556763, -0.2499684989452362, -0.27266424894332886, 8.39940357208252, -1.656964659690857, 5.963136196136475, 35.03141403198242, 144.34564208984375, -6.145230770111084, -0.56689453125, 0.389404296875, -0.620849609375, 
199, 3255162679, 0.920312762260437, -0.1408916562795639, -0.24109983444213867, -0.27397122979164124, 8.00351333618164, -1.7157613039016724, 5.940059185028076, 34.404869079589844, 143.258544921875, -6.462646961212158, -0.556396484375, 0.385498046875, -0.634521484375, 
200, 3255171012, 0.9229735136032104, -0.13560843467712402, -0.23236122727394104, -0.2752343416213989, 7.699339389801025, -1.770467758178711, 6.133228302001953, 34.419219970703125, 141.0768280029297, -6.675245761871338, -0.54638671875, 0.381103515625, -0.6494140625, 
201, 3255179345, 0.9255052804946899, -0.13032197952270508, -0.22374780476093292, -0.2764210104942322, 7.505317687988281, -1.6922777891159058, 6.316918849945068, 34.919864654541016, 138.82012939453125, -6.403316020965576, -0.536865234375, 0.378173828125, -0.66162109375, 
202, 3255187678, 0.9279016256332397, -0.12510591745376587, -0.2152518779039383, -0.27754148840904236, 7.330782890319824, -1.569594144821167, 6.385215759277344, 34.45045852661133, 136.64605712890625, -6.10280179977417, -0.521484375, 0.374267578125, -0.679443359375, 
203, 3255196011, 0.9301570057868958, -0.12000720202922821, -0.2068624496459961, -0.2786213755607605, 7.1063432693481445, -1.5175825357437134, 6.3476948738098145, 33.217445373535156, 134.24977111816406, -5.930026054382324, -0.512939453125, 0.3701171875, -0.686767578125, 
204, 3255204344, 0.9322766661643982, -0.11507049202919006, -0.19858573377132416, -0.27963986992836, 6.827863693237305, -1.5898897647857666, 6.3756513595581055, 31.54678726196289, 131.8030242919922, -5.418805122375488, -0.50048828125, 0.365478515625, -0.700439453125, 
205, 3255212677, 0.9342747330665588, -0.11017981171607971, -0.1904866099357605, -0.28057369589805603, 6.5452094078063965, -1.6538934707641602, 6.421658992767334, 31.661516189575195, 128.801025390625, -4.9289727210998535, -0.489013671875, 0.361572265625, -0.712646484375, 
206, 3255221010, 0.9361412525177002, -0.10526033490896225, -0.18265540897846222, -0.28144681453704834, 6.314749717712402, -1.6518840789794922, 6.46290922164917, 33.04217529296875, 125.11527252197266, -5.167774200439453, -0.474365234375, 0.36279296875, -0.72412109375, 
207, 3255229343, 0.9378836154937744, -0.10033445060253143, -0.1750536859035492, -0.28227514028549194, 6.031518459320068, -1.522183895111084, 6.619313716888428, 33.9287223815918, 121.74693298339844, -5.397584915161133, -0.46630859375, 0.3583984375, -0.735595703125, 
208, 3255237676, 0.9395095109939575, -0.09542043507099152, -0.167706698179245, -0.28303179144859314, 5.531108379364014, -1.3764317035675049, 6.845989227294922, 34.79398727416992, 118.0982894897461, -5.270532608032227, -0.45458984375, 0.352294921875, -0.7451171875, 
209, 3255246009, 0.9410175681114197, -0.09058181196451187, -0.16059421002864838, -0.2837355136871338, 5.298582077026367, -1.490304708480835, 7.075122356414795, 34.68504333496094, 114.3890609741211, -5.159386157989502, -0.442138671875, 0.34765625, -0.7568359375, 
210, 3255254342, 0.9424279928207397, -0.08581884205341339, -0.15365195274353027, -0.28437891602516174, 5.271711826324463, -1.4792393445968628, 7.163026332855225, 34.3963737487793, 111.64521789550781, -4.8225531578063965, -0.431640625, 0.3447265625, -0.76513671875, 
211, 3255262675, 0.9437587857246399, -0.08115674555301666, -0.14679951965808868, -0.28495341539382935, 5.1211466789245605, -1.3350119590759277, 7.052546977996826, 33.481101989746094, 109.80741882324219, -4.121224880218506, -0.422119140625, 0.341552734375, -0.77392578125, 
212, 3255271008, 0.9450079202651978, -0.07660806179046631, -0.14004424214363098, -0.28547218441963196, 4.860982418060303, -1.3576840162277222, 6.913722515106201, 32.421592712402344, 107.9052734375, -3.60931658744812, -0.410400390625, 0.339111328125, -0.783935546875, 
213, 3255279341, 0.9461849927902222, -0.07216258347034454, -0.13339748978614807, -0.28591498732566833, 4.623134613037109, -1.4468477964401245, 6.84099006652832, 31.57061767578125, 105.8545150756836, -2.8142409324645996, -0.400390625, 0.335693359375, -0.792236328125, 
214, 3255287674, 0.947290301322937, -0.06775428354740143, -0.12689615786075592, -0.28629231452941895, 4.448172569274902, -1.552055835723877, 6.949350357055664, 31.713890075683594, 103.63485717773438, -2.3280251026153564, -0.391845703125, 0.330322265625, -0.801025390625, 
215, 3255296007, 0.9483318328857422, -0.06334905326366425, -0.12052321434020996, -0.28660687804222107, 4.275866985321045, -1.4084192514419556, 7.142570972442627, 32.22701644897461, 101.7820053100586, -1.8752626180648804, -0.378173828125, 0.326904296875, -0.806640625, 
216, 3255304340, 0.9493148922920227, -0.058940887451171875, -0.11425754427909851, -0.28685954213142395, 4.013826370239258, -1.1109721660614014, 7.2012248039245605, 32.74195861816406, 100.24185943603516, -1.3970140218734741, -0.369140625, 0.32421875, -0.81640625, 
217, 3255312673, 0.9502295851707458, -0.054622672498226166, -0.10805336385965347, -0.2870892882347107, 3.800496816635132, -0.9514041543006897, 7.219949245452881, 31.79239273071289, 98.97256469726562, -1.2785722017288208, -0.358154296875, 0.3203125, -0.82470703125, 
218, 3255321006, 0.9510778784751892, -0.050405751913785934, -0.10192809998989105, -0.28729167580604553, 3.6504342555999756, -0.8765801787376404, 7.243338584899902, 30.76967430114746, 97.40921020507812, -1.0897161960601807, -0.34765625, 0.31689453125, -0.83056640625, 
219, 3255329339, 0.9518502950668335, -0.04631083458662033, -0.09591732919216156, -0.2874920666217804, 3.4674160480499268, -0.951827347278595, 7.1970720291137695, 29.581716537475586, 95.34595489501953, -1.2790067195892334, -0.336181640625, 0.31396484375, -0.838623046875, 
220, 3255337672, 0.9525573253631592, -0.04233653098344803, -0.09003651887178421, -0.2876650094985962, 3.320957899093628, -0.9566674828529358, 7.26798677444458, 28.506744384765625, 93.03933715820312, -1.09632408618927, -0.326171875, 0.310302734375, -0.845947265625, 
221, 3255346005, 0.9532078504562378, -0.03839009255170822, -0.08432607352733612, -0.2877940833568573, 3.0560407638549805, -0.802675724029541, 7.435635566711426, 28.843975067138672, 90.63854217529297, -0.8197646737098694, -0.31640625, 0.309814453125, -0.85302734375, 
222, 3255354338, 0.9537991285324097, -0.03450772538781166, -0.07874131202697754, -0.2879091501235962, 2.867382049560547, -0.5745722651481628, 7.748678684234619, 28.479084014892578, 88.62576293945312, -0.8510395288467407, -0.3046875, 0.302734375, -0.85693359375, 
223, 3255362671, 0.9543265104293823, -0.030653541907668114, -0.0732368677854538, -0.28805047273635864, 2.77032208442688, -0.427961528301239, 7.881252288818359, 28.37941551208496, 87.4468002319336, -1.4715232849121094, -0.293212890625, 0.301513671875, -0.864013671875, 
224, 3255371004, 0.9547871947288513, -0.026930149644613266, -0.06771155446767807, -0.2882477641105652, 2.5677435398101807, -0.27477332949638367, 7.8818206787109375, 26.486066818237305, 87.11632537841797, -2.3138787746429443, -0.285400390625, 0.29736328125, -0.869384765625, 
225, 3255379337, 0.9551910161972046, -0.02331707440316677, -0.06218593567609787, -0.2884698212146759, 2.3680202960968018, -0.20024371147155762, 7.877895832061768, 25.003705978393555, 86.69236755371094, -2.779010534286499, -0.276123046875, 0.292236328125, -0.877197265625, 
226, 3255387670, 0.9555423855781555, -0.019809085875749588, -0.056636109948158264, -0.28871139883995056, 2.2166125774383545, -0.3830169141292572, 7.907142639160156, 23.481054306030273, 86.50100708007812, -3.1281092166900635, -0.266357421875, 0.291015625, -0.879638671875, 
227, 3255396003, 0.9558462500572205, -0.016376186162233353, -0.05105819180607796, -0.28896087408065796, 2.193619728088379, -0.40883541107177734, 8.001208305358887, 22.378150939941406, 86.59551239013672, -3.374673843383789, -0.255615234375, 0.287109375, -0.884765625, 
228, 3255404336, 0.9561035633087158, -0.012995795346796513, -0.04553939029574394, -0.2892037034034729, 1.9676265716552734, -0.23164810240268707, 7.847739219665527, 21.902944564819336, 85.51791381835938, -3.4297690391540527, -0.248779296875, 0.283935546875, -0.8916015625, 
229, 3255412669, 0.956330418586731, -0.009640558622777462, -0.040064312517642975, -0.2893953323364258, 1.669169545173645, -0.5757099986076355, 7.913373947143555, 21.789138793945312, 84.88098907470703, -2.8901760578155518, -0.236328125, 0.283447265625, -0.896240234375, 
230, 3255421002, 0.9565423727035522, -0.006164004094898701, -0.03467113897204399, -0.2894861102104187, 1.3617416620254517, -0.9373249411582947, 8.243820190429688, 23.746875762939453, 84.19841766357422, -1.6787171363830566, -0.227783203125, 0.279296875, -0.897705078125, 
231, 3255429335, 0.9567447900772095, -0.0024773264303803444, -0.02951817959547043, -0.2894435226917267, 1.2278566360473633, -0.9439512491226196, 8.626008033752441, 27.552406311035156, 81.93004608154297, -0.10686329752206802, -0.21630859375, 0.27587890625, -0.90673828125, 
232, 3255437668, 0.9569281339645386, 0.0013922140933573246, -0.024526722729206085, -0.2893105745315552, 1.1912462711334229, -0.6175194382667542, 8.83035659790039, 30.614755630493164, 80.45108795166016, 0.9502558708190918, -0.2021484375, 0.2734375, -0.908447265625, 
233, 3255446001, 0.9570719599723816, 0.005410145036876202, -0.019675103947520256, -0.2891581058502197, 1.0582598447799683, -0.15810789167881012, 8.88217544555664, 33.158111572265625, 79.26384735107422, 0.9729245901107788, -0.19677734375, 0.267822265625, -0.916015625, 
234, 3255454334, 0.957164466381073, 0.009404593147337437, -0.014925042167305946, -0.2890341877937317, 0.946142852306366, 0.3963237404823303, 8.801700592041016, 33.223087310791016, 77.74191284179688, 0.4357649087905884, -0.188720703125, 0.26806640625, -0.920654296875, 
235, 3255462667, 0.9571936130523682, 0.013289999216794968, -0.010241526179015636, -0.2889891266822815, 0.9389653205871582, 0.7290986180305481, 8.759431838989258, 32.07099914550781, 76.4879150390625, -0.851140558719635, -0.1806640625, 0.261474609375, -0.922607421875, 
236, 3255471000, 0.9571521282196045, 0.017046265304088593, -0.005595942959189415, -0.2890564203262329, 0.9632680416107178, 0.7713416814804077, 8.719412803649902, 30.4918155670166, 75.36724853515625, -2.558236837387085, -0.166748046875, 0.25927734375, -0.92529296875, 
237, 3255479333, 0.9570626020431519, 0.020622722804546356, -0.0009479899890720844, -0.28917187452316284, 0.9513179063796997, 0.731656014919281, 8.620467185974121, 28.148494720458984, 74.7520751953125, -3.3963637351989746, -0.159912109375, 0.252685546875, -0.93212890625, 
238, 3255487666, 0.9569311141967773, 0.024030586704611778, 0.0037886120844632387, -0.28932076692581177, 0.9188665747642517, 0.7503764629364014, 8.461410522460938, 25.563264846801758, 75.15386199951172, -3.998788595199585, -0.14990234375, 0.249755859375, -0.93408203125, 
239, 3255495999, 0.9567686319351196, 0.02723252773284912, 0.00862198043614626, -0.28947094082832336, 0.8236415982246399, 0.42628151178359985, 8.243314743041992, 22.5017032623291, 75.69965362548828, -4.209466457366943, -0.142822265625, 0.245849609375, -0.939208984375, 
240, 3255504332, 0.956592321395874, 0.030331062152981758, 0.013475174084305763, -0.2895606756210327, 0.5763247609138489, 0.18911181390285492, 8.09916877746582, 21.037376403808594, 75.48326873779297, -3.4610137939453125, -0.133056640625, 0.244384765625, -0.939208984375, 
241, 3255512665, 0.9564050436019897, 0.03339606896042824, 0.018245995044708252, -0.2895802855491638, 0.2645809054374695, 0.15133652091026306, 8.120912551879883, 20.940067291259766, 74.38993835449219, -2.5858216285705566, -0.12353515625, 0.2421875, -0.94384765625, 
242, 3255520998, 0.9562021493911743, 0.036407459527254105, 0.022840600460767746, -0.2895614206790924, 0.016978945583105087, 0.25327011942863464, 7.912320137023926, 20.90955352783203, 71.78913116455078, -2.0445382595062256, -0.114013671875, 0.239013671875, -0.9462890625, 
243, 3255529331, 0.9559817314147949, 0.03963072970509529, 0.02714497223496437, -0.28949472308158875, -0.2115727663040161, 0.10605157911777496, 7.927581310272217, 24.872039794921875, 68.9408187866211, -1.3017215728759766, -0.10498046875, 0.23486328125, -0.948974609375, 
244, 3255537664, 0.9557424187660217, 0.043074604123830795, 0.0311739444732666, -0.28938719630241394, -0.44252845644950867, -0.09563065320253372, 8.00071907043457, 28.83677864074707, 66.13260650634766, -0.5772963166236877, -0.095458984375, 0.232666015625, -0.951904296875, 
245, 3255545997, 0.9554783701896667, 0.04671438783407211, 0.03488168865442276, -0.2892713248729706, -0.6039881110191345, 0.02187405154109001, 8.126754760742188, 32.73064041137695, 62.802162170410156, -0.32573768496513367, -0.08740234375, 0.22900390625, -0.95263671875, 
246, 3255554330, 0.9551887512207031, 0.05050135403871536, 0.03832237422466278, -0.28915590047836304, -0.6086157560348511, 0.2933996617794037, 8.12945556640625, 35.71455001831055, 59.793033599853516, -0.15755382180213928, -0.077392578125, 0.225341796875, -0.9560546875, 
247, 3255562663, 0.9548647999763489, 0.05433093383908272, 0.0415654182434082, -0.28908345103263855, -0.583248496055603, 0.670988917350769, 8.036619186401367, 37.13742446899414, 57.45270919799805, -0.7325700521469116, -0.072998046875, 0.21826171875, -0.9599609375, 
248, 3255570996, 0.9545109868049622, 0.05811545252799988, 0.04468156397342682, -0.289051353931427, -0.6604835987091064, 0.9632370471954346, 7.916840553283691, 37.06492614746094, 55.49693298339844, -1.2801787853240967, -0.064697265625, 0.215087890625, -0.9619140625, 
249, 3255579329, 0.9541280269622803, 0.061712272465229034, 0.04777175560593605, -0.2890757620334625, -0.7056924700737, 1.0039143562316895, 7.717161178588867, 34.79241943359375, 54.4810791015625, -2.2652032375335693, -0.056884765625, 0.211181640625, -0.962158203125, 
250, 3255587662, 0.9537239074707031, 0.0650610625743866, 0.05089302361011505, -0.289141982793808, -0.6602433323860168, 0.791543185710907, 7.473399639129639, 31.429399490356445, 53.78278732299805, -3.0538675785064697, -0.05078125, 0.20556640625, -0.964599609375, 
251, 3255595995, 0.9533125162124634, 0.06825166195631027, 0.05402455851435661, -0.2891954183578491, -0.6670629382133484, 0.4657996892929077, 7.288029193878174, 29.342113494873047, 53.40474319458008, -3.069389581680298, -0.0439453125, 0.201904296875, -0.967529296875, 
252, 3255604328, 0.9529010653495789, 0.07136046886444092, 0.05710369348526001, -0.2892094850540161, -0.824140727519989, 0.21216732263565063, 7.248355865478516, 28.417888641357422, 52.33060836791992, -2.529874563217163, -0.037353515625, 0.198486328125, -0.968017578125, 
253, 3255612661, 0.9524925947189331, 0.07438725233078003, 0.0600968562066555, -0.28918567299842834, -1.0530503988265991, 0.17861582338809967, 7.2351579666137695, 27.686342239379883, 51.01070785522461, -2.0371572971343994, -0.0322265625, 0.19482421875, -0.97021484375, 
254, 3255620994, 0.9520847201347351, 0.07739348709583282, 0.06296698749065399, -0.2891293168067932, -1.2804346084594727, 0.17696164548397064, 7.267306804656982, 27.845172882080078, 49.25189208984375, -1.4644466638565063, -0.01708984375, 0.19189453125, -0.973876953125, 
255, 3255629327, 0.9516811370849609, 0.08037368208169937, 0.06566756218671799, -0.28904396295547485, -1.4510704278945923, 0.24387343227863312, 7.245999336242676, 28.187274932861328, 47.054893493652344, -0.9472680687904358, -0.01904296875, 0.186767578125, -0.97412109375, 
256, 3255637660, 0.9512691497802734, 0.08335321396589279, 0.06818719208240509, -0.2889727056026459, -1.5584678649902344, 0.49035555124282837, 7.173324108123779, 28.88108253479004, 44.576629638671875, -0.9279292225837708, -0.011474609375, 0.18310546875, -0.974609375, 
257, 3255645993, 0.9508603811264038, 0.08624274283647537, 0.07053514569997787, -0.28890666365623474, -1.7215189933776855, 0.8709036111831665, 7.088733673095703, 28.428136825561523, 42.0615234375, -0.9079241156578064, -0.00439453125, 0.1787109375, -0.975830078125, 
258, 3255654326, 0.9504410028457642, 0.08905256539583206, 0.07270191609859467, -0.28889718651771545, -1.8319697380065918, 1.0935059785842896, 6.855722427368164, 28.132158279418945, 39.222450256347656, -1.5149824619293213, 0.004150390625, 0.178466796875, -0.976806640625, 
259, 3255662659, 0.950013279914856, 0.09172013401985168, 0.07470986247062683, -0.28895699977874756, -1.8551037311553955, 1.161968469619751, 6.672187805175781, 27.023563385009766, 36.59636688232422, -2.4343814849853516, 0.004150390625, 0.171630859375, -0.982666015625, 
260, 3255670992, 0.9495900869369507, 0.09421286731958389, 0.07656355947256088, -0.28906095027923584, -1.9954218864440918, 1.2637890577316284, 6.561446189880371, 25.35281753540039, 33.73490905761719, -2.9455902576446533, 0.009765625, 0.171142578125, -0.978759765625, 
261, 3255679325, 0.9491945505142212, 0.09647887945175171, 0.0782708078622818, -0.28915509581565857, -2.0918285846710205, 1.347669243812561, 6.534118175506592, 22.965280532836914, 30.993534088134766, -2.791135787963867, 0.014404296875, 0.166015625, -0.981689453125, 
262, 3255687658, 0.9488266706466675, 0.09851336479187012, 0.07986199855804443, -0.28924164175987244, -2.0977158546447754, 1.2300647497177124, 6.445816516876221, 20.322010040283203, 28.4494686126709, -2.6431100368499756, 0.0224609375, 0.165283203125, -0.9814453125, 
263, 3255695991, 0.948479175567627, 0.10037194192409515, 0.08130994439125061, -0.28933894634246826, -2.0991737842559814, 0.8853729367256165, 6.368310451507568, 18.61673355102539, 25.92840003967285, -2.732989549636841, 0.0205078125, 0.15966796875, -0.982666015625, 
264, 3255704324, 0.9481455087661743, 0.1021355539560318, 0.08258013427257538, -0.2894555926322937, -2.062671184539795, 0.6256986260414124, 6.303821086883545, 18.05247688293457, 23.104248046875, -2.761190891265869, 0.023193359375, 0.15771484375, -0.982666015625, 
265, 3255712657, 0.9478363990783691, 0.10380339622497559, 0.08365041762590408, -0.28956732153892517, -2.1296942234039307, 0.6918315291404724, 6.1703033447265625, 17.595516204833984, 20.17717742919922, -2.4550745487213135, 0.027099609375, 0.156005859375, -0.983154296875, 
266, 3255720990, 0.9475365877151489, 0.10538890212774277, 0.08450746536254883, -0.28972724080085754, -2.249342918395996, 0.7252328395843506, 6.151105880737305, 17.37689971923828, 16.90979766845703, -2.806527853012085, 0.033203125, 0.154052734375, -0.98291015625, 
267, 3255729323, 0.9472647905349731, 0.1068226620554924, 0.08511945605278015, -0.28991109132766724, -2.334163188934326, 0.918120265007019, 6.131475925445557, 16.40145492553711, 13.120219230651855, -2.8571412563323975, 0.03271484375, 0.149658203125, -0.98291015625, 
268, 3255737656, 0.9470185041427612, 0.10813934355974197, 0.08550488948822021, -0.29011428356170654, -2.413166046142578, 1.2596383094787598, 6.196202278137207, 15.727492332458496, 9.568981170654297, -2.7837047576904297, 0.03271484375, 0.151611328125, -0.98486328125, 
269, 3255745989, 0.946821391582489, 0.10922906547784805, 0.08570322394371033, -0.29029107093811035, -2.5223963260650635, 1.4361592531204224, 6.413878440856934, 13.448643684387207, 6.2781662940979, -2.2569990158081055, 0.040771484375, 0.14697265625, -0.986328125, 
270, 3255754322, 0.9466702938079834, 0.1100410670042038, 0.08576659858226776, -0.2904587686061859, -2.5074102878570557, 1.3080062866210938, 6.558224678039551, 10.258000373840332, 3.302507162094116, -2.055030107498169, 0.035400390625, 0.144287109375, -0.985107421875, 
271, 3255762655, 0.9465911984443665, 0.11045357584953308, 0.08574308454990387, -0.2905660569667816, -2.4450557231903076, 1.3667761087417603, 6.682165145874023, 5.256540775299072, 0.6443644762039185, -1.344875454902649, 0.038818359375, 0.143798828125, -0.985595703125, 
272, 3255770988, 0.9465947151184082, 0.11039428412914276, 0.08574528992176056, -0.2905765175819397, -2.6180477142333984, 1.6913825273513794, 6.7956647872924805, -1.2611937522888184, -0.9182959794998169, -0.32509589195251465, 0.037353515625, 0.144287109375, -0.984619140625, 
273, 3255779321, 0.9466681480407715, 0.10993240028619766, 0.08577860891819, -0.29050299525260925, -2.8230655193328857, 1.7557730674743652, 6.828892230987549, -6.799605846405029, -2.0191187858581543, 0.5027433633804321, 0.036376953125, 0.144287109375, -0.985107421875, 
274, 3255787654, 0.9467943906784058, 0.1092347502708435, 0.0858054906129837, -0.2903466820716858, -2.9793765544891357, 1.2806205749511719, 6.774051666259766, -10.052999496459961, -3.0411531925201416, 1.5471384525299072, 0.037841796875, 0.145751953125, -0.988037109375, 
275, 3255795987, 0.9469364881515503, 0.10851501673460007, 0.08573699742555618, -0.29017364978790283, -2.9882736206054688, 0.7042895555496216, 6.961071491241455, -9.973645210266113, -4.312335968017578, 1.9220283031463623, 0.040283203125, 0.14599609375, -0.9873046875, 
276, 3255804320, 0.9470540285110474, 0.10804083198308945, 0.08543482422828674, -0.29005590081214905, -2.8182122707366943, 0.45523467659950256, 7.269547939300537, -5.770862102508545, -6.481016635894775, 1.765371561050415, 0.036376953125, 0.149169921875, -0.98681640625, 
277, 3255812653, 0.947152316570282, 0.10777521878480911, 0.08495056629180908, -0.28997600078582764, -2.612077474594116, 0.5995745062828064, 7.675806999206543, -2.2234182357788086, -8.01059627532959, 1.6927295923233032, 0.039794921875, 0.14794921875, -0.98583984375, 
278, 3255820986, 0.9472339153289795, 0.1076444685459137, 0.08437563478946686, -0.2899256944656372, -2.5075626373291016, 0.8999596834182739, 7.97749137878418, -0.07802097499370575, -8.721442222595215, 1.5512878894805908, 0.034423828125, 0.148193359375, -0.98291015625, 
279, 3255829319, 0.9473048448562622, 0.10758399963378906, 0.08370852470397949, -0.2899099588394165, -2.5380682945251465, 1.1133031845092773, 8.262260437011719, 1.2966822385787964, -9.640583038330078, 1.2573386430740356, 0.03271484375, 0.149658203125, -0.984619140625, 
280, 3255837652, 0.9473662376403809, 0.1075514554977417, 0.08295594155788422, -0.2899376153945923, -2.607234477996826, 1.186293601989746, 8.430997848510742, 2.0295567512512207, -10.7362060546875, 0.8333719372749329, 0.03271484375, 0.148681640625, -0.986083984375, 
281, 3255845985, 0.9474266767501831, 0.10751388221979141, 0.08214219659566879, -0.2899857461452484, -2.638104200363159, 1.2635406255722046, 8.488968849182129, 2.268460750579834, -11.546820640563965, 0.6276383996009827, 0.03125, 0.1484375, -0.984130859375, 
282, 3255854318, 0.9475082159042358, 0.10743848234415054, 0.08128253370523453, -0.2899894416332245, -2.706540107727051, 1.2028694152832031, 8.484764099121094, 1.8411387205123901, -12.288046836853027, 1.3345658779144287, 0.0302734375, 0.14599609375, -0.985107421875, 
283, 3255862651, 0.9476093053817749, 0.10732463747262955, 0.080359548330307, -0.28995880484580994, -2.8026621341705322, 1.1118837594985962, 8.406543731689453, 1.5619691610336304, -13.208290100097656, 1.895312786102295, 0.029296875, 0.1474609375, -0.984619140625, 
284, 3255870984, 0.9477187395095825, 0.10716459900140762, 0.0794016420841217, -0.28992414474487305, -2.690814733505249, 1.2856240272521973, 8.433357238769531, 1.047148585319519, -13.88094711303711, 1.9962589740753174, 0.02587890625, 0.1455078125, -0.9853515625, 
285, 3255879317, 0.9478347897529602, 0.10693139582872391, 0.07844343781471252, -0.28989142179489136, -2.5476138591766357, 1.4427037239074707, 8.419401168823242, 0.12250009924173355, -14.160728454589844, 1.9053536653518677, 0.02685546875, 0.146484375, -0.984130859375, 
286, 3255887650, 0.9479487538337708, 0.10667732357978821, 0.07748477160930634, -0.2898702621459961, -2.4089651107788086, 1.3932338953018188, 8.40394401550293, -0.16841362416744232, -14.291412353515625, 1.7369142770767212, 0.02490234375, 0.145751953125, -0.98388671875, 
287, 3255895983, 0.9480544924736023, 0.10637713968753815, 0.07653501629829407, -0.2898871898651123, -2.2806010246276855, 1.368143081665039, 8.350502967834473, -0.7160203456878662, -14.383419036865234, 1.1347235441207886, 0.021484375, 0.145263671875, -0.98291015625, 
288, 3255904316, 0.9481577277183533, 0.10602360218763351, 0.07558394968509674, -0.28992852568626404, -2.2229456901550293, 1.5737680196762085, 8.244420051574707, -1.4130860567092896, -14.668427467346191, 0.763573169708252, 0.021484375, 0.145751953125, -0.984375, 
289, 3255912649, 0.9482649564743042, 0.10555826872587204, 0.07464566826820374, -0.2899908423423767, -2.1656556129455566, 1.5873353481292725, 8.067511558532715, -2.870459794998169, -14.962327003479004, 0.3596879243850708, 0.0185546875, 0.14599609375, -0.98291015625, 
290, 3255920982, 0.9483750462532043, 0.10499456524848938, 0.07368199527263641, -0.29008203744888306, -2.097747564315796, 1.3295639753341675, 7.856040954589844, -4.061367988586426, -15.750222206115723, -0.058759063482284546, 0.013916015625, 0.14697265625, -0.9814453125, 
291, 3255929315, 0.9484912157058716, 0.1043638065457344, 0.07265257090330124, -0.29018911719322205, -1.9685781002044678, 1.0169392824172974, 7.616025924682617, -4.633513450622559, -16.887697219848633, -0.22143511474132538, 0.013916015625, 0.14697265625, -0.984130859375, 
292, 3255937648, 0.9486062526702881, 0.10376584529876709, 0.07148165255784988, -0.2903186082839966, -1.7968425750732422, 0.8383671641349792, 7.351966857910156, -3.6510536670684814, -18.64980697631836, -0.27507132291793823, 0.010009765625, 0.14892578125, -0.981689453125, 
293, 3255945981, 0.9487162828445435, 0.10322856903076172, 0.07019500434398651, -0.29046472907066345, -1.616410255432129, 0.6957607865333557, 6.926815986633301, -2.3366336822509766, -19.921607971191406, -0.2989182472229004, 0.009033203125, 0.148681640625, -0.981689453125, 
294, 3255954314, 0.9488214254379272, 0.10270031541585922, 0.06889389455318451, -0.290619820356369, -1.4320106506347656, 0.5799989700317383, 6.390799045562744, -2.183281421661377, -20.096832275390625, -0.39348599314689636, 0.00732421875, 0.150634765625, -0.982666015625, 
295, 3255962647, 0.9489700794219971, 0.10190042108297348, 0.06765806674957275, -0.290706068277359, -1.3879252672195435, 0.5082144141197205, 5.774912357330322, -6.076185703277588, -20.260713577270508, 0.3188333213329315, 0.00439453125, 0.150634765625, -0.981201171875, 
296, 3255970980, 0.9491885900497437, 0.10066936165094376, 0.06647883355617523, -0.2906940281391144, -1.4325518608093262, 0.6982855796813965, 5.094673156738281, -12.1550874710083, -21.187158584594727, 1.4083353281021118, 0.0009765625, 0.150390625, -0.981201171875, 
297, 3255979313, 0.9494869709014893, 0.09900736808776855, 0.0652475655078888, -0.2905690371990204, -1.3112250566482544, 0.9268297553062439, 4.346705436706543, -17.748554229736328, -23.49488067626953, 2.8735995292663574, 0.000244140625, 0.152587890625, -0.984130859375, 
298, 3255987646, 0.9498657584190369, 0.09689043462276459, 0.06388144940137863, -0.290348082780838, -1.2300515174865723, 1.0629361867904663, 3.7383298873901367, -23.38326072692871, -27.024944305419922, 4.230157375335693, -0.004150390625, 0.15478515625, -0.9814453125, 
299, 3255995979, 0.9503014087677002, 0.09448135644197464, 0.06217291206121445, -0.2900870442390442, -1.3168706893920898, 1.249167561531067, 3.4789860248565674, -25.90630340576172, -32.653079986572266, 5.1731743812561035, -0.005615234375, 0.15673828125, -0.979248046875, 
300, 3256004312, 0.9507706165313721, 0.09188461303710938, 0.05995868146419525, -0.28984975814819336, -1.3299031257629395, 1.3471571207046509, 3.492192268371582, -26.401466369628906, -40.07760238647461, 5.499554634094238, -0.00927734375, 0.1611328125, -0.980224609375, 
301, 3256012645, 0.9512402415275574, 0.08916333317756653, 0.05721534416079521, -0.28971320390701294, -1.2103734016418457, 1.4299595355987549, 3.7617430686950684, -25.807842254638672, -47.614627838134766, 4.745036602020264, -0.015869140625, 0.166015625, -0.9775390625, 
302, 3256020978, 0.9516950845718384, 0.08635611832141876, 0.05396321788430214, -0.28969380259513855, -1.1266311407089233, 1.4170869588851929, 4.0828537940979, -24.824779510498047, -54.7490119934082, 3.71560001373291, -0.0224609375, 0.16650390625, -0.9755859375, 
303, 3256029311, 0.952124297618866, 0.08346348255872726, 0.05021453648805618, -0.2898053228855133, -1.0202919244766235, 1.1998929977416992, 4.306694507598877, -23.811777114868164, -61.72406005859375, 2.4217967987060547, -0.032470703125, 0.1708984375, -0.974853515625, 
304, 3256037644, 0.9525419473648071, 0.08047521859407425, 0.04603827744722366, -0.28997188806533813, -0.8526513576507568, 1.052633285522461, 4.533497333526611, -23.334674835205078, -67.75895690917969, 2.0847394466400146, -0.037353515625, 0.171630859375, -0.970458984375, 
305, 3256045977, 0.9529527425765991, 0.07729578018188477, 0.04149731248617172, -0.2901725172996521, -0.683175802230835, 1.0510177612304688, 4.616780757904053, -24.3336238861084, -73.3309097290039, 1.8902761936187744, -0.046142578125, 0.17626953125, -0.972412109375, 
306, 3256054310, 0.953362226486206, 0.07382224500179291, 0.03671761602163315, -0.290376216173172, -0.3405439257621765, 1.2270210981369019, 4.745201110839844, -27.25255584716797, -77.63754272460938, 1.932464599609375, -0.0537109375, 0.1826171875, -0.970703125, 
307, 3256062643, 0.953773558139801, 0.06994222104549408, 0.03185393661260605, -0.2905602753162384, -0.07107120007276535, 1.426885724067688, 4.832710266113281, -32.24118423461914, -80.3412857055664, 2.074497699737549, -0.067138671875, 0.18359375, -0.967529296875, 
308, 3256070976, 0.9541722536087036, 0.06572876870632172, 0.026951298117637634, -0.29073062539100647, 0.06518799811601639, 1.2098997831344604, 4.921720027923584, -36.46990966796875, -82.16507720947266, 2.0983712673187256, -0.0751953125, 0.188232421875, -0.965576171875, 
309, 3256079309, 0.9545475840568542, 0.061259832233190536, 0.021952392533421516, -0.2908947765827179, 0.03754524514079094, 0.7058925032615662, 5.033384799957275, -39.405677795410156, -84.43310546875, 2.0777018070220947, -0.088134765625, 0.190673828125, -0.9599609375, 
310, 3256087642, 0.9549061059951782, 0.05659868195652962, 0.016687722876667976, -0.2910122573375702, -0.06447713077068329, 0.33771345019340515, 5.5042643547058105, -40.87784194946289, -88.65003967285156, 2.7916038036346436, -0.098388671875, 0.19921875, -0.9580078125, 
311, 3256095975, 0.9552332162857056, 0.051859207451343536, 0.011088132858276367, -0.29108867049217224, -0.027040790766477585, 0.0673242062330246, 6.191100597381592, -40.53871154785156, -93.31669616699219, 3.4401893615722656, -0.1083984375, 0.204833984375, -0.95263671875, 
312, 3256104308, 0.9555133581161499, 0.047123800963163376, 0.005149458535015583, -0.29113996028900146, 0.19799955189228058, -0.10358864068984985, 6.886391639709473, -39.111392974853516, -97.73506927490234, 3.8320415019989014, -0.122314453125, 0.207275390625, -0.951416015625, 
313, 3256112641, 0.9557269811630249, 0.042451534420251846, -0.0010827118530869484, -0.2912013530731201, 0.47091421484947205, -0.170852392911911, 7.582334518432617, -37.04542541503906, -101.3309097290039, 3.618957042694092, -0.131591796875, 0.21240234375, -0.944580078125, 
314, 3256120974, 0.9558684825897217, 0.037861522287130356, -0.007503677159547806, -0.29127562046051025, 0.7802101373672485, -0.10565763711929321, 8.070588111877441, -35.18405532836914, -103.50179290771484, 3.2790791988372803, -0.14501953125, 0.219970703125, -0.94140625, 
315, 3256129307, 0.9559346437454224, 0.033383600413799286, -0.014043482951819897, -0.2913638949394226, 1.0763837099075317, 0.012153878808021545, 8.508576393127441, -33.176212310791016, -104.61583709716797, 2.8338735103607178, -0.16015625, 0.220947265625, -0.936767578125, 
316, 3256137640, 0.9559330344200134, 0.028939414769411087, -0.020586861297488213, -0.2914557158946991, 1.3376084566116333, 0.10183192789554596, 8.73546314239502, -32.70780563354492, -104.55684661865234, 2.5186617374420166, -0.171630859375, 0.223388671875, -0.93115234375, 
317, 3256145973, 0.9558693170547485, 0.02444440871477127, -0.02707391045987606, -0.2915455102920532, 1.5416123867034912, 0.08741720765829086, 8.700727462768555, -33.553260803222656, -104.01428985595703, 2.275144338607788, -0.18115234375, 0.2314453125, -0.92724609375, 
318, 3256154306, 0.9557541012763977, 0.019883237779140472, -0.03349224850535393, -0.2916032671928406, 1.6646310091018677, 0.1429259181022644, 8.665190696716309, -34.69246292114258, -103.40741729736328, 2.5056488513946533, -0.195068359375, 0.2333984375, -0.92138671875, 
319, 3256162639, 0.955596923828125, 0.015240728855133057, -0.039847541600465775, -0.29159894585609436, 1.7746011018753052, 0.39956796169281006, 8.862823486328125, -35.9492073059082, -102.87691497802734, 3.154233932495117, -0.206787109375, 0.23876953125, -0.916259765625, 
320, 3256170972, 0.9553948640823364, 0.010509639978408813, -0.04610934481024742, -0.2915474772453308, 1.9296886920928955, 0.4230963885784149, 8.985966682434082, -37.477420806884766, -102.04908752441406, 3.641550064086914, -0.220703125, 0.24072265625, -0.912109375, 
321, 3256179305, 0.9551412463188171, 0.005725022405385971, -0.05228868126869202, -0.2914685308933258, 2.1941654682159424, 0.2315225452184677, 9.115931510925293, -38.46198272705078, -101.17230987548828, 3.798694372177124, -0.232177734375, 0.246337890625, -0.9033203125, 
322, 3256187638, 0.9548447728157043, 0.001000046730041504, -0.05847109481692314, -0.29131948947906494, 2.394519805908203, 0.1175248771905899, 9.218482971191406, -37.63763427734375, -101.03289031982422, 4.525710105895996, -0.242431640625, 0.25146484375, -0.901123046875, 
323, 3256195971, 0.954497218132019, -0.003571251407265663, -0.06471424549818039, -0.2911180853843689, 2.480498790740967, -0.10468436032533646, 9.379298210144043, -35.307735443115234, -101.21383666992188, 4.863615989685059, -0.25244140625, 0.25732421875, -0.894287109375, 
324, 3256204304, 0.9540921449661255, -0.007945878431200981, -0.07105832546949387, -0.29087990522384644, 2.6110987663269043, -0.39199039340019226, 9.49506664276123, -32.31770324707031, -101.84637451171875, 4.957621097564697, -0.263916015625, 0.260498046875, -0.888427734375, 
325, 3256212637, 0.9536407589912415, -0.012156691402196884, -0.07750282436609268, -0.29056909680366516, 2.776897668838501, -0.6838204860687256, 9.582284927368164, -29.6734676361084, -102.51012420654297, 5.527594566345215, -0.27734375, 0.265380859375, -0.88037109375, 
326, 3256220970, 0.9531458616256714, -0.016228189691901207, -0.08407963067293167, -0.29016512632369995, 2.8784618377685547, -0.9978301525115967, 9.523216247558594, -27.254873275756836, -103.80239868164062, 6.431403160095215, -0.290771484375, 0.26806640625, -0.87451171875, 
327, 3256229303, 0.9526093006134033, -0.020149821415543556, -0.09084419906139374, -0.28964170813560486, 2.9906351566314697, -1.1045944690704346, 9.598332405090332, -24.37824058532715, -105.68123626708984, 7.5843377113342285, -0.29443359375, 0.27392578125, -0.87158203125, 
328, 3256237636, 0.9520217180252075, -0.02388901636004448, -0.09782135486602783, -0.28901663422584534, 3.1725897789001465, -1.1397031545639038, 9.767069816589355, -21.061248779296875, -107.88980865478516, 8.45508098602295, -0.3115234375, 0.277099609375, -0.860595703125, 
329, 3256245969, 0.9513753652572632, -0.027557112276554108, -0.10492405295372009, -0.2883267402648926, 3.498629093170166, -1.1806873083114624, 9.951698303222656, -19.526992797851562, -109.28543090820312, 8.89928913116455, -0.32568359375, 0.276123046875, -0.853515625, 
330, 3256254302, 0.9506751894950867, -0.03130094334483147, -0.11194737255573273, -0.2876114547252655, 3.8454501628875732, -0.8461938500404358, 10.08745002746582, -20.85285186767578, -108.70030212402344, 9.191805839538574, -0.333740234375, 0.28076171875, -0.84619140625, 
331, 3256262635, 0.9499258995056152, -0.03534620627760887, -0.11869151890277863, -0.28691357374191284, 4.0905327796936035, -0.4089847207069397, 10.016590118408203, -25.903539657592773, -106.23648071289062, 9.3142671585083, -0.348876953125, 0.283935546875, -0.838134765625, 
332, 3256270968, 0.9491124153137207, -0.03979933261871338, -0.12507933378219604, -0.28630849719047546, 4.198067665100098, -0.24764379858970642, 9.752326011657715, -32.86281967163086, -103.32532501220703, 8.728333473205566, -0.356201171875, 0.28515625, -0.833251953125, 
333, 3256279301, 0.9482187032699585, -0.044600825756788254, -0.13118861615657806, -0.28582704067230225, 4.248696804046631, -0.38091328740119934, 9.54117202758789, -38.72044372558594, -101.04798126220703, 7.506034851074219, -0.3662109375, 0.2919921875, -0.822998046875, 
334, 3256287634, 0.9472275972366333, -0.04958366975188255, -0.1371169239282608, -0.2855101525783539, 4.307750701904297, -0.5007469058036804, 9.540804862976074, -42.19581604003906, -99.5604019165039, 5.460665702819824, -0.375244140625, 0.295166015625, -0.819580078125, 
335, 3256295967, 0.9461474418640137, -0.05456353724002838, -0.14300817251205444, -0.2852930724620819, 4.377440452575684, -0.7437599897384644, 9.550131797790527, -42.50763702392578, -99.07050323486328, 3.7824795246124268, -0.388427734375, 0.302001953125, -0.807373046875, 
336, 3256304300, 0.945000410079956, -0.059351999312639236, -0.14900091290473938, -0.2850721478462219, 4.381616115570068, -1.1140919923782349, 9.596426963806152, -39.704673767089844, -99.86911010742188, 3.164940118789673, -0.396728515625, 0.302490234375, -0.80029296875, 
337, 3256312633, 0.9438037276268005, -0.06386209279298782, -0.15526801347732544, -0.28471651673316956, 4.3385138511657715, -1.269661545753479, 9.686881065368652, -34.73198699951172, -102.45294952392578, 3.874206304550171, -0.408447265625, 0.307373046875, -0.79150390625, 
338, 3256320966, 0.9425677061080933, -0.0680638998746872, -0.1617649495601654, -0.2842196524143219, 4.47340202331543, -1.0055766105651855, 9.9459867477417, -29.608600616455078, -104.53895568847656, 4.748148441314697, -0.41796875, 0.31201171875, -0.783203125, 
339, 3256329299, 0.9413034319877625, -0.07209247350692749, -0.1683407574892044, -0.28359735012054443, 4.799620151519775, -0.6656618714332581, 10.161371231079102, -26.756010055541992, -104.9569091796875, 5.747291564941406, -0.42529296875, 0.31591796875, -0.7734375, 
340, 3256337632, 0.9400277733802795, -0.0760747492313385, -0.17480024695396423, -0.28287920355796814, 5.044968128204346, -0.506385326385498, 10.20107650756836, -26.445018768310547, -103.49951934814453, 7.006165981292725, -0.4384765625, 0.3193359375, -0.765380859375, 
341, 3256345965, 0.9387272596359253, -0.08009320497512817, -0.18106640875339508, -0.2821466326713562, 5.243809223175049, -0.4871727526187897, 9.991825103759766, -27.611927032470703, -101.10335540771484, 7.327420234680176, -0.44775390625, 0.32373046875, -0.75390625, 
342, 3256354298, 0.937381386756897, -0.08425690233707428, -0.1870414763689041, -0.28151026368141174, 5.573045253753662, -0.5019762516021729, 9.693260192871094, -30.9512996673584, -98.02799224853516, 6.650477886199951, -0.457763671875, 0.325439453125, -0.749267578125, 
343, 3256362631, 0.9359855651855469, -0.08863070607185364, -0.19269856810569763, -0.2809952199459076, 5.887094020843506, -0.5247289538383484, 9.31665325164795, -35.2166862487793, -94.61116027832031, 5.7439284324646, -0.46337890625, 0.330322265625, -0.738525390625, 
344, 3256370964, 0.9345297813415527, -0.09317973256111145, -0.19805185496807098, -0.2806467115879059, 5.9456024169921875, -0.8175398707389832, 8.861162185668945, -39.20408248901367, -91.45343017578125, 4.260695934295654, -0.473876953125, 0.33251953125, -0.732177734375, 
345, 3256379297, 0.9330107569694519, -0.09786674380302429, -0.20328782498836517, -0.2803616523742676, 5.942699909210205, -1.2908954620361328, 8.774042129516602, -41.641422271728516, -90.43840789794922, 3.669360876083374, -0.482421875, 0.337890625, -0.721923828125, 
346, 3256387630, 0.9314086437225342, -0.1026187390089035, -0.2086276262998581, -0.2800667881965637, 5.857038974761963, -1.562272548675537, 8.705585479736328, -42.200862884521484, -92.3972396850586, 3.5749475955963135, -0.490478515625, 0.341064453125, -0.713134765625, 
347, 3256395963, 0.9297263622283936, -0.10728631913661957, -0.21425607800483704, -0.2796577215194702, 5.767992973327637, -1.732808232307434, 8.875556945800781, -39.751800537109375, -96.02128601074219, 4.01651668548584, -0.50048828125, 0.345458984375, -0.706298828125, 
348, 3256404296, 0.9279792904853821, -0.11179952323436737, -0.22022420167922974, -0.2790558338165283, 5.77969217300415, -1.5452086925506592, 9.366303443908691, -36.041046142578125, -100.38597106933594, 5.340275764465332, -0.50634765625, 0.34912109375, -0.696044921875, 
349, 3256412629, 0.9261581897735596, -0.116127148270607, -0.22653159499168396, -0.27828848361968994, 5.975243091583252, -1.3096024990081787, 9.821765899658203, -31.939958572387695, -104.33440399169922, 6.018755912780762, -0.513427734375, 0.3544921875, -0.685791015625, 
350, 3256420962, 0.9243004322052002, -0.12031306326389313, -0.2329326868057251, -0.2774012088775635, 6.341113567352295, -0.781404435634613, 10.186748504638672, -29.50614356994629, -105.43850708007812, 6.880197048187256, -0.52392578125, 0.359375, -0.674560546875, 
351, 3256429295, 0.9224356412887573, -0.12439435720443726, -0.23927626013755798, -0.2764071226119995, 6.44608736038208, -0.20360374450683594, 10.355504035949707, -28.0225887298584, -104.35863494873047, 7.906540870666504, -0.531982421875, 0.35888671875, -0.664794921875, 
352, 3256437628, 0.9205418229103088, -0.12842506170272827, -0.2454332411289215, -0.2754770517349243, 6.533862113952637, -0.10441457480192184, 10.006464958190918, -28.392742156982422, -101.93257141113281, 7.199708461761475, -0.541259765625, 0.362548828125, -0.656005859375, 
353, 3256445961, 0.918616771697998, -0.1324705183506012, -0.2513018846511841, -0.27469557523727417, 6.841965198516846, -0.18479101359844208, 9.559806823730469, -30.191526412963867, -98.03218078613281, 5.699310302734375, -0.54931640625, 0.363525390625, -0.644775390625, 
354, 3256454294, 0.9166845679283142, -0.1364862322807312, -0.25684452056884766, -0.2740572392940521, 7.223371505737305, -0.2213398963212967, 9.206491470336914, -31.592945098876953, -93.71593475341797, 4.4180450439453125, -0.5537109375, 0.365966796875, -0.635498046875, 
355, 3256462627, 0.914757490158081, -0.14047634601593018, -0.2620685398578644, -0.2735339403152466, 7.356406211853027, -0.49268046021461487, 8.883780479431152, -32.83612060546875, -89.21333312988281, 3.4374194145202637, -0.56494140625, 0.37255859375, -0.625732421875, 
356, 3256470960, 0.9128586649894714, -0.14436012506484985, -0.26702290773391724, -0.27306342124938965, 7.290068626403809, -1.3787345886230469, 8.626396179199219, -32.67934036254883, -85.37371063232422, 3.0716941356658936, -0.56982421875, 0.37548828125, -0.615966796875, 
357, 3256479293, 0.9109854102134705, -0.14807094633579254, -0.27189111709594727, -0.27252793312072754, 7.237226486206055, -2.2343523502349854, 8.587846755981445, -30.515527725219727, -83.51273345947266, 3.468639850616455, -0.576171875, 0.375, -0.604248046875, 
358, 3256487626, 0.9091075658798218, -0.15160265564918518, -0.2767830193042755, -0.2719317674636841, 7.314968109130859, -2.7708077430725098, 8.567999839782715, -27.990684509277344, -83.444091796875, 3.544329881668091, -0.584716796875, 0.381103515625, -0.59765625, 
359, 3256495959, 0.9071794152259827, -0.1549977958202362, -0.28181082010269165, -0.27129215002059937, 7.417641639709473, -3.0706241130828857, 8.352351188659668, -25.686208724975586, -84.74454498291016, 3.039700746536255, -0.588623046875, 0.3818359375, -0.58837890625, 
360, 3256504292, 0.9051965475082397, -0.1581534445285797, -0.2870340347290039, -0.27061766386032104, 7.372705459594727, -3.2490978240966797, 8.141185760498047, -21.981319427490234, -86.74346160888672, 1.9834908246994019, -0.59619140625, 0.38427734375, -0.578125, 
361, 3256512625, 0.9031469225883484, -0.16111484169960022, -0.2925395369529724, -0.26982149481773376, 7.1627326011657715, -2.988882541656494, 8.290816307067871, -18.142440795898438, -89.88873291015625, 1.801756739616394, -0.60205078125, 0.385986328125, -0.5712890625, 
362, 3256520958, 0.9010215401649475, -0.16396892070770264, -0.2982766032218933, -0.26892560720443726, 7.011861324310303, -2.368065595626831, 8.705927848815918, -15.750906944274902, -93.06714630126953, 1.8829814195632935, -0.6064453125, 0.385986328125, -0.560546875, 
363, 3256529291, 0.898772120475769, -0.16690844297409058, -0.30410271883010864, -0.26811784505844116, 7.110908031463623, -1.8979249000549316, 8.7889404296875, -17.085346221923828, -94.62017822265625, 0.40866562724113464, -0.614990234375, 0.38720703125, -0.55224609375, 
364, 3256537624, 0.8964146971702576, -0.17005451023578644, -0.30978265404701233, -0.26752978563308716, 7.2967047691345215, -1.6840018033981323, 8.647285461425781, -21.380863189697266, -93.69879913330078, -1.4335123300552368, -0.62158203125, 0.392578125, -0.54052734375, 
365, 3256545957, 0.8939875960350037, -0.17350241541862488, -0.31522631645202637, -0.2670786380767822, 7.271486282348633, -1.4748108386993408, 8.373058319091797, -26.680540084838867, -91.69647979736328, -1.611993670463562, -0.62744140625, 0.3916015625, -0.5302734375, 
366, 3256554290, 0.8915263414382935, -0.1771337389945984, -0.320438951253891, -0.26671886444091797, 7.138344764709473, -1.6617690324783325, 8.043617248535156, -30.29737091064453, -89.63754272460938, -1.4419134855270386, -0.63525390625, 0.392333984375, -0.5224609375, 
367, 3256562623, 0.8890632390975952, -0.18085432052612305, -0.32545727491378784, -0.2663674056529999, 7.193021297454834, -2.135425567626953, 7.70649528503418, -32.111839294433594, -87.39368438720703, -0.7582639455795288, -0.639404296875, 0.395751953125, -0.51025390625, 
368, 3256570956, 0.8866645693778992, -0.18440140783786774, -0.3303558826446533, -0.2659001648426056, 7.400517463684082, -2.59733247756958, 7.318816184997559, -29.785629272460938, -85.46946716308594, 0.48955556750297546, -0.6484375, 0.39990234375, -0.5009765625, 
369, 3256579289, 0.8843483924865723, -0.18767906725406647, -0.3352281451225281, -0.26522111892700195, 7.634596824645996, -2.957064151763916, 7.00431489944458, -25.390079498291016, -84.14878845214844, 2.1408395767211914, -0.65283203125, 0.400390625, -0.4921875, 
370, 3256587622, 0.882127583026886, -0.19066953659057617, -0.3400665521621704, -0.2643221914768219, 7.870003700256348, -2.895724296569824, 6.635370254516602, -20.795024871826172, -82.9942626953125, 4.00062370300293, -0.65673828125, 0.402587890625, -0.482666015625, 
371, 3256595955, 0.8799632787704468, -0.19343790411949158, -0.34498700499534607, -0.2631457448005676, 7.916758060455322, -2.8528425693511963, 6.313340187072754, -16.320161819458008, -83.46415710449219, 6.237092971801758, -0.662109375, 0.403564453125, -0.469970703125, 
372, 3256604288, 0.8778201937675476, -0.1959877908229828, -0.35014739632606506, -0.26159676909446716, 7.8028950691223145, -2.9368841648101807, 6.221251964569092, -11.021598815917969, -86.65022277832031, 9.228474617004395, -0.667724609375, 0.40625, -0.461669921875, 
373, 3256612621, 0.8756515979766846, -0.19831141829490662, -0.3556421995162964, -0.2596939504146576, 8.005702018737793, -2.6744067668914795, 6.725152969360352, -5.4144792556762695, -90.76033782958984, 11.32776165008545, -0.672119140625, 0.40673828125, -0.449951171875, 
374, 3256620954, 0.8734675049781799, -0.20051124691963196, -0.3612784147262573, -0.25757163763046265, 8.437948226928711, -1.9278467893600464, 7.4409308433532715, -2.4258408546447754, -92.8849105834961, 13.015707015991211, -0.676025390625, 0.40966796875, -0.4423828125, 
375, 3256629287, 0.8712759017944336, -0.20280416309833527, -0.3667472004890442, -0.25546199083328247, 8.70377254486084, -1.143548846244812, 7.906216144561768, -4.182298183441162, -91.01351928710938, 13.66651439666748, -0.68017578125, 0.412109375, -0.4326171875, 
376, 3256637620, 0.8690688610076904, -0.205396831035614, -0.3718224763870239, -0.2535654902458191, 8.728800773620605, -0.6563760638237, 7.834410667419434, -10.313233375549316, -87.0283203125, 13.760869026184082, -0.68603515625, 0.412841796875, -0.42236328125, 
377, 3256645953, 0.866817057132721, -0.20839156210422516, -0.376510888338089, -0.25190526247024536, 8.64466667175293, -0.7653512358665466, 7.357882022857666, -17.763460159301758, -83.1791000366211, 13.845853805541992, -0.68701171875, 0.41552734375, -0.415283203125, 
378, 3256654286, 0.8645554780960083, -0.21164388954639435, -0.38082852959632874, -0.25047141313552856, 8.734445571899414, -1.2060184478759766, 6.870351314544678, -23.35655975341797, -79.23999786376953, 13.59372329711914, -0.69189453125, 0.41748046875, -0.402587890625, 
379, 3256662619, 0.8623278737068176, -0.2149602472782135, -0.384853720664978, -0.24917066097259521, 8.800810813903809, -1.6297667026519775, 6.669186592102051, -25.693326950073242, -75.23247528076172, 13.235757827758789, -0.697021484375, 0.419677734375, -0.394287109375, 
380, 3256670952, 0.8601717948913574, -0.21824753284454346, -0.3886106610298157, -0.24793127179145813, 8.809776306152344, -2.0344581604003906, 6.738760471343994, -26.409055709838867, -71.58026885986328, 13.472428321838379, -0.699462890625, 0.42236328125, -0.38525390625, 
381, 3256679285, 0.8580656051635742, -0.2215157151222229, -0.39217352867126465, -0.246717631816864, 8.81895637512207, -2.2882895469665527, 6.622817516326904, -26.804838180541992, -68.6855239868164, 13.739068031311035, -0.701904296875, 0.426513671875, -0.3740234375, 
382, 3256687618, 0.8559834957122803, -0.22467224299907684, -0.3956478536128998, -0.24554665386676788, 8.78683853149414, -2.5056540966033936, 6.359816074371338, -25.973058700561523, -67.19226837158203, 13.06200122833252, -0.70458984375, 0.42919921875, -0.365966796875, 
383, 3256695951, 0.8538848757743835, -0.22763291001319885, -0.39922618865966797, -0.24433176219463348, 8.708077430725098, -2.506283760070801, 6.080543518066406, -23.101228713989258, -67.78939056396484, 12.05717658996582, -0.70654296875, 0.4306640625, -0.359130859375, 
384, 3256704284, 0.8517357707023621, -0.23026373982429504, -0.4030980169773102, -0.24300716817378998, 8.568689346313477, -2.3917486667633057, 6.006659030914307, -17.825313568115234, -70.9380111694336, 10.52759075164795, -0.708984375, 0.433837890625, -0.35009765625, 
385, 3256712617, 0.849497377872467, -0.2325267344713211, -0.40736913681030273, -0.24156087636947632, 8.554316520690918, -2.486111879348755, 6.147298812866211, -11.762551307678223, -75.07521057128906, 8.270174026489258, -0.71240234375, 0.4345703125, -0.34033203125, 
386, 3256720950, 0.8471755981445312, -0.23444683849811554, -0.4120146632194519, -0.23997455835342407, 8.618413925170898, -2.5059125423431396, 6.400607585906982, -6.024552822113037, -79.41499328613281, 6.591745853424072, -0.71435546875, 0.435546875, -0.33056640625, 
387, 3256729283, 0.8447573184967041, -0.23616118729114532, -0.4169352650642395, -0.23831452429294586, 8.794090270996094, -2.2999351024627686, 6.703951835632324, -2.585721492767334, -82.53752136230469, 4.99661111831665, -0.71923828125, 0.436279296875, -0.322265625, 
388, 3256737616, 0.8422510623931885, -0.23780548572540283, -0.4219501316547394, -0.23671884834766388, 8.919342994689941, -2.0396299362182617, 6.807473659515381, -2.1456668376922607, -83.8867416381836, 3.334392547607422, -0.72119140625, 0.43603515625, -0.310791015625, 
389, 3256745949, 0.8396531939506531, -0.239605113863945, -0.4268949031829834, -0.23526239395141602, 8.931182861328125, -1.8420078754425049, 6.689248561859131, -5.2542290687561035, -83.47289276123047, 2.4734668731689453, -0.724609375, 0.438720703125, -0.302978515625, 
390, 3256754282, 0.8370189070701599, -0.24155007302761078, -0.43166735768318176, -0.23394861817359924, 8.867345809936523, -1.7856736183166504, 6.464629173278809, -8.471831321716309, -81.88050079345703, 2.209202527999878, -0.72607421875, 0.4404296875, -0.29248046875, 
391, 3256762615, 0.8343666195869446, -0.2436213195323944, -0.4362555146217346, -0.23276139795780182, 8.896649360656738, -1.9439188241958618, 6.148751735687256, -11.309134483337402, -79.67656707763672, 1.979338526725769, -0.7275390625, 0.43994140625, -0.2822265625, 
392, 3256770948, 0.8317465782165527, -0.24572861194610596, -0.44061142206192017, -0.23171617090702057, 9.009077072143555, -2.0537683963775635, 5.810501575469971, -13.229924201965332, -76.6331558227539, 1.5257840156555176, -0.733642578125, 0.441162109375, -0.2734375, 
393, 3256779281, 0.8291829228401184, -0.24778181314468384, -0.44479116797447205, -0.23072999715805054, 9.101902961730957, -2.1197471618652344, 5.600255966186523, -13.321415901184082, -73.73127746582031, 1.2190003395080566, -0.7353515625, 0.44140625, -0.262451171875, 
394, 3256787614, 0.8267127275466919, -0.24972805380821228, -0.4487939476966858, -0.22974295914173126, 9.134190559387207, -2.234321117401123, 5.464110374450684, -12.35892391204834, -70.97944641113281, 1.5538817644119263, -0.7373046875, 0.442626953125, -0.251220703125, 
395, 3256795947, 0.8243430852890015, -0.25151050090789795, -0.4526682496070862, -0.228709414601326, 9.18293285369873, -2.3989341259002686, 5.430680751800537, -10.24996280670166, -68.3697509765625, 1.7531864643096924, -0.740966796875, 0.442626953125, -0.244873046875, 
396, 3256804280, 0.8220840096473694, -0.253124475479126, -0.4564254581928253, -0.22759035229682922, 9.27277660369873, -2.4537506103515625, 5.416754722595215, -7.813985824584961, -66.29064178466797, 2.503225088119507, -0.741455078125, 0.445556640625, -0.234375, 
397, 3256812613, 0.81989586353302, -0.2546429932117462, -0.4601021111011505, -0.22638309001922607, 9.317361831665039, -2.3449604511260986, 5.340613842010498, -6.168519973754883, -64.77619934082031, 3.3264689445495605, -0.741455078125, 0.447265625, -0.22802734375, 
398, 3256820946, 0.8177564144134521, -0.2560875415802002, -0.46371689438819885, -0.22511281073093414, 9.325597763061523, -2.1693527698516846, 5.163974285125732, -4.976198196411133, -63.92787170410156, 4.0145978927612305, -0.74560546875, 0.445068359375, -0.22119140625, 
399, 3256829279, 0.8156248331069946, -0.25755447149276733, -0.4672817587852478, -0.2237972468137741, 9.377184867858887, -2.0351309776306152, 5.0543951988220215, -5.048915863037109, -63.380760192871094, 4.790096282958984, -0.748291015625, 0.44580078125, -0.2109375, 
400, 3256837612, 0.8134863376617432, -0.2590447962284088, -0.47080475091934204, -0.2224731594324112, 9.391315460205078, -2.069725513458252, 4.916869640350342, -5.426830291748047, -63.22071838378906, 5.239269733428955, -0.745849609375, 0.4482421875, -0.206787109375, 
401, 3256845945, 0.8113309144973755, -0.26052454113960266, -0.4743554890155792, -0.2210688292980194, 9.322053909301758, -2.1844639778137207, 4.895888805389404, -4.7492804527282715, -63.735233306884766, 5.844254016876221, -0.747802734375, 0.448974609375, -0.198974609375, 
402, 3256854278, 0.8091598749160767, -0.2619737386703491, -0.47795847058296204, -0.21954777836799622, 9.295331001281738, -2.1081533432006836, 5.111382961273193, -3.5594444274902344, -64.90418243408203, 6.786478519439697, -0.74853515625, 0.4462890625, -0.19091796875, 
403, 3256862611, 0.806961178779602, -0.263384610414505, -0.48161083459854126, -0.21796534955501556, 9.366277694702148, -2.1106626987457275, 5.240742206573486, -2.666452169418335, -65.58543395996094, 6.882763385772705, -0.74951171875, 0.449951171875, -0.18115234375, 
404, 3256870944, 0.8047564029693604, -0.264798104763031, -0.485228955745697, -0.21637411415576935, 9.443233489990234, -2.1575937271118164, 5.251170635223389, -2.774775266647339, -65.44172668457031, 7.176816463470459, -0.7529296875, 0.45068359375, -0.174072265625, 
405, 3256879277, 0.8025758266448975, -0.26621341705322266, -0.4887535572052002, -0.21479739248752594, 9.49572467803955, -2.0747928619384766, 5.180339336395264, -3.0704660415649414, -64.04915618896484, 7.367486953735352, -0.75146484375, 0.451416015625, -0.166748046875, 
406, 3256887610, 0.8004449605941772, -0.2676147520542145, -0.4921267628669739, -0.21330086886882782, 9.51975154876709, -1.9167673587799072, 5.1337151527404785, -3.7332875728607178, -61.857330322265625, 7.1635966300964355, -0.7529296875, 0.453857421875, -0.1591796875, 
407, 3256895943, 0.7983591556549072, -0.26898494362831116, -0.4953605830669403, -0.21190424263477325, 9.537561416625977, -1.6753594875335693, 4.999576568603516, -4.297646522521973, -59.41847229003906, 6.427181720733643, -0.7529296875, 0.4521484375, -0.1533203125, 
408, 3256904276, 0.796332597732544, -0.27028584480285645, -0.4984382092952728, -0.21065399050712585, 9.53853988647461, -1.5341100692749023, 4.850563049316406, -4.780782222747803, -56.6964225769043, 5.170413970947266, -0.75390625, 0.455810546875, -0.143798828125, 
409, 3256912609, 0.7943623065948486, -0.27152618765830994, -0.5013694763183594, -0.2095380425453186, 9.49583625793457, -1.5695692300796509, 4.71403694152832, -5.243657112121582, -53.90047836303711, 3.9245076179504395, -0.7568359375, 0.4541015625, -0.13671875, 
410, 3256920942, 0.7924478054046631, -0.27269741892814636, -0.5041747093200684, -0.20853330194950104, 9.454323768615723, -1.7010432481765747, 4.7216267585754395, -5.420010566711426, -51.6591682434082, 2.9306979179382324, -0.7548828125, 0.45751953125, -0.132080078125, 
411, 3256929275, 0.7905725240707397, -0.27382880449295044, -0.5068896412849426, -0.20758476853370667, 9.477860450744629, -1.732116937637329, 4.766514778137207, -5.479024887084961, -49.95206832885742, 2.4329352378845215, -0.75732421875, 0.457275390625, -0.123779296875, 
412, 3256937608, 0.7887574434280396, -0.2749204933643341, -0.5094791650772095, -0.20670567452907562, 9.438262939453125, -1.7084659337997437, 4.722043991088867, -5.670900344848633, -47.92082214355469, 2.1051743030548096, -0.75439453125, 0.458740234375, -0.11865234375, 
413, 3256945941, 0.7870038747787476, -0.27595239877700806, -0.5120062232017517, -0.20576807856559753, 9.216163635253906, -1.91055428981781, 4.8235626220703125, -4.551402568817139, -46.74368667602539, 2.677269220352173, -0.7548828125, 0.45751953125, -0.11328125, 
414, 3256954274, 0.7853075861930847, -0.2769157886505127, -0.5145242214202881, -0.2046707719564438, 9.090213775634766, -2.169670820236206, 5.021072864532471, -2.499518871307373, -46.77253341674805, 4.173399925231934, -0.75732421875, 0.4599609375, -0.106201171875, 
415, 3256962607, 0.7836954593658447, -0.27774283289909363, -0.5170358419418335, -0.2033965140581131, 9.288875579833984, -2.2654144763946533, 5.156973838806152, 0.5325849652290344, -46.291770935058594, 5.329858779907227, -0.7578125, 0.458740234375, -0.098876953125, 
416, 3256970940, 0.7822109460830688, -0.2784452438354492, -0.5194538831710815, -0.2019844651222229, 9.590202331542969, -2.1275765895843506, 5.376483917236328, 3.076108932495117, -44.66162872314453, 6.694869041442871, -0.7578125, 0.461181640625, -0.095458984375, 
417, 3256979273, 0.7808469533920288, -0.2791385352611542, -0.5216989517211914, -0.20051296055316925, 9.755165100097656, -1.7920585870742798, 5.500865459442139, 3.5837576389312744, -42.04693603515625, 8.21640682220459, -0.75732421875, 0.46044921875, -0.092041015625, 
418, 3256987606, 0.7796006798744202, -0.2798861265182495, -0.5236638188362122, -0.1991943120956421, 9.979452133178711, -1.3482543230056763, 5.406893253326416, 1.5793373584747314, -37.85197830200195, 8.414095878601074, -0.75732421875, 0.4619140625, -0.0869140625, 
419, 3256995939, 0.7784836292266846, -0.28084689378738403, -0.5251901745796204, -0.19818976521492004, 10.288640975952148, -0.9539281129837036, 5.180874824523926, -3.668550491333008, -31.513912200927734, 8.579790115356445, -0.755126953125, 0.462890625, -0.08154296875, 
420, 3257004272, 0.7774941921234131, -0.28208398818969727, -0.526186466217041, -0.19767388701438904, 10.463068962097168, -0.5764808654785156, 4.831429481506348, -11.111001968383789, -23.86543846130371, 7.783953666687012, -0.755126953125, 0.46337890625, -0.078369140625, 
421, 3257012605, 0.7766103744506836, -0.28349602222442627, -0.5267620086669922, -0.19759465754032135, 10.19659423828125, -0.6825206875801086, 4.444370269775391, -16.87074851989746, -17.31456756591797, 6.2664618492126465, -0.75634765625, 0.4677734375, -0.074462890625, 
422, 3257020938, 0.7758214473724365, -0.2849525213241577, -0.5270541310310364, -0.19781935214996338, 9.839947700500488, -1.1057075262069702, 4.442657470703125, -19.952346801757812, -12.607563972473145, 4.7395453453063965, -0.754638671875, 0.466064453125, -0.071044921875, 
423, 3257029271, 0.7751204967498779, -0.2863617539405823, -0.5271766185760498, -0.19820576906204224, 9.567704200744629, -1.5302950143814087, 4.6594672203063965, -20.7342472076416, -9.335803985595703, 3.553349494934082, -0.75439453125, 0.467041015625, -0.06982421875, 
424, 3257037604, 0.77451092004776, -0.28763115406036377, -0.5271921753883362, -0.19870847463607788, 9.365147590637207, -1.8783516883850098, 4.998469352722168, -20.020376205444336, -6.756038665771484, 1.9909567832946777, -0.75439453125, 0.468017578125, -0.06884765625, 
425, 3257045937, 0.7739753723144531, -0.2887541949748993, -0.5271720886230469, -0.19921903312206268, 9.297045707702637, -2.2158010005950928, 5.2116780281066895, -18.32255744934082, -5.360753536224365, 1.1752710342407227, -0.75732421875, 0.468505859375, -0.0654296875, 
426, 3257054270, 0.7735270261764526, -0.28964561223983765, -0.5271596312522888, -0.19969883561134338, 9.239742279052734, -2.527538299560547, 5.1737446784973145, -15.267699241638184, -4.345276832580566, 0.04801389202475548, -0.75537109375, 0.470947265625, -0.06494140625, 
427, 3257062603, 0.7731667160987854, -0.2902463674545288, -0.5272136330604553, -0.20007911324501038, 9.193171501159668, -2.5814692974090576, 4.969667434692383, -10.917197227478027, -3.979581117630005, -1.0387595891952515, -0.75634765625, 0.4677734375, -0.060546875, 
428, 3257070936, 0.7728615999221802, -0.29057881236076355, -0.5273599624633789, -0.20038986206054688, 9.105541229248047, -2.2207846641540527, 4.760016441345215, -7.0910444259643555, -4.131319999694824, -2.4460058212280273, -0.75537109375, 0.46875, -0.06103515625, 
429, 3257079269, 0.7725759744644165, -0.29072368144989014, -0.5275832414627075, -0.2006928026676178, 9.036296844482422, -1.6566461324691772, 4.483381748199463, -4.750825881958008, -4.30439567565918, -3.9925167560577393, -0.755615234375, 0.46728515625, -0.05908203125, 
430, 3257087602, 0.7722930908203125, -0.2907734513282776, -0.5278158187866211, -0.20109747350215912, 8.983077049255371, -1.35547935962677, 4.224664211273193, -4.440483570098877, -3.7337100505828857, -5.778213024139404, -0.754150390625, 0.468505859375, -0.060546875, 
431, 3257095935, 0.7720075845718384, -0.2907829284667969, -0.5280337929725647, -0.20160764455795288, 8.925240516662598, -1.4674128293991089, 4.005731105804443, -4.83025598526001, -3.056265354156494, -7.1495232582092285, -0.755615234375, 0.466796875, -0.0595703125, 
432, 3257104268, 0.7717288732528687, -0.2907714247703552, -0.5282139778137207, -0.20221862196922302, 8.904925346374512, -1.6636508703231812, 3.857417345046997, -5.415719985961914, -2.1515703201293945, -8.192816734313965, -0.755615234375, 0.4638671875, -0.05712890625, 
433, 3257112601, 0.7714885473251343, -0.29071223735809326, -0.528334379196167, -0.20290488004684448, 8.924928665161133, -1.8974837064743042, 3.73315691947937, -5.4705095291137695, -0.8054653406143188, -8.99456787109375, -0.758544921875, 0.462646484375, -0.059326171875, 
434, 3257120934, 0.771281898021698, -0.2906353175640106, -0.52838134765625, -0.20367640256881714, 8.91921615600586, -2.048975944519043, 3.583254814147949, -5.971882343292236, 0.6096060276031494, -9.637100219726562, -0.754638671875, 0.46337890625, -0.056640625, 
435, 3257129267, 0.7710821628570557, -0.2906258702278137, -0.5283471345901489, -0.20453386008739471, 8.99796199798584, -2.172497272491455, 3.5093460083007812, -7.510887622833252, 1.6669104099273682, -9.717426300048828, -0.756103515625, 0.462158203125, -0.05712890625, 
436, 3257137600, 0.7708871364593506, -0.2907242774963379, -0.5282186269760132, -0.20545843243598938, 9.049711227416992, -2.2838547229766846, 3.3808817863464355, -9.389948844909668, 2.673755168914795, -9.251145362854004, -0.759521484375, 0.463134765625, -0.056884765625, 
437, 3257145933, 0.7707167267799377, -0.290882408618927, -0.528018593788147, -0.20638638734817505, 9.091910362243652, -2.754120349884033, 3.367555856704712, -10.15105152130127, 3.4438729286193848, -8.501623153686523, -0.759521484375, 0.460205078125, -0.058837890625, 
438, 3257154266, 0.7705739736557007, -0.29106050729751587, -0.5277963876724243, -0.20723456144332886, 9.148038864135742, -3.128715753555298, 3.302013397216797, -9.733948707580566, 3.5157206058502197, -7.3419880867004395, -0.760986328125, 0.459716796875, -0.058349609375, 
439, 3257162599, 0.7704933881759644, -0.29116037487983704, -0.527587354183197, -0.20792493224143982, 9.1668701171875, -3.3008437156677246, 3.324631452560425, -7.475488662719727, 3.403939723968506, -6.117550373077393, -0.75927734375, 0.457763671875, -0.057861328125, 
440, 3257170932, 0.7704652547836304, -0.2911316752433777, -0.527439534664154, -0.20844386518001556, 9.24945068359375, -3.333146333694458, 3.3360064029693604, -4.484002590179443, 2.830974817276001, -5.324457168579102, -0.760498046875, 0.4580078125, -0.058349609375, 
441, 3257179265, 0.7704828381538391, -0.29097238183021545, -0.5273730754852295, -0.20876942574977875, 9.276108741760254, -3.171304702758789, 3.2547781467437744, -1.280635118484497, 1.8824031352996826, -4.428932189941406, -0.763427734375, 0.45751953125, -0.055419921875, 
442, 3257187598, 0.7705284357070923, -0.2906858026981354, -0.5273852348327637, -0.20896948873996735, 9.248607635498047, -3.0361249446868896, 3.1576004028320312, 1.3145354986190796, 1.13487708568573, -4.244791507720947, -0.76025390625, 0.457275390625, -0.058837890625, 
443, 3257195931, 0.7705948948860168, -0.29035061597824097, -0.5274335741996765, -0.20906813442707062, 9.28754997253418, -2.9067399501800537, 3.1097288131713867, 2.7535431385040283, 0.6174440383911133, -3.626002788543701, -0.762451171875, 0.4580078125, -0.058837890625, 
444, 3257204264, 0.7706803679466248, -0.29003608226776123, -0.5274372696876526, -0.20918035507202148, 9.345003128051758, -2.6619691848754883, 3.0453031063079834, 2.382777214050293, 1.2423800230026245, -3.367708683013916, -0.76025390625, 0.455078125, -0.058837890625, 
445, 3257212597, 0.7707698941230774, -0.2898428440093994, -0.5273315906524658, -0.20938453078269958, 9.35522174835205, -2.5031416416168213, 3.0109801292419434, 0.132387176156044, 2.4259114265441895, -3.0365161895751953, -0.761474609375, 0.458740234375, -0.059814453125, 
