sep=,
PacketCounter,SampleTimeFine,Quat_W,Quat_X,Quat_Y,Quat_Z,Acc_X,Acc_Y,Acc_Z,Gyr_X,Gyr_Y,Gyr_Z,Mag_X,Mag_Y,Mag_Z,
0, 3636539090, 0.5949922204017639, -0.6002016067504883, -0.2393074631690979, -0.47801101207733154, 0, 0, 0, 0, 0, 0, -0.784423828125, 0.301513671875, 0.15966796875, 
1, 3636547423, 0.5950049161911011, -0.600241482257843, -0.23911607265472412, -0.4780407249927521, 8.38829231262207, -4.8530707359313965, 1.5808229446411133, -2.041313648223877, 0.9443200826644897, 1.3146251440048218, -0.783203125, 0.300537109375, 0.1591796875, 
2, 3636555756, 0.5950222611427307, -0.6002678871154785, -0.2389601767063141, -0.47806403040885925, 8.404234886169434, -4.8788862228393555, 1.5890194177627563, -1.6733908653259277, 0.6759085059165955, 1.1586343050003052, -0.78271484375, 0.301513671875, 0.15966796875, 
3, 3636564089, 0.5950503349304199, -0.6002859473228455, -0.2388288676738739, -0.4780718684196472, 8.395034790039062, -4.862917900085449, 1.5645209550857544, -1.2676868438720703, 0.46584606170654297, 1.0269770622253418, -0.784912109375, 0.302490234375, 0.15771484375, 
4, 3636572422, 0.5950940847396851, -0.6002807021141052, -0.23873202502727509, -0.4780726134777069, 8.43608570098877, -4.895248889923096, 1.5758075714111328, -0.7337837815284729, 0.3003269135951996, 0.925109326839447, -0.783203125, 0.300048828125, 0.158203125, 
5, 3636580755, 0.5951534509658813, -0.6002650856971741, -0.23864628374576569, -0.4780610501766205, 8.475003242492676, -4.884633541107178, 1.535078763961792, -0.3708813190460205, 0.2568339407444, 0.9041568636894226, -0.786865234375, 0.300537109375, 0.15625, 
6, 3636589088, 0.5952221751213074, -0.6002362370491028, -0.2385779321193695, -0.47804564237594604, 8.481675148010254, -4.859862804412842, 1.5297211408615112, -0.09506723284721375, 0.17248626053333282, 0.9082551002502441, -0.78271484375, 0.300048828125, 0.15869140625, 
7, 3636597421, 0.5953006744384766, -0.6002041697502136, -0.23850184679031372, -0.4780263304710388, 8.481176376342773, -4.874233245849609, 1.5323535203933716, 0.014113442040979862, 0.28803205490112305, 0.9583821892738342, -0.785400390625, 0.300048828125, 0.1572265625, 
8, 3636605754, 0.5953733325004578, -0.6001818776130676, -0.23842304944992065, -0.4780031442642212, 8.484331130981445, -4.8778462409973145, 1.5276399850845337, -0.15964071452617645, 0.16244547069072723, 1.106611728668213, -0.784912109375, 0.301513671875, 0.15673828125, 
9, 3636614087, 0.5954473614692688, -0.6001700758934021, -0.23833772540092468, -0.4779681861400604, 8.483171463012695, -4.873467922210693, 1.5543843507766724, -0.19949647784233093, 0.08629436790943146, 1.1991047859191895, -0.783203125, 0.301025390625, 0.15869140625, 
10, 3636622420, 0.5955085158348083, -0.6001628637313843, -0.23825904726982117, -0.477940171957016, 8.4785795211792, -4.8378753662109375, 1.5779528617858887, -0.3618650734424591, -0.01607293076813221, 1.1197519302368164, -0.784423828125, 0.300537109375, 0.1572265625, 
11, 3636630753, 0.5955592393875122, -0.6001783013343811, -0.23815733194351196, -0.47790834307670593, 8.50209903717041, -4.862853050231934, 1.5818153619766235, -0.7311967611312866, -0.0061602238565683365, 1.2462862730026245, -0.785888671875, 0.30029296875, 0.15771484375, 
12, 3636639086, 0.595596969127655, -0.6001986265182495, -0.2380564659833908, -0.47788602113723755, 8.491497039794922, -4.860607624053955, 1.5732753276824951, -0.9440255165100098, -0.04442789405584335, 1.1910362243652344, -0.785888671875, 0.302001953125, 0.15869140625, 
13, 3636647419, 0.595618486404419, -0.6002463698387146, -0.23794865608215332, -0.47785288095474243, 8.505378723144531, -4.887908935546875, 1.580235481262207, -1.2731682062149048, -0.274699866771698, 1.2207999229431152, -0.783447265625, 0.302490234375, 0.15869140625, 
14, 3636655752, 0.5956406593322754, -0.6002867221832275, -0.2378481924533844, -0.47782468795776367, 8.508720397949219, -4.907506465911865, 1.604457139968872, -1.215075135231018, -0.27954092621803284, 1.2000012397766113, -0.78271484375, 0.299560546875, 0.15576171875, 
15, 3636664085, 0.5956725478172302, -0.600326657295227, -0.23775732517242432, -0.4777800440788269, 8.504830360412598, -4.923373222351074, 1.6313917636871338, -0.974967360496521, -0.4231087267398834, 1.2170346975326538, -0.784912109375, 0.302001953125, 0.15673828125, 
16, 3636672418, 0.5957120060920715, -0.60035240650177, -0.23767733573913574, -0.4777381122112274, 8.498823165893555, -4.9130096435546875, 1.6625641584396362, -0.7735882997512817, -0.4079451262950897, 1.210349440574646, -0.784912109375, 0.301025390625, 0.15673828125, 
17, 3636680751, 0.5957732796669006, -0.600378692150116, -0.23759117722511292, -0.47767168283462524, 8.460089683532715, -4.876114368438721, 1.6898305416107178, -0.5180606842041016, -0.45789283514022827, 1.5057584047317505, -0.784912109375, 0.301513671875, 0.1552734375, 
18, 3636689084, 0.5958341956138611, -0.60040682554245, -0.23747378587722778, -0.47761866450309753, 8.419502258300781, -4.852452754974365, 1.7003214359283447, -0.8263792991638184, -0.1389700472354889, 1.7569829225540161, -0.79150390625, 0.30419921875, 0.15673828125, 
19, 3636697417, 0.5958935618400574, -0.6004653573036194, -0.23729638755321503, -0.47755905985832214, 8.395551681518555, -4.824814319610596, 1.6878976821899414, -1.4198609590530396, 0.12930065393447876, 2.2960853576660156, -0.792724609375, 0.30224609375, 0.156494140625, 
20, 3636705750, 0.5959610342979431, -0.6005290746688843, -0.23709988594055176, -0.4774922728538513, 8.33188247680664, -4.8144025802612305, 1.6540011167526245, -1.5375072956085205, 0.18393582105636597, 2.6820664405822754, -0.784423828125, 0.302001953125, 0.15673828125, 
21, 3636714083, 0.5960632562637329, -0.6005803942680359, -0.23689953982830048, -0.477400004863739, 8.325127601623535, -4.810732364654541, 1.5665514469146729, -1.0537055730819702, 0.23372986912727356, 3.0104665756225586, -0.786865234375, 0.303466796875, 0.15283203125, 
22, 3636722416, 0.5961934328079224, -0.6006047129631042, -0.23670721054077148, -0.4773018956184387, 8.360718727111816, -4.815008640289307, 1.5295391082763672, -0.568085253238678, 0.3549620509147644, 3.188690185546875, -0.785888671875, 0.303466796875, 0.15673828125, 
23, 3636730749, 0.5963466167449951, -0.600618302822113, -0.23649924993515015, -0.4771965444087982, 8.372032165527344, -4.8070573806762695, 1.5108240842819214, -0.3285922408103943, 0.6014735102653503, 3.3918371200561523, -0.786865234375, 0.302978515625, 0.15625, 
24, 3636739082, 0.5965113043785095, -0.6006211042404175, -0.23629790544509888, -0.47708678245544434, 8.43273639678955, -4.809341907501221, 1.4842864274978638, -0.12603485584259033, 0.5851315855979919, 3.514939069747925, -0.785400390625, 0.305419921875, 0.154296875, 
25, 3636747415, 0.5966955423355103, -0.6006070971488953, -0.23611235618591309, -0.4769660234451294, 8.453390121459961, -4.797243595123291, 1.5094691514968872, 0.35693439841270447, 0.5712487697601318, 3.449904680252075, -0.787353515625, 0.304931640625, 0.15380859375, 
26, 3636755748, 0.5968905091285706, -0.6005685329437256, -0.23594889044761658, -0.4768517017364502, 8.497354507446289, -4.768580436706543, 1.5593892335891724, 0.7277771830558777, 0.606698751449585, 3.3037495613098145, -0.785888671875, 0.305419921875, 0.154296875, 
27, 3636764081, 0.5970826745033264, -0.6005328297615051, -0.23577457666397095, -0.4767422676086426, 8.490896224975586, -4.707512378692627, 1.5805038213729858, 0.6343109011650085, 0.7436324954032898, 3.2482693195343018, -0.784912109375, 0.304443359375, 0.1552734375, 
28, 3636772414, 0.5972539782524109, -0.6005012392997742, -0.23558181524276733, -0.47666269540786743, 8.482551574707031, -4.647336483001709, 1.5834897756576538, 0.1690027266740799, 1.0116597414016724, 3.127856731414795, -0.78662109375, 0.306884765625, 0.15576171875, 
29, 3636780747, 0.5974066257476807, -0.6004935503005981, -0.23535707592964172, -0.4765920639038086, 8.449507713317871, -4.625829696655273, 1.5609581470489502, -0.36268478631973267, 1.1589161157608032, 3.1834397315979004, -0.786376953125, 0.303955078125, 0.154296875, 
30, 3636789080, 0.5975313186645508, -0.6005105972290039, -0.23510277271270752, -0.4765399396419525, 8.395023345947266, -4.613563060760498, 1.5452611446380615, -1.1075979471206665, 1.2754095792770386, 3.261127233505249, -0.785888671875, 0.305908203125, 0.15380859375, 
31, 3636797413, 0.5976284742355347, -0.6005595326423645, -0.23480716347694397, -0.47650206089019775, 8.341635704040527, -4.561849594116211, 1.4900422096252441, -1.8289457559585571, 1.4454110860824585, 3.329824447631836, -0.79150390625, 0.306884765625, 0.15185546875, 
32, 3636805746, 0.5976930856704712, -0.6006454825401306, -0.2344726026058197, -0.4764772355556488, 8.344771385192871, -4.5458526611328125, 1.4728693962097168, -2.7841267585754395, 1.5129560232162476, 3.5291807651519775, -0.78564453125, 0.306640625, 0.15380859375, 
33, 3636814079, 0.5977240800857544, -0.6007668375968933, -0.23410359025001526, -0.4764665961265564, 8.308439254760742, -4.544894218444824, 1.4276161193847656, -3.5815231800079346, 1.6113147735595703, 3.5084075927734375, -0.78564453125, 0.30810546875, 0.1533203125, 
34, 3636822412, 0.5977209806442261, -0.6009155511856079, -0.23370501399040222, -0.4764788746833801, 8.310281753540039, -4.579653739929199, 1.4124282598495483, -4.39708137512207, 1.717767596244812, 3.512044906616211, -0.78466796875, 0.30810546875, 0.15185546875, 
35, 3636830745, 0.5976881980895996, -0.6010785698890686, -0.23329542577266693, -0.4765150845050812, 8.294333457946777, -4.593060493469238, 1.409903645515442, -4.847481727600098, 1.8476316928863525, 3.1805198192596436, -0.78515625, 0.3115234375, 0.151611328125, 
36, 3636839078, 0.5976407527923584, -0.601234495639801, -0.23289543390274048, -0.476573646068573, 8.30371379852295, -4.604706764221191, 1.4120198488235474, -4.983621120452881, 1.9209909439086914, 2.8754799365997314, -0.78564453125, 0.30859375, 0.15234375, 
37, 3636847411, 0.59758460521698, -0.6013758182525635, -0.23252879083156586, -0.4766446650028229, 8.287527084350586, -4.6305952072143555, 1.4345896244049072, -4.704527854919434, 1.8598238229751587, 2.318446636199951, -0.7841796875, 0.310546875, 0.151611328125, 
38, 3636855744, 0.5975267291069031, -0.6014889478683472, -0.23220333456993103, -0.4767332077026367, 8.291736602783203, -4.661696910858154, 1.4542210102081299, -4.323977470397949, 1.802627444267273, 1.8091845512390137, -0.78662109375, 0.30908203125, 0.14990234375, 
39, 3636864077, 0.5974688529968262, -0.6015732884407043, -0.2319277971982956, -0.4768332540988922, 8.312149047851562, -4.692262172698975, 1.4783267974853516, -3.837204694747925, 1.7749642133712769, 1.1186763048171997, -0.78369140625, 0.310546875, 0.154052734375, 
40, 3636872410, 0.5973981618881226, -0.6016251444816589, -0.2316916584968567, -0.4769716262817383, 8.330946922302246, -4.680987358093262, 1.4650722742080688, -3.4995315074920654, 1.8420218229293823, 0.379859060049057, -0.783203125, 0.30810546875, 0.14990234375, 
41, 3636880743, 0.5973178148269653, -0.6016542911529541, -0.231486976146698, -0.4771346151828766, 8.374974250793457, -4.699512481689453, 1.47858726978302, -3.219132900238037, 1.9572348594665527, -0.28804486989974976, -0.78662109375, 0.30859375, 0.15234375, 
42, 3636889076, 0.5972105264663696, -0.601668119430542, -0.23131994903087616, -0.47733259201049805, 8.427180290222168, -4.6868720054626465, 1.4968115091323853, -3.226996660232544, 1.9000641107559204, -1.0412571430206299, -0.7861328125, 0.3095703125, 0.15087890625, 
43, 3636897409, 0.5970772504806519, -0.6016772985458374, -0.23115424811840057, -0.47756755352020264, 8.445666313171387, -4.675503730773926, 1.4965720176696777, -3.4678730964660645, 2.196087598800659, -1.6089712381362915, -0.78515625, 0.30908203125, 0.1484375, 
44, 3636905742, 0.5969045758247375, -0.6016908288002014, -0.2309894859790802, -0.47784602642059326, 8.457291603088379, -4.699222564697266, 1.4809221029281616, -4.006539821624756, 2.3414998054504395, -2.1522746086120605, -0.791015625, 0.30908203125, 0.14990234375, 
45, 3636914075, 0.5966870188713074, -0.6017264723777771, -0.23081602156162262, -0.4781568646430969, 8.485311508178711, -4.688560485839844, 1.5039663314819336, -4.628171920776367, 2.4212114810943604, -2.623781442642212, -0.79248046875, 0.308349609375, 0.149169921875, 
46, 3636922408, 0.5964242815971375, -0.601777195930481, -0.23062610626220703, -0.4785122573375702, 8.470941543579102, -4.734704971313477, 1.5185506343841553, -5.466115951538086, 2.6540701389312744, -3.049156665802002, -0.78173828125, 0.30859375, 0.151123046875, 
47, 3636930741, 0.596123456954956, -0.6018518805503845, -0.23042844235897064, -0.4788883328437805, 8.452367782592773, -4.759797096252441, 1.5596284866333008, -6.043333053588867, 2.6662368774414062, -3.3876750469207764, -0.78271484375, 0.3076171875, 0.1494140625, 
48, 3636939074, 0.5957790017127991, -0.6019499897956848, -0.23022744059562683, -0.4792901575565338, 8.38776969909668, -4.787590026855469, 1.554805040359497, -6.751157760620117, 2.558682918548584, -3.726269483566284, -0.787109375, 0.30859375, 0.1494140625, 
49, 3636947407, 0.5954090356826782, -0.6020662784576416, -0.2300325185060501, -0.4796973168849945, 8.37710189819336, -4.813745975494385, 1.5549992322921753, -7.076048374176025, 2.4304323196411133, -3.9934003353118896, -0.78515625, 0.30615234375, 0.150390625, 
50, 3636955740, 0.5950309038162231, -0.6021834015846252, -0.22985967993736267, -0.4801021218299866, 8.366239547729492, -4.849853515625, 1.5776249170303345, -7.010039806365967, 2.122549295425415, -4.145983695983887, -0.785400390625, 0.30419921875, 0.1494140625, 
51, 3636964073, 0.5946674942970276, -0.6022863984107971, -0.22973619401454926, -0.4804818630218506, 8.353385925292969, -4.894171714782715, 1.5766183137893677, -6.327831268310547, 1.7130547761917114, -4.353204250335693, -0.7861328125, 0.3056640625, 0.1494140625, 
52, 3636972406, 0.5943244099617004, -0.6023666858673096, -0.22967451810836792, -0.4808354079723358, 8.33906364440918, -4.918469429016113, 1.5734968185424805, -5.522749423980713, 1.1411398649215698, -4.53178596496582, -0.7861328125, 0.3056640625, 0.150390625, 
53, 3636980739, 0.5940133333206177, -0.602410614490509, -0.22969511151313782, -0.4811546504497528, 8.320049285888672, -4.929748058319092, 1.5711151361465454, -4.338910102844238, 0.6314164996147156, -4.9054975509643555, -0.786865234375, 0.3046875, 0.1494140625, 
54, 3636989072, 0.5937294960021973, -0.6024233102798462, -0.2297694981098175, -0.4814535677433014, 8.303688049316406, -4.963144779205322, 1.6397875547409058, -3.4048874378204346, 0.2127518504858017, -5.034209251403809, -0.78759765625, 0.304931640625, 0.14990234375, 
55, 3636997405, 0.5934754610061646, -0.6024085283279419, -0.22990822792053223, -0.48171892762184143, 8.25447940826416, -4.968319416046143, 1.616411805152893, -2.340282917022705, -0.26596543192863464, -5.235203742980957, -0.789794921875, 0.302490234375, 0.148681640625, 
56, 3637005738, 0.593252420425415, -0.6023489236831665, -0.23010484874248505, -0.481974333524704, 8.244362831115723, -4.973259449005127, 1.6502444744110107, -1.3658407926559448, -0.47623270750045776, -5.516628265380859, -0.790771484375, 0.301025390625, 0.148681640625, 
57, 3637014071, 0.5930619835853577, -0.6022633910179138, -0.230360746383667, -0.4821930527687073, 8.239832878112793, -4.953214168548584, 1.6746431589126587, -0.6064298152923584, -0.7676457762718201, -5.688678741455078, -0.7958984375, 0.30224609375, 0.149658203125, 
58, 3637022404, 0.5928749442100525, -0.6021589636802673, -0.23064598441123962, -0.4824172556400299, 8.255341529846191, -4.948328495025635, 1.684828519821167, -0.01530450489372015, -1.0447661876678467, -5.899714469909668, -0.788330078125, 0.301513671875, 0.150146484375, 
59, 3637030737, 0.5926858186721802, -0.6020525693893433, -0.23094609379768372, -0.48263877630233765, 8.252317428588867, -4.935863971710205, 1.659464955329895, 0.17919719219207764, -1.1499639749526978, -6.073379039764404, -0.786865234375, 0.301025390625, 0.149658203125, 
60, 3637039070, 0.5925019979476929, -0.6019338369369507, -0.23126141726970673, -0.48286181688308716, 8.276848793029785, -4.9510321617126465, 1.6779874563217163, 0.33126893639564514, -1.1954293251037598, -6.164053916931152, -0.788818359375, 0.299560546875, 0.148681640625, 
61, 3637047403, 0.5923231244087219, -0.6018178462982178, -0.23158049583435059, -0.4830726087093353, 8.312173843383789, -4.953455448150635, 1.685839295387268, 0.41802433133125305, -1.2498081922531128, -6.123839378356934, -0.786865234375, 0.297119140625, 0.149169921875, 
62, 3637055736, 0.5921487808227539, -0.6016877293586731, -0.23190781474113464, -0.4832916557788849, 8.313857078552246, -4.933947563171387, 1.6710072755813599, 0.5958127379417419, -1.2202749252319336, -6.203831672668457, -0.789794921875, 0.29833984375, 0.152587890625, 
63, 3637064069, 0.5919764041900635, -0.6015720963478088, -0.23221859335899353, -0.48349714279174805, 8.32310962677002, -4.943449974060059, 1.7001776695251465, 0.3974817395210266, -1.1906650066375732, -5.976147651672363, -0.789794921875, 0.2958984375, 0.150634765625, 
64, 3637072402, 0.5918158888816833, -0.6014502048492432, -0.23251813650131226, -0.48370134830474854, 8.292516708374023, -4.960141181945801, 1.7210793495178223, 0.5057274699211121, -1.12721848487854, -5.734553337097168, -0.790283203125, 0.29638671875, 0.150634765625, 
65, 3637080735, 0.591665506362915, -0.6013389229774475, -0.23280921578407288, -0.4838835299015045, 8.287161827087402, -5.000389099121094, 1.7155386209487915, 0.5712487101554871, -1.2295217514038086, -5.450183868408203, -0.790771484375, 0.29736328125, 0.150634765625, 
66, 3637089068, 0.5915247797966003, -0.6012197136878967, -0.23309659957885742, -0.48406559228897095, 8.323184967041016, -5.002064228057861, 1.7245335578918457, 0.6363601088523865, -1.1673815250396729, -5.313839435577393, -0.792724609375, 0.29443359375, 0.150390625, 
67, 3637097401, 0.5913981199264526, -0.601103663444519, -0.23336052894592285, -0.4842369258403778, 8.341242790222168, -5.0034685134887695, 1.7228914499282837, 0.7068248391151428, -1.0203814506530762, -4.987924098968506, -0.799072265625, 0.295654296875, 0.14990234375, 
68, 3637105734, 0.5912877917289734, -0.6009843349456787, -0.2336079329252243, -0.4844004511833191, 8.337841987609863, -4.999711990356445, 1.7230273485183716, 0.6819278001785278, -0.8956402540206909, -4.630579948425293, -0.7890625, 0.29443359375, 0.150146484375, 
69, 3637114067, 0.5911963582038879, -0.6008681654930115, -0.23384110629558563, -0.4845436215400696, 8.348015785217285, -5.011773109436035, 1.6988669633865356, 0.8386357426643372, -0.8628796339035034, -4.283584117889404, -0.790771484375, 0.294921875, 0.150146484375, 
70, 3637122400, 0.5911173224449158, -0.6007470488548279, -0.23406283557415009, -0.48468348383903503, 8.319682121276855, -5.015120506286621, 1.6544480323791504, 0.8592550754547119, -0.7708731889724731, -4.0234198570251465, -0.799560546875, 0.294189453125, 0.1494140625, 
71, 3637130733, 0.5910579562187195, -0.6006285548210144, -0.23426778614521027, -0.4848036468029022, 8.322297096252441, -5.032872200012207, 1.675323486328125, 1.2073525190353394, -0.8173374533653259, -3.622095823287964, -0.7919921875, 0.29248046875, 0.150390625, 
72, 3637139066, 0.5910211801528931, -0.6005092859268188, -0.23447304964065552, -0.48489683866500854, 8.31005573272705, -5.025579929351807, 1.6728825569152832, 1.235041618347168, -0.8989700675010681, -3.2196452617645264, -0.792724609375, 0.29541015625, 0.1494140625, 
73, 3637147399, 0.5910147428512573, -0.6003860831260681, -0.23466134071350098, -0.4849662780761719, 8.315322875976562, -5.00149393081665, 1.662706732749939, 1.5804494619369507, -0.8145710229873657, -2.7696032524108887, -0.791015625, 0.29150390625, 0.150390625, 
74, 3637155732, 0.5910371541976929, -0.6002607941627502, -0.23483291268348694, -0.4850108027458191, 8.304483413696289, -4.993828773498535, 1.68386709690094, 1.7064714431762695, -0.7952579259872437, -2.1704349517822266, -0.79248046875, 0.2919921875, 0.14990234375, 
75, 3637164065, 0.591083288192749, -0.6001600027084351, -0.23498696088790894, -0.48500490188598633, 8.299443244934082, -4.985204696655273, 1.6716423034667969, 1.6064480543136597, -0.9993009567260742, -1.502748727798462, -0.79296875, 0.29150390625, 0.1494140625, 
76, 3637172398, 0.5911299586296082, -0.6000791788101196, -0.23508840799331665, -0.4849989712238312, 8.339607238769531, -4.9473419189453125, 1.6814182996749878, 1.2369883060455322, -0.8609840273857117, -0.8772746324539185, -0.79248046875, 0.29345703125, 0.1513671875, 
77, 3637180731, 0.5911855697631836, -0.6000232696533203, -0.2351507544517517, -0.4849698543548584, 8.394912719726562, -4.9424285888671875, 1.6903598308563232, 0.9629415273666382, -0.8208721876144409, -0.3152984380722046, -0.79345703125, 0.291259765625, 0.150390625, 
78, 3637189064, 0.5912442803382874, -0.5999822616577148, -0.23516908288002014, -0.4849401116371155, 8.419075012207031, -4.950683116912842, 1.6559118032455444, 0.5371305346488953, -0.6053796410560608, 0.21049778163433075, -0.797119140625, 0.292236328125, 0.15185546875, 
79, 3637197397, 0.5913038849830627, -0.5999678373336792, -0.23513975739479065, -0.4848996102809906, 8.44729995727539, -4.925583362579346, 1.6823629140853882, 0.07889185100793839, -0.42866700887680054, 0.6895608305931091, -0.79296875, 0.29248046875, 0.15087890625, 
80, 3637205730, 0.5913574695587158, -0.5999650359153748, -0.23507532477378845, -0.48486921191215515, 8.40096378326416, -4.931863784790039, 1.685660481452942, -0.3655535578727722, -0.212969571352005, 0.9892217516899109, -0.794189453125, 0.293212890625, 0.15185546875, 
81, 3637214063, 0.5914086103439331, -0.5999869704246521, -0.23495957255363464, -0.48483556509017944, 8.368897438049316, -4.918430805206299, 1.6660759449005127, -0.8372652530670166, 0.03329849988222122, 1.4158267974853516, -0.79248046875, 0.293212890625, 0.15234375, 
82, 3637222396, 0.5914687514305115, -0.6000155806541443, -0.23481935262680054, -0.48479482531547546, 8.29599666595459, -4.903127670288086, 1.6451964378356934, -1.0408215522766113, 0.13199014961719513, 1.8431745767593384, -0.79345703125, 0.293212890625, 0.1513671875, 
83, 3637230729, 0.5915414094924927, -0.6000491976737976, -0.23464956879615784, -0.48474693298339844, 8.245619773864746, -4.87550687789917, 1.6439764499664307, -1.1129512786865234, 0.370663583278656, 2.1471898555755615, -0.801513671875, 0.29248046875, 0.152587890625, 
84, 3637239062, 0.59162437915802, -0.6000893712043762, -0.2344599962234497, -0.48468759655952454, 8.182467460632324, -4.843200206756592, 1.62955904006958, -1.211796760559082, 0.3764011859893799, 2.5911357402801514, -0.79248046875, 0.292236328125, 0.1513671875, 
85, 3637247395, 0.5917115807533264, -0.6001527905464172, -0.23423916101455688, -0.484609454870224, 8.194840431213379, -4.829108238220215, 1.6025633811950684, -1.4583336114883423, 0.37314820289611816, 3.008392333984375, -0.793701171875, 0.29541015625, 0.150390625, 
86, 3637255728, 0.591802179813385, -0.6002254486083984, -0.2339920699596405, -0.48452794551849365, 8.195260047912598, -4.813260555267334, 1.612695336341858, -1.7270525693893433, 0.4698418974876404, 3.402543544769287, -0.79345703125, 0.29296875, 0.150390625, 
87, 3637264061, 0.5918954014778137, -0.6003207564353943, -0.23371630907058716, -0.4844292998313904, 8.221843719482422, -4.801848411560059, 1.6023060083389282, -2.0006895065307617, 0.4739914536476135, 3.7631921768188477, -0.792724609375, 0.29345703125, 0.14990234375, 
88, 3637272394, 0.5919874906539917, -0.6004278063774109, -0.23340749740600586, -0.4843328297138214, 8.278987884521484, -4.778735160827637, 1.5954678058624268, -2.3585715293884277, 0.6228101253509521, 4.154065132141113, -0.791015625, 0.29443359375, 0.150634765625, 
89, 3637280727, 0.5920515656471252, -0.6005637645721436, -0.2330593466758728, -0.4842533767223358, 8.366654396057129, -4.776784420013428, 1.5348777770996094, -3.0342493057250977, 0.8132006525993347, 4.155986309051514, -0.791015625, 0.29443359375, 0.150146484375, 
90, 3637289060, 0.5921081900596619, -0.6007109880447388, -0.23270368576049805, -0.48417264223098755, 8.411227226257324, -4.788830757141113, 1.5305558443069458, -3.3397765159606934, 0.7541342973709106, 4.3050103187561035, -0.789306640625, 0.2958984375, 0.149658203125, 
91, 3637297393, 0.5921530723571777, -0.6008701920509338, -0.23233959078788757, -0.4840953052043915, 8.410042762756348, -4.81445837020874, 1.5125948190689087, -3.5188193321228027, 0.7591803073883057, 4.21356725692749, -0.793701171875, 0.2939453125, 0.14892578125, 
92, 3637305726, 0.5921970009803772, -0.6010294556617737, -0.23199398815631866, -0.4840095639228821, 8.474008560180664, -4.815675258636475, 1.4888947010040283, -3.4598045349121094, 0.5101331472396851, 4.2167181968688965, -0.790771484375, 0.2978515625, 0.151123046875, 
93, 3637314059, 0.5922489762306213, -0.6011877655982971, -0.2316736876964569, -0.4839026927947998, 8.471481323242188, -4.817487716674805, 1.4690650701522827, -3.18099308013916, 0.2552202045917511, 4.114260673522949, -0.791748046875, 0.2978515625, 0.150146484375, 
94, 3637322392, 0.5923107862472534, -0.6013243198394775, -0.2313922643661499, -0.4837920367717743, 8.4863862991333, -4.857100486755371, 1.504754662513733, -2.622270107269287, -0.010873242281377316, 3.9348080158233643, -0.793212890625, 0.29736328125, 0.149658203125, 
95, 3637330725, 0.5923961400985718, -0.6014580130577087, -0.23114293813705444, -0.4836404323577881, 8.47230052947998, -4.833527565002441, 1.5287920236587524, -2.1171064376831055, -0.40587034821510315, 4.030963897705078, -0.791748046875, 0.29736328125, 0.151123046875, 
96, 3637339058, 0.5924890041351318, -0.6015782356262207, -0.23092037439346313, -0.4834834337234497, 8.463165283203125, -4.798369884490967, 1.5522640943527222, -1.691781997680664, -0.66695636510849, 3.981887102127075, -0.798828125, 0.298828125, 0.1474609375, 
97, 3637347391, 0.5925752520561218, -0.6017117500305176, -0.23068439960479736, -0.4833240509033203, 8.49494743347168, -4.764934539794922, 1.4929567575454712, -1.513250708580017, -0.8502005338668823, 4.085880756378174, -0.790283203125, 0.299072265625, 0.149658203125, 
98, 3637355724, 0.5926693677902222, -0.6018449068069458, -0.2304801642894745, -0.4831407368183136, 8.537614822387695, -4.746622085571289, 1.4979604482650757, -1.5805648565292358, -1.1145650148391724, 4.092770576477051, -0.789306640625, 0.298095703125, 0.150146484375, 
99, 3637364057, 0.5927680730819702, -0.6019899249076843, -0.23027919232845306, -0.4829343855381012, 8.53121280670166, -4.708103656768799, 1.4857641458511353, -1.7839163541793823, -1.1747585535049438, 4.168537616729736, -0.791748046875, 0.298095703125, 0.147705078125, 
100, 3637372390, 0.592843234539032, -0.6021449565887451, -0.23007307946681976, -0.48274707794189453, 8.529869079589844, -4.705266952514648, 1.4630756378173828, -1.9154454469680786, -1.3378187417984009, 4.0845232009887695, -0.790771484375, 0.301513671875, 0.149169921875, 
101, 3637380723, 0.5928935408592224, -0.6023226976394653, -0.22986769676208496, -0.4825614094734192, 8.473587989807129, -4.685870170593262, 1.4683629274368286, -2.0471537113189697, -1.6269524097442627, 3.9207966327667236, -0.792236328125, 0.301025390625, 0.150146484375, 
102, 3637389056, 0.5929356813430786, -0.6025010347366333, -0.22968275845050812, -0.48237496614456177, 8.436745643615723, -4.69776725769043, 1.4983655214309692, -2.241591215133667, -1.7628612518310547, 3.756762981414795, -0.790283203125, 0.302978515625, 0.150634765625, 
103, 3637397389, 0.5929684638977051, -0.6026782393455505, -0.22952061891555786, -0.4821905493736267, 8.402259826660156, -4.7122087478637695, 1.5210047960281372, -2.152684450149536, -1.8722087144851685, 3.388533115386963, -0.789306640625, 0.299072265625, 0.151611328125, 
104, 3637405722, 0.5930004119873047, -0.602832555770874, -0.22939294576644897, -0.4820188283920288, 8.359952926635742, -4.708545684814453, 1.5536808967590332, -1.7986186742782593, -1.9811968803405762, 3.019021987915039, -0.792724609375, 0.30078125, 0.150634765625, 
105, 3637414055, 0.5930269956588745, -0.6029822826385498, -0.22928772866725922, -0.48184919357299805, 8.348135948181152, -4.728475093841553, 1.5556412935256958, -1.4509568214416504, -2.1669256687164307, 2.7091152667999268, -0.789794921875, 0.302490234375, 0.152587890625, 
106, 3637422388, 0.5930652618408203, -0.6030982732772827, -0.22923682630062103, -0.4816809892654419, 8.352821350097656, -4.715408802032471, 1.575774073600769, -0.934368908405304, -2.304269790649414, 2.2751078605651855, -0.792724609375, 0.30126953125, 0.150146484375, 
107, 3637430721, 0.5930991172790527, -0.6031846404075623, -0.22923006117343903, -0.4815343916416168, 8.37669563293457, -4.721761226654053, 1.5601688623428345, -0.4065875709056854, -2.2703564167022705, 1.5342671871185303, -0.789306640625, 0.302001953125, 0.151123046875, 
108, 3637439054, 0.5931376218795776, -0.6032265424728394, -0.2292763590812683, -0.4814123213291168, 8.381414413452148, -4.733870983123779, 1.5596495866775513, 0.17012976109981537, -2.222329616546631, 0.8602284789085388, -0.790771484375, 0.302978515625, 0.152099609375, 
109, 3637447387, 0.593159556388855, -0.6032511591911316, -0.22934412956237793, -0.48132219910621643, 8.4006986618042, -4.705255031585693, 1.5785032510757446, 0.42619529366493225, -2.1035306453704834, 0.20598968863487244, -0.790771484375, 0.30078125, 0.152099609375, 
110, 3637455720, 0.5931649804115295, -0.6032422184944153, -0.22945450246334076, -0.4812740981578827, 8.429241180419922, -4.723291397094727, 1.607762098312378, 0.49932387471199036, -1.899436354637146, -0.6530477404594421, -0.788818359375, 0.302490234375, 0.150634765625, 
111, 3637464053, 0.5931458473205566, -0.6032330393791199, -0.2295703887939453, -0.4812540113925934, 8.461774826049805, -4.717617511749268, 1.6753603219985962, 0.27676182985305786, -1.7144248485565186, -1.175706148147583, -0.791259765625, 0.302490234375, 0.151123046875, 
112, 3637472386, 0.5930938124656677, -0.6032141447067261, -0.22968724370002747, -0.4812861680984497, 8.49376392364502, -4.716436862945557, 1.6730526685714722, -0.10469818115234375, -1.400957703590393, -1.7743620872497559, -0.78955078125, 0.303955078125, 0.15283203125, 
113, 3637480719, 0.5930432081222534, -0.6031848192214966, -0.22981372475624084, -0.4813247323036194, 8.506417274475098, -4.737861156463623, 1.7114568948745728, -0.5294078588485718, -0.9344713687896729, -2.127018928527832, -0.789306640625, 0.303466796875, 0.15283203125, 
114, 3637489052, 0.5929490327835083, -0.603168249130249, -0.22987401485443115, -0.48143285512924194, 8.465539932250977, -4.775508403778076, 1.7090164422988892, -1.0867221355438232, -0.45922479033470154, -2.1958694458007812, -0.790771484375, 0.301513671875, 0.152099609375, 
115, 3637497385, 0.592842161655426, -0.60316002368927, -0.22989395260810852, -0.48156505823135376, 8.427606582641602, -4.742334842681885, 1.6725472211837769, -1.49765145778656, -0.0015240468783304095, -2.1782729625701904, -0.7978515625, 0.30126953125, 0.152587890625, 
116, 3637505718, 0.5927221179008484, -0.6031746864318848, -0.22988754510879517, -0.4816976487636566, 8.370452880859375, -4.757343292236328, 1.6360485553741455, -2.0756113529205322, -0.000806848460342735, -1.9154454469680786, -0.791015625, 0.302978515625, 0.153076171875, 
117, 3637514051, 0.5925941467285156, -0.6032112836837769, -0.22984467446804047, -0.4818296432495117, 8.324613571166992, -4.752519130706787, 1.627655029296875, -2.433006763458252, 0.13370631635189056, -1.6470850706100464, -0.790283203125, 0.302001953125, 0.151611328125, 
118, 3637522384, 0.5924621224403381, -0.6032639145851135, -0.22979287803173065, -0.4819510579109192, 8.298223495483398, -4.749888896942139, 1.6078425645828247, -2.7508277893066406, -0.013946950435638428, -1.4058758020401, -0.789306640625, 0.299560546875, 0.150146484375, 
119, 3637530717, 0.5923384428024292, -0.6033202409744263, -0.2297459989786148, -0.48205456137657166, 8.277290344238281, -4.798839092254639, 1.6259732246398926, -2.6860239505767822, -0.0765993744134903, -1.3270095586776733, -0.793212890625, 0.30029296875, 0.153076171875, 
120, 3637539050, 0.5922241806983948, -0.603363573551178, -0.22971361875534058, -0.48215633630752563, 8.268375396728516, -4.846014976501465, 1.6908049583435059, -2.3349552154541016, -0.21660679578781128, -1.3185312747955322, -0.790771484375, 0.30078125, 0.153076171875, 
121, 3637547383, 0.5921376347541809, -0.6033666133880615, -0.2297346293926239, -0.4822486639022827, 8.284460067749023, -4.887374401092529, 1.7304354906082153, -1.5745453834533691, -0.18538302183151245, -1.7442909479141235, -0.790283203125, 0.30029296875, 0.152099609375, 
122, 3637555716, 0.5920602083206177, -0.6033375859260559, -0.22979602217674255, -0.48235100507736206, 8.2684907913208, -4.902120590209961, 1.7528228759765625, -0.8198731541633606, -0.3799743354320526, -2.0862410068511963, -0.793212890625, 0.298828125, 0.152099609375, 
123, 3637564049, 0.5919968485832214, -0.6032754182815552, -0.2298789918422699, -0.48246654868125916, 8.252997398376465, -4.8778076171875, 1.7405688762664795, -0.07452462613582611, -0.24964915215969086, -2.414487600326538, -0.791259765625, 0.29931640625, 0.153076171875, 
124, 3637572382, 0.5919524431228638, -0.603162944316864, -0.23001424968242645, -0.4825972318649292, 8.281675338745117, -4.851998805999756, 1.7247025966644287, 0.5323406457901001, -0.08807454258203506, -2.97356915473938, -0.794189453125, 0.30029296875, 0.154052734375, 
125, 3637580715, 0.5919209718704224, -0.603029191493988, -0.2301950454711914, -0.4827168881893158, 8.262566566467285, -4.853161811828613, 1.6798218488693237, 0.9571784734725952, -0.1770840287208557, -3.362649917602539, -0.790771484375, 0.2998046875, 0.152099609375, 
126, 3637589048, 0.5918909907341003, -0.6028719544410706, -0.2303856611251831, -0.4828592538833618, 8.297348022460938, -4.873552322387695, 1.6457453966140747, 1.346873164176941, -0.09839706867933273, -3.574120283126831, -0.792724609375, 0.29833984375, 0.152099609375, 
127, 3637597381, 0.5918512940406799, -0.6027101278305054, -0.23057106137275696, -0.48302164673805237, 8.360997200012207, -4.8625359535217285, 1.6112991571426392, 1.248873233795166, 0.1626247614622116, -3.848295211791992, -0.791259765625, 0.2978515625, 0.155029296875, 
128, 3637605714, 0.5918007493019104, -0.6025484800338745, -0.2307419627904892, -0.48320305347442627, 8.430012702941895, -4.84853982925415, 1.6118003129959106, 0.9567428231239319, 0.3481743037700653, -3.8771369457244873, -0.791259765625, 0.29638671875, 0.153076171875, 
129, 3637614047, 0.5917366743087769, -0.6024026870727539, -0.23088400065898895, -0.4833957254886627, 8.479232788085938, -4.880034923553467, 1.593437671661377, 0.4879511296749115, 0.6084660887718201, -3.8539044857025146, -0.790771484375, 0.298828125, 0.150634765625, 
130, 3637622380, 0.5916571617126465, -0.6022605895996094, -0.2310003638267517, -0.48361435532569885, 8.491073608398438, -4.917132377624512, 1.5876456499099731, 0.07807217538356781, 0.8800538778305054, -3.8606159687042236, -0.792724609375, 0.29833984375, 0.151611328125, 
131, 3637630713, 0.5915644764900208, -0.6021424531936646, -0.23110328614711761, -0.48382577300071716, 8.490106582641602, -4.9325480461120605, 1.6078969240188599, -0.39075788855552673, 0.8621494770050049, -3.802932024002075, -0.792236328125, 0.29736328125, 0.152587890625, 
132, 3637639046, 0.5914703607559204, -0.6020355820655823, -0.23121237754821777, -0.48402148485183716, 8.496414184570312, -4.9542107582092285, 1.6307282447814941, -0.3065127432346344, 0.4683307111263275, -3.599555730819702, -0.792236328125, 0.29833984375, 0.151611328125, 
133, 3637647379, 0.5913909077644348, -0.6019317507743835, -0.2313360571861267, -0.48418867588043213, 8.454559326171875, -4.948439598083496, 1.6482148170471191, 0.04436386004090309, 0.18252703547477722, -3.451275110244751, -0.792724609375, 0.29833984375, 0.151123046875, 
134, 3637655712, 0.5913342237472534, -0.6018208861351013, -0.23149238526821136, -0.4843209683895111, 8.386792182922363, -4.9742112159729, 1.6447603702545166, 0.5533699989318848, -0.29462775588035583, -3.2383694648742676, -0.792724609375, 0.2958984375, 0.150390625, 
135, 3637664045, 0.5913177132606506, -0.6017109155654907, -0.23168417811393738, -0.484386146068573, 8.389805793762207, -4.981680870056152, 1.6202131509780884, 1.132559061050415, -0.8275062441825867, -2.836225748062134, -0.796875, 0.29931640625, 0.1513671875, 
136, 3637672378, 0.5913312435150146, -0.6015921235084534, -0.2319032996892929, -0.4844121038913727, 8.40399169921875, -4.976682662963867, 1.5965543985366821, 1.9542381763458252, -1.4078737497329712, -2.4513208866119385, -0.791748046875, 0.296875, 0.150634765625, 
137, 3637680711, 0.5913906693458557, -0.6014583706855774, -0.23215490579605103, -0.484385222196579, 8.454866409301758, -4.984776973724365, 1.57270348072052, 2.721691846847534, -1.7172166109085083, -2.141132116317749, -0.794677734375, 0.295166015625, 0.1513671875, 
138, 3637689044, 0.5914738774299622, -0.6013047695159912, -0.23241811990737915, -0.48434826731681824, 8.42518424987793, -4.964624881744385, 1.5600945949554443, 3.3092312812805176, -1.8334029912948608, -1.9510747194290161, -0.794189453125, 0.29638671875, 0.15234375, 
139, 3637697377, 0.591583251953125, -0.6011478900909424, -0.23270636796951294, -0.4842706024646759, 8.416048049926758, -4.931645393371582, 1.5060434341430664, 3.8262033462524414, -2.1760447025299072, -1.7552540302276611, -0.793212890625, 0.29541015625, 0.1513671875, 
140, 3637705710, 0.5917032957077026, -0.6009854078292847, -0.23300302028656006, -0.4841834008693695, 8.407381057739258, -4.937909126281738, 1.4938260316848755, 4.070767879486084, -2.3445606231689453, -1.6015173196792603, -0.794677734375, 0.294677734375, 0.1513671875, 
141, 3637714043, 0.5918287038803101, -0.6008231043815613, -0.23332946002483368, -0.48407408595085144, 8.426057815551758, -4.901447772979736, 1.573929786682129, 4.136416912078857, -2.532799482345581, -1.7706735134124756, -0.794677734375, 0.29638671875, 0.150390625, 
142, 3637722376, 0.5919319987297058, -0.6006667613983154, -0.23365387320518494, -0.48398542404174805, 8.428735733032227, -4.906932353973389, 1.6250609159469604, 4.071561813354492, -2.6780834197998047, -1.9102455377578735, -0.793212890625, 0.29443359375, 0.14990234375, 
143, 3637730709, 0.5920074582099915, -0.6005286574363708, -0.23395420610904694, -0.48391929268836975, 8.438776016235352, -4.894723892211914, 1.6489143371582031, 3.8617045879364014, -2.6538264751434326, -2.033501148223877, -0.793212890625, 0.29443359375, 0.15234375, 
144, 3637739042, 0.5920887589454651, -0.6003830432891846, -0.23426553606987, -0.48384997248649597, 8.43725299835205, -4.907478332519531, 1.6776691675186157, 3.6521291732788086, -2.551600456237793, -2.0729472637176514, -0.795166015625, 0.295166015625, 0.15185546875, 
145, 3637747375, 0.5921559929847717, -0.6002594828605652, -0.23456554114818573, -0.48377591371536255, 8.429250717163086, -4.926773548126221, 1.6643918752670288, 3.361663818359375, -2.645656108856201, -2.0428507328033447, -0.794677734375, 0.294677734375, 0.15185546875, 
146, 3637755708, 0.5922255516052246, -0.6001291275024414, -0.2348669469356537, -0.4837060570716858, 8.398780822753906, -4.9009199142456055, 1.67119562625885, 3.3690149784088135, -2.6176598072052, -2.0123953819274902, -0.796142578125, 0.295654296875, 0.15185546875, 
147, 3637764041, 0.5922936201095581, -0.6000087857246399, -0.23515647649765015, -0.4836314022541046, 8.39823055267334, -4.917078495025635, 1.6646332740783691, 3.244503974914551, -2.569761037826538, -1.942186713218689, -0.795166015625, 0.295654296875, 0.15234375, 
148, 3637772374, 0.5923678278923035, -0.5998867154121399, -0.23544302582740784, -0.48355233669281006, 8.39699649810791, -4.912637710571289, 1.6887917518615723, 3.268120288848877, -2.6108717918395996, -1.7607611417770386, -0.795166015625, 0.293212890625, 0.1494140625, 
149, 3637780707, 0.5924528241157532, -0.5997776985168457, -0.23568978905677795, -0.483463317155838, 8.366226196289062, -4.903289794921875, 1.6917792558670044, 3.2884068489074707, -2.4936351776123047, -1.2792131900787354, -0.793701171875, 0.2939453125, 0.15087890625, 
150, 3637789040, 0.5925580263137817, -0.5996595025062561, -0.235927551984787, -0.48336490988731384, 8.37920093536377, -4.938045978546143, 1.712504506111145, 3.2300829887390137, -2.2991206645965576, -0.9807818531990051, -0.795654296875, 0.292724609375, 0.15185546875, 
151, 3637797373, 0.5926868915557861, -0.5995434522628784, -0.23614439368247986, -0.48324495553970337, 8.323620796203613, -4.935323715209961, 1.6896209716796875, 3.181492805480957, -2.075969696044922, -0.5971062183380127, -0.792236328125, 0.29345703125, 0.1484375, 
152, 3637805706, 0.5928249955177307, -0.5994276404380798, -0.23631885647773743, -0.48313403129577637, 8.282906532287598, -4.89177131652832, 1.7206791639328003, 3.1020374298095703, -1.795058250427246, -0.13033802807331085, -0.797607421875, 0.294189453125, 0.15234375, 
153, 3637814039, 0.5929756164550781, -0.5993247032165527, -0.23644530773162842, -0.4830150902271271, 8.302579879760742, -4.851151943206787, 1.6914907693862915, 2.9212522506713867, -1.4993164539337158, 0.3776819407939911, -0.795654296875, 0.29638671875, 0.15087890625, 
154, 3637822372, 0.59312504529953, -0.5992310047149658, -0.2365296483039856, -0.48290660977363586, 8.341008186340332, -4.828386306762695, 1.6995528936386108, 2.4089932441711426, -1.149886965751648, 0.7385351657867432, -0.793701171875, 0.2958984375, 0.152587890625, 
155, 3637830705, 0.5933066606521606, -0.5991309285163879, -0.23660168051719666, -0.48277223110198975, 8.350505828857422, -4.824519157409668, 1.6814579963684082, 2.1339218616485596, -0.7039943933486938, 1.0253633260726929, -0.794677734375, 0.294921875, 0.150390625, 
156, 3637839038, 0.5934538245201111, -0.5990620851516724, -0.23658770322799683, -0.48268359899520874, 8.346078872680664, -4.804802894592285, 1.6563780307769775, 1.4695653915405273, -0.3571520745754242, 1.4541456699371338, -0.795654296875, 0.293701171875, 0.14892578125, 
157, 3637847371, 0.593622088432312, -0.5989981293678284, -0.23655690252780914, -0.4825710654258728, 8.375504493713379, -4.7914204597473145, 1.675976276397705, 1.104024887084961, -0.042609281837940216, 1.7477362155914307, -0.794189453125, 0.2958984375, 0.15087890625, 
158, 3637855704, 0.5937545895576477, -0.5989557504653931, -0.2364787757396698, -0.48249903321266174, 8.348661422729492, -4.780068874359131, 1.6734598875045776, 0.6544693112373352, 0.0805823802947998, 1.8344147205352783, -0.794189453125, 0.29736328125, 0.1494140625, 
159, 3637864037, 0.5938923954963684, -0.5989230871200562, -0.236386239528656, -0.48241540789604187, 8.339434623718262, -4.7730231285095215, 1.678199291229248, 0.40534526109695435, 0.2171318680047989, 1.9812097549438477, -0.797119140625, 0.296142578125, 0.15087890625, 
160, 3637872370, 0.5940192937850952, -0.5988947153091431, -0.23628294467926025, -0.4823451638221741, 8.327412605285645, -4.794862747192383, 1.670987606048584, 0.32048535346984863, 0.1894172728061676, 2.0357682704925537, -0.795654296875, 0.2958984375, 0.150390625, 
161, 3637880703, 0.5941475629806519, -0.5988754034042358, -0.23618504405021667, -0.4822589159011841, 8.343130111694336, -4.778914451599121, 1.6669013500213623, 0.3091381788253784, 0.051740750670433044, 2.050957202911377, -0.798095703125, 0.297119140625, 0.14892578125, 
162, 3637889036, 0.5942822694778442, -0.5988515019416809, -0.23608112335205078, -0.4821736812591553, 8.367147445678711, -4.76267147064209, 1.6832231283187866, 0.39281997084617615, 0.06798017770051956, 2.2289764881134033, -0.793701171875, 0.29638671875, 0.14794921875, 
163, 3637897369, 0.5944268107414246, -0.5988239645957947, -0.23600679636001587, -0.4820657968521118, 8.40567684173584, -4.78549861907959, 1.6499524116516113, 0.43080586194992065, -0.036538708955049515, 2.0522637367248535, -0.8076171875, 0.296875, 0.148193359375, 
164, 3637905702, 0.5945630073547363, -0.5987907648086548, -0.23592224717140198, -0.48198068141937256, 8.416913986206055, -4.777398586273193, 1.6211904287338257, 0.6077232360839844, -0.02465369924902916, 2.0487544536590576, -0.796630859375, 0.29736328125, 0.14892578125, 
165, 3637914035, 0.5947073698043823, -0.5987518429756165, -0.23584255576133728, -0.48188963532447815, 8.43510627746582, -4.764060974121094, 1.6307400465011597, 0.7707067131996155, 0.02546055056154728, 1.9901235103607178, -0.793701171875, 0.29833984375, 0.14794921875, 
166, 3637922368, 0.5948485136032104, -0.5987054705619812, -0.2357611060142517, -0.4818130135536194, 8.456448554992676, -4.752201080322266, 1.615439534187317, 0.7509326338768005, 0.12497186660766602, 1.9435313940048218, -0.795654296875, 0.2978515625, 0.14892578125, 
167, 3637930701, 0.594986617565155, -0.598666787147522, -0.23566532135009766, -0.4817374348640442, 8.465728759765625, -4.714544296264648, 1.5780912637710571, 0.628701388835907, 0.2241501659154892, 1.9706566333770752, -0.79736328125, 0.298828125, 0.14990234375, 
168, 3637939034, 0.5951119661331177, -0.5986324548721313, -0.2355509251356125, -0.4816814661026001, 8.441744804382324, -4.697842121124268, 1.596848964691162, 0.23757201433181763, 0.4336489737033844, 1.9794679880142212, -0.7958984375, 0.2998046875, 0.14697265625, 
169, 3637947367, 0.595220685005188, -0.5986199378967285, -0.23542335629463196, -0.4816249907016754, 8.381641387939453, -4.680838108062744, 1.5559757947921753, -0.17931245267391205, 0.4218151867389679, 1.9504469633102417, -0.792724609375, 0.29833984375, 0.149658203125, 
170, 3637955700, 0.5953146815299988, -0.598618745803833, -0.2352789342403412, -0.48158103227615356, 8.363751411437988, -4.686961650848389, 1.6002304553985596, -0.5303810834884644, 0.456061452627182, 2.029006004333496, -0.796142578125, 0.2978515625, 0.14599609375, 
171, 3637964033, 0.595409095287323, -0.5986241698265076, -0.23514854907989502, -0.48152098059654236, 8.328727722167969, -4.666892051696777, 1.5829335451126099, -0.8349088430404663, 0.47073841094970703, 1.8902791738510132, -0.796875, 0.29931640625, 0.1474609375, 
172, 3637972366, 0.5954779386520386, -0.5986461043357849, -0.23499715328216553, -0.48148244619369507, 8.310502052307129, -4.6798577308654785, 1.59241783618927, -0.9902591109275818, 0.3240969181060791, 1.950523853302002, -0.7939453125, 0.300048828125, 0.146728515625, 
173, 3637980699, 0.5955239534378052, -0.5986868739128113, -0.2348349392414093, -0.4814538359642029, 8.305126190185547, -4.658003330230713, 1.6169755458831787, -1.0780647993087769, 0.16641569137573242, 1.8430209159851074, -0.79443359375, 0.30078125, 0.14697265625, 
174, 3637989032, 0.5955826044082642, -0.5987190008163452, -0.23470260202884674, -0.4814058840274811, 8.310198783874512, -4.683482646942139, 1.6145851612091064, -1.0008889436721802, -0.010822013951838017, 1.8351573944091797, -0.80615234375, 0.299560546875, 0.146728515625, 
175, 3637997365, 0.5956142544746399, -0.598761796951294, -0.2345704436302185, -0.4813780188560486, 8.326205253601074, -4.706058979034424, 1.5828707218170166, -0.9270943403244019, -0.1852293461561203, 1.5212037563323975, -0.795166015625, 0.29833984375, 0.14697265625, 
176, 3638005698, 0.5956593751907349, -0.5987801551818848, -0.23450246453285217, -0.48133254051208496, 8.354155540466309, -4.721462726593018, 1.588667869567871, -0.5808923840522766, -0.46854835748672485, 1.151308536529541, -0.79833984375, 0.30126953125, 0.14794921875, 
177, 3638014031, 0.5957211256027222, -0.5987812280654907, -0.23446327447891235, -0.48127391934394836, 8.380414962768555, -4.731341361999512, 1.5687756538391113, -0.11904215812683105, -0.5413952469825745, 0.9719321131706238, -0.796875, 0.29931640625, 0.14794921875, 
178, 3638022364, 0.5957842469215393, -0.5987499356269836, -0.23446990549564362, -0.4812313914299011, 8.354870796203613, -4.74932336807251, 1.5437554121017456, 0.4565737247467041, -0.6695432662963867, 0.47240331768989563, -0.79541015625, 0.29931640625, 0.146484375, 
179, 3638030697, 0.5958582162857056, -0.5987049341201782, -0.23450922966003418, -0.4811767339706421, 8.340343475341797, -4.708923816680908, 1.5529966354370117, 0.9055913090705872, -0.8281978964805603, 0.23539483547210693, -0.7958984375, 0.30224609375, 0.149169921875, 
180, 3638039030, 0.5959252715110779, -0.5986374616622925, -0.23458313941955566, -0.4811416268348694, 8.29842758178711, -4.7007551193237305, 1.5739690065383911, 1.2070708274841309, -0.9092156887054443, -0.23384515941143036, -0.794921875, 0.2998046875, 0.146484375, 
181, 3638047363, 0.5959869027137756, -0.5985724329948425, -0.23466607928276062, -0.4811054468154907, 8.25444507598877, -4.691893100738525, 1.5912500619888306, 1.2583248615264893, -0.9718425273895264, -0.40930265188217163, -0.794921875, 0.301513671875, 0.14599609375, 
182, 3638055696, 0.5960286855697632, -0.598502516746521, -0.23474711179733276, -0.4811011552810669, 8.205862998962402, -4.665041446685791, 1.6268566846847534, 0.9670654535293579, -0.7794027924537659, -0.7186457514762878, -0.79541015625, 0.30029296875, 0.1474609375, 
183, 3638064029, 0.5960302948951721, -0.5984699130058289, -0.2347976267337799, -0.48111528158187866, 8.1898193359375, -4.634090900421143, 1.6225723028182983, 0.3125961124897003, -0.8132391571998596, -0.8068612217903137, -0.79736328125, 0.30224609375, 0.1484375, 
184, 3638072362, 0.5960015654563904, -0.598455011844635, -0.23482665419578552, -0.4811551868915558, 8.242757797241211, -4.650542259216309, 1.5999979972839355, -0.5485416054725647, -0.578561544418335, -0.9421299695968628, -0.79541015625, 0.30126953125, 0.14697265625, 
185, 3638080695, 0.5959460139274597, -0.5984636545181274, -0.2348271608352661, -0.48121291399002075, 8.266557693481445, -4.6799750328063965, 1.5804667472839355, -1.2612577676773071, -0.3307693898677826, -1.0575988292694092, -0.796875, 0.2998046875, 0.14794921875, 
186, 3638089028, 0.5958582162857056, -0.5984904766082764, -0.23478657007217407, -0.48130810260772705, 8.330323219299316, -4.721654891967773, 1.5442315340042114, -2.0184144973754883, -0.02311684563755989, -1.0776036977767944, -0.79638671875, 0.29931640625, 0.14697265625, 
187, 3638097361, 0.5957409739494324, -0.598540723323822, -0.23471879959106445, -0.48142367601394653, 8.390929222106934, -4.763672351837158, 1.5535610914230347, -2.6550562381744385, 0.17776279151439667, -1.2225546836853027, -0.80078125, 0.30224609375, 0.14697265625, 
188, 3638105694, 0.5956076383590698, -0.5985907912254333, -0.2346293032169342, -0.48157012462615967, 8.432727813720703, -4.792274475097656, 1.537243366241455, -3.0725176334381104, 0.4990166127681732, -1.3216562271118164, -0.79736328125, 0.29931640625, 0.1494140625, 
189, 3638114027, 0.5954350233078003, -0.5986649990081787, -0.23449480533599854, -0.4817567467689514, 8.467757225036621, -4.840147972106934, 1.5602047443389893, -3.3410565853118896, 0.6085173487663269, -1.414840579032898, -0.796875, 0.2998046875, 0.146484375, 
190, 3638122360, 0.5953013896942139, -0.59870845079422, -0.23439037799835205, -0.48191869258880615, 8.47038459777832, -4.909111976623535, 1.581170678138733, -3.169595718383789, 0.792273998260498, -1.349652647972107, -0.7958984375, 0.2998046875, 0.14697265625, 
191, 3638130693, 0.5951868295669556, -0.5987555980682373, -0.2342766970396042, -0.48205697536468506, 8.445867538452148, -4.878223896026611, 1.5857311487197876, -3.0686237812042236, 0.8197323679924011, -1.038285732269287, -0.7978515625, 0.29833984375, 0.146484375, 
192, 3638139026, 0.5950824618339539, -0.5988030433654785, -0.2341526746749878, -0.48218703269958496, 8.405216217041016, -4.890050411224365, 1.5961277484893799, -2.9882209300994873, 0.7592828273773193, -0.7207974195480347, -0.798583984375, 0.295166015625, 0.1474609375, 
193, 3638147359, 0.5949842929840088, -0.5988724231719971, -0.23400776088237762, -0.4822925329208374, 8.405145645141602, -4.847934246063232, 1.5665444135665894, -3.109452962875366, 0.6512419581413269, -0.31209665536880493, -0.796875, 0.29931640625, 0.1474609375, 
194, 3638155692, 0.5948972105979919, -0.5989541411399841, -0.23385772109031677, -0.4823710024356842, 8.396854400634766, -4.844489097595215, 1.554283618927002, -3.1325314044952393, 0.3757864534854889, 0.14080145955085754, -0.7978515625, 0.29833984375, 0.14599609375, 
195, 3638164025, 0.5948153138160706, -0.599072277545929, -0.2336922287940979, -0.48240572214126587, 8.4028959274292, -4.873140335083008, 1.6027402877807617, -3.3983049392700195, 0.030711468309164047, 0.6773172616958618, -0.79443359375, 0.30029296875, 0.1474609375, 
196, 3638172358, 0.5947285294532776, -0.5992223620414734, -0.23348183929920197, -0.48242810368537903, 8.404901504516602, -4.829587459564209, 1.7000843286514282, -3.9074130058288574, -0.044991400092840195, 1.3202089071273804, -0.79541015625, 0.2998046875, 0.146484375, 
197, 3638180691, 0.5945939421653748, -0.5994322299957275, -0.2331874668598175, -0.4824754595756531, 8.40279769897461, -4.765275478363037, 1.7372599840164185, -4.682602882385254, -0.04376192390918732, 1.7430487871170044, -0.7978515625, 0.2998046875, 0.1474609375, 
198, 3638189024, 0.5944466590881348, -0.5996724367141724, -0.23287013173103333, -0.4825119972229004, 8.436213493347168, -4.756198406219482, 1.8143529891967773, -5.900842189788818, 0.1533268392086029, 1.9718608856201172, -0.793701171875, 0.29833984375, 0.1484375, 
199, 3638197357, 0.5942771434783936, -0.5999600291252136, -0.23247367143630981, -0.4825543165206909, 8.46390438079834, -4.737217426300049, 1.9188849925994873, -7.133244514465332, 0.6186094284057617, 2.469289541244507, -0.79638671875, 0.298828125, 0.146484375, 
200, 3638205690, 0.5940654277801514, -0.6002911925315857, -0.2319856435060501, -0.4826383590698242, 8.488161087036133, -4.712151050567627, 2.080035924911499, -8.461751937866211, 1.1310478448867798, 2.853963851928711, -0.806884765625, 0.300537109375, 0.148193359375, 
201, 3638214023, 0.5938105583190918, -0.6006667017936707, -0.23139646649360657, -0.48276737332344055, 8.506675720214844, -4.705984592437744, 2.18646240234375, -10.049297332763672, 2.0133814811706543, 3.0797531604766846, -0.794677734375, 0.298828125, 0.1484375, 
202, 3638222356, 0.5934993028640747, -0.6010686755180359, -0.23069587349891663, -0.48298507928848267, 8.50007438659668, -4.712451457977295, 2.234896421432495, -11.696550369262695, 3.1837220191955566, 3.083134651184082, -0.795166015625, 0.296875, 0.1494140625, 
203, 3638230689, 0.5931600332260132, -0.6014701128005981, -0.22993487119674683, -0.48326486349105835, 8.512530326843262, -4.7776007652282715, 2.322164297103882, -12.712077140808105, 4.286261558532715, 2.7701287269592285, -0.7958984375, 0.29931640625, 0.1484375, 
204, 3638239022, 0.5928083062171936, -0.6018491387367249, -0.22912588715553284, -0.4836088716983795, 8.488716125488281, -4.820686340332031, 2.4535672664642334, -12.964455604553223, 5.137832164764404, 2.6061208248138428, -0.795166015625, 0.29931640625, 0.14794921875, 
205, 3638247355, 0.5924714207649231, -0.602182149887085, -0.2283453643321991, -0.48397618532180786, 8.543384552001953, -4.862029552459717, 2.573448896408081, -12.545740127563477, 5.625220775604248, 2.0180180072784424, -0.79638671875, 0.30029296875, 0.1474609375, 
206, 3638255688, 0.5921694040298462, -0.6024258732795715, -0.22758430242538452, -0.48440077900886536, 8.682075500488281, -4.986558437347412, 2.7360353469848633, -11.383722305297852, 6.468080997467041, 1.4608054161071777, -0.79541015625, 0.30029296875, 0.146484375, 
207, 3638264021, 0.5919726490974426, -0.6025421619415283, -0.226901113986969, -0.48481664061546326, 8.749176979064941, -5.075475215911865, 2.9342281818389893, -9.23056411743164, 7.164660930633545, 1.0513875484466553, -0.796875, 0.2998046875, 0.14599609375, 
208, 3638272354, 0.5919284820556641, -0.602497935295105, -0.22632867097854614, -0.48519307374954224, 8.718574523925781, -5.192425727844238, 3.1170599460601807, -5.495547294616699, 7.2585625648498535, 1.1082510948181152, -0.79833984375, 0.30078125, 0.1474609375, 
209, 3638280687, 0.5920660495758057, -0.6022772192955017, -0.225880965590477, -0.4855075776576996, 8.693573951721191, -5.241549491882324, 3.2855002880096436, -1.4236010313034058, 7.437888145446777, 1.1894739866256714, -0.798828125, 0.2998046875, 0.14111328125, 
210, 3638289020, 0.5924174785614014, -0.6018677353858948, -0.22559711337089539, -0.48571884632110596, 8.704259872436523, -5.213994026184082, 3.406795024871826, 3.1943771839141846, 7.2096147537231445, 1.5669254064559937, -0.796875, 0.302001953125, 0.14306640625, 
211, 3638297353, 0.5930240154266357, -0.6012925505638123, -0.22541943192481995, -0.48577365279197693, 8.845242500305176, -5.233555793762207, 3.6094818115234375, 8.253240585327148, 6.709111213684082, 3.161591053009033, -0.802734375, 0.30126953125, 0.142333984375, 
212, 3638305686, 0.5939359068870544, -0.6005160808563232, -0.22540238499641418, -0.4856279492378235, 8.988067626953125, -5.244273662567139, 3.7761807441711426, 13.712327003479004, 6.272209644317627, 4.875850200653076, -0.7998046875, 0.302734375, 0.14306640625, 
213, 3638314019, 0.5951266884803772, -0.5995104312896729, -0.2254987359046936, -0.4853678047657013, 9.04549503326416, -5.190561771392822, 3.9713940620422363, 19.42827606201172, 6.512805938720703, 6.044295787811279, -0.805419921875, 0.30126953125, 0.136474609375, 
214, 3638322352, 0.596637487411499, -0.5982255935668945, -0.22575807571411133, -0.4849777817726135, 9.001136779785156, -5.154211044311523, 4.180986404418945, 25.410770416259766, 7.245528697967529, 7.015307426452637, -0.798583984375, 0.3056640625, 0.1357421875, 
215, 3638330685, 0.5984190702438354, -0.5966669321060181, -0.2261154055595398, -0.48453599214553833, 9.06676959991455, -4.898165702819824, 4.358875751495361, 30.637500762939453, 8.655160903930664, 7.509280681610107, -0.800048828125, 0.3076171875, 0.13330078125, 
216, 3638339018, 0.6004371643066406, -0.5948203206062317, -0.2265300154685974, -0.4841160178184509, 9.163830757141113, -4.664424419403076, 4.618250846862793, 35.3228645324707, 11.044563293457031, 7.620371341705322, -0.798583984375, 0.30908203125, 0.12939453125, 
217, 3638347351, 0.6025984287261963, -0.592743456363678, -0.22694504261016846, -0.4837833344936371, 9.084988594055176, -4.2724528312683105, 4.610646724700928, 37.90996551513672, 13.752764701843262, 7.029017448425293, -0.80126953125, 0.310546875, 0.1279296875, 
218, 3638355684, 0.6047377586364746, -0.5904977321624756, -0.22725734114646912, -0.4837138056755066, 9.02827262878418, -4.0690531730651855, 4.5566229820251465, 37.84181213378906, 17.786731719970703, 5.114709854125977, -0.80517578125, 0.31201171875, 0.124267578125, 
219, 3638364017, 0.6068028807640076, -0.5881329774856567, -0.2274661660194397, -0.4839102625846863, 9.064102172851562, -4.136516094207764, 4.406706809997559, 36.874977111816406, 21.120044708251953, 2.884141683578491, -0.802001953125, 0.3154296875, 0.118408203125, 
220, 3638372350, 0.608782172203064, -0.5856263041496277, -0.22766053676605225, -0.4843727946281433, 9.091766357421875, -4.1828460693359375, 4.342755317687988, 36.27253341674805, 24.313199996948242, -0.23809748888015747, -0.804443359375, 0.31591796875, 0.112060546875, 
221, 3638380683, 0.6106861233711243, -0.5829592347145081, -0.22790223360061646, -0.4850791394710541, 9.034158706665039, -4.239256381988525, 4.47335958480835, 36.62788391113281, 26.49044418334961, -3.6632392406463623, -0.8056640625, 0.31640625, 0.10693359375, 
222, 3638389016, 0.6125426888465881, -0.5801004767417908, -0.22828292846679688, -0.4859856963157654, 8.950643539428711, -4.271600246429443, 4.7622456550598145, 38.08982467651367, 28.280935287475586, -7.376567840576172, -0.81494140625, 0.31640625, 0.101806640625, 
223, 3638397349, 0.61441969871521, -0.5769842863082886, -0.2288392186164856, -0.487062931060791, 8.933279037475586, -4.298177719116211, 5.272469997406006, 40.99790573120117, 29.763683319091797, -10.899126052856445, -0.80810546875, 0.318603515625, 0.09716796875, 
224, 3638405682, 0.6163116097450256, -0.5736286640167236, -0.22948279976844788, -0.48833167552948, 9.015925407409668, -4.235444068908691, 5.735513210296631, 43.181236267089844, 32.38134765625, -13.85289478302002, -0.811279296875, 0.316650390625, 0.089111328125, 
225, 3638414015, 0.6181834936141968, -0.570044755935669, -0.23010730743408203, -0.4898661673069, 9.162819862365723, -4.0321831703186035, 6.076446533203125, 43.8791618347168, 35.904808044433594, -16.816551208496094, -0.812255859375, 0.31689453125, 0.08203125, 
226, 3638422348, 0.6200178861618042, -0.5662820339202881, -0.23062929511070251, -0.4916633069515228, 9.286903381347656, -3.949453353881836, 6.293705463409424, 43.6970100402832, 40.126861572265625, -19.056915283203125, -0.811279296875, 0.315185546875, 0.0751953125, 
227, 3638430681, 0.6218251585960388, -0.5623370409011841, -0.23096048831939697, -0.4937487840652466, 9.318218231201172, -3.861807346343994, 6.40184211730957, 42.70177459716797, 44.89448928833008, -20.779483795166016, -0.814208984375, 0.312255859375, 0.067138671875, 
228, 3638439014, 0.6235437989234924, -0.5582795739173889, -0.23109924793243408, -0.4961150884628296, 9.348021507263184, -3.7180473804473877, 6.377175807952881, 40.912174224853516, 49.443695068359375, -22.663738250732422, -0.819091796875, 0.308837890625, 0.05712890625, 
229, 3638447347, 0.6251654624938965, -0.5540993809700012, -0.23105360567569733, -0.49877482652664185, 9.402432441711426, -3.6132304668426514, 6.4224772453308105, 38.86149215698242, 53.523353576660156, -24.788679122924805, -0.81982421875, 0.31103515625, 0.046630859375, 
230, 3638455680, 0.6266719102859497, -0.5498558282852173, -0.23086997866630554, -0.5016571879386902, 9.596989631652832, -3.7404119968414307, 6.391262531280518, 37.04483413696289, 56.757537841796875, -26.668550491333008, -0.823486328125, 0.30517578125, 0.03662109375, 
231, 3638464013, 0.6281378865242004, -0.5454413294792175, -0.23062559962272644, -0.5047460198402405, 9.80315113067627, -3.920461654663086, 6.578996181488037, 36.95140838623047, 59.566375732421875, -28.763019561767578, -0.82568359375, 0.3037109375, 0.030517578125, 
232, 3638472346, 0.6296640634536743, -0.5407786965370178, -0.23043763637542725, -0.5079371333122253, 9.913567543029785, -4.124418258666992, 7.020125865936279, 39.79838943481445, 62.08650207519531, -30.487136840820312, -0.8271484375, 0.300048828125, 0.01953125, 
233, 3638480679, 0.6312854290008545, -0.5357736349105835, -0.2302970588207245, -0.5112814903259277, 10.07899284362793, -4.365548610687256, 7.494791030883789, 43.110103607177734, 65.14763641357422, -32.52468490600586, -0.83642578125, 0.29736328125, 0.0068359375, 
234, 3638489012, 0.6330434083938599, -0.5303500890731812, -0.23024635016918182, -0.5147731900215149, 10.35947036743164, -4.629018306732178, 7.989049434661865, 48.119747161865234, 69.1881332397461, -34.8922119140625, -0.83203125, 0.293701171875, -0.0029296875, 
235, 3638497345, 0.6350019574165344, -0.5244320034980774, -0.23019644618034363, -0.5184333920478821, 10.481241226196289, -4.7300286293029785, 8.27219009399414, 53.1318359375, 74.1432876586914, -36.4393310546875, -0.83544921875, 0.28759765625, -0.01708984375, 
236, 3638505678, 0.637087345123291, -0.518135666847229, -0.23008835315704346, -0.5222400426864624, 10.521891593933105, -4.555978298187256, 8.42203426361084, 56.69947814941406, 79.20854949951172, -37.66365432739258, -0.834228515625, 0.28271484375, -0.028076171875, 
237, 3638514011, 0.6392582058906555, -0.5114835500717163, -0.22981782257556915, -0.5262482166290283, 10.635248184204102, -4.18923282623291, 8.47536563873291, 58.370872497558594, 84.44458770751953, -38.70040512084961, -0.837890625, 0.279052734375, -0.04296875, 
238, 3638522344, 0.6414101123809814, -0.5046049952507019, -0.22933092713356018, -0.5304660797119141, 10.77927017211914, -3.8898229598999023, 8.454647064208984, 58.249820709228516, 89.84977722167969, -39.9583740234375, -0.83935546875, 0.2744140625, -0.056884765625, 
239, 3638530677, 0.6434743404388428, -0.49752798676490784, -0.2284984141588211, -0.5349907875061035, 10.887323379516602, -3.74601674079895, 8.412920951843262, 55.63185119628906, 95.70830535888672, -41.43428421020508, -0.838134765625, 0.266845703125, -0.072998046875, 
240, 3638539010, 0.6453970670700073, -0.4903542399406433, -0.22731660306453705, -0.5397803783416748, 11.000457763671875, -3.627875566482544, 8.444622039794922, 52.38986587524414, 101.36885070800781, -42.830238342285156, -0.841552734375, 0.263916015625, -0.08837890625, 
241, 3638547343, 0.6472451686859131, -0.4830147624015808, -0.22582800686359406, -0.5447863936424255, 11.083541870117188, -3.5620501041412354, 8.555970191955566, 48.95972442626953, 106.56734466552734, -44.23678970336914, -0.840576171875, 0.25537109375, -0.10302734375, 
242, 3638555676, 0.6488435864448547, -0.4756423830986023, -0.2239452302455902, -0.5501227378845215, 11.1284818649292, -3.5834436416625977, 8.623302459716797, 45.058837890625, 111.72198486328125, -46.05003356933594, -0.8388671875, 0.248779296875, -0.119873046875, 
243, 3638564009, 0.6502922773361206, -0.46813327074050903, -0.2217266857624054, -0.5557234883308411, 11.20103931427002, -3.700568675994873, 8.765789031982422, 41.63676071166992, 116.46825408935547, -47.638519287109375, -0.841796875, 0.24072265625, -0.135009765625, 
244, 3638572342, 0.6516203284263611, -0.4605354070663452, -0.2192281037569046, -0.5614778995513916, 11.353970527648926, -3.9100265502929688, 8.943060874938965, 39.353477478027344, 120.8240966796875, -48.53024673461914, -0.84423828125, 0.236083984375, -0.154296875, 
245, 3638580675, 0.6530007123947144, -0.452681303024292, -0.21653079986572266, -0.5672779083251953, 11.44897174835205, -4.049173831939697, 9.2199125289917, 38.50873947143555, 125.1058578491211, -48.8161735534668, -0.8369140625, 0.224609375, -0.17138671875, 
246, 3638589008, 0.6542730927467346, -0.4446895122528076, -0.21352842450141907, -0.5732396841049194, 11.414111137390137, -4.011260509490967, 9.411417961120605, 38.01315689086914, 129.5277557373047, -48.85305404663086, -0.83642578125, 0.22021484375, -0.190185546875, 
247, 3638597341, 0.655579686164856, -0.4364219903945923, -0.21027711033821106, -0.5792710781097412, 11.460933685302734, -3.9561567306518555, 9.631319999694824, 38.20085525512695, 133.86895751953125, -48.36035919189453, -0.8359375, 0.211669921875, -0.209716796875, 
248, 3638605674, 0.6568809747695923, -0.42797333002090454, -0.2067287266254425, -0.5853456258773804, 11.657502174377441, -3.895540952682495, 9.70400619506836, 37.64704895019531, 138.835205078125, -47.67023849487305, -0.833251953125, 0.205078125, -0.228515625, 
249, 3638614007, 0.6581977605819702, -0.4193090796470642, -0.20280244946479797, -0.5914785861968994, 11.85867977142334, -3.7318358421325684, 9.521728515625, 34.413028717041016, 144.4698944091797, -47.57371139526367, -0.824951171875, 0.199462890625, -0.249755859375, 
250, 3638622340, 0.6592575311660767, -0.4106394052505493, -0.19831618666648865, -0.5978676676750183, 11.936079025268555, -3.576300621032715, 9.097371101379395, 29.77417755126953, 150.2424774169922, -47.65676498413086, -0.826171875, 0.190185546875, -0.267822265625, 
251, 3638630673, 0.6602829694747925, -0.40187186002731323, -0.19342026114463806, -0.6042632460594177, 11.756189346313477, -3.614049196243286, 8.581915855407715, 24.742427825927734, 154.89578247070312, -47.395381927490234, -0.821044921875, 0.181884765625, -0.28857421875, 
252, 3638639006, 0.6610850691795349, -0.39315667748451233, -0.188165083527565, -0.6107439994812012, 11.490933418273926, -3.733478546142578, 8.187137603759766, 22.160871505737305, 157.40899658203125, -46.456241607666016, -0.817138671875, 0.177001953125, -0.311767578125, 
253, 3638647339, 0.6619837284088135, -0.3842540979385376, -0.18292288482189178, -0.616997480392456, 11.22763442993164, -4.003973960876465, 7.813586235046387, 22.538694381713867, 158.1577911376953, -45.910423278808594, -0.8125, 0.167724609375, -0.330322265625, 
254, 3638655672, 0.6627200245857239, -0.37531420588493347, -0.17766055464744568, -0.6232162117958069, 11.018877029418945, -4.2645769119262695, 7.379026412963867, 24.482988357543945, 157.79376220703125, -45.182861328125, -0.803955078125, 0.160400390625, -0.35205078125, 
255, 3638664005, 0.6636567115783691, -0.3661545217037201, -0.17268207669258118, -0.6290401220321655, 10.924591064453125, -4.388761520385742, 7.069460868835449, 28.792699813842773, 155.66355895996094, -43.443485260009766, -0.79833984375, 0.153564453125, -0.372314453125, 
256, 3638672338, 0.6646521687507629, -0.35688239336013794, -0.16802740097045898, -0.6345544457435608, 11.047353744506836, -4.564968585968018, 7.062657833099365, 35.77481460571289, 152.138916015625, -40.432090759277344, -0.788818359375, 0.146240234375, -0.390625, 
257, 3638680671, 0.6660006642341614, -0.3472205400466919, -0.1638963520526886, -0.6395615339279175, 11.332120895385742, -4.775343418121338, 7.221848964691162, 44.64324188232422, 149.25570678710938, -37.99925994873047, -0.782470703125, 0.14111328125, -0.412353515625, 
258, 3638689004, 0.6674148440361023, -0.33721816539764404, -0.16015562415122986, -0.6443691849708557, 11.242406845092773, -4.704732894897461, 7.367936134338379, 54.125423431396484, 147.697021484375, -36.41304397583008, -0.77490234375, 0.132080078125, -0.428466796875, 
259, 3638697337, 0.6691315174102783, -0.32678940892219543, -0.15686243772506714, -0.6487571001052856, 10.629711151123047, -4.228201389312744, 7.466787338256836, 62.196754455566406, 146.28114318847656, -34.882850646972656, -0.76318359375, 0.12060546875, -0.4482421875, 
260, 3638705670, 0.670769453048706, -0.3162097930908203, -0.1537753790616989, -0.6530336141586304, 10.074366569519043, -3.644289493560791, 7.408837795257568, 67.4449462890625, 144.86636352539062, -33.82522201538086, -0.756103515625, 0.1142578125, -0.469482421875, 
261, 3638714003, 0.6723586916923523, -0.3054978847503662, -0.15087778866291046, -0.6571611762046814, 9.52232551574707, -3.4931440353393555, 7.1666436195373535, 70.4705810546875, 143.55560302734375, -33.991310119628906, -0.748046875, 0.10400390625, -0.4853515625, 
262, 3638722336, 0.6739617586135864, -0.29463765025138855, -0.14820675551891327, -0.6610742807388306, 8.871166229248047, -3.494891405105591, 6.831627368927002, 72.84925842285156, 141.91778564453125, -34.686214447021484, -0.73828125, 0.093017578125, -0.502685546875, 
263, 3638730669, 0.6753667593002319, -0.28375527262687683, -0.1458175927400589, -0.6649211645126343, 8.388456344604492, -3.5052826404571533, 6.415378570556641, 75.4870834350586, 138.68572998046875, -36.4345703125, -0.730224609375, 0.084716796875, -0.52001953125, 
264, 3638739002, 0.6765674352645874, -0.2727961242198944, -0.14380693435668945, -0.6687140464782715, 8.233859062194824, -3.4006729125976562, 6.246527194976807, 79.97575378417969, 135.4122772216797, -38.5156135559082, -0.720947265625, 0.073974609375, -0.535888671875, 
265, 3638747335, 0.6776555776596069, -0.2616671323776245, -0.14219239354133606, -0.6723945736885071, 8.111713409423828, -3.1944098472595215, 6.062980651855469, 84.06985473632812, 132.49200439453125, -41.265316009521484, -0.71142578125, 0.062255859375, -0.55419921875, 
266, 3638755668, 0.6785094738006592, -0.25039511919021606, -0.14099393784999847, -0.6760679483413696, 7.951577663421631, -3.180007219314575, 6.16306209564209, 89.3510513305664, 129.60618591308594, -44.20346450805664, -0.70166015625, 0.048828125, -0.568603515625, 
267, 3638764001, 0.6792281866073608, -0.2389521449804306, -0.14013978838920593, -0.6796557903289795, 7.894138336181641, -3.1990039348602295, 6.478627681732178, 93.4245834350586, 127.16058349609375, -46.43696594238281, -0.69140625, 0.0361328125, -0.58349609375, 
268, 3638772334, 0.6797297596931458, -0.22745893895626068, -0.13940197229385376, -0.6832402348518372, 7.808036804199219, -2.9816627502441406, 6.91367769241333, 94.6966323852539, 126.3796615600586, -48.65388488769531, -0.6845703125, 0.02197265625, -0.592529296875, 
269, 3638780667, 0.6800273656845093, -0.2159639596939087, -0.13846684992313385, -0.6868546009063721, 7.596636772155762, -2.524444580078125, 7.163080215454102, 91.80046844482422, 127.70598602294922, -50.47453308105469, -0.67431640625, 0.00830078125, -0.6103515625, 
270, 3638789000, 0.680044949054718, -0.20462965965270996, -0.1371440887451172, -0.6905628442764282, 7.345642566680908, -2.1806180477142334, 7.096410274505615, 85.98944091796875, 129.79576110839844, -52.30411148071289, -0.66162109375, -0.004638671875, -0.6220703125, 
271, 3638797333, 0.6797958612442017, -0.19351519644260406, -0.13530635833740234, -0.6943643093109131, 7.227684497833252, -2.0261576175689697, 6.848151206970215, 77.9905014038086, 132.04043579101562, -53.701072692871094, -0.652587890625, -0.02197265625, -0.635009765625, 
272, 3638805666, 0.6792716383934021, -0.18276023864746094, -0.13293758034706116, -0.6982380151748657, 7.077848434448242, -1.8931185007095337, 6.581265449523926, 68.81847381591797, 133.49520874023438, -55.06502151489258, -0.6396484375, -0.03076171875, -0.6474609375, 
273, 3638813999, 0.6784785985946655, -0.17233596742153168, -0.13015040755271912, -0.7021737098693848, 6.837536334991455, -1.8506585359573364, 6.470164775848389, 60.98457336425781, 133.67340087890625, -56.0667724609375, -0.626220703125, -0.043212890625, -0.65966796875, 
274, 3638822332, 0.6774917244911194, -0.1622757762670517, -0.12709148228168488, -0.7060730457305908, 6.6254963874816895, -1.6751832962036133, 6.5481858253479, 54.508975982666016, 132.47824096679688, -56.802738189697266, -0.615478515625, -0.055419921875, -0.672607421875, 
275, 3638830665, 0.6762692332267761, -0.15241581201553345, -0.12409641593694687, -0.709964394569397, 6.215438365936279, -1.7477517127990723, 6.560489654541016, 53.029911041259766, 129.3257293701172, -57.80134582519531, -0.599853515625, -0.066650390625, -0.683349609375, 
276, 3638838998, 0.6749475002288818, -0.14263129234313965, -0.12124260514974594, -0.7137383222579956, 5.674197196960449, -2.1133153438568115, 6.593486785888672, 53.421077728271484, 127.04573059082031, -58.85649108886719, -0.589111328125, -0.080078125, -0.696044921875, 
277, 3638847331, 0.6734745502471924, -0.1329149305820465, -0.11865061521530151, -0.7174313068389893, 5.263662815093994, -2.2222023010253906, 7.120856285095215, 55.68960952758789, 123.40081024169922, -58.38306427001953, -0.5791015625, -0.088623046875, -0.7060546875, 
278, 3638855664, 0.6721711158752441, -0.12294837832450867, -0.11694812774658203, -0.720703125, 5.362101078033447, -2.3682100772857666, 7.680641174316406, 67.28788757324219, 117.27195739746094, -56.44598388671875, -0.562255859375, -0.102294921875, -0.71484375, 
279, 3638863997, 0.6708489060401917, -0.11240646243095398, -0.11582516133785248, -0.723831057548523, 5.7538933753967285, -2.8948426246643066, 7.786041736602783, 78.5476303100586, 117.34429168701172, -57.2111930847168, -0.552978515625, -0.115478515625, -0.72265625, 
280, 3638872330, 0.6693964600563049, -0.10122822225093842, -0.11525557190179825, -0.7269096970558167, 5.74424934387207, -2.8271021842956543, 7.744426250457764, 90.2166519165039, 118.25067138671875, -58.38301086425781, -0.5380859375, -0.130615234375, -0.7333984375, 
281, 3638880663, 0.667916476726532, -0.0895879715681076, -0.11514683812856674, -0.7298101186752319, 5.4403157234191895, -2.2749345302581787, 7.593626976013184, 99.31877136230469, 118.39754486083984, -58.43989181518555, -0.529296875, -0.145263671875, -0.739501953125, 
282, 3638888996, 0.6664544939994812, -0.07781919836997986, -0.115275539457798, -0.7324712872505188, 5.325869560241699, -1.4131486415863037, 7.748899459838867, 102.87312316894531, 117.21678161621094, -58.0461311340332, -0.514404296875, -0.157958984375, -0.747314453125, 
283, 3638897329, 0.6647484302520752, -0.06620772182941437, -0.1152106449007988, -0.7351683378219604, 5.266688823699951, -0.42392221093177795, 7.781628131866455, 99.36773681640625, 117.1234130859375, -59.56696319580078, -0.4990234375, -0.175048828125, -0.752685546875, 
284, 3638905662, 0.6628519296646118, -0.05493907257914543, -0.11458216607570648, -0.7379023432731628, 4.761653900146484, 0.27532660961151123, 7.974332332611084, 90.09906005859375, 118.47576904296875, -61.58641815185547, -0.487548828125, -0.195556640625, -0.7587890625, 
285, 3638913995, 0.6607316732406616, -0.044300541281700134, -0.11315222084522247, -0.7407346367835999, 4.122090816497803, 0.6847209930419922, 8.175811767578125, 76.23167419433594, 119.3029556274414, -61.70012664794922, -0.473876953125, -0.205810546875, -0.76904296875, 
286, 3638922328, 0.6585677862167358, -0.034395962953567505, -0.11088629812002182, -0.7435252666473389, 3.8420000076293945, 0.8936985731124878, 8.504722595214844, 60.75248336791992, 119.13593292236328, -61.56565856933594, -0.45654296875, -0.21875, -0.7724609375, 
287, 3638930661, 0.6562389731407166, -0.025128943845629692, -0.10776695609092712, -0.7464084029197693, 3.9033689498901367, 0.8358834385871887, 8.975563049316406, 46.32487106323242, 120.3968276977539, -61.20676040649414, -0.44287109375, -0.22802734375, -0.7783203125, 
288, 3638938994, 0.6539363265037537, -0.016336143016815186, -0.10378095507621765, -0.7492328882217407, 3.849803924560547, 0.7396096587181091, 9.530104637145996, 32.954776763916016, 123.10916137695312, -60.91347122192383, -0.42822265625, -0.238525390625, -0.787353515625, 
289, 3638947327, 0.6515302062034607, -0.007983147166669369, -0.09894654154777527, -0.7521132230758667, 3.6674840450286865, 0.7622239589691162, 9.616226196289062, 20.41203498840332, 126.39590454101562, -60.02311706542969, -0.41162109375, -0.244140625, -0.793701171875, 
290, 3638955660, 0.6491882801055908, 0.00019721873104572296, -0.09360164403915405, -0.754859983921051, 3.5821027755737305, 0.5979452133178711, 9.35980224609375, 13.516822814941406, 128.93260192871094, -59.51385498046875, -0.39697265625, -0.253173828125, -0.80126953125, 
291, 3638963993, 0.6466705799102783, 0.008419089019298553, -0.08816982805728912, -0.7576229572296143, 3.1873958110809326, 0.027571335434913635, 8.979239463806152, 13.174946784973145, 130.2925567626953, -59.78044509887695, -0.379638671875, -0.25732421875, -0.809326171875, 
292, 3638972326, 0.6441970467567444, 0.016852308064699173, -0.08307043462991714, -0.7601615190505981, 2.469411611557007, -0.36876240372657776, 8.846846580505371, 18.575908660888672, 129.23939514160156, -59.301063537597656, -0.37109375, -0.262451171875, -0.815673828125, 
293, 3638980659, 0.6415470838546753, 0.025591645389795303, -0.078697569668293, -0.7626199722290039, 2.0352444648742676, -0.636254608631134, 8.68696117401123, 29.151750564575195, 126.20118713378906, -59.0996208190918, -0.343994140625, -0.268310546875, -0.82373046875, 
294, 3638988992, 0.6388763785362244, 0.034741826355457306, -0.07508701831102371, -0.7648609280586243, 2.1120216846466064, -0.7759215235710144, 8.685954093933105, 40.876216888427734, 123.45773315429688, -59.08870315551758, -0.331787109375, -0.27783203125, -0.825927734375, 
295, 3638997325, 0.6360737085342407, 0.044298116117715836, -0.07212662696838379, -0.7669849395751953, 2.2081222534179688, -0.5764943957328796, 8.67674732208252, 51.46653366088867, 121.93601989746094, -59.55762481689453, -0.314697265625, -0.28564453125, -0.832763671875, 
296, 3639005658, 0.6330627202987671, 0.05410239100456238, -0.06960101425647736, -0.7690775394439697, 2.082122802734375, -0.18813484907150269, 8.672945022583008, 58.45267105102539, 121.0211181640625, -59.79814147949219, -0.296630859375, -0.293212890625, -0.83349609375, 
297, 3639013991, 0.6299864053726196, 0.06404567509889603, -0.0672721341252327, -0.7710446119308472, 1.9573194980621338, 0.11062313616275787, 8.532867431640625, 61.905269622802734, 120.7909927368164, -59.71878433227539, -0.2802734375, -0.30712890625, -0.839111328125, 
298, 3639022324, 0.6269257068634033, 0.07395096868276596, -0.06478731334209442, -0.7728636264801025, 1.8817965984344482, 0.4652852714061737, 8.56615161895752, 59.97886276245117, 121.44210052490234, -59.7006950378418, -0.26123046875, -0.31591796875, -0.84228515625, 
299, 3639030657, 0.6237812638282776, 0.08358614146709442, -0.06181114539504051, -0.774667501449585, 1.8636027574539185, 0.9613096714019775, 8.544557571411133, 52.5454216003418, 123.27497100830078, -59.20762634277344, -0.244873046875, -0.32666015625, -0.84521484375, 
300, 3639038990, 0.6207398176193237, 0.0929110199213028, -0.05808575823903084, -0.7763348817825317, 1.6198331117630005, 1.5475215911865234, 8.264877319335938, 41.88203811645508, 126.114501953125, -59.04905700683594, -0.228759765625, -0.334716796875, -0.847412109375, 
301, 3639047323, 0.6175912022590637, 0.10211686789989471, -0.05398174375295639, -0.7779842019081116, 1.087078332901001, 1.1434495449066162, 7.661223411560059, 36.928810119628906, 128.59625244140625, -58.87092971801758, -0.211669921875, -0.342529296875, -0.8515625, 
302, 3639055656, 0.6145496368408203, 0.11113312840461731, -0.04957231879234314, -0.7794491052627563, 0.7263706922531128, 0.6189263463020325, 7.621270179748535, 32.08419418334961, 128.9175262451172, -58.00444793701172, -0.193115234375, -0.349365234375, -0.853271484375, 
303, 3639063989, 0.611465573310852, 0.12008363008499146, -0.045220546424388885, -0.7808104753494263, 0.6533660292625427, 0.57965487241745, 7.50593900680542, 32.17859649658203, 128.46548461914062, -55.93104934692383, -0.177978515625, -0.35400390625, -0.853515625, 
304, 3639072322, 0.6084489226341248, 0.12901683151721954, -0.04061700403690338, -0.781994104385376, 0.8421008586883545, 0.40814971923828125, 7.344486236572266, 29.43178367614746, 130.12020874023438, -55.63861846923828, -0.155517578125, -0.360107421875, -0.85595703125, 
305, 3639080655, 0.6054025292396545, 0.13774888217449188, -0.03558177128434181, -0.7831137776374817, 0.9974912405014038, 0.6853386163711548, 7.239210605621338, 23.047733306884766, 132.29893493652344, -54.614959716796875, -0.139404296875, -0.36474609375, -0.857177734375, 
306, 3639088988, 0.6026405692100525, 0.14608348906040192, -0.029744885861873627, -0.7839767336845398, 1.069886565208435, 1.3373278379440308, 7.061180114746094, 10.840066909790039, 134.68565368652344, -52.20176315307617, -0.117431640625, -0.367919921875, -0.859375, 
307, 3639097321, 0.6000157594680786, 0.1537954956293106, -0.022825947031378746, -0.7847464084625244, 0.9652673602104187, 1.8377711772918701, 6.313554763793945, -6.418574810028076, 137.83168029785156, -50.476531982421875, -0.100341796875, -0.371337890625, -0.86181640625, 
308, 3639105654, 0.5977073311805725, 0.1608470380306244, -0.014857284724712372, -0.7852855920791626, 0.06944330781698227, 1.6337496042251587, 5.1499342918396, -23.596630096435547, 139.30357360839844, -48.56172561645508, -0.080078125, -0.37255859375, -0.864501953125, 
309, 3639113987, 0.5955067873001099, 0.16732724010944366, -0.006811065599322319, -0.7857142686843872, -1.6383275985717773, 0.7728922963142395, 4.279245853424072, -29.636646270751953, 134.71417236328125, -45.07604217529297, -0.064208984375, -0.369873046875, -0.866943359375, 
310, 3639122320, 0.5934402346611023, 0.1735866516828537, 0.0002709142863750458, -0.7859492897987366, -3.328225612640381, -0.43669629096984863, 4.209366798400879, -21.026243209838867, 124.21522521972656, -41.27396774291992, -0.04541015625, -0.369140625, -0.872802734375, 
311, 3639130653, 0.5913611650466919, 0.17963723838329315, 0.005809007212519646, -0.7861352562904358, -4.044607639312744, -1.1735304594039917, 5.0065507888793945, -5.9039201736450195, 109.79644012451172, -37.36430740356445, -0.027587890625, -0.365478515625, -0.874755859375, 
312, 3639138986, 0.5891869068145752, 0.18565566837787628, 0.009830535389482975, -0.7863296270370483, -3.1556930541992188, -0.8453310132026672, 6.343587398529053, 10.354484558105469, 96.78192138671875, -34.676822662353516, -0.01123046875, -0.366455078125, -0.87548828125, 
313, 3639147319, 0.5868969559669495, 0.19173862040042877, 0.012989354319870472, -0.7865365147590637, -1.8904129266738892, -0.3509993255138397, 6.99606466293335, 20.637836456298828, 90.76978302001953, -33.841129302978516, -0.00048828125, -0.36962890625, -0.874267578125, 
314, 3639155652, 0.5845996737480164, 0.1978505700826645, 0.015981175005435944, -0.7866786122322083, -1.6777909994125366, 0.043000705540180206, 7.060537338256836, 22.551067352294922, 89.61162567138672, -32.92949295043945, 0.013427734375, -0.372802734375, -0.8759765625, 
315, 3639163985, 0.5824874043464661, 0.20359395444393158, 0.019192231819033623, -0.7867081761360168, -1.919113039970398, 0.9686030149459839, 7.034185409545898, 16.83977699279785, 87.9553451538086, -30.71695327758789, 0.02587890625, -0.375, -0.873779296875, 
316, 3639172318, 0.580558180809021, 0.2088511884212494, 0.02309497818350792, -0.7866513133049011, -1.8271572589874268, 1.9474130868911743, 6.597946643829346, 4.77569580078125, 88.12610626220703, -30.09247589111328, 0.038818359375, -0.37451171875, -0.873046875, 
317, 3639180651, 0.5787926316261292, 0.21348071098327637, 0.028038959950208664, -0.7865488529205322, -2.191479206085205, 2.3564183712005615, 5.92458438873291, -11.833693504333496, 90.03854370117188, -31.16058349609375, 0.05029296875, -0.375732421875, -0.873291015625, 
318, 3639188984, 0.5771592259407043, 0.217569962143898, 0.03377440199255943, -0.7864032983779907, -3.2822563648223877, 1.8950166702270508, 5.200320243835449, -25.250024795532227, 90.25885772705078, -31.908557891845703, 0.032958984375, -0.373291015625, -0.8740234375, 
319, 3639197317, 0.5756404399871826, 0.2210964858531952, 0.039768725633621216, -0.786252498626709, -4.317564010620117, 0.9200761318206787, 4.9183783531188965, -32.72422409057617, 86.49455261230469, -31.673776626586914, 0.076171875, -0.371826171875, -0.87451171875, 
320, 3639205650, 0.5742323994636536, 0.22415800392627716, 0.04557337611913681, -0.7861002683639526, -4.259598255157471, 0.44288283586502075, 4.92871618270874, -34.82773208618164, 79.60598754882812, -30.130813598632812, 0.0869140625, -0.366455078125, -0.87548828125, 
321, 3639213983, 0.5728055834770203, 0.22713766992092133, 0.05071813613176346, -0.7859706878662109, -3.2277870178222656, -0.12599606812000275, 5.13766622543335, -28.132352828979492, 73.73023223876953, -28.5277099609375, 0.099609375, -0.361083984375, -0.875244140625, 
322, 3639222316, 0.5712825059890747, 0.23026302456855774, 0.05521027743816376, -0.7858670949935913, -2.717118263244629, -0.7528202533721924, 5.295201778411865, -19.747373580932617, 69.8724365234375, -27.63463020324707, 0.10888671875, -0.358642578125, -0.876953125, 
323, 3639230649, 0.5697324275970459, 0.23346580564975739, 0.058981671929359436, -0.7857734560966492, -3.2974655628204346, -0.5868316888809204, 5.601709365844727, -11.109505653381348, 65.30455780029297, -25.648386001586914, 0.118896484375, -0.35693359375, -0.877197265625, 
324, 3639238982, 0.5681899189949036, 0.23676170408725739, 0.06210331618785858, -0.7856636643409729, -3.8352885246276855, -0.31253519654273987, 5.792479991912842, -3.5443832874298096, 60.997955322265625, -23.29354476928711, 0.126708984375, -0.35400390625, -0.876953125, 
325, 3639247315, 0.5667123794555664, 0.24002884328365326, 0.06486392021179199, -0.7855164408683777, -4.1450886726379395, -0.27994558215141296, 5.77508020401001, 0.05007599666714668, 58.19133377075195, -21.12112045288086, 0.13525390625, -0.354736328125, -0.876708984375, 
326, 3639255648, 0.5653693675994873, 0.2431989461183548, 0.0674399882555008, -0.7852922081947327, -4.51157808303833, -0.1010151356458664, 5.6236395835876465, 0.6124894022941589, 55.58026885986328, -18.572040557861328, 0.14306640625, -0.35400390625, -0.8759765625, 
327, 3639263981, 0.5642797946929932, 0.24607671797275543, 0.07004290819168091, -0.7849513292312622, -4.689727306365967, 0.28255194425582886, 5.473506927490234, -2.7331230640411377, 53.028564453125, -15.248373985290527, 0.151123046875, -0.35546875, -0.871826171875, 
328, 3639272314, 0.5634674429893494, 0.2486349493265152, 0.0729273185133934, -0.7844660878181458, -4.640267372131348, 0.499960720539093, 5.085310935974121, -9.50035572052002, 51.74482345581055, -12.436163902282715, 0.158203125, -0.354736328125, -0.8720703125, 
329, 3639280647, 0.5629919767379761, 0.25074148178100586, 0.07617761194705963, -0.7838276624679565, -4.573568820953369, 0.5723850131034851, 4.689099311828613, -18.076074600219727, 50.11235427856445, -9.267803192138672, 0.16162109375, -0.353515625, -0.87451171875, 
330, 3639288980, 0.5628735423088074, 0.2524116337299347, 0.07973842322826385, -0.7830221652984619, -4.232960224151611, 0.7513182759284973, 4.320418834686279, -26.384870529174805, 47.79447555541992, -5.7077250480651855, 0.17431640625, -0.3505859375, -0.873291015625, 
331, 3639297313, 0.5630103349685669, 0.25366097688674927, 0.08368932455778122, -0.7821072936058044, -4.0733962059021, 0.7442916631698608, 3.707867383956909, -34.6710319519043, 46.5802116394043, -3.8646998405456543, 0.18017578125, -0.348388671875, -0.8740234375, 
332, 3639305646, 0.5633199214935303, 0.2545870244503021, 0.08784042298793793, -0.7811276316642761, -4.546124458312988, 0.3008439540863037, 2.9367849826812744, -40.182640075683594, 44.48169708251953, -2.6386842727661133, 0.18408203125, -0.3447265625, -0.874755859375, 
333, 3639313979, 0.5637439489364624, 0.25524935126304626, 0.09173090755939484, -0.7801578044891357, -5.004746437072754, -0.038693975657224655, 2.499478578567505, -39.63865280151367, 39.62772750854492, -0.8188126087188721, 0.191162109375, -0.33642578125, -0.87890625, 
334, 3639322312, 0.5642259120941162, 0.25576138496398926, 0.09505581855773926, -0.7792431116104126, -5.315211772918701, -0.11622314155101776, 2.4055581092834473, -35.04472351074219, 33.19523239135742, 1.0987120866775513, 0.195556640625, -0.331298828125, -0.877685546875, 
335, 3639330645, 0.5647591352462769, 0.25613754987716675, 0.09771916270256042, -0.7784034013748169, -5.4505085945129395, -0.07967191189527512, 2.4530248641967773, -28.915077209472656, 26.399768829345703, 3.29995059967041, 0.194580078125, -0.329833984375, -0.878173828125, 
336, 3639338978, 0.5653250217437744, 0.2564100921154022, 0.0997534692287445, -0.7776445150375366, -5.452777862548828, 0.17915961146354675, 2.5256564617156982, -23.17037010192871, 19.952720642089844, 5.013439178466797, 0.200439453125, -0.326171875, -0.8798828125, 
337, 3639347311, 0.5659079551696777, 0.25653398036956787, 0.101331926882267, -0.776975154876709, -5.392434120178223, 0.3969497084617615, 2.5470402240753174, -19.208919525146484, 14.560919761657715, 5.997973442077637, 0.202880859375, -0.323974609375, -0.8798828125, 
338, 3639355644, 0.5665394067764282, 0.25647875666618347, 0.10251069068908691, -0.7763783931732178, -5.261002063751221, 0.372035413980484, 2.371798515319824, -16.581790924072266, 9.132643699645996, 7.018341064453125, 0.204833984375, -0.323486328125, -0.87744140625, 
339, 3639363977, 0.5672770142555237, 0.25614026188850403, 0.10337121039628983, -0.7758371829986572, -4.980391025543213, 0.44675755500793457, 2.272225856781006, -15.509167671203613, 3.3215138912200928, 8.54328441619873, 0.207275390625, -0.32080078125, -0.879150390625, 
340, 3639372310, 0.5681708455085754, 0.25545477867126465, 0.1039876788854599, -0.775326669216156, -4.569590091705322, 0.8489931225776672, 2.267451286315918, -16.297882080078125, -2.6533281803131104, 10.234593391418457, 0.201171875, -0.319091796875, -0.87939453125, 
341, 3639380643, 0.5691871643066406, 0.2544211447238922, 0.1045226976275444, -0.7748490571975708, -4.474121570587158, 1.2342926263809204, 2.2771403789520264, -18.35801124572754, -7.290633678436279, 11.176712989807129, 0.203125, -0.31787109375, -0.88134765625, 
342, 3639388976, 0.5703310966491699, 0.2529924511909485, 0.10503989458084106, -0.7744055986404419, -5.1026763916015625, 1.1989151239395142, 2.2487235069274902, -21.832639694213867, -11.944412231445312, 11.658698081970215, 0.2021484375, -0.31640625, -0.8818359375, 
343, 3639397309, 0.5715814232826233, 0.2511037588119507, 0.10533776879310608, -0.7740579843521118, -5.746166229248047, 1.1667200326919556, 2.2958757877349854, -23.172039031982422, -19.086999893188477, 12.242705345153809, 0.199951171875, -0.31103515625, -0.882568359375, 
344, 3639405642, 0.5728865265846252, 0.24876771867275238, 0.10527423024177551, -0.7738559246063232, -5.616100788116455, 1.2389873266220093, 2.5375144481658936, -22.9837589263916, -27.23621368408203, 12.17731761932373, 0.19775390625, -0.30908203125, -0.88427734375, 
345, 3639413975, 0.5741832852363586, 0.24605798721313477, 0.10499715805053711, -0.773798942565918, -5.1636223793029785, 1.4563711881637573, 3.017451524734497, -23.263782501220703, -33.4603157043457, 11.237302780151367, 0.19287109375, -0.30712890625, -0.8876953125, 
346, 3639422308, 0.5754448771476746, 0.24304839968681335, 0.10461676120758057, -0.7738643884658813, -4.970945835113525, 1.3958356380462646, 3.3764073848724365, -24.388330459594727, -37.74797821044922, 9.712564468383789, 0.187744140625, -0.3037109375, -0.890625, 
347, 3639430641, 0.5766319036483765, 0.23977138102054596, 0.10415646433830261, -0.7740650773048401, -4.869112014770508, 1.0710389614105225, 3.5450971126556396, -25.06962776184082, -41.6904296875, 7.826996326446533, 0.18212890625, -0.302978515625, -0.891845703125, 
348, 3639438974, 0.5777618885040283, 0.23622184991836548, 0.10353740304708481, -0.7743969559669495, -4.4309163093566895, 0.925661563873291, 3.8446948528289795, -25.305517196655273, -46.080169677734375, 6.216269493103027, 0.174072265625, -0.298583984375, -0.892822265625, 
349, 3639447307, 0.578834593296051, 0.23247592151165009, 0.10283997654914856, -0.7748222351074219, -3.9484074115753174, 0.9351614713668823, 4.095428943634033, -25.577152252197266, -49.164878845214844, 4.933622360229492, 0.171142578125, -0.296630859375, -0.8955078125, 
350, 3639455640, 0.5798406600952148, 0.2285822629928589, 0.10208232700824738, -0.7753285765647888, -4.022533893585205, 0.9470256567001343, 4.325684547424316, -25.918720245361328, -51.23392868041992, 3.467562675476074, 0.1640625, -0.292724609375, -0.896484375, 
351, 3639463973, 0.580785870552063, 0.22452928125858307, 0.10123222321271896, -0.7759164571762085, -4.558359146118164, 0.9732683897018433, 4.427389144897461, -25.766376495361328, -54.00733947753906, 2.3278801441192627, 0.14990234375, -0.288818359375, -0.898193359375, 
352, 3639472306, 0.5816791653633118, 0.22028858959674835, 0.10015363991260529, -0.7766026258468628, -4.948851108551025, 0.909471333026886, 4.511888027191162, -24.66214942932129, -57.90049743652344, 1.3401412963867188, 0.14892578125, -0.28759765625, -0.90283203125, 
353, 3639480639, 0.5825357437133789, 0.21584439277648926, 0.09880808740854263, -0.7773804664611816, -4.83978796005249, 0.7481071949005127, 4.643682956695557, -23.07520866394043, -62.62907028198242, 0.831991970539093, 0.142822265625, -0.284423828125, -0.90087890625, 
354, 3639488972, 0.583370566368103, 0.21124480664730072, 0.09719006717205048, -0.7782214879989624, -4.4414591789245605, 0.49430155754089355, 4.6980180740356445, -21.38290786743164, -66.4372329711914, 0.6007972955703735, 0.13330078125, -0.281494140625, -0.904541015625, 
355, 3639497305, 0.5841922760009766, 0.2064976692199707, 0.09542979300022125, -0.7790966629981995, -3.980602979660034, 0.35194581747055054, 4.779283046722412, -20.834714889526367, -69.4570541381836, 0.49119359254837036, 0.126220703125, -0.27880859375, -0.904541015625, 
356, 3639505638, 0.5850381255149841, 0.2015533149242401, 0.09365111589431763, -0.7799720168113708, -3.554029941558838, 0.24602675437927246, 4.712181568145752, -22.415742874145508, -71.53216552734375, 0.4549751281738281, 0.11669921875, -0.275634765625, -0.908203125, 
357, 3639513971, 0.5859600305557251, 0.19632843136787415, 0.09201698750257492, -0.7808066010475159, -3.1804792881011963, 0.2615937292575836, 4.555362224578857, -26.35759735107422, -73.59654235839844, 0.9224117994308472, 0.108154296875, -0.27392578125, -0.908935546875, 
358, 3639522304, 0.5870612263679504, 0.19069024920463562, 0.09050339460372925, -0.781553328037262, -2.6014535427093506, 0.6123457551002502, 4.9577107429504395, -31.707490921020508, -76.82035064697266, 2.618802547454834, 0.098876953125, -0.2685546875, -0.909423828125, 
359, 3639530637, 0.5883301496505737, 0.184683695435524, 0.08938440680503845, -0.7821701765060425, -2.3053548336029053, 0.8285733461380005, 5.468692302703857, -39.392578125, -77.7021484375, 4.059512138366699, 0.08984375, -0.263916015625, -0.91064453125, 
360, 3639538970, 0.5896703004837036, 0.17832893133163452, 0.08872094005346298, -0.7827110290527344, -2.874861478805542, 0.52918541431427, 5.611525058746338, -47.513755798339844, -77.41638946533203, 3.775527238845825, 0.07861328125, -0.258544921875, -0.912353515625, 
361, 3639547303, 0.5911091566085815, 0.17163661122322083, 0.08821383118629456, -0.7831789255142212, -3.3855767250061035, 0.18762308359146118, 5.89082670211792, -52.13648223876953, -79.96369934082031, 4.705615997314453, 0.0634765625, -0.25, -0.91748046875, 
362, 3639555636, 0.5926457643508911, 0.1646389663219452, 0.08768869191408157, -0.7835788130760193, -3.0716092586517334, -0.08582008630037308, 6.217682838439941, -54.86581039428711, -83.11625671386719, 5.91157341003418, 0.054931640625, -0.24560546875, -0.9208984375, 
363, 3639563969, 0.5941976308822632, 0.15747980773448944, 0.08719530701637268, -0.7839301228523254, -2.7905688285827637, -0.32572227716445923, 6.426937580108643, -56.48517990112305, -84.75635528564453, 6.272407531738281, 0.046630859375, -0.2353515625, -0.9208984375, 
364, 3639572302, 0.595758318901062, 0.15020820498466492, 0.08661403506994247, -0.7842369675636292, -2.698209047317505, -0.4968758821487427, 6.436835289001465, -56.66067886352539, -86.35108947753906, 6.719151020050049, 0.03564453125, -0.233154296875, -0.922607421875, 
365, 3639580635, 0.5973185300827026, 0.14285220205783844, 0.08596643060445786, -0.784496009349823, -2.3370888233184814, -0.5137794613838196, 6.248767375946045, -56.55211639404297, -87.9598388671875, 7.20521354675293, 0.0263671875, -0.223388671875, -0.92431640625, 
366, 3639588968, 0.5989230871200562, 0.13538379967212677, 0.0852222591638565, -0.7846779227256775, -1.870722770690918, -0.49484768509864807, 5.997748851776123, -56.75343322753906, -89.61257934570312, 8.310556411743164, 0.01318359375, -0.21728515625, -0.9248046875, 
367, 3639597301, 0.600591242313385, 0.12781573832035065, 0.08439239114522934, -0.7847618460655212, -1.568626880645752, -0.4107508361339569, 5.910916328430176, -56.73165512084961, -91.53755187988281, 9.903960227966309, 0.0009765625, -0.206787109375, -0.928955078125, 
368, 3639605634, 0.6023285984992981, 0.12010353803634644, 0.08337944746017456, -0.7847567796707153, -1.399438738822937, -0.3831554055213928, 6.1703691482543945, -56.3226203918457, -94.27730560302734, 11.482932090759277, -0.01025390625, -0.198974609375, -0.9296875, 
369, 3639613967, 0.6040810942649841, 0.11235486716032028, 0.08215277642011642, -0.784686803817749, -1.3635835647583008, -0.35965150594711304, 6.737940788269043, -54.261295318603516, -96.59809112548828, 12.545463562011719, -0.0234375, -0.1923828125, -0.93017578125, 
370, 3639622300, 0.6057950258255005, 0.1045592874288559, 0.08071933686733246, -0.7845916748046875, -1.861994743347168, -0.5815930366516113, 7.178097724914551, -52.544288635253906, -98.49176788330078, 12.555148124694824, -0.03466796875, -0.184814453125, -0.927978515625, 
371, 3639630633, 0.6074407696723938, 0.09676101803779602, 0.07886377722024918, -0.7845084071159363, -2.1465303897857666, -0.9020463824272156, 7.494326114654541, -47.73976516723633, -102.22257995605469, 12.367731094360352, -0.048828125, -0.17724609375, -0.931640625, 
372, 3639638966, 0.6090237498283386, 0.08900213986635208, 0.07645683735609055, -0.7844380736351013, -1.6253020763397217, -1.0738760232925415, 7.819652557373047, -41.52656173706055, -106.10757446289062, 12.314839363098145, -0.064208984375, -0.17138671875, -0.927734375, 
373, 3639647299, 0.6103461980819702, 0.0813789963722229, 0.0736415758728981, -0.7845074534416199, -0.8654966354370117, -1.1759376525878906, 8.0398588180542, -35.893898010253906, -108.24439239501953, 11.386876106262207, -0.077392578125, -0.167724609375, -0.927001953125, 
374, 3639655632, 0.6116740107536316, 0.07389099895954132, 0.07052932679653168, -0.7845004796981812, -0.45684367418289185, -1.2480412721633911, 8.050857543945312, -31.264604568481445, -108.91560363769531, 10.143441200256348, -0.095947265625, -0.164306640625, -0.926025390625, 
375, 3639663965, 0.6127606630325317, 0.06647051870822906, 0.06731639057397842, -0.7845983505249023, -0.2679843604564667, -1.167167067527771, 7.75670862197876, -29.53902816772461, -109.19342803955078, 9.183537483215332, -0.103515625, -0.1572265625, -0.922607421875, 
376, 3639672298, 0.6139509677886963, 0.058927081525325775, 0.06411786377429962, -0.7845385074615479, -0.06470820307731628, -0.9295838475227356, 7.353847980499268, -30.695837020874023, -110.06407928466797, 9.14854907989502, -0.118896484375, -0.154052734375, -0.92333984375, 
377, 3639680631, 0.6150634288787842, 0.051182448863983154, 0.060986634343862534, -0.7844603657722473, 0.4057403802871704, -0.5673945546150208, 7.252304553985596, -33.24908447265625, -111.86902618408203, 10.500054359436035, -0.132568359375, -0.150634765625, -0.921630859375, 
378, 3639688964, 0.6163226366043091, 0.04318706691265106, 0.05802125483751297, -0.7841777801513672, 0.7379463315010071, -0.4766428470611572, 7.028093338012695, -37.258243560791016, -112.86515808105469, 11.216626167297363, -0.146240234375, -0.1416015625, -0.91943359375, 
379, 3639697297, 0.6174181699752808, 0.03498252108693123, 0.05515320226550102, -0.7839320302009583, 0.561974823474884, -0.7006005644798279, 7.044346332550049, -40.06159591674805, -114.47577667236328, 11.238866806030273, -0.16357421875, -0.1396484375, -0.918701171875, 
380, 3639705630, 0.6186821460723877, 0.026522144675254822, 0.05212462693452835, -0.7834744453430176, 0.43630796670913696, -0.9931104779243469, 7.515108108520508, -40.6376838684082, -118.33343505859375, 12.413357734680176, -0.17724609375, -0.131103515625, -0.916015625, 
381, 3639713963, 0.6198211312294006, 0.017901983112096786, 0.048813506960868835, -0.7830315828323364, 0.5702744126319885, -1.3747254610061646, 8.07145881652832, -38.92683792114258, -122.67513275146484, 13.32288932800293, -0.19287109375, -0.126708984375, -0.910888671875, 
382, 3639722296, 0.6210496425628662, 0.009239405393600464, 0.045134685933589935, -0.7824289202690125, 0.9128170609474182, -1.7769774198532104, 8.672072410583496, -35.42741394042969, -125.98626708984375, 13.319900512695312, -0.2080078125, -0.120361328125, -0.909423828125, 
383, 3639730629, 0.6222053170204163, 0.0006324886344373226, 0.041181765496730804, -0.7817827463150024, 1.2420172691345215, -1.9948322772979736, 9.05239486694336, -31.80735206604004, -127.8290023803711, 12.980560302734375, -0.2236328125, -0.115234375, -0.90673828125, 
384, 3639738962, 0.6232648491859436, -0.007946230471134186, 0.03709743544459343, -0.78110271692276, 1.4042370319366455, -1.8427540063858032, 9.05994701385498, -30.38489532470703, -128.44395446777344, 12.248878479003906, -0.243408203125, -0.110107421875, -0.898681640625, 
385, 3639747295, 0.624143123626709, -0.016587605699896812, 0.03308786079287529, -0.7804456949234009, 1.6417592763900757, -1.4034223556518555, 8.91420841217041, -31.563400268554688, -128.68580627441406, 12.467985153198242, -0.257568359375, -0.106201171875, -0.8935546875, 
386, 3639755628, 0.62510085105896, -0.025362543761730194, 0.029333215206861496, -0.7795931696891785, 2.0961837768554688, -1.074599027633667, 8.631458282470703, -35.68657684326172, -127.70695495605469, 12.608522415161133, -0.273681640625, -0.100830078125, -0.889404296875, 
387, 3639763961, 0.6259541511535645, -0.03431294113397598, 0.026072241365909576, -0.7786809802055359, 2.5238194465637207, -1.0885956287384033, 8.259328842163086, -42.313270568847656, -125.4271469116211, 12.092705726623535, -0.295166015625, -0.09423828125, -0.88330078125, 
388, 3639772294, 0.6266896724700928, -0.04347267374396324, 0.02330630086362362, -0.7777190804481506, 2.666175127029419, -1.078966498374939, 7.7411723136901855, -49.724334716796875, -123.28475189208984, 11.428109169006348, -0.30322265625, -0.090087890625, -0.878173828125, 
389, 3639780627, 0.6273484230041504, -0.05290127545595169, 0.020904527977108955, -0.7766714096069336, 2.646089792251587, -1.2898625135421753, 7.433001518249512, -55.77090835571289, -123.12175750732422, 11.46238899230957, -0.31787109375, -0.08154296875, -0.872802734375, 
390, 3639788960, 0.6279529929161072, -0.0625840350985527, 0.018572809174656868, -0.7755213975906372, 2.9780712127685547, -1.5269514322280884, 7.58865213394165, -59.01983642578125, -125.2194595336914, 11.76101303100586, -0.3310546875, -0.07080078125, -0.865478515625, 
391, 3639797293, 0.6284689903259277, -0.07244785130023956, 0.01612343266606331, -0.7742985486984253, 3.3292155265808105, -2.009528160095215, 7.84809684753418, -59.178993225097656, -128.24745178222656, 11.271883964538574, -0.34765625, -0.063232421875, -0.86181640625, 
392, 3639805626, 0.6288788318634033, -0.08232007920742035, 0.013273677788674831, -0.7730321884155273, 3.5786592960357666, -2.5480403900146484, 8.443942070007324, -55.349056243896484, -131.7763214111328, 10.141589164733887, -0.36669921875, -0.05419921875, -0.85498046875, 
393, 3639813959, 0.62909996509552, -0.09199679642915726, 0.009885797277092934, -0.7718108892440796, 3.8916759490966797, -2.987832546234131, 9.104226112365723, -47.594390869140625, -134.58908081054688, 9.517743110656738, -0.37841796875, -0.046142578125, -0.84619140625, 
394, 3639822292, 0.6293970346450806, -0.10146982967853546, 0.006150430999696255, -0.7704190611839294, 4.1696248054504395, -2.878843307495117, 9.679656982421875, -42.61800765991211, -135.3344268798828, 9.041716575622559, -0.39453125, -0.040771484375, -0.838623046875, 
395, 3639830625, 0.6296054720878601, -0.11086878180503845, 0.002490363083779812, -0.7689724564552307, 4.197566509246826, -2.1117615699768066, 9.831512451171875, -42.63011169433594, -133.94297790527344, 8.644558906555176, -0.410400390625, -0.0341796875, -0.83056640625, 
396, 3639838958, 0.6296690702438354, -0.12038819491863251, -0.0006604380905628204, -0.7674914002418518, 4.219747543334961, -1.3288367986679077, 9.614400863647461, -49.55448532104492, -130.88046264648438, 8.22885513305664, -0.428466796875, -0.0283203125, -0.821533203125, 
397, 3639847291, 0.6293714642524719, -0.13029129803180695, -0.002810947597026825, -0.766112208366394, 4.4645843505859375, -0.6472561359405518, 9.100274085998535, -63.34850311279297, -126.37926483154297, 7.183012008666992, -0.440673828125, -0.021484375, -0.813720703125, 
398, 3639855624, 0.628864049911499, -0.14067451655864716, -0.003893059678375721, -0.7646864652633667, 4.692523002624512, -0.4113626480102539, 8.070406913757324, -79.81739044189453, -122.00640106201172, 5.319829940795898, -0.456298828125, -0.01025390625, -0.804443359375, 
399, 3639863957, 0.6280247569084167, -0.15143506228923798, -0.0042743440717458725, -0.7633177042007446, 4.671412467956543, -0.8546230792999268, 7.029665470123291, -91.09549713134766, -119.82005310058594, 2.7108218669891357, -0.468017578125, 0.000244140625, -0.796630859375, 
400, 3639872290, 0.6267868280410767, -0.1624855399131775, -0.004538377746939659, -0.7620605230331421, 4.609482765197754, -1.9898138046264648, 6.9893341064453125, -94.85061645507812, -121.99254608154297, -0.061065614223480225, -0.4892578125, 0.010986328125, -0.787353515625, 
401, 3639880623, 0.6253055334091187, -0.1736636757850647, -0.005095954984426498, -0.7608075141906738, 4.99382209777832, -2.7773237228393555, 7.718381881713867, -93.19954681396484, -126.00211334228516, -2.65590763092041, -0.494873046875, 0.0205078125, -0.777099609375, 
402, 3639888956, 0.6238019466400146, -0.1847255527973175, -0.0061524733901023865, -0.7594272494316101, 5.613632678985596, -3.345919132232666, 8.873246192932129, -88.058837890625, -128.89520263671875, -5.747458457946777, -0.507568359375, 0.033447265625, -0.76806640625, 
403, 3639897289, 0.6220293045043945, -0.1955338716506958, -0.007583649829030037, -0.758161187171936, 5.949695110321045, -3.782999038696289, 10.025873184204102, -81.72296905517578, -129.55606079101562, -8.455036163330078, -0.520751953125, 0.040771484375, -0.75634765625, 
404, 3639905622, 0.6203272938728333, -0.20595823228359222, -0.009415792301297188, -0.756773829460144, 5.922876834869385, -4.015427112579346, 10.64382553100586, -74.99788665771484, -128.9389190673828, -9.855436325073242, -0.533447265625, 0.050537109375, -0.7451171875, 
405, 3639913955, 0.6184992790222168, -0.21590183675289154, -0.011659625917673111, -0.7554661631584167, 5.808242321014404, -4.186349391937256, 10.67122745513916, -65.91484069824219, -127.63715362548828, -10.97314739227295, -0.54736328125, 0.057861328125, -0.73193359375, 
406, 3639922288, 0.6168299317359924, -0.2253141552209854, -0.01441429927945137, -0.7540335655212402, 5.823741436004639, -4.127713203430176, 10.311602592468262, -56.662811279296875, -126.40975189208984, -11.96534252166748, -0.5625, 0.067626953125, -0.72265625, 
407, 3639930621, 0.6150277853012085, -0.23437964916229248, -0.017460444942116737, -0.7526766061782837, 5.9117631912231445, -3.6050353050231934, 9.448963165283203, -49.91648864746094, -125.5256576538086, -12.76796817779541, -0.572509765625, 0.071533203125, -0.70947265625, 
408, 3639938954, 0.6133154034614563, -0.24323976039886475, -0.020712465047836304, -0.7511788606643677, 5.9217352867126465, -3.1260554790496826, 8.374953269958496, -46.933231353759766, -125.12425994873047, -13.550285339355469, -0.58642578125, 0.07470703125, -0.699951171875, 
409, 3639947287, 0.611356258392334, -0.2521963119506836, -0.0238356776535511, -0.749728262424469, 5.662209510803223, -2.9664368629455566, 7.297348976135254, -48.68033981323242, -125.3574447631836, -14.025747299194336, -0.598876953125, 0.07958984375, -0.685302734375, 
410, 3639955620, 0.6094052791595459, -0.2613815367221832, -0.027106735855340958, -0.7480576634407043, 5.46964168548584, -3.3061721324920654, 6.4945173263549805, -50.21425247192383, -129.30950927734375, -14.541411399841309, -0.614990234375, 0.084228515625, -0.673583984375, 
411, 3639963953, 0.6073862314224243, -0.27074897289276123, -0.03087933175265789, -0.746219277381897, 6.052229404449463, -3.923107147216797, 7.152724266052246, -45.26173782348633, -136.5413055419922, -13.251884460449219, -0.62255859375, 0.088623046875, -0.659423828125, 
412, 3639972286, 0.6056489944458008, -0.27991434931755066, -0.035400088876485825, -0.7440457940101624, 7.017143249511719, -4.498781681060791, 8.509430885314941, -36.20697784423828, -141.3178253173828, -12.7503023147583, -0.63623046875, 0.09130859375, -0.645751953125, 
413, 3639980619, 0.6038081049919128, -0.288727730512619, -0.04038354009389877, -0.7419172525405884, 7.4396138191223145, -4.838495254516602, 9.674981117248535, -27.4361572265625, -141.91661071777344, -14.039204597473145, -0.65673828125, 0.095947265625, -0.630859375, 
414, 3639988952, 0.6022274494171143, -0.2970861494541168, -0.04578893259167671, -0.7395846843719482, 7.273335933685303, -4.7832560539245605, 10.358217239379883, -19.73311424255371, -140.9743194580078, -13.717450141906738, -0.66015625, 0.097900390625, -0.61669921875, 
415, 3639997285, 0.600735604763031, -0.3051280379295349, -0.0513761080801487, -0.7371525764465332, 7.1712870597839355, -4.433234214782715, 10.601006507873535, -13.332276344299316, -140.00192260742188, -11.094014167785645, -0.670654296875, 0.0986328125, -0.60107421875, 
416, 3640005618, 0.5995628833770752, -0.3128352165222168, -0.05710022151470184, -0.7344508171081543, 7.489404201507568, -4.0524582862854, 10.512630462646484, -9.155925750732422, -138.25515747070312, -8.280696868896484, -0.683837890625, 0.097900390625, -0.5859375, 
417, 3640013951, 0.5984777808189392, -0.32033559679985046, -0.06273203343153, -0.7316379547119141, 7.767332553863525, -3.6878604888916016, 10.016958236694336, -7.917143821716309, -135.81634521484375, -6.2434563636779785, -0.693115234375, 0.09912109375, -0.5703125, 
418, 3640022284, 0.5972146391868591, -0.32772156596183777, -0.06809645891189575, -0.7289144992828369, 8.036235809326172, -3.432704210281372, 9.442227363586426, -8.999792098999023, -132.56594848632812, -6.070219993591309, -0.70458984375, 0.1015625, -0.55810546875, 
419, 3640030617, 0.5957796573638916, -0.33506450057029724, -0.07304716110229492, -0.7262663841247559, 8.12470817565918, -3.23470139503479, 8.613790512084961, -13.723708152770996, -128.490966796875, -6.76521635055542, -0.713134765625, 0.103271484375, -0.54248046875, 
420, 3640038950, 0.5941985249519348, -0.34245046973228455, -0.07759500294923782, -0.7236400842666626, 7.988032817840576, -3.2500715255737305, 7.565879821777344, -20.23733901977539, -125.3899154663086, -7.947941303253174, -0.724853515625, 0.104736328125, -0.5263671875, 
421, 3640047283, 0.5922701358795166, -0.35010409355163574, -0.08172716200351715, -0.7210990786552429, 8.090251922607422, -3.600125551223755, 6.818291664123535, -27.238351821899414, -124.66619873046875, -9.021501541137695, -0.734375, 0.1044921875, -0.514892578125, 
422, 3640055616, 0.5901511311531067, -0.358004629611969, -0.0855945348739624, -0.7185038328170776, 8.666810035705566, -4.066099166870117, 6.514734268188477, -33.78085708618164, -125.39239501953125, -9.755263328552246, -0.7431640625, 0.10693359375, -0.5, 
423, 3640063949, 0.5879012942314148, -0.3660677671432495, -0.08934478461742401, -0.7158240079879761, 9.597114562988281, -4.41961145401001, 6.982720851898193, -35.69402313232422, -126.6504135131836, -8.767335891723633, -0.75048828125, 0.108154296875, -0.48095703125, 
424, 3640072282, 0.5857619643211365, -0.3739660978317261, -0.0931520164012909, -0.7130042314529419, 10.208730697631836, -4.967620849609375, 7.6948699951171875, -34.180084228515625, -126.02741241455078, -7.861677646636963, -0.760498046875, 0.112060546875, -0.466796875, 
425, 3640080615, 0.5836511254310608, -0.381660521030426, -0.0969376340508461, -0.7101477384567261, 10.268651962280273, -5.290294170379639, 8.501168251037598, -31.811786651611328, -123.821044921875, -7.086087226867676, -0.769287109375, 0.112548828125, -0.4521484375, 
426, 3640088948, 0.5817428827285767, -0.38904255628585815, -0.10080496966838837, -0.7071630358695984, 9.690092086791992, -5.19843864440918, 9.158141136169434, -28.01742935180664, -122.01405334472656, -5.275208950042725, -0.7861328125, 0.114013671875, -0.438232421875, 
427, 3640097281, 0.5800362229347229, -0.3962305784225464, -0.10470469295978546, -0.7040002942085266, 9.219125747680664, -4.994513034820557, 9.512110710144043, -24.252330780029297, -120.77516174316406, -2.2018930912017822, -0.78369140625, 0.11572265625, -0.421630859375, 
428, 3640105614, 0.5785850882530212, -0.40314972400665283, -0.10869722068309784, -0.7006531357765198, 9.034219741821289, -4.782268047332764, 9.366594314575195, -20.123943328857422, -119.83370208740234, 0.7194619178771973, -0.789794921875, 0.1201171875, -0.407470703125, 
429, 3640113947, 0.5773111581802368, -0.4098813831806183, -0.11280463635921478, -0.6971399188041687, 8.89313793182373, -4.716012001037598, 8.83696460723877, -16.018489837646484, -119.18147277832031, 2.6574339866638184, -0.797607421875, 0.1201171875, -0.390625, 
430, 3640122280, 0.576151430606842, -0.4163578152656555, -0.1170368641614914, -0.693554699420929, 8.827741622924805, -4.568055629730225, 8.377311706542969, -12.31723403930664, -118.3713150024414, 3.398693084716797, -0.804931640625, 0.121337890625, -0.3740234375, 
431, 3640130613, 0.5750631093978882, -0.4226633906364441, -0.12137673795223236, -0.6898882985115051, 8.741796493530273, -4.396112442016602, 7.912135601043701, -9.445326805114746, -117.39188385009766, 3.3687744140625, -0.810791015625, 0.1240234375, -0.361328125, 
432, 3640138946, 0.5739269852638245, -0.4287511110305786, -0.12574951350688934, -0.6862853765487671, 8.704888343811035, -4.40390157699585, 7.389631748199463, -7.74641227722168, -115.84757995605469, 2.3212661743164062, -0.82421875, 0.123046875, -0.34423828125, 
433, 3640147279, 0.5727663636207581, -0.434761643409729, -0.13014304637908936, -0.6826447248458862, 8.819601058959961, -4.358081340789795, 6.919666767120361, -7.331994533538818, -114.890869140625, 1.4676361083984375, -0.82373046875, 0.124755859375, -0.331787109375, 
434, 3640155612, 0.5716540813446045, -0.44066694378852844, -0.1345616579055786, -0.6789237260818481, 9.452330589294434, -4.237382888793945, 6.797480583190918, -5.523787021636963, -115.15113067626953, 2.879765510559082, -0.82861328125, 0.125244140625, -0.315673828125, 
435, 3640163945, 0.5707569122314453, -0.44637036323547363, -0.13907040655612946, -0.675032913684845, 10.379365921020508, -4.367048263549805, 7.040628910064697, -1.476280689239502, -114.60595703125, 5.303258419036865, -0.83251953125, 0.127197265625, -0.30078125, 
436, 3640172278, 0.5700955986976624, -0.4517495632171631, -0.14360851049423218, -0.6710514426231384, 10.572478294372559, -4.6277666091918945, 7.479250431060791, 2.5862207412719727, -111.26010131835938, 6.730930805206299, -0.837890625, 0.129638671875, -0.2861328125, 
437, 3640180611, 0.5696259140968323, -0.45684298872947693, -0.14800836145877838, -0.6670339703559875, 9.769698143005371, -4.12401008605957, 8.089766502380371, 4.6174492835998535, -107.30461883544922, 8.952574729919434, -0.841796875, 0.131103515625, -0.269287109375, 
438, 3640188944, 0.569218635559082, -0.46186915040016174, -0.15210726857185364, -0.662986159324646, 8.767574310302734, -3.1488049030303955, 8.614742279052734, 3.409954071044922, -105.14569854736328, 12.313089370727539, -0.84375, 0.1298828125, -0.259521484375, 
439, 3640197277, 0.5688762068748474, -0.46692386269569397, -0.1559617519378662, -0.6588306427001953, 8.596819877624512, -2.765409231185913, 8.62867546081543, 1.1037280559539795, -103.35529327392578, 14.657758712768555, -0.860107421875, 0.132568359375, -0.243408203125, 
440, 3640205610, 0.5684794187545776, -0.4718913733959198, -0.15962043404579163, -0.6547448039054871, 8.807847023010254, -3.1309421062469482, 8.186689376831055, 0.003714098362252116, -101.38832092285156, 15.3917875289917, -0.85205078125, 0.13232421875, -0.2294921875, 
441, 3640213943, 0.568204939365387, -0.476654589176178, -0.16334253549575806, -0.6506017446517944, 8.769272804260254, -3.50126314163208, 7.8599724769592285, 2.435858726501465, -99.43568420410156, 15.31937026977539, -0.85400390625, 0.135009765625, -0.219970703125, 
442, 3640222276, 0.5680012106895447, -0.48111242055892944, -0.1672242283821106, -0.6464994549751282, 8.548563957214355, -3.487161874771118, 7.548281669616699, 7.276838302612305, -98.23657989501953, 14.663355827331543, -0.85693359375, 0.138671875, -0.205078125, 
443, 3640230609, 0.5679826736450195, -0.4852759838104248, -0.17141476273536682, -0.642292857170105, 8.41834545135498, -3.444085121154785, 7.160587310791016, 13.124924659729004, -97.62255096435547, 13.678323745727539, -0.86328125, 0.138671875, -0.19140625, 
444, 3640238942, 0.568017840385437, -0.489116907119751, -0.17583638429641724, -0.6381396055221558, 8.533143997192383, -3.543332576751709, 6.745537757873535, 18.580650329589844, -96.76760864257812, 12.158413887023926, -0.865234375, 0.140380859375, -0.1796875, 
445, 3640247275, 0.5681672096252441, -0.4926528036594391, -0.18055857717990875, -0.6339542865753174, 8.653468132019043, -3.7406058311462402, 6.339723587036133, 23.7760009765625, -95.73516845703125, 9.951881408691406, -0.86572265625, 0.142822265625, -0.164306640625, 
446, 3640255608, 0.568361222743988, -0.4958609938621521, -0.1855601668357849, -0.6298213005065918, 8.738799095153809, -4.028593063354492, 6.04279088973999, 29.613466262817383, -95.2397689819336, 7.925472259521484, -0.86572265625, 0.14404296875, -0.15283203125, 
447, 3640263941, 0.5687532424926758, -0.49883249402046204, -0.19084873795509338, -0.6255258321762085, 9.198325157165527, -4.036247253417969, 6.033297061920166, 35.075401306152344, -95.43561553955078, 7.688696384429932, -0.86767578125, 0.142822265625, -0.139892578125, 
448, 3640272274, 0.5691747665405273, -0.5016523599624634, -0.19605286419391632, -0.6212635040283203, 10.021575927734375, -3.5384557247161865, 6.1730217933654785, 36.289058685302734, -93.76655578613281, 8.526132583618164, -0.870849609375, 0.141357421875, -0.127685546875, 
