sep=,
PacketCounter,SampleTimeFine,Quat_W,Quat_X,Quat_Y,Quat_Z,Acc_X,Acc_Y,Acc_Z,Gyr_X,Gyr_Y,Gyr_Z,Mag_X,Mag_Y,Mag_Z,
0, 3921994338, 0.5492352247238159, -0.6467956900596619, -0.20915541052818298, -0.4860745072364807, 0, 0, 0, 0, 0, 0, -0.781005859375, 0.342529296875, 0.1630859375, 
1, 3922002671, 0.5488871335983276, -0.6469312906265259, -0.2088797241449356, -0.48640573024749756, 8.205354690551758, -4.831341743469238, 0.4652191400527954, -7.394690036773682, 2.46091365814209, -2.073920726776123, -0.781494140625, 0.342041015625, 0.1630859375, 
2, 3922011004, 0.5485519766807556, -0.6470710635185242, -0.20862194895744324, -0.48670852184295654, 8.240379333496094, -4.887914657592773, 0.4557683765888214, -7.123434543609619, 2.0623302459716797, -1.969722032546997, -0.780517578125, 0.343505859375, 0.16357421875, 
3, 3922019337, 0.5482412576675415, -0.6472009420394897, -0.2084144651889801, -0.4869745075702667, 8.239506721496582, -4.9520263671875, 0.4900752604007721, -6.3765482902526855, 1.513698697090149, -1.9550447463989258, -0.781005859375, 0.341064453125, 0.1640625, 
4, 3922027670, 0.5479606986045837, -0.647327721118927, -0.2082473635673523, -0.4871934652328491, 8.321080207824707, -4.976293087005615, 0.5398932695388794, -5.691188335418701, 0.874470055103302, -1.8181368112564087, -0.781982421875, 0.340576171875, 0.1611328125, 
5, 3922036003, 0.54770427942276, -0.6474398970603943, -0.2081097960472107, -0.4873914122581482, 8.443572044372559, -5.017759323120117, 0.5676870942115784, -5.096912384033203, 0.655903697013855, -1.750105381011963, -0.780517578125, 0.341064453125, 0.16259765625, 
6, 3922044336, 0.5474535226821899, -0.6475504636764526, -0.20799286663532257, -0.4875761866569519, 8.532683372497559, -5.004214286804199, 0.5831204056739807, -4.870328903198242, 0.3868774175643921, -1.8532025814056396, -0.777587890625, 0.343017578125, 0.16357421875, 
7, 3922052669, 0.5472034811973572, -0.6476681232452393, -0.20789386332035065, -0.48774251341819763, 8.567947387695312, -4.999443054199219, 0.5835816264152527, -4.73618745803833, 0.06910720467567444, -1.7995920181274414, -0.781005859375, 0.341552734375, 0.162109375, 
8, 3922061002, 0.5469425916671753, -0.6478013396263123, -0.20781907439231873, -0.48789000511169434, 8.607271194458008, -5.018860340118408, 0.5852910876274109, -4.74282169342041, -0.44344642758369446, -1.9514079093933105, -0.78271484375, 0.343505859375, 0.16357421875, 
9, 3922069335, 0.546683669090271, -0.6479362845420837, -0.2077687382698059, -0.48802274465560913, 8.625553131103516, -5.057617664337158, 0.591005265712738, -4.519900321960449, -0.7391371726989746, -1.9891886711120605, -0.782958984375, 0.3408203125, 0.16357421875, 
10, 3922077668, 0.546417772769928, -0.6480880379676819, -0.20773492753505707, -0.48813343048095703, 8.63554573059082, -5.087655067443848, 0.6221285462379456, -4.54482364654541, -1.2180721759796143, -2.019362211227417, -0.783447265625, 0.3408203125, 0.162109375, 
11, 3922086001, 0.5461487770080566, -0.6482521295547485, -0.20774011313915253, -0.48821431398391724, 8.641703605651855, -5.074829578399658, 0.6767715811729431, -4.31439733505249, -1.839832067489624, -2.0809133052825928, -0.781494140625, 0.3408203125, 0.16455078125, 
12, 3922094334, 0.5458891987800598, -0.6484267711639404, -0.20777207612991333, -0.48825904726982117, 8.637553215026855, -5.0668439865112305, 0.7220398187637329, -4.0312066078186035, -2.435567855834961, -2.001970052719116, -0.779052734375, 0.341552734375, 0.166015625, 
13, 3922102667, 0.5456451773643494, -0.6486088037490845, -0.20782938599586487, -0.4882654547691345, 8.631892204284668, -5.0886077880859375, 0.7495673298835754, -3.6701488494873047, -2.939246654510498, -1.7674463987350464, -0.780517578125, 0.33837890625, 0.1669921875, 
14, 3922111000, 0.5454253554344177, -0.6488013863563538, -0.207899808883667, -0.4882252514362335, 8.586524963378906, -5.086045265197754, 0.8009191751480103, -3.3113701343536377, -3.488748788833618, -1.3895595073699951, -0.781494140625, 0.3388671875, 0.16455078125, 
15, 3922119333, 0.5452274680137634, -0.6490024328231812, -0.20799656212329865, -0.48813778162002563, 8.52254581451416, -5.10582971572876, 0.8019781112670898, -2.8698318004608154, -4.066375255584717, -1.0529884099960327, -0.783447265625, 0.3388671875, 0.1669921875, 
16, 3922127666, 0.5450680255889893, -0.6492080688476562, -0.20812155306339264, -0.48798948526382446, 8.493809700012207, -5.111807823181152, 0.8090262413024902, -2.193974256515503, -4.7769904136657715, -0.6237962245941162, -0.781982421875, 0.337890625, 0.1650390625, 
17, 3922135999, 0.5449486374855042, -0.6494076251983643, -0.20828305184841156, -0.4877880811691284, 8.423341751098633, -5.106698036193848, 0.8053706884384155, -1.3836170434951782, -5.344705104827881, -0.25131410360336304, -0.781494140625, 0.33935546875, 0.16455078125, 
18, 3922144332, 0.5448906421661377, -0.6495931148529053, -0.2084672600030899, -0.4875272512435913, 8.389042854309082, -5.1027679443359375, 0.8254104852676392, -0.4180884063243866, -5.799844741821289, 0.31359508633613586, -0.782958984375, 0.33935546875, 0.16650390625, 
19, 3922152665, 0.5448811650276184, -0.6497702598571777, -0.20868593454360962, -0.4872080087661743, 8.351923942565918, -5.080951690673828, 0.854637861251831, 0.48572278022766113, -6.3595147132873535, 0.7918640971183777, -0.780517578125, 0.33984375, 0.16796875, 
20, 3922160998, 0.5449193120002747, -0.6499239206314087, -0.20893606543540955, -0.48685315251350403, 8.315966606140137, -5.057844638824463, 0.8696510195732117, 1.3907502889633179, -6.644165515899658, 0.9813836812973022, -0.781005859375, 0.3388671875, 0.1669921875, 
21, 3922169331, 0.545005202293396, -0.6500493288040161, -0.20922455191612244, -0.4864655137062073, 8.295679092407227, -5.056617259979248, 0.9221205711364746, 2.394188165664673, -6.877767562866211, 1.171390175819397, -0.77197265625, 0.339111328125, 0.169677734375, 
22, 3922177664, 0.5451520681381226, -0.6501476764678955, -0.20954862236976624, -0.48603004217147827, 8.280228614807129, -5.045902252197266, 0.9404895305633545, 3.5040783882141113, -7.237109661102295, 1.4928487539291382, -0.781005859375, 0.33740234375, 0.16943359375, 
23, 3922185997, 0.5453431606292725, -0.6502090692520142, -0.2098923623561859, -0.4855845868587494, 8.302581787109375, -5.036005973815918, 0.9754593372344971, 4.346940517425537, -7.0774312019348145, 1.6298338174819946, -0.780517578125, 0.33935546875, 0.174560546875, 
24, 3922194330, 0.5455928444862366, -0.6502178311347961, -0.21025392413139343, -0.4851357936859131, 8.289461135864258, -5.031708717346191, 1.0209261178970337, 5.384547233581543, -6.741833686828613, 1.6856729984283447, -0.781005859375, 0.33837890625, 0.17236328125, 
25, 3922202663, 0.545889675617218, -0.6501774787902832, -0.21062421798706055, -0.4846954047679901, 8.301916122436523, -5.00109338760376, 1.030845284461975, 6.21934175491333, -6.248067855834961, 1.7625924348831177, -0.780029296875, 0.33837890625, 0.1728515625, 
26, 3922210996, 0.5462145209312439, -0.6501041054725647, -0.21100375056266785, -0.4842626452445984, 8.310969352722168, -4.988706588745117, 1.0592315196990967, 6.743818759918213, -5.969308376312256, 1.6698178052902222, -0.778564453125, 0.33984375, 0.169921875, 
27, 3922219329, 0.5465748906135559, -0.6499873995780945, -0.21142695844173431, -0.48382776975631714, 8.322385787963867, -5.012934684753418, 1.089565634727478, 7.704019069671631, -5.909523963928223, 1.450303554534912, -0.780517578125, 0.33984375, 0.171875, 
28, 3922227662, 0.546985924243927, -0.6498239040374756, -0.21189060807228088, -0.4833797514438629, 8.336164474487305, -5.030289649963379, 1.111733317375183, 8.795699119567871, -5.886599540710449, 1.345157265663147, -0.779541015625, 0.3408203125, 0.173095703125, 
29, 3922235995, 0.5474122166633606, -0.6496213674545288, -0.2123672068119049, -0.482960045337677, 8.400129318237305, -4.996298789978027, 1.165887475013733, 9.245894432067871, -5.414786338806152, 1.0461879968643188, -0.779052734375, 0.33984375, 0.171142578125, 
30, 3922244328, 0.547839879989624, -0.6493948698043823, -0.2128193974494934, -0.4825805127620697, 8.425678253173828, -4.909280776977539, 1.1662160158157349, 9.143898963928223, -4.719871520996094, 0.8572572469711304, -0.778076171875, 0.3427734375, 0.172607421875, 
31, 3922252661, 0.5482361316680908, -0.6491655707359314, -0.2132503092288971, -0.48224860429763794, 8.42697811126709, -4.894043445587158, 1.1505762338638306, 8.604360580444336, -4.191065788269043, 0.516203761100769, -0.780517578125, 0.34228515625, 0.171142578125, 
32, 3922260994, 0.5485811233520508, -0.6489474773406982, -0.21364189684391022, -0.48197653889656067, 8.424885749816895, -4.860762596130371, 1.126718282699585, 7.6258697509765625, -3.6029880046844482, 0.06449664384126663, -0.7705078125, 0.341552734375, 0.1728515625, 
33, 3922269327, 0.5488772392272949, -0.6487380862236023, -0.21400365233421326, -0.4817609190940857, 8.44851016998291, -4.865283489227295, 1.1235333681106567, 6.767845153808594, -3.062758445739746, -0.3474442958831787, -0.780517578125, 0.34228515625, 0.174560546875, 
34, 3922277660, 0.5491399765014648, -0.6485288739204407, -0.21433888375759125, -0.48159411549568176, 8.475090026855469, -4.957664966583252, 1.1297025680541992, 6.1426262855529785, -2.5395615100860596, -0.7457455992698669, -0.777587890625, 0.343017578125, 0.171630859375, 
35, 3922285993, 0.5493817925453186, -0.6483080983161926, -0.21464656293392181, -0.4814783036708832, 8.477385520935059, -4.966855049133301, 1.090730905532837, 5.715945243835449, -1.8516662120819092, -1.0135170221328735, -0.778564453125, 0.3447265625, 0.173095703125, 
36, 3922294326, 0.5496134161949158, -0.6480822563171387, -0.21492207050323486, -0.48139533400535583, 8.469427108764648, -4.925012588500977, 1.0670613050460815, 5.346996784210205, -1.3215280771255493, -1.101245641708374, -0.779541015625, 0.34375, 0.174072265625, 
37, 3922302659, 0.5498217344284058, -0.6478614211082458, -0.2151634842157364, -0.4813467860221863, 8.468313217163086, -4.881222248077393, 1.0040967464447021, 4.781614780426025, -0.8520959615707397, -1.1526790857315063, -0.778564453125, 0.34228515625, 0.170166015625, 
38, 3922310992, 0.5500279664993286, -0.6476362943649292, -0.21536467969417572, -0.48132404685020447, 8.484908103942871, -4.893390655517578, 0.9380772709846497, 4.445555686950684, -0.3043099343776703, -1.0602372884750366, -0.779541015625, 0.34326171875, 0.173583984375, 
39, 3922319325, 0.550226092338562, -0.6474089026451111, -0.2155248522758484, -0.48133188486099243, 8.475386619567871, -4.888219833374023, 0.8910526633262634, 4.03162956237793, 0.27747899293899536, -0.943205714225769, -0.779052734375, 0.342529296875, 0.169189453125, 
40, 3922327658, 0.5504348278045654, -0.6471779346466064, -0.21565262973308563, -0.48134645819664, 8.48447036743164, -4.919563293457031, 0.8141302466392517, 3.915417432785034, 0.6301102042198181, -0.6883184909820557, -0.778076171875, 0.343505859375, 0.170166015625, 
41, 3922335991, 0.5506399273872375, -0.6469449400901794, -0.21576139330863953, -0.4813762307167053, 8.503969192504883, -4.9456682205200195, 0.801916778087616, 3.725795269012451, 0.9213183522224426, -0.622336208820343, -0.778564453125, 0.342041015625, 0.169677734375, 
42, 3922344324, 0.5508303642272949, -0.646717369556427, -0.21585328876972198, -0.4814233183860779, 8.510490417480469, -4.901999473571777, 0.7784740328788757, 3.393911600112915, 1.1141679286956787, -0.7278668284416199, -0.779052734375, 0.343994140625, 0.168701171875, 
43, 3922352657, 0.5510133504867554, -0.646485447883606, -0.21593154966831207, -0.48149025440216064, 8.540149688720703, -4.9160051345825195, 0.7244987487792969, 3.2218868732452393, 1.4034041166305542, -0.7740750312805176, -0.775634765625, 0.343017578125, 0.169189453125, 
44, 3922360990, 0.5511878132820129, -0.646256685256958, -0.21599391102790833, -0.4815695285797119, 8.562179565429688, -4.893905162811279, 0.7018185257911682, 2.9692022800445557, 1.5831903219223022, -0.8173118829727173, -0.778564453125, 0.342529296875, 0.168701171875, 
45, 3922369323, 0.5513403415679932, -0.6460393667221069, -0.21604686975479126, -0.4816630184650421, 8.610583305358887, -4.883666038513184, 0.7111334800720215, 2.5829648971557617, 1.6513241529464722, -0.9100096821784973, -0.776123046875, 0.344482421875, 0.169189453125, 
46, 3922377656, 0.5514775514602661, -0.6458329558372498, -0.21608862280845642, -0.4817639887332916, 8.613432884216309, -4.9187846183776855, 0.6884483098983765, 2.2664501667022705, 1.6770150661468506, -0.9792705774307251, -0.778564453125, 0.343994140625, 0.166748046875, 
47, 3922385989, 0.5516108870506287, -0.6456329226493835, -0.21612344682216644, -0.48186370730400085, 8.581936836242676, -4.893603801727295, 0.689580500125885, 2.146575450897217, 1.6692028045654297, -0.8712554574012756, -0.778564453125, 0.343017578125, 0.1650390625, 
48, 3922394322, 0.5517347455024719, -0.6454465389251709, -0.21614596247673035, -0.4819614291191101, 8.542745590209961, -4.890064716339111, 0.6477802991867065, 1.877984642982483, 1.6194602251052856, -0.8134697079658508, -0.777587890625, 0.343505859375, 0.166259765625, 
49, 3922402655, 0.5518497228622437, -0.6452661156654358, -0.21616458892822266, -0.4820632338523865, 8.5106201171875, -4.880213737487793, 0.6442595720291138, 1.7244528532028198, 1.6257356405258179, -0.8067331910133362, -0.778564453125, 0.343994140625, 0.166748046875, 
50, 3922410988, 0.5519651174545288, -0.6450908780097961, -0.21616601943969727, -0.4821649193763733, 8.472979545593262, -4.87980318069458, 0.6044705510139465, 1.5690512657165527, 1.7170759439468384, -0.6782777309417725, -0.778564453125, 0.343505859375, 0.168212890625, 
51, 3922419321, 0.5520758032798767, -0.6449332237243652, -0.21616199612617493, -0.48225077986717224, 8.45325756072998, -4.878411769866943, 0.5832452178001404, 1.3862935304641724, 1.5073720216751099, -0.4472629427909851, -0.779541015625, 0.3408203125, 0.16796875, 
52, 3922427654, 0.5521876811981201, -0.644785463809967, -0.21614891290664673, -0.4823262095451355, 8.448029518127441, -4.862390995025635, 0.5543961524963379, 1.31121826171875, 1.3989982604980469, -0.29221999645233154, -0.780029296875, 0.343017578125, 0.16552734375, 
53, 3922435987, 0.552291989326477, -0.6446406841278076, -0.2161407470703125, -0.48240381479263306, 8.435870170593262, -4.89404821395874, 0.5521091818809509, 1.2310971021652222, 1.3600647449493408, -0.3514145314693451, -0.776611328125, 0.343505859375, 0.165283203125, 
54, 3922444320, 0.5523880124092102, -0.6445149183273315, -0.2161315381526947, -0.48246628046035767, 8.444839477539062, -4.887458801269531, 0.5625496506690979, 1.0663974285125732, 1.0631442070007324, -0.26698997616767883, -0.777587890625, 0.343017578125, 0.165771484375, 
55, 3922452653, 0.5524829626083374, -0.6443889141082764, -0.21613991260528564, -0.48252204060554504, 8.451906204223633, -4.907494068145752, 0.5443957448005676, 1.197055697441101, 0.8798233270645142, -0.33691686391830444, -0.779052734375, 0.343994140625, 0.16259765625, 
56, 3922460986, 0.5525823831558228, -0.6442593336105347, -0.21616709232330322, -0.4825690686702728, 8.484881401062012, -4.9364914894104, 0.5451825261116028, 1.4112930297851562, 0.6865895390510559, -0.4626314640045166, -0.775146484375, 0.342041015625, 0.165283203125, 
57, 3922469319, 0.5526813864707947, -0.6441261172294617, -0.2162225991487503, -0.482608437538147, 8.53249740600586, -4.921104907989502, 0.5874643921852112, 1.6514265537261963, 0.43610796332359314, -0.6252306699752808, -0.776611328125, 0.344970703125, 0.165283203125, 
58, 3922477652, 0.552776038646698, -0.6439900398254395, -0.21629855036735535, -0.4826478362083435, 8.57383918762207, -4.942835807800293, 0.5821883678436279, 1.7669212818145752, 0.2752249538898468, -0.8861373066902161, -0.771240234375, 0.3427734375, 0.161376953125, 
59, 3922485985, 0.5528790354728699, -0.6438461542129517, -0.21638740599155426, -0.48268187046051025, 8.581096649169922, -4.9322004318237305, 0.5808073878288269, 1.9986529350280762, 0.22138382494449615, -0.8850101828575134, -0.779052734375, 0.343505859375, 0.16455078125, 
60, 3922494318, 0.5529897212982178, -0.6436963081359863, -0.21647682785987854, -0.48271483182907104, 8.544360160827637, -4.937320232391357, 0.562544047832489, 2.122498035430908, 0.25568127632141113, -0.892130970954895, -0.775146484375, 0.34326171875, 0.162353515625, 
61, 3922502651, 0.5530991554260254, -0.6435562372207642, -0.21655292809009552, -0.4827420711517334, 8.562353134155273, -4.90964412689209, 0.5457425713539124, 1.9690686464309692, 0.24868860840797424, -0.6652913689613342, -0.777099609375, 0.34375, 0.162841796875, 
62, 3922510984, 0.5531957149505615, -0.6434415578842163, -0.21659839153289795, -0.48276394605636597, 8.573661804199219, -4.879434108734131, 0.5383732914924622, 1.470922827720642, 0.2172343134880066, -0.4082012474536896, -0.780029296875, 0.343017578125, 0.16455078125, 
63, 3922519317, 0.55327308177948, -0.6433519721031189, -0.21661162376403809, -0.48278868198394775, 8.547110557556152, -4.867081165313721, 0.5284593105316162, 0.88947993516922, 0.2767618000507355, -0.15308348834514618, -0.775634765625, 0.34423828125, 0.162353515625, 
64, 3922527650, 0.5533336997032166, -0.6432957649230957, -0.21657904982566833, -0.48280882835388184, 8.541874885559082, -4.851680278778076, 0.5286880731582642, 0.19441203773021698, 0.29996830224990845, 0.23188567161560059, -0.777099609375, 0.3427734375, 0.162109375, 
65, 3922535983, 0.5533643960952759, -0.6432777643203735, -0.21650084853172302, -0.48283249139785767, 8.499752044677734, -4.827811241149902, 0.5449891090393066, -0.667314887046814, 0.3470984995365143, 0.5689690113067627, -0.776123046875, 0.341796875, 0.162109375, 
66, 3922544316, 0.5533738136291504, -0.6432958245277405, -0.21638208627700806, -0.4828510582447052, 8.479752540588379, -4.8220534324646, 0.5734505653381348, -1.3900716304779053, 0.2963823080062866, 0.8862524628639221, -0.777587890625, 0.34375, 0.16162109375, 
67, 3922552649, 0.5533575415611267, -0.6433421969413757, -0.2162456065416336, -0.48286914825439453, 8.468464851379395, -4.841102123260498, 0.5958667993545532, -1.9438769817352295, 0.17545750737190247, 1.0073565244674683, -0.775634765625, 0.34326171875, 0.162841796875, 
68, 3922560982, 0.5533292293548584, -0.6434007287025452, -0.21610021591186523, -0.4828885793685913, 8.440330505371094, -4.850395679473877, 0.6182628273963928, -2.2122373580932617, 0.1272515058517456, 0.9860454797744751, -0.774169921875, 0.34375, 0.161865234375, 
69, 3922569315, 0.5532980561256409, -0.6434646844863892, -0.21596136689186096, -0.4829011857509613, 8.451149940490723, -4.8599653244018555, 0.6120781898498535, -2.21451735496521, -0.012512554414570332, 1.0218287706375122, -0.771240234375, 0.34130859375, 0.161376953125, 
70, 3922577648, 0.5532699823379517, -0.6435182094573975, -0.2158430516719818, -0.4829149842262268, 8.456289291381836, -4.884487628936768, 0.6082785129547119, -1.9747934341430664, -0.09655285626649857, 0.7755990028381348, -0.777587890625, 0.3447265625, 0.16064453125, 
71, 3922585981, 0.5532431602478027, -0.6435632109642029, -0.21574652194976807, -0.48292872309684753, 8.487051010131836, -4.892576694488525, 0.5890011787414551, -1.7530510425567627, -0.18497321009635925, 0.6121290326118469, -0.773193359375, 0.3447265625, 0.165283203125, 
72, 3922594314, 0.5532262921333313, -0.6435829401016235, -0.2156786322593689, -0.4829522371292114, 8.499380111694336, -4.864311695098877, 0.574180006980896, -1.3132033348083496, -0.13579386472702026, 0.22881194949150085, -0.777587890625, 0.342529296875, 0.16259765625, 
73, 3922602647, 0.5532075762748718, -0.6435965299606323, -0.21563562750816345, -0.4829748272895813, 8.485610961914062, -4.852223873138428, 0.5637227296829224, -1.1081358194351196, -0.2829732596874237, 0.03158235177397728, -0.774658203125, 0.34326171875, 0.164306640625, 
74, 3922610980, 0.5531895756721497, -0.643595278263092, -0.21561405062675476, -0.4830065369606018, 8.475775718688965, -4.813204765319824, 0.5833072066307068, -0.8814498782157898, -0.2810778021812439, -0.31096962094306946, -0.778076171875, 0.343994140625, 0.16357421875, 
75, 3922619313, 0.5531490445137024, -0.6435974836349487, -0.21561071276664734, -0.4830515384674072, 8.443995475769043, -4.792949199676514, 0.6182914972305298, -1.0181530714035034, -0.37398064136505127, -0.6679808497428894, -0.7783203125, 0.345458984375, 0.163818359375, 
76, 3922627646, 0.5530814528465271, -0.6436120867729187, -0.2156061828136444, -0.48311156034469604, 8.409281730651855, -4.769129276275635, 0.6143746972084045, -1.4103453159332275, -0.4133625030517578, -0.9606106281280518, -0.773681640625, 0.34375, 0.161865234375, 
77, 3922635979, 0.5529729127883911, -0.6436492204666138, -0.21560077369213104, -0.4831887483596802, 8.429716110229492, -4.762430191040039, 0.6524172425270081, -2.000049352645874, -0.5048181414604187, -1.243430256843567, -0.776123046875, 0.3427734375, 0.163330078125, 
78, 3922644312, 0.5528274774551392, -0.6437152028083801, -0.21557554602622986, -0.4832785725593567, 8.384071350097656, -4.746622085571289, 0.6710584163665771, -2.715301036834717, -0.5624501705169678, -1.3692474365234375, -0.780029296875, 0.340576171875, 0.1630859375, 
79, 3922652645, 0.5526451468467712, -0.6438126564025879, -0.21553683280944824, -0.4833746552467346, 8.362615585327148, -4.736870765686035, 0.6747754216194153, -3.4196150302886963, -0.6824783682823181, -1.406464695930481, -0.778076171875, 0.343017578125, 0.16357421875, 
80, 3922660978, 0.5524316430091858, -0.6439379453659058, -0.21547749638557434, -0.48347824811935425, 8.34317684173584, -4.751194477081299, 0.6779369115829468, -4.037533760070801, -0.7789673209190369, -1.4476780891418457, -0.776611328125, 0.341552734375, 0.1630859375, 
81, 3922669311, 0.5521946549415588, -0.6440823674201965, -0.2154170721769333, -0.48358356952667236, 8.37785530090332, -4.78179407119751, 0.6594864130020142, -4.417699813842773, -0.9185137152671814, -1.5086400508880615, -0.776123046875, 0.343017578125, 0.163818359375, 
82, 3922677644, 0.5519389510154724, -0.6442306637763977, -0.2153676450252533, -0.4836997985839844, 8.41047477722168, -4.808287620544434, 0.6581743955612183, -4.557732582092285, -1.0192800760269165, -1.8425214290618896, -0.778076171875, 0.341064453125, 0.1630859375, 
83, 3922685977, 0.5516828894615173, -0.6443696618080139, -0.21534863114356995, -0.48381519317626953, 8.43319034576416, -4.855075359344482, 0.6578403115272522, -4.272441864013672, -1.180342435836792, -2.090390920639038, -0.776123046875, 0.342529296875, 0.164794921875, 
84, 3922694310, 0.5514321327209473, -0.6444970369338989, -0.21535897254943848, -0.4839265048503876, 8.442787170410156, -4.880070686340332, 0.6626143455505371, -3.942197322845459, -1.36374032497406, -2.3656411170959473, -0.772216796875, 0.3427734375, 0.163330078125, 
85, 3922702643, 0.5511922836303711, -0.6446009874343872, -0.21541692316532135, -0.48403555154800415, 8.42671012878418, -4.9034624099731445, 0.6637551784515381, -3.342517137527466, -1.5326662063598633, -2.721269369125366, -0.775634765625, 0.341064453125, 0.165283203125, 
86, 3922710976, 0.5509724020957947, -0.6446735262870789, -0.2155182659626007, -0.4841442406177521, 8.45595932006836, -4.888972282409668, 0.6846528053283691, -2.639636516571045, -1.6191399097442627, -3.1092991828918457, -0.775146484375, 0.343017578125, 0.165283203125, 
87, 3922719309, 0.5507625341415405, -0.6447255611419678, -0.21566689014434814, -0.4842476546764374, 8.402620315551758, -4.873517036437988, 0.6806237101554871, -2.0521485805511475, -1.8422654867172241, -3.4352917671203613, -0.778564453125, 0.342041015625, 0.1650390625, 
88, 3922727642, 0.5505498647689819, -0.6447736620903015, -0.21585336327552795, -0.48434215784072876, 8.363663673400879, -4.870354175567627, 0.7192741632461548, -1.782020926475525, -2.204706907272339, -3.7819292545318604, -0.776123046875, 0.342041015625, 0.164794921875, 
89, 3922735975, 0.5503260493278503, -0.6448222994804382, -0.21606454253196716, -0.4844377934932709, 8.425753593444824, -4.856019973754883, 0.7224284410476685, -1.7136306762695312, -2.405522584915161, -4.032871723175049, -0.77685546875, 0.337646484375, 0.16650390625, 
90, 3922744308, 0.5500831604003906, -0.6448808312416077, -0.21630582213401794, -0.48452794551849365, 8.502481460571289, -4.891855716705322, 0.7656877636909485, -1.7489014863967896, -2.8178603649139404, -4.405046463012695, -0.779541015625, 0.338623046875, 0.16455078125, 
91, 3922752641, 0.5498288869857788, -0.6449387073516846, -0.21655422449111938, -0.4846285581588745, 8.52829360961914, -4.948630332946777, 0.8032283186912537, -1.8051759004592896, -2.8008270263671875, -4.576764106750488, -0.77490234375, 0.338623046875, 0.166259765625, 
92, 3922760974, 0.5495736598968506, -0.644993245601654, -0.21681320667266846, -0.4847297966480255, 8.555364608764648, -4.977384090423584, 0.8598610162734985, -1.7463146448135376, -2.864248037338257, -4.738979339599609, -0.7763671875, 0.336181640625, 0.16650390625, 
93, 3922769307, 0.5493230819702148, -0.6450383067131042, -0.21708521246910095, -0.4848320782184601, 8.539629936218262, -5.008678913116455, 0.8866123557090759, -1.5440646409988403, -2.857588052749634, -4.813875675201416, -0.777587890625, 0.339111328125, 0.16748046875, 
94, 3922777640, 0.5490998029708862, -0.6450591683387756, -0.2173575758934021, -0.4849351942539215, 8.535682678222656, -5.033969879150391, 0.9132954478263855, -1.1233506202697754, -2.6273159980773926, -4.75806188583374, -0.77685546875, 0.3369140625, 0.1669921875, 
95, 3922785973, 0.5489004850387573, -0.6450628042221069, -0.2176142930984497, -0.4850406050682068, 8.502312660217285, -5.051421642303467, 0.8954561948776245, -0.8844209909439087, -2.2875688076019287, -4.485551834106445, -0.779541015625, 0.337890625, 0.1669921875, 
96, 3922794306, 0.5487456321716309, -0.6450427770614624, -0.21784964203834534, -0.4851369559764862, 8.469023704528809, -5.043880939483643, 0.8921778202056885, -0.4329189658164978, -1.9324020147323608, -4.046037673950195, -0.7783203125, 0.33544921875, 0.16650390625, 
97, 3922802639, 0.5486361980438232, -0.6450040936470032, -0.218055859208107, -0.48521971702575684, 8.406774520874023, -5.058538913726807, 0.8718585968017578, -0.040201541036367416, -1.55569326877594, -3.3936686515808105, -0.77392578125, 0.335205078125, 0.16650390625, 
98, 3922810972, 0.5485753417015076, -0.6449517011642456, -0.2182072401046753, -0.48529013991355896, 8.419103622436523, -5.04970645904541, 0.8710641860961914, 0.16226617991924286, -1.0295515060424805, -2.5757548809051514, -0.77880859375, 0.33447265625, 0.1689453125, 
99, 3922819305, 0.5485514998435974, -0.6448991298675537, -0.2182990312576294, -0.4853454530239105, 8.46412181854248, -5.035901069641113, 0.8776368498802185, 0.13163156807422638, -0.5785616040229797, -1.644472360610962, -0.7783203125, 0.33642578125, 0.16796875, 
100, 3922827638, 0.5485626459121704, -0.644849419593811, -0.21831321716308594, -0.48539263010025024, 8.488965034484863, -5.025809288024902, 0.8684338331222534, -0.06660981476306915, -0.003419500542804599, -0.694568395614624, -0.7783203125, 0.33544921875, 0.166015625, 
101, 3922835971, 0.5485906004905701, -0.64481121301651, -0.218247190117836, -0.4854413568973541, 8.513958930969238, -5.007704734802246, 0.8957580327987671, -0.5525117516517639, 0.6111043691635132, 0.19282394647598267, -0.77734375, 0.33544921875, 0.1669921875, 
102, 3922844304, 0.5486327409744263, -0.6447861194610596, -0.21810086071491241, -0.4854928255081177, 8.528876304626465, -5.003439903259277, 0.9009660482406616, -1.0609288215637207, 1.1757957935333252, 0.9759535789489746, -0.77734375, 0.33447265625, 0.16796875, 
103, 3922852637, 0.548676609992981, -0.6447725296020508, -0.21789345145225525, -0.48555445671081543, 8.537601470947266, -4.9886884689331055, 0.8999272584915161, -1.584586262702942, 1.6768616437911987, 1.5286320447921753, -0.77587890625, 0.33544921875, 0.16650390625, 
104, 3922860970, 0.5487141609191895, -0.6447869539260864, -0.21761929988861084, -0.48561587929725647, 8.51943302154541, -4.956656455993652, 0.9170212149620056, -2.282599687576294, 1.9482442140579224, 2.1221392154693604, -0.779296875, 0.333984375, 0.16796875, 
105, 3922869303, 0.5487475395202637, -0.6448216438293457, -0.21729665994644165, -0.4856765866279602, 8.512579917907715, -4.977420330047607, 0.9072604775428772, -2.7838189601898193, 2.1723692417144775, 2.632528781890869, -0.77783203125, 0.33544921875, 0.16796875, 
106, 3922877636, 0.5488003492355347, -0.6448549032211304, -0.21693553030490875, -0.48573416471481323, 8.500554084777832, -4.936394214630127, 0.8696472644805908, -2.8600213527679443, 2.49029278755188, 3.083390474319458, -0.77685546875, 0.33544921875, 0.166015625, 
107, 3922885969, 0.5488620400428772, -0.6448915004730225, -0.21653792262077332, -0.48579323291778564, 8.505789756774902, -4.933505058288574, 0.8367430567741394, -3.0380916595458984, 2.7888267040252686, 3.50384783744812, -0.7802734375, 0.333984375, 0.1689453125, 
108, 3922894302, 0.5489411354064941, -0.6449351906776428, -0.21610203385353088, -0.48583996295928955, 8.504790306091309, -4.904150009155273, 0.7999230623245239, -3.171618700027466, 2.967613935470581, 4.033524990081787, -0.77685546875, 0.335205078125, 0.1650390625, 
109, 3922902635, 0.549027681350708, -0.644974410533905, -0.21565505862236023, -0.4858887195587158, 8.483842849731445, -4.901176452636719, 0.7431386709213257, -3.145261764526367, 3.1325955390930176, 4.192640781402588, -0.77685546875, 0.336669921875, 0.166015625, 
110, 3922910968, 0.549142599105835, -0.6450053453445435, -0.2152077853679657, -0.48591625690460205, 8.493123054504395, -4.896352767944336, 0.7197048664093018, -2.77764630317688, 3.075860023498535, 4.4805707931518555, -0.77587890625, 0.336669921875, 0.16552734375, 
111, 3922919301, 0.5492569208145142, -0.6450419425964355, -0.2147604078054428, -0.48593631386756897, 8.511857986450195, -4.870524883270264, 0.684624433517456, -2.803311586380005, 2.984391450881958, 4.589712619781494, -0.7783203125, 0.3359375, 0.16455078125, 
112, 3922927634, 0.5493872165679932, -0.6450605392456055, -0.21432511508464813, -0.4859563708305359, 8.520484924316406, -4.869361400604248, 0.6573258638381958, -2.445096492767334, 3.0460195541381836, 4.496169090270996, -0.777587890625, 0.339599609375, 0.16259765625, 
113, 3922935967, 0.5495116710662842, -0.6450808048248291, -0.213899165391922, -0.48597660660743713, 8.531002044677734, -4.833724021911621, 0.6454147696495056, -2.4478116035461426, 2.9640021324157715, 4.419480323791504, -0.776611328125, 0.338623046875, 0.16455078125, 
114, 3922944300, 0.5496291518211365, -0.6450994610786438, -0.21349331736564636, -0.4859974980354309, 8.51867389678955, -4.791810989379883, 0.6348835825920105, -2.366281509399414, 2.7908246517181396, 4.144127368927002, -0.778076171875, 0.340087890625, 0.16357421875, 
115, 3922952633, 0.549735426902771, -0.6451138854026794, -0.21312004327774048, -0.48602184653282166, 8.521794319152832, -4.782771110534668, 0.6471990942955017, -2.2195374965667725, 2.5864744186401367, 3.7817111015319824, -0.776123046875, 0.340087890625, 0.1630859375, 
116, 3922960966, 0.5498282313346863, -0.64512699842453, -0.21278351545333862, -0.48604699969291687, 8.490057945251465, -4.760674953460693, 0.6291574835777283, -2.0920042991638184, 2.2711374759674072, 3.3160958290100098, -0.780029296875, 0.340087890625, 0.1640625, 
117, 3922969299, 0.5499037504196167, -0.6451424956321716, -0.2124876081943512, -0.48607027530670166, 8.467474937438965, -4.747225761413574, 0.6229177117347717, -1.978072166442871, 1.8920977115631104, 2.9013755321502686, -0.775634765625, 0.341064453125, 0.16357421875, 
118, 3922977632, 0.5499573945999146, -0.6451665759086609, -0.2122524380683899, -0.4860805869102478, 8.456708908081055, -4.761250972747803, 0.6249847412109375, -1.7997969388961792, 1.1839667558670044, 2.3008241653442383, -0.776123046875, 0.341552734375, 0.16259765625, 
119, 3922985965, 0.549994945526123, -0.6451842188835144, -0.2120850384235382, -0.48608753085136414, 8.484827041625977, -4.770801544189453, 0.6385948657989502, -1.4105629920959473, 0.6414828300476074, 1.6394902467727661, -0.777587890625, 0.340087890625, 0.16357421875, 
120, 3922994298, 0.5500303506851196, -0.6451845169067383, -0.21200883388519287, -0.4860803782939911, 8.481491088867188, -4.811567306518555, 0.6231699585914612, -0.6698762774467468, -0.06489366292953491, 0.8297987580299377, -0.776611328125, 0.341064453125, 0.16162109375, 
121, 3923002631, 0.5500607490539551, -0.64515221118927, -0.21202021837234497, -0.4860839247703552, 8.495430946350098, -4.83738899230957, 0.6430689096450806, 0.10714434087276459, -0.4252603054046631, -0.11471334844827652, -0.773681640625, 0.341796875, 0.162353515625, 
122, 3923010964, 0.5500969290733337, -0.645081639289856, -0.21212154626846313, -0.48609238862991333, 8.467514038085938, -4.86394739151001, 0.6680970191955566, 1.0142980813980103, -0.7937466502189636, -1.0654112100601196, -0.777099609375, 0.339599609375, 0.15966796875, 
123, 3923019297, 0.5501348972320557, -0.6449787020683289, -0.2123003602027893, -0.4861081838607788, 8.493033409118652, -4.8707685470581055, 0.6894627809524536, 1.7889238595962524, -1.088848352432251, -1.8464150428771973, -0.776123046875, 0.341064453125, 0.162109375, 
124, 3923027630, 0.5501881837844849, -0.6448363065719604, -0.21254107356071472, -0.48613154888153076, 8.519464492797852, -4.891581058502197, 0.69004887342453, 2.5962841510772705, -1.1851832866668701, -2.5103352069854736, -0.775634765625, 0.340576171875, 0.16357421875, 
125, 3923035963, 0.5502479076385498, -0.6446710228919983, -0.2128106653690338, -0.48616498708724976, 8.520206451416016, -4.847369194030762, 0.6723582148551941, 3.029805898666382, -1.1479403972625732, -2.821523427963257, -0.777099609375, 0.341064453125, 0.1611328125, 
126, 3923044296, 0.5503104329109192, -0.6444940567016602, -0.21308760344982147, -0.48620760440826416, 8.536572456359863, -4.859841823577881, 0.6966038346290588, 3.1266274452209473, -1.0333679914474487, -3.012759208679199, -0.777099609375, 0.340576171875, 0.16259765625, 
127, 3923052629, 0.5503695607185364, -0.6443185806274414, -0.21334567666053772, -0.4862598776817322, 8.530252456665039, -4.854715824127197, 0.6798813343048096, 2.937363862991333, -0.809525191783905, -2.8997747898101807, -0.776123046875, 0.3408203125, 0.1611328125, 
128, 3923060962, 0.5504194498062134, -0.6441543102264404, -0.21357908844947815, -0.48631903529167175, 8.53072452545166, -4.866733074188232, 0.7169865369796753, 2.580890417098999, -0.6765359044075012, -2.80267071723938, -0.772216796875, 0.34033203125, 0.161376953125, 
129, 3923069295, 0.5504450798034668, -0.6440144181251526, -0.2137778103351593, -0.48638778924942017, 8.52636432647705, -4.884031772613525, 0.7512971758842468, 1.921400547027588, -0.5489770174026489, -2.614816188812256, -0.774169921875, 0.34033203125, 0.16162109375, 
130, 3923077628, 0.550460934638977, -0.6438965797424316, -0.2139318436384201, -0.4864581525325775, 8.554149627685547, -4.930284023284912, 0.8033729791641235, 1.3642141819000244, -0.38747936487197876, -2.274864435195923, -0.777099609375, 0.338623046875, 0.162109375, 
131, 3923085961, 0.5504555702209473, -0.6437886357307434, -0.21406760811805725, -0.4865472614765167, 8.527643203735352, -4.921389102935791, 0.8420535922050476, 0.9636586904525757, -0.21811801195144653, -2.322659969329834, -0.776123046875, 0.340087890625, 0.16357421875, 
132, 3923094294, 0.5504443049430847, -0.6436861157417297, -0.2141972780227661, -0.48663872480392456, 8.489426612854004, -4.952613353729248, 0.8698300719261169, 0.7808243632316589, -0.1982157677412033, -2.355267286300659, -0.778564453125, 0.340087890625, 0.16064453125, 
133, 3923102627, 0.5504288673400879, -0.6435813903808594, -0.2143326997756958, -0.4867348372936249, 8.479649543762207, -4.9862542152404785, 0.8841024041175842, 0.8099221587181091, -0.19683261215686798, -2.4319052696228027, -0.779541015625, 0.340087890625, 0.16064453125, 
134, 3923110960, 0.5504390597343445, -0.6434600949287415, -0.21447885036468506, -0.4868195652961731, 8.469439506530762, -5.019672870635986, 0.890756368637085, 1.2432382106781006, -0.19293922185897827, -2.363156795501709, -0.776611328125, 0.339111328125, 0.16162109375, 
135, 3923119293, 0.5504683256149292, -0.6433276534080505, -0.21463626623153687, -0.4868919849395752, 8.480026245117188, -5.021960735321045, 0.89730304479599, 1.6234047412872314, -0.24952109158039093, -2.2316277027130127, -0.776611328125, 0.3408203125, 0.16064453125, 
136, 3923127626, 0.5505281090736389, -0.643180251121521, -0.21479067206382751, -0.48695108294487, 8.511894226074219, -5.037450313568115, 0.8895167708396912, 2.012561559677124, -0.16330355405807495, -1.9861148595809937, -0.776611328125, 0.338134765625, 0.162109375, 
137, 3923135959, 0.5506229400634766, -0.6430164575576782, -0.21493589878082275, -0.4869961440563202, 8.541301727294922, -5.060162544250488, 0.9197275638580322, 2.4448020458221436, 0.0017673821421340108, -1.5691665410995483, -0.776123046875, 0.3388671875, 0.1591796875, 
138, 3923144292, 0.5507655143737793, -0.6428320407867432, -0.21504637598991394, -0.487029492855072, 8.555370330810547, -5.053202152252197, 0.941360354423523, 2.8050661087036133, 0.4347760081291199, -0.9580876231193542, -0.780517578125, 0.338134765625, 0.15966796875, 
139, 3923152625, 0.55092453956604, -0.6426433324813843, -0.2151101678609848, -0.4870705008506775, 8.571818351745605, -5.061196327209473, 0.9538961052894592, 2.65773344039917, 0.9415281414985657, -0.46562841534614563, -0.77294921875, 0.33837890625, 0.1611328125, 
140, 3923160958, 0.5511001348495483, -0.6424558758735657, -0.215114563703537, -0.48711714148521423, 8.55827522277832, -5.018769264221191, 0.9175815582275391, 2.3701364994049072, 1.4748677015304565, 0.0914684310555458, -0.777099609375, 0.338134765625, 0.158203125, 
141, 3923169291, 0.5512787699699402, -0.6422837376594543, -0.21503588557243347, -0.4871768057346344, 8.518830299377441, -4.968903064727783, 0.9014286398887634, 1.6890794038772583, 2.1386349201202393, 0.8315148949623108, -0.77880859375, 0.335693359375, 0.16064453125, 
142, 3923177624, 0.5514540672302246, -0.6421418190002441, -0.21486827731132507, -0.48723945021629333, 8.4937105178833, -4.929818153381348, 0.8540058732032776, 0.8219864964485168, 2.611294746398926, 1.6218935251235962, -0.778076171875, 0.33935546875, 0.1572265625, 
143, 3923185957, 0.551613986492157, -0.6420278549194336, -0.2146342247724533, -0.4873119592666626, 8.479851722717285, -4.899514675140381, 0.826321005821228, 0.008375855162739754, 2.9842886924743652, 2.153183698654175, -0.776123046875, 0.33837890625, 0.158203125, 
144, 3923194290, 0.5517717599868774, -0.6419409513473511, -0.21433331072330475, -0.48738035559654236, 8.474273681640625, -4.885143280029297, 0.8267888426780701, -0.6599380373954773, 3.2529566287994385, 2.8013265132904053, -0.776611328125, 0.338623046875, 0.15966796875, 
145, 3923202623, 0.5519117116928101, -0.6418750286102295, -0.2139875292778015, -0.4874604046344757, 8.447846412658691, -4.869919300079346, 0.8218511939048767, -1.289740800857544, 3.5068702697753906, 3.0915610790252686, -0.779052734375, 0.3408203125, 0.15673828125, 
146, 3923210956, 0.5520510673522949, -0.6418201923370361, -0.21361561119556427, -0.48753800988197327, 8.423446655273438, -4.8651347160339355, 0.8463057279586792, -1.5691664218902588, 3.6050243377685547, 3.328697919845581, -0.774658203125, 0.34033203125, 0.15869140625, 
147, 3923219289, 0.5521772503852844, -0.6417767405509949, -0.21324430406093597, -0.4876147210597992, 8.449466705322266, -4.83415412902832, 0.8487422466278076, -1.7599667310714722, 3.490579843521118, 3.3130218982696533, -0.775634765625, 0.3388671875, 0.1572265625, 
148, 3923227622, 0.5522927045822144, -0.6417409181594849, -0.21287357807159424, -0.48769307136535645, 8.446319580078125, -4.80048131942749, 0.851418673992157, -1.9172382354736328, 3.403977632522583, 3.208054542541504, -0.775146484375, 0.34423828125, 0.15673828125, 
149, 3923235955, 0.5523959994316101, -0.6417046189308167, -0.21252426505088806, -0.4877761900424957, 8.444629669189453, -4.8287177085876465, 0.8287074565887451, -1.8861682415008545, 3.264406442642212, 2.9400534629821777, -0.776123046875, 0.341796875, 0.15625, 
150, 3923244288, 0.5524954795837402, -0.6416646242141724, -0.2122071534395218, -0.4878542125225067, 8.426554679870605, -4.800146102905273, 0.7706456780433655, -1.6654760837554932, 2.974299669265747, 2.6188764572143555, -0.775146484375, 0.341796875, 0.15673828125, 
151, 3923252621, 0.5525846481323242, -0.6416084170341492, -0.2119373381137848, -0.4879443645477295, 8.418330192565918, -4.8170390129089355, 0.7288932204246521, -1.3407387733459473, 2.808626651763916, 2.0312600135803223, -0.775634765625, 0.33935546875, 0.15380859375, 
152, 3923260954, 0.5526801943778992, -0.6415431499481201, -0.21170303225517273, -0.48802393674850464, 8.43886661529541, -4.8389387130737305, 0.7481151819229126, -0.9586766958236694, 2.519416093826294, 1.775015115737915, -0.776611328125, 0.34228515625, 0.15625, 
153, 3923269287, 0.5527732372283936, -0.6414511203765869, -0.21153011918067932, -0.4881143271923065, 8.429451942443848, -4.830095291137695, 0.7419335246086121, -0.3928583562374115, 2.3338921070098877, 1.0967503786087036, -0.778076171875, 0.341796875, 0.15576171875, 
154, 3923277620, 0.5528726577758789, -0.6413320302963257, -0.21140816807746887, -0.4882109463214874, 8.448836326599121, -4.8390350341796875, 0.7307273745536804, 0.1903393715620041, 2.1893253326416016, 0.5233756303787231, -0.774169921875, 0.342041015625, 0.154296875, 
155, 3923285953, 0.5529773831367493, -0.6411872506141663, -0.21133065223693848, -0.4883160889148712, 8.435453414916992, -4.849117279052734, 0.7250950932502747, 0.7102058529853821, 2.1258020401000977, 0.06815947592258453, -0.775634765625, 0.343994140625, 0.15234375, 
156, 3923294286, 0.5530873537063599, -0.6410262584686279, -0.2112942934036255, -0.48841869831085205, 8.44489860534668, -4.847597599029541, 0.7303354740142822, 1.1588903665542603, 1.9008322954177856, -0.3272090554237366, -0.777587890625, 0.3408203125, 0.15234375, 
157, 3923302619, 0.5532001852989197, -0.6408528089523315, -0.21129441261291504, -0.48851853609085083, 8.446483612060547, -4.856568336486816, 0.7498596906661987, 1.5257631540298462, 1.7117480039596558, -0.604790449142456, -0.775146484375, 0.342041015625, 0.15234375, 
158, 3923310952, 0.5533202290534973, -0.6406723260879517, -0.21131247282028198, -0.4886114001274109, 8.45616340637207, -4.837785243988037, 0.7775096297264099, 1.7891031503677368, 1.5616744756698608, -0.720336377620697, -0.776611328125, 0.342529296875, 0.15234375, 
159, 3923319285, 0.5534283518791199, -0.6405026912689209, -0.21132081747055054, -0.4887077212333679, 8.497920989990234, -4.813356399536133, 0.8350589275360107, 1.5407217741012573, 1.565644383430481, -0.6709263920783997, -0.775146484375, 0.341552734375, 0.15283203125, 
160, 3923327618, 0.5535298585891724, -0.6403432488441467, -0.2113032042980194, -0.48880940675735474, 8.508766174316406, -4.78830099105835, 0.8694304823875427, 1.200821042060852, 1.7166917324066162, -0.5374251008033752, -0.774658203125, 0.341064453125, 0.15283203125, 
161, 3923335951, 0.5536209940910339, -0.6401899456977844, -0.2112407684326172, -0.48893383145332336, 8.490652084350586, -4.805840015411377, 0.8571906089782715, 0.6967328190803528, 2.2014153003692627, -0.32864344120025635, -0.777099609375, 0.33984375, 0.15234375, 
162, 3923344284, 0.5536947250366211, -0.6400593519210815, -0.21113109588623047, -0.48906850814819336, 8.370922088623047, -4.760261535644531, 0.7935571074485779, 0.02220754139125347, 2.4332756996154785, -0.08172222971916199, -0.776123046875, 0.341552734375, 0.15087890625, 
163, 3923352617, 0.5537489056587219, -0.6399644017219543, -0.21094930171966553, -0.4892100989818573, 8.235478401184082, -4.708128452301025, 0.7363806366920471, -0.9145179390907288, 2.755220651626587, 0.5153071284294128, -0.772705078125, 0.342041015625, 0.14990234375, 
164, 3923360950, 0.5537752509117126, -0.6399191617965698, -0.2107044756412506, -0.48934489488601685, 8.175979614257812, -4.663491725921631, 0.6982685327529907, -1.953994870185852, 2.7513532638549805, 1.0359165668487549, -0.775634765625, 0.341552734375, 0.1494140625, 
165, 3923369283, 0.5537581443786621, -0.6399335861206055, -0.21038898825645447, -0.4894809424877167, 8.187053680419922, -4.649850845336914, 0.6828590035438538, -3.266545057296753, 2.7879302501678467, 1.569230556488037, -0.774658203125, 0.342529296875, 0.1513671875, 
166, 3923377616, 0.5536876916885376, -0.6400050520896912, -0.21002502739429474, -0.4896238148212433, 8.273018836975098, -4.657369136810303, 0.7359873056411743, -4.519388675689697, 2.6638545989990234, 1.7100574970245361, -0.776611328125, 0.342529296875, 0.1494140625, 
167, 3923385949, 0.5535905361175537, -0.6400933265686035, -0.209628164768219, -0.48978814482688904, 8.366934776306152, -4.757150650024414, 0.8000205755233765, -5.163100719451904, 2.9294235706329346, 1.7450213432312012, -0.774658203125, 0.343994140625, 0.1484375, 
168, 3923394282, 0.5534806251525879, -0.640181839466095, -0.20920027792453766, -0.48997944593429565, 8.382894515991211, -4.808292865753174, 0.873114287853241, -5.567241191864014, 3.348881959915161, 1.686005711555481, -0.775146484375, 0.342041015625, 0.14697265625, 
169, 3923402615, 0.5533537864685059, -0.6402652859687805, -0.20876452326774597, -0.4901996850967407, 8.25496768951416, -4.789975643157959, 0.8438383936882019, -5.809577465057373, 3.6647825241088867, 1.4491766691207886, -0.777587890625, 0.342529296875, 0.15087890625, 
170, 3923410948, 0.5532095432281494, -0.6403548717498779, -0.20832610130310059, -0.4904317855834961, 8.160822868347168, -4.697597980499268, 0.7645055651664734, -6.067897319793701, 3.6815600395202637, 1.240651249885559, -0.777099609375, 0.342041015625, 0.1474609375, 
171, 3923419281, 0.5530276298522949, -0.6404701471328735, -0.2078922688961029, -0.4906703531742096, 8.144970893859863, -4.675128936767578, 0.7010223865509033, -6.577672004699707, 3.439915180206299, 1.012197732925415, -0.776611328125, 0.341064453125, 0.14892578125, 
172, 3923427614, 0.5528115034103394, -0.6406107544898987, -0.20746564865112305, -0.49091076850891113, 8.154532432556152, -4.706532955169678, 0.6248916983604431, -7.031249523162842, 3.113743782043457, 0.7347187995910645, -0.7763671875, 0.344482421875, 0.1494140625, 
173, 3923435947, 0.5525681972503662, -0.6407728791236877, -0.2070484459400177, -0.49114927649497986, 8.146025657653809, -4.780688285827637, 0.5968285799026489, -7.346637725830078, 2.8122897148132324, 0.5884872078895569, -0.775390625, 0.343994140625, 0.1474609375, 
174, 3923444280, 0.5523054599761963, -0.6409505605697632, -0.20665159821510315, -0.4913803040981293, 8.172284126281738, -4.824275970458984, 0.6193228363990784, -7.496429920196533, 2.422851085662842, 0.3337535560131073, -0.775146484375, 0.342529296875, 0.1484375, 
175, 3923452613, 0.5520003437995911, -0.6411486268043518, -0.20628555119037628, -0.4916183352470398, 8.312517166137695, -4.8202948570251465, 0.6725039482116699, -7.822037696838379, 2.0033152103424072, -0.17570088803768158, -0.776123046875, 0.340087890625, 0.147216796875, 
176, 3923460946, 0.5516645908355713, -0.6413574814796448, -0.2059601992368698, -0.4918592572212219, 8.409636497497559, -4.892571449279785, 0.698417603969574, -7.921267509460449, 1.5491747856140137, -0.7754839658737183, -0.773193359375, 0.343017578125, 0.14990234375, 
177, 3923469279, 0.5512934327125549, -0.64158034324646, -0.20569035410881042, -0.4920975863933563, 8.43121337890625, -4.978261470794678, 0.7225260734558105, -7.941656589508057, 0.9209343791007996, -1.4026997089385986, -0.776123046875, 0.342529296875, 0.14794921875, 
178, 3923477612, 0.5509063601493835, -0.641796350479126, -0.20550349354743958, -0.49232739210128784, 8.473578453063965, -5.042969226837158, 0.7236146330833435, -7.459108829498291, 0.20714233815670013, -2.2401316165924072, -0.773681640625, 0.341552734375, 0.14892578125, 
179, 3923485945, 0.5505167841911316, -0.6419975161552429, -0.2054421305656433, -0.4925265610218048, 8.488417625427246, -5.110494136810303, 0.725224494934082, -6.426547527313232, -0.9027097225189209, -3.132659673690796, -0.776123046875, 0.342529296875, 0.15087890625, 
180, 3923494278, 0.5501677989959717, -0.6421575546264648, -0.20549850165843964, -0.49268460273742676, 8.586655616760254, -5.205164432525635, 0.7175693511962891, -4.849120616912842, -1.7827634811401367, -3.7434821128845215, -0.774169921875, 0.340576171875, 0.14892578125, 
181, 3923502611, 0.5498707890510559, -0.6422661542892456, -0.2057080864906311, -0.4927869439125061, 8.601577758789062, -5.280968189239502, 0.720961332321167, -2.800955057144165, -2.9177045822143555, -4.427484512329102, -0.776611328125, 0.33935546875, 0.150390625, 
182, 3923510944, 0.5496648550033569, -0.6423119306564331, -0.2060335874557495, -0.49282100796699524, 8.661102294921875, -5.286925315856934, 0.7486817240715027, -0.5490283966064453, -3.733518362045288, -4.536243438720703, -0.775146484375, 0.338623046875, 0.1484375, 
183, 3923519277, 0.5495445132255554, -0.6423014402389526, -0.20646879076957703, -0.492786705493927, 8.629478454589844, -5.293859481811523, 0.766926646232605, 1.5838305950164795, -4.527328968048096, -4.5276103019714355, -0.776611328125, 0.34033203125, 0.15185546875, 
184, 3923527610, 0.5495182275772095, -0.6422457695007324, -0.20698122680187225, -0.49267342686653137, 8.613165855407715, -5.295436382293701, 0.7855675220489502, 3.4887871742248535, -5.250393390655518, -4.1447296142578125, -0.775146484375, 0.33984375, 0.1513671875, 
185, 3923535943, 0.5495766401290894, -0.6421592831611633, -0.2075369656085968, -0.49248725175857544, 8.596471786499023, -5.298774719238281, 0.8059622645378113, 5.000974178314209, -5.76408576965332, -3.449148654937744, -0.774658203125, 0.3369140625, 0.15185546875, 
186, 3923544276, 0.5497009754180908, -0.6420515179634094, -0.20811057090759277, -0.4922468662261963, 8.563910484313965, -5.273848056793213, 0.8105366826057434, 5.989965438842773, -6.054398059844971, -2.850595474243164, -0.775146484375, 0.337890625, 0.150390625, 
187, 3923552609, 0.5498693585395813, -0.6419566869735718, -0.20868006348609924, -0.4919412136077881, 8.561800003051758, -5.230520725250244, 0.8597459197044373, 6.446437835693359, -6.540173053741455, -1.9504855871200562, -0.77197265625, 0.337158203125, 0.15087890625, 
188, 3923560942, 0.5500776767730713, -0.6418721675872803, -0.20921680331230164, -0.49159085750579834, 8.578505516052246, -5.21065616607666, 0.9134809374809265, 6.62263822555542, -6.662686347961426, -1.0615949630737305, -0.776123046875, 0.337890625, 0.15234375, 
189, 3923569275, 0.5503051280975342, -0.6418071389198303, -0.20971377193927765, -0.4912090599536896, 8.595257759094238, -5.202359199523926, 0.9692761898040771, 6.4665703773498535, -6.692424297332764, -0.2492906004190445, -0.776123046875, 0.33837890625, 0.150390625, 
190, 3923577608, 0.5505625009536743, -0.6417534947395325, -0.21016348898410797, -0.49079811573028564, 8.621722221374512, -5.16809606552124, 1.0434722900390625, 6.408246994018555, -6.6050286293029785, 0.5857207775115967, -0.776123046875, 0.33740234375, 0.15234375, 
191, 3923585941, 0.5508335828781128, -0.6417089700698853, -0.21056580543518066, -0.4903799891471863, 8.622002601623535, -5.162190914154053, 1.0571740865707397, 6.169855117797852, -6.314946174621582, 1.2144989967346191, -0.771728515625, 0.339599609375, 0.15087890625, 
192, 3923594274, 0.5511215925216675, -0.6416685581207275, -0.21090492606163025, -0.48996326327323914, 8.587861061096191, -5.135634422302246, 1.0750020742416382, 5.847806930541992, -5.818747043609619, 1.8512177467346191, -0.774658203125, 0.339111328125, 0.15087890625, 
193, 3923602607, 0.5514316558837891, -0.641615092754364, -0.21119868755340576, -0.48955777287483215, 8.556949615478516, -5.129919528961182, 1.0458731651306152, 5.810334205627441, -5.206465721130371, 2.310814142227173, -0.773193359375, 0.33935546875, 0.1533203125, 
194, 3923610940, 0.5517656207084656, -0.641552209854126, -0.21143552660942078, -0.48916149139404297, 8.502788543701172, -5.079493045806885, 0.9994590282440186, 5.6752705574035645, -4.579352378845215, 2.842412233352661, -0.771728515625, 0.338623046875, 0.15283203125, 
195, 3923619273, 0.5521171689033508, -0.6414790749549866, -0.21163442730903625, -0.4887743890285492, 8.469935417175293, -5.060721397399902, 0.9839208126068115, 5.631725311279297, -4.070755481719971, 3.230109214782715, -0.776123046875, 0.3408203125, 0.1533203125, 
196, 3923627606, 0.5524742603302002, -0.64139723777771, -0.21179038286209106, -0.4884105622768402, 8.435797691345215, -5.029566287994385, 0.9849204421043396, 5.385776996612549, -3.4845480918884277, 3.410766124725342, -0.773681640625, 0.342041015625, 0.1533203125, 
197, 3923635939, 0.5528325438499451, -0.6413055062294006, -0.21190433204174042, -0.48807623982429504, 8.417027473449707, -4.977777481079102, 1.0121620893478394, 5.106377601623535, -2.815094232559204, 3.568882942199707, -0.774658203125, 0.34130859375, 0.154296875, 
198, 3923644272, 0.5531843900680542, -0.6412110328674316, -0.21197083592414856, -0.48777252435684204, 8.380081176757812, -4.953296661376953, 1.0180716514587402, 4.660459041595459, -2.2048349380493164, 3.669879913330078, -0.773193359375, 0.341064453125, 0.15380859375, 
199, 3923652605, 0.5535242557525635, -0.6411099433898926, -0.21198752522468567, -0.4875125586986542, 8.35633659362793, -4.92893648147583, 1.0600428581237793, 4.145330905914307, -1.41412353515625, 3.7116055488586426, -0.772705078125, 0.340576171875, 0.1552734375, 
200, 3923660938, 0.5538434386253357, -0.6410186886787415, -0.21194367110729218, -0.4872892200946808, 8.344010353088379, -4.887370586395264, 1.071076512336731, 3.374086618423462, -0.7714366912841797, 3.820286273956299, -0.774658203125, 0.34228515625, 0.15576171875, 
201, 3923669271, 0.5541455149650574, -0.640937328338623, -0.21185344457626343, -0.48709192872047424, 8.306402206420898, -4.85960578918457, 1.0339592695236206, 2.7616755962371826, -0.28865963220596313, 3.9800939559936523, -0.770751953125, 0.344970703125, 0.152099609375, 
202, 3923677604, 0.554419994354248, -0.6408749222755432, -0.21169519424438477, -0.48693037033081055, 8.281027793884277, -4.831728458404541, 0.991205632686615, 1.812745213508606, 0.31997305154800415, 4.144742012023926, -0.772216796875, 0.344482421875, 0.1513671875, 
203, 3923685937, 0.5546697378158569, -0.6408333778381348, -0.21147528290748596, -0.48679599165916443, 8.271492004394531, -4.796390056610107, 0.9177584052085876, 0.9477522373199463, 0.8336665630340576, 4.4063401222229, -0.772216796875, 0.344970703125, 0.15087890625, 
204, 3923694270, 0.5548928380012512, -0.6408095955848694, -0.211208775639534, -0.48668912053108215, 8.248177528381348, -4.805751323699951, 0.8737365007400513, 0.18127194046974182, 1.2175726890563965, 4.4502177238464355, -0.770751953125, 0.344970703125, 0.152099609375, 
205, 3923702603, 0.5550912022590637, -0.6408061385154724, -0.21090087294578552, -0.4866009056568146, 8.260774612426758, -4.806143760681152, 0.8497248291969299, -0.5204684734344482, 1.5087041854858398, 4.598344802856445, -0.771240234375, 0.346923828125, 0.153564453125, 
206, 3923710936, 0.5552658438682556, -0.6408176422119141, -0.21057754755020142, -0.4865266978740692, 8.292428970336914, -4.832156181335449, 0.8354788422584534, -0.991078794002533, 1.5631089210510254, 4.4805192947387695, -0.768798828125, 0.345703125, 0.153564453125, 
207, 3923719269, 0.5554190874099731, -0.640828549861908, -0.2102552354335785, -0.48647651076316833, 8.275704383850098, -4.8429856300354, 0.8723893761634827, -1.231263518333435, 1.7255542278289795, 4.174685001373291, -0.771240234375, 0.34521484375, 0.151123046875, 
208, 3923727602, 0.5555515885353088, -0.6408461928367615, -0.20993880927562714, -0.4864387512207031, 8.318325996398926, -4.8405585289001465, 0.8775664567947388, -1.4678623676300049, 1.667384386062622, 3.8755877017974854, -0.770263671875, 0.34716796875, 0.151123046875, 
209, 3923735935, 0.5556702613830566, -0.6408593654632568, -0.20964613556861877, -0.4864121377468109, 8.325695991516113, -4.861867904663086, 0.8696250319480896, -1.4227298498153687, 1.5909768342971802, 3.5103540420532227, -0.7705078125, 0.34765625, 0.151611328125, 
210, 3923744268, 0.5557736754417419, -0.6408718824386597, -0.2093726396560669, -0.4863952398300171, 8.350378036499023, -4.873013973236084, 0.8439890146255493, -1.457104206085205, 1.475456714630127, 3.1283175945281982, -0.770751953125, 0.3466796875, 0.150146484375, 
211, 3923752601, 0.5558733940124512, -0.6408770084381104, -0.20913195610046387, -0.4863782227039337, 8.375004768371582, -4.880533695220947, 0.8120027780532837, -1.2083643674850464, 1.2782014608383179, 2.827683448791504, -0.769775390625, 0.34521484375, 0.152099609375, 
212, 3923760934, 0.5559727549552917, -0.6408835053443909, -0.20890314877033234, -0.4863544702529907, 8.410977363586426, -4.90648078918457, 0.7929887771606445, -1.129677414894104, 1.1000032424926758, 2.7438735961914062, -0.771484375, 0.3486328125, 0.149169921875, 
213, 3923769267, 0.5560727119445801, -0.6408931016921997, -0.20869314670562744, -0.48631754517555237, 8.423652648925781, -4.886951923370361, 0.7685864567756653, -0.9799366593360901, 0.8396859169006348, 2.722280979156494, -0.7705078125, 0.349609375, 0.151123046875, 
214, 3923777600, 0.5561838746070862, -0.6408947706222534, -0.2084856927394867, -0.4862772822380066, 8.398366928100586, -4.900984764099121, 0.7479766011238098, -0.7979987263679504, 0.8600491881370544, 2.7476391792297363, -0.77001953125, 0.3486328125, 0.150634765625, 
215, 3923785933, 0.5562970042228699, -0.6409091353416443, -0.20829486846923828, -0.48621055483818054, 8.428278923034668, -4.893131732940674, 0.7285466194152832, -0.6773557066917419, 0.4313693642616272, 2.885392427444458, -0.771484375, 0.3505859375, 0.148681640625, 
216, 3923794266, 0.5564166307449341, -0.6409232020378113, -0.20811167359352112, -0.48613348603248596, 8.447333335876465, -4.923177242279053, 0.7135950922966003, -0.5500271916389465, 0.29166924953460693, 2.905319929122925, -0.7685546875, 0.3486328125, 0.148681640625, 
217, 3923802599, 0.5565438270568848, -0.6409386396408081, -0.20794692635536194, -0.48603808879852295, 8.484272956848145, -4.9288330078125, 0.720276951789856, -0.30592361092567444, 0.012064305134117603, 2.974325180053711, -0.76806640625, 0.351318359375, 0.150634765625, 
218, 3923810932, 0.556673526763916, -0.6409618854522705, -0.20780271291732788, -0.4859204888343811, 8.49627685546875, -4.926851272583008, 0.7243828773498535, -0.15595227479934692, -0.3977762460708618, 2.9645402431488037, -0.77001953125, 0.350830078125, 0.147705078125, 
219, 3923819265, 0.5568039417266846, -0.6409907937049866, -0.2076866626739502, -0.4857826232910156, 8.5106201171875, -4.918378829956055, 0.7191119194030762, 0.05914326757192612, -0.8096787333488464, 2.9285781383514404, -0.76904296875, 0.350830078125, 0.149658203125, 
220, 3923827598, 0.5569370985031128, -0.6410209536552429, -0.20760533213615417, -0.4856249988079071, 8.490964889526367, -4.915812015533447, 0.7463748455047607, 0.3563196063041687, -1.2670722007751465, 2.7608046531677246, -0.77099609375, 0.351318359375, 0.148193359375, 
221, 3923835931, 0.5570706725120544, -0.6410531401634216, -0.207564115524292, -0.4854467809200287, 8.535396575927734, -4.930929660797119, 0.7393626570701599, 0.6802116632461548, -1.7521545886993408, 2.6075804233551025, -0.76806640625, 0.351806640625, 0.146728515625, 
222, 3923844264, 0.5572064518928528, -0.6410803198814392, -0.2075592577457428, -0.4852571487426758, 8.549181938171387, -4.917012691497803, 0.7644869685173035, 1.0038731098175049, -2.1090121269226074, 2.3412182331085205, -0.76806640625, 0.354248046875, 0.149169921875, 
223, 3923852597, 0.557343065738678, -0.6411026120185852, -0.20761023461818695, -0.48504897952079773, 8.566359519958496, -4.933972358703613, 0.7650317549705505, 1.4910812377929688, -2.652468681335449, 2.0190160274505615, -0.7666015625, 0.354736328125, 0.14990234375, 
224, 3923860930, 0.5574930906295776, -0.6411115527153015, -0.20768514275550842, -0.484832763671875, 8.563825607299805, -4.926916122436523, 0.7486141920089722, 1.8784711360931396, -2.7921946048736572, 1.8850282430648804, -0.76953125, 0.351806640625, 0.148681640625, 
225, 3923869263, 0.5576466917991638, -0.6411020755767822, -0.20779095590114594, -0.48462310433387756, 8.537869453430176, -4.903691291809082, 0.7306704521179199, 2.264810562133789, -2.832153081893921, 1.5710747241973877, -0.767578125, 0.350830078125, 0.148681640625, 
226, 3923877596, 0.5578023195266724, -0.6410965323448181, -0.20790135860443115, -0.48440372943878174, 8.506258964538574, -4.884021759033203, 0.7480182647705078, 2.284123659133911, -2.9786665439605713, 1.593205451965332, -0.76806640625, 0.351806640625, 0.149658203125, 
227, 3923885929, 0.5579515099525452, -0.6410945057868958, -0.20801982283592224, -0.4841839373111725, 8.488585472106934, -4.913322448730469, 0.7500317096710205, 2.26245379447937, -3.0659849643707275, 1.526813268661499, -0.76708984375, 0.353759765625, 0.14892578125, 
228, 3923894262, 0.5581138134002686, -0.6410924792289734, -0.20812851190567017, -0.4839526414871216, 8.48314094543457, -5.0300774574279785, 0.7736165523529053, 2.338502883911133, -3.0758984088897705, 1.75296151638031, -0.7685546875, 0.351806640625, 0.148681640625, 
229, 3923902595, 0.5582905411720276, -0.6410863995552063, -0.20821455121040344, -0.4837198853492737, 8.460644721984863, -5.06348180770874, 0.80066978931427, 2.3642711639404297, -2.8307957649230957, 2.0855624675750732, -0.77099609375, 0.35400390625, 0.152099609375, 
230, 3923910928, 0.5584871172904968, -0.6410866379737854, -0.20826749503612518, -0.48346975445747375, 8.429368019104004, -5.093386650085449, 0.83124840259552, 2.3054604530334473, -2.730285406112671, 2.6232049465179443, -0.76806640625, 0.354248046875, 0.15087890625, 
231, 3923919261, 0.5587111711502075, -0.6411210894584656, -0.2082442045211792, -0.4831751883029938, 8.473237037658691, -5.266280651092529, 0.9362534880638123, 1.9436849355697632, -2.684000253677368, 3.9583468437194824, -0.76513671875, 0.353759765625, 0.150390625, 
232, 3923927594, 0.5589755177497864, -0.6412088871002197, -0.20805445313453674, -0.4828348159790039, 8.594766616821289, -5.4522833824157715, 1.0556873083114624, 0.8768009543418884, -2.0477685928344727, 6.157586097717285, -0.76513671875, 0.355712890625, 0.15087890625, 
233, 3923935927, 0.559323787689209, -0.6413626074790955, -0.20763611793518066, -0.4824070632457733, 8.775717735290527, -5.629062652587891, 1.1548869609832764, -0.15784771740436554, -1.2383586168289185, 9.625905990600586, -0.768310546875, 0.357666015625, 0.14794921875, 
234, 3923944260, 0.5598190426826477, -0.6415330171585083, -0.20688576996326447, -0.4819280505180359, 8.957664489746094, -6.218888759613037, 1.4232147932052612, -1.046149730682373, 1.1510272026062012, 13.935223579406738, -0.765869140625, 0.35791015625, 0.150390625, 
235, 3923952593, 0.5605621337890625, -0.6417757272720337, -0.2056683897972107, -0.48126164078712463, 9.281010627746582, -7.172079086303711, 1.7774235010147095, -1.9794304370880127, 3.3417880535125732, 21.377981185913086, -0.76171875, 0.359375, 0.148681640625, 
236, 3923960926, 0.5616250038146973, -0.6420868635177612, -0.20384801924228668, -0.48038122057914734, 9.438915252685547, -7.919003009796143, 1.9102624654769897, -3.0685243606567383, 6.528613567352295, 30.628995895385742, -0.763427734375, 0.36181640625, 0.1484375, 
237, 3923969259, 0.5631295442581177, -0.6424017548561096, -0.2014179527759552, -0.4792226254940033, 9.437150955200195, -8.538280487060547, 1.7117094993591309, -2.431370973587036, 10.005576133728027, 41.114959716796875, -0.759521484375, 0.366943359375, 0.148681640625, 
238, 3923977592, 0.5650362968444824, -0.6427074670791626, -0.1983884871006012, -0.47783008217811584, 9.30390739440918, -9.477628707885742, 1.785645842552185, -2.1223111152648926, 13.74378776550293, 50.821022033691406, -0.76025390625, 0.369140625, 0.146728515625, 
239, 3923985925, 0.5672484636306763, -0.6432123780250549, -0.19467167556285858, -0.4760550558567047, 9.252450942993164, -10.278143882751465, 2.003049612045288, -4.489436149597168, 15.275566101074219, 62.42718505859375, -0.756591796875, 0.37890625, 0.14306640625, 
240, 3923994258, 0.5697828531265259, -0.6439390182495117, -0.19009116291999817, -0.4738921821117401, 9.284868240356445, -10.776044845581055, 2.640704393386841, -7.94028902053833, 17.94809341430664, 75.78316497802734, -0.753173828125, 0.383056640625, 0.142822265625, 
241, 3924002591, 0.5724682211875916, -0.644990086555481, -0.18453054130077362, -0.47141796350479126, 9.204863548278809, -11.147327423095703, 3.2148797512054443, -14.695573806762695, 21.147066116333008, 88.7397232055664, -0.7490234375, 0.39501953125, 0.14404296875, 
242, 3924010924, 0.5752570033073425, -0.6463775634765625, -0.1780126392841339, -0.4686205983161926, 8.91411018371582, -11.628517150878906, 3.5670597553253174, -21.835824966430664, 23.901159286499023, 101.29216003417969, -0.744384765625, 0.40283203125, 0.139404296875, 
243, 3924019257, 0.5781447291374207, -0.6481195092201233, -0.17051191627979279, -0.4654393196105957, 8.632970809936523, -12.350040435791016, 3.7691707611083984, -29.142805099487305, 26.214509963989258, 114.55670928955078, -0.73876953125, 0.4150390625, 0.1357421875, 
244, 3924027590, 0.5811588168144226, -0.6501263976097107, -0.16199472546577454, -0.4619157612323761, 8.450270652770996, -12.90424633026123, 3.919851779937744, -35.83660125732422, 29.853185653686523, 127.78540802001953, -0.732177734375, 0.428955078125, 0.1328125, 
245, 3924035923, 0.5843989253044128, -0.652273952960968, -0.15252968668937683, -0.4580063819885254, 8.056116104125977, -13.03621768951416, 4.10947847366333, -40.11793518066406, 33.59284591674805, 141.0502471923828, -0.72265625, 0.439208984375, 0.13330078125, 
246, 3924044256, 0.5880527496337891, -0.6543823480606079, -0.14226144552230835, -0.45360517501831055, 7.422991752624512, -13.167285919189453, 4.2483367919921875, -40.10227584838867, 36.74661636352539, 154.7713165283203, -0.7138671875, 0.4580078125, 0.130859375, 
247, 3924052589, 0.5923006534576416, -0.6562344431877136, -0.13143518567085266, -0.4486417770385742, 6.777228355407715, -13.576629638671875, 4.191354274749756, -35.07471466064453, 38.945552825927734, 167.4839324951172, -0.705322265625, 0.470947265625, 0.12939453125, 
248, 3924060922, 0.5973346829414368, -0.6575599312782288, -0.12034298479557037, -0.4431052803993225, 6.379075050354004, -14.161579132080078, 4.0065178871154785, -24.288211822509766, 40.62403869628906, 178.5125732421875, -0.69287109375, 0.489013671875, 0.12451171875, 
249, 3924069255, 0.6033075451850891, -0.6581549048423767, -0.10916624218225479, -0.436981737613678, 6.156178951263428, -14.837875366210938, 3.8878893852233887, -9.324132919311523, 41.9656982421875, 188.53024291992188, -0.6787109375, 0.510009765625, 0.122314453125, 
250, 3924077588, 0.6102097034454346, -0.6580023765563965, -0.09800895303487778, -0.4302206039428711, 6.039345741271973, -15.260857582092285, 3.843625545501709, 6.344107151031494, 41.97090530395508, 198.18753051757812, -0.667236328125, 0.5263671875, 0.118896484375, 
251, 3924085921, 0.6179871559143066, -0.6570985913276672, -0.08688817173242569, -0.4228263199329376, 5.984005451202393, -15.19275951385498, 3.7522072792053223, 21.617786407470703, 41.53420639038086, 207.22537231445312, -0.6513671875, 0.544189453125, 0.11181640625, 
252, 3924094254, 0.6264868974685669, -0.6554641127586365, -0.07576174288988113, -0.4149213135242462, 5.989669322967529, -14.715088844299316, 3.8293559551239014, 34.95296096801758, 42.10430145263672, 215.05474853515625, -0.6328125, 0.56640625, 0.102783203125, 
253, 3924102587, 0.6355412602424622, -0.6531622409820557, -0.0645754262804985, -0.4065890610218048, 5.8115010261535645, -14.133505821228027, 3.9572677612304688, 45.782745361328125, 43.12291717529297, 221.61447143554688, -0.619140625, 0.589111328125, 0.09521484375, 
254, 3924110920, 0.6449463963508606, -0.65031898021698, -0.053316034376621246, -0.39787590503692627, 5.536705017089844, -13.57030200958252, 4.006036758422852, 53.61783981323242, 43.71306610107422, 227.2105712890625, -0.599853515625, 0.60693359375, 0.0849609375, 
255, 3924119253, 0.6544799208641052, -0.6470698714256287, -0.041922833770513535, -0.3888668417930603, 5.236653804779053, -12.924598693847656, 3.981196880340576, 57.82331848144531, 44.52348327636719, 231.29315185546875, -0.578857421875, 0.62939453125, 0.07470703125, 
256, 3924127586, 0.6639732122421265, -0.6435130834579468, -0.03039105236530304, -0.3796382546424866, 4.88810920715332, -12.138886451721191, 3.970130443572998, 59.64850616455078, 45.482418060302734, 234.25515747070312, -0.5556640625, 0.6494140625, 0.066650390625, 
257, 3924135919, 0.6733150482177734, -0.639714777469635, -0.018674112856388092, -0.3702451288700104, 4.495207786560059, -11.402854919433594, 3.8421037197113037, 59.579227447509766, 46.87008285522461, 236.34716796875, -0.531982421875, 0.6689453125, 0.05419921875, 
258, 3924144252, 0.6823536157608032, -0.6357816457748413, -0.006806604564189911, -0.3607591390609741, 4.087525367736816, -10.867112159729004, 3.7982571125030518, 57.45342254638672, 48.100589752197266, 237.111328125, -0.513916015625, 0.683349609375, 0.044189453125, 
259, 3924152585, 0.6909568309783936, -0.6318119168281555, 0.005243472754955292, -0.35125932097435, 3.8064188957214355, -10.562982559204102, 3.6160056591033936, 53.04414749145508, 49.783103942871094, 236.50863647460938, -0.490478515625, 0.703857421875, 0.03271484375, 
260, 3924160918, 0.6990655660629272, -0.6278572082519531, 0.01741386204957962, -0.34178608655929565, 3.5484447479248047, -10.347646713256836, 3.2551112174987793, 48.06585693359375, 51.172420501708984, 235.0758056640625, -0.463623046875, 0.718994140625, 0.025146484375, 
261, 3924169251, 0.7067387104034424, -0.6238672733306885, 0.02960633486509323, -0.3323426842689514, 3.1547162532806396, -10.247719764709473, 2.711364984512329, 44.50373840332031, 51.85194396972656, 232.7740478515625, -0.441650390625, 0.73583984375, 0.015625, 
262, 3924177584, 0.7140143513679504, -0.6198369264602661, 0.041654907166957855, -0.322907030582428, 2.8409976959228516, -10.27133846282959, 2.1418955326080322, 42.193458557128906, 50.92545700073242, 229.829833984375, -0.41650390625, 0.751953125, 0.00634765625, 
263, 3924185917, 0.7210661172866821, -0.6155797243118286, 0.05352427810430527, -0.3134947419166565, 2.779635429382324, -10.17267894744873, 1.9369291067123413, 43.27425765991211, 50.44529342651367, 227.0376739501953, -0.389404296875, 0.762939453125, -0.000732421875, 
264, 3924194250, 0.7279837727546692, -0.6110076308250427, 0.06509333848953247, -0.3041229546070099, 2.6847667694091797, -10.277870178222656, 1.8736387491226196, 46.629634857177734, 49.32181930541992, 223.91766357421875, -0.36865234375, 0.775390625, -0.008544921875, 
265, 3924202583, 0.7348195314407349, -0.6060688495635986, 0.07636354863643646, -0.29480165243148804, 2.5401558876037598, -10.572216987609863, 1.802179217338562, 50.866329193115234, 48.30619430541992, 220.7134246826172, -0.344482421875, 0.786376953125, -0.01806640625, 
266, 3924210916, 0.741538405418396, -0.6007798314094543, 0.08731059730052948, -0.2856214642524719, 2.530017852783203, -10.502058982849121, 1.814125895500183, 54.932106018066406, 47.81440353393555, 216.66209411621094, -0.318115234375, 0.796875, -0.026123046875, 
267, 3924219249, 0.7481194734573364, -0.5951687097549438, 0.09796201437711716, -0.276610404253006, 2.608654022216797, -10.152351379394531, 1.7689213752746582, 58.40193557739258, 47.57429504394531, 212.1658477783203, -0.2939453125, 0.803955078125, -0.031982421875, 
268, 3924227582, 0.7544498443603516, -0.5893584489822388, 0.10834859311580658, -0.26784515380859375, 2.4638466835021973, -9.863668441772461, 1.566093921661377, 59.77845001220703, 48.00966262817383, 206.95849609375, -0.2705078125, 0.81494140625, -0.04443359375, 
269, 3924235915, 0.7604243755340576, -0.5835223197937012, 0.11852634698152542, -0.25928017497062683, 2.1967504024505615, -9.645764350891113, 1.4488786458969116, 58.194190979003906, 48.0380859375, 201.74362182617188, -0.24609375, 0.822509765625, -0.05224609375, 
270, 3924244248, 0.7660399079322815, -0.5777250528335571, 0.12840642035007477, -0.2508922815322876, 1.9586758613586426, -9.658512115478516, 1.5188671350479126, 56.29117202758789, 46.84699249267578, 196.32919311523438, -0.224853515625, 0.831298828125, -0.062744140625, 
271, 3924252581, 0.7713105082511902, -0.5719729661941528, 0.13803720474243164, -0.24267509579658508, 1.8990622758865356, -9.717035293579102, 1.5679575204849243, 54.207340240478516, 45.97897720336914, 191.1161346435547, -0.2001953125, 0.8359375, -0.069091796875, 
272, 3924260914, 0.7762504816055298, -0.5662741661071777, 0.1473565697669983, -0.2346770167350769, 1.825599193572998, -9.52922248840332, 1.605357050895691, 52.52604675292969, 44.89907455444336, 185.30299377441406, -0.176025390625, 0.841796875, -0.07568359375, 
273, 3924269247, 0.7808458209037781, -0.5606739521026611, 0.15634824335575104, -0.22693203389644623, 1.71559476852417, -9.145791053771973, 1.6441078186035156, 50.334354400634766, 43.7017936706543, 178.5768585205078, -0.1552734375, 0.84423828125, -0.082763671875, 
274, 3924277580, 0.7850825786590576, -0.5552055835723877, 0.16501885652542114, -0.2194981575012207, 1.5780903100967407, -8.73985767364502, 1.6110795736312866, 47.853004455566406, 43.06392288208008, 171.51763916015625, -0.1357421875, 0.8505859375, -0.092041015625, 
275, 3924285913, 0.7889686822891235, -0.5498961806297302, 0.17337802052497864, -0.2123703509569168, 1.436039686203003, -8.508658409118652, 1.5124082565307617, 45.06959533691406, 42.30341720581055, 164.26161193847656, -0.114013671875, 0.8544921875, -0.098388671875, 
276, 3924294246, 0.7925739884376526, -0.5446884632110596, 0.18135306239128113, -0.20559832453727722, 1.3170982599258423, -8.321234703063965, 1.5680387020111084, 43.834774017333984, 41.24821472167969, 156.58840942382812, -0.0947265625, 0.857177734375, -0.102783203125, 
277, 3924302579, 0.7959126234054565, -0.5395906567573547, 0.18893954157829285, -0.19921168684959412, 1.2214707136154175, -8.015055656433105, 1.466976523399353, 42.68354415893555, 40.207794189453125, 148.3028564453125, -0.07763671875, 0.861328125, -0.108154296875, 
278, 3924310912, 0.7989549040794373, -0.5347100496292114, 0.19610141217708588, -0.19318100810050964, 1.0473976135253906, -7.591670989990234, 1.3962211608886719, 40.210975646972656, 38.42334747314453, 140.0257568359375, -0.059326171875, 0.863037109375, -0.11376953125, 
279, 3924319245, 0.801637589931488, -0.5301777720451355, 0.2029055655002594, -0.187447190284729, 0.8069592714309692, -7.163407802581787, 1.3682852983474731, 35.48159408569336, 36.675235748291016, 132.10037231445312, -0.04296875, 0.864990234375, -0.1171875, 
280, 3924327578, 0.8039208054542542, -0.5261070728302002, 0.20933447778224945, -0.181989386677742, 0.5957321524620056, -6.7998151779174805, 1.3434383869171143, 29.227466583251953, 34.52134704589844, 124.14170837402344, -0.025634765625, 0.868408203125, -0.123046875, 
281, 3924335911, 0.805773138999939, -0.522586464881897, 0.2154110074043274, -0.17677564918994904, 0.44574931263923645, -6.420112133026123, 1.2984095811843872, 21.604942321777344, 32.20750427246094, 116.10201263427734, -0.01025390625, 0.867431640625, -0.124755859375, 
282, 3924344244, 0.8071983456611633, -0.5196499824523926, 0.22114498913288116, -0.17177969217300415, 0.3186304569244385, -5.921665668487549, 1.4763145446777344, 13.550337791442871, 29.87050437927246, 108.58879089355469, 0.002197265625, 0.869384765625, -0.12646484375, 
283, 3924352577, 0.8081613183021545, -0.5173465609550476, 0.2265719622373581, -0.167067289352417, 0.2279115915298462, -5.4549994468688965, 1.8870092630386353, 4.802587032318115, 28.3539981842041, 100.10448455810547, 0.01806640625, 0.871826171875, -0.12939453125, 
284, 3924360910, 0.8086298108100891, -0.5157194137573242, 0.23171046376228333, -0.16272705793380737, 0.1730133444070816, -5.271325588226318, 2.1098825931549072, -4.406233787536621, 27.826854705810547, 90.79905700683594, 0.032958984375, 0.872802734375, -0.12646484375, 
285, 3924369243, 0.8086594939231873, -0.5146909952163696, 0.2365722954273224, -0.15879134833812714, 0.09007305651903152, -5.331348419189453, 2.1327075958251953, -12.267879486083984, 27.63402557373047, 81.32830810546875, 0.041259765625, 0.87158203125, -0.12646484375, 
286, 3924377576, 0.8083246350288391, -0.5141428709030151, 0.24111942946910858, -0.15539690852165222, -0.17306001484394073, -5.485912799835205, 1.8016031980514526, -17.740243911743164, 28.14752960205078, 70.84371185302734, 0.04833984375, 0.872802734375, -0.123291015625, 
287, 3924385909, 0.8077501654624939, -0.5139468908309937, 0.24522024393081665, -0.15258973836898804, -0.6389641165733337, -5.62741756439209, 1.23139488697052, -20.4492244720459, 27.337268829345703, 59.36629104614258, 0.0576171875, 0.87548828125, -0.119873046875, 
288, 3924394242, 0.807147741317749, -0.5138840079307556, 0.24873492121696472, -0.15028318762779236, -0.9397934675216675, -5.612362861633301, 0.9316913485527039, -19.205265045166016, 24.223888397216797, 49.26976776123047, 0.066162109375, 0.875732421875, -0.1162109375, 
289, 3924402575, 0.8065981268882751, -0.5139120221138, 0.25152885913848877, -0.14847725629806519, -1.0102862119674683, -5.249038219451904, 0.8209751844406128, -16.637130737304688, 19.35187339782715, 38.30608367919922, 0.068603515625, 0.876220703125, -0.11474609375, 
290, 3924410908, 0.8060835003852844, -0.5140451788902283, 0.2536589801311493, -0.14718174934387207, -0.9827283620834351, -4.928936958312988, 0.8810537457466125, -14.436644554138184, 15.299296379089355, 27.77333641052246, 0.0732421875, 0.876708984375, -0.112548828125, 
291, 3924419241, 0.8056036233901978, -0.5142825841903687, 0.25517338514328003, -0.14635999500751495, -0.8935832977294922, -4.907333850860596, 1.1668577194213867, -12.442363739013672, 11.454460144042969, 17.764324188232422, 0.0771484375, 0.8779296875, -0.111083984375, 
292, 3924427574, 0.8050970435142517, -0.5146677494049072, 0.256182998418808, -0.14602884650230408, -0.6024290919303894, -5.13163423538208, 1.2254102230072021, -11.533975601196289, 9.164390563964844, 8.299269676208496, 0.0791015625, 0.877685546875, -0.10693359375, 
293, 3924435907, 0.804526686668396, -0.5152194499969482, 0.2568066120147705, -0.14613090455532074, -0.29295822978019714, -5.635083198547363, 1.0758975744247437, -11.52322006225586, 7.810474395751953, -0.04985812306404114, 0.080078125, 0.876953125, -0.107421875, 
294, 3924444240, 0.8039511442184448, -0.5158817172050476, 0.2570681571960449, -0.1465018391609192, 0.005356534384191036, -5.728582859039307, 0.9215407967567444, -11.112160682678223, 5.542613506317139, -5.884807109832764, 0.07861328125, 0.880126953125, -0.10302734375, 
295, 3924452573, 0.803284764289856, -0.5168099403381348, 0.2569582462310791, -0.14707764983177185, 0.18475231528282166, -5.839076519012451, 0.7799383997917175, -13.212197303771973, 2.638932943344116, -12.009788513183594, 0.0771484375, 0.879638671875, -0.10205078125, 
296, 3924460906, 0.8025322556495667, -0.518028199672699, 0.2564661502838135, -0.14775770902633667, 0.40730372071266174, -6.381303310394287, 0.5308919548988342, -15.89992904663086, -1.0866204500198364, -16.97401237487793, 0.074462890625, 0.882568359375, -0.09814453125, 
297, 3924469239, 0.8017732501029968, -0.5193791389465332, 0.2556920349597931, -0.14847539365291595, 0.5825496912002563, -6.831418037414551, 0.5493581891059875, -16.685802459716797, -4.2139410972595215, -19.974313735961914, 0.07373046875, 0.88134765625, -0.0986328125, 
298, 3924477572, 0.8010703325271606, -0.5207562446594238, 0.2546192407608032, -0.1492871642112732, 0.6824689507484436, -6.823383331298828, 0.8049795031547546, -15.651447296142578, -7.051155090332031, -23.027225494384766, 0.069091796875, 0.8837890625, -0.0966796875, 
299, 3924485905, 0.8004651069641113, -0.5221067070960999, 0.2531665563583374, -0.15028396248817444, 0.8889740109443665, -7.121437072753906, 1.130478024482727, -13.205930709838867, -10.229118347167969, -27.57676124572754, 0.064208984375, 0.883056640625, -0.096435546875, 
300, 3924494238, 0.8000925779342651, -0.523187518119812, 0.2514123022556305, -0.15145015716552734, 1.127494215965271, -7.695356845855713, 1.3809765577316284, -7.378968715667725, -12.553433418273926, -30.103174209594727, 0.0615234375, 0.884521484375, -0.093994140625, 
301, 3924502571, 0.800154447555542, -0.5237053632736206, 0.24930816888809204, -0.152804896235466, 1.1311357021331787, -7.794589519500732, 1.6742194890975952, 3.34962797164917, -15.404403686523438, -31.916046142578125, 0.05615234375, 0.884765625, -0.093994140625, 
302, 3924510904, 0.8006545901298523, -0.5236343741416931, 0.246836319565773, -0.15443271398544312, 1.2499101161956787, -7.072634220123291, 2.101891279220581, 14.665657997131348, -17.72004508972168, -34.55718231201172, 0.052490234375, 0.88525390625, -0.0966796875, 
303, 3924519237, 0.801418125629425, -0.5232439041137695, 0.2440013587474823, -0.15628980100154877, 1.324638843536377, -6.695234298706055, 2.396821975708008, 21.66146469116211, -20.306556701660156, -38.11271286010742, 0.048095703125, 0.884521484375, -0.09765625, 
304, 3924527570, 0.8022626042366028, -0.5227487683296204, 0.2409524917602539, -0.15833120048046112, 1.4456777572631836, -7.090408802032471, 2.3234074115753174, 24.441749572753906, -21.361312866210938, -41.09735870361328, 0.043212890625, 0.883056640625, -0.099365234375, 
305, 3924535903, 0.8030869364738464, -0.522251546382904, 0.23784592747688293, -0.16047602891921997, 1.4008967876434326, -7.902305603027344, 1.9679385423660278, 24.821821212768555, -21.203685760498047, -42.73975372314453, 0.03857421875, 0.885009765625, -0.10302734375, 
306, 3924544236, 0.8038818836212158, -0.5217562317848206, 0.23478896915912628, -0.16259440779685974, 1.618556022644043, -8.512786865234375, 1.8755662441253662, 24.36109161376953, -20.732608795166016, -42.112403869628906, 0.0322265625, 0.884765625, -0.10595703125, 
307, 3924552569, 0.8047754764556885, -0.521213173866272, 0.23150956630706787, -0.16460616886615753, 1.4477620124816895, -8.648148536682129, 2.0627493858337402, 25.784996032714844, -24.18685531616211, -42.192222595214844, 0.025146484375, 0.884033203125, -0.110107421875, 
308, 3924560902, 0.8055872917175293, -0.5207772254943848, 0.22836920619010925, -0.1663922667503357, 1.6746352910995483, -8.795936584472656, 2.5107924938201904, 22.944923400878906, -24.22905731201172, -39.187625885009766, 0.01708984375, 0.885009765625, -0.11328125, 
309, 3924569235, 0.8061425685882568, -0.5206629037857056, 0.22558237612247467, -0.16785499453544617, 1.927297592163086, -8.250669479370117, 3.122133731842041, 15.76115894317627, -22.573238372802734, -34.693634033203125, 0.01318359375, 0.8828125, -0.115478515625, 
310, 3924577568, 0.80642169713974, -0.5209003686904907, 0.2230914831161499, -0.1691027730703354, 1.8015650510787964, -8.033577919006348, 3.4869394302368164, 8.49205207824707, -20.771800994873047, -31.897001266479492, 0.00927734375, 0.8837890625, -0.117919921875, 
311, 3924585901, 0.8067968487739563, -0.5209807753562927, 0.22067320346832275, -0.17023319005966187, 1.6958895921707153, -8.978350639343262, 3.65826416015625, 10.433714866638184, -20.746030807495117, -29.381214141845703, 0.003662109375, 0.8837890625, -0.1201171875, 
312, 3924594234, 0.8073549270629883, -0.5207292437553406, 0.21831846237182617, -0.17139017581939697, 1.2474582195281982, -9.6632719039917, 3.5510637760162354, 15.3191499710083, -19.6204891204834, -27.775432586669922, -0.000732421875, 0.885498046875, -0.12060546875, 
313, 3924602567, 0.808209240436554, -0.5199949145317078, 0.21597713232040405, -0.17255626618862152, 0.8039115071296692, -9.701767921447754, 3.4336509704589844, 22.835378646850586, -19.159870147705078, -25.630956649780273, -0.005126953125, 0.8818359375, -0.121826171875, 
314, 3924610900, 0.8093284964561462, -0.5188548564910889, 0.21356461942195892, -0.17374056577682495, 0.45649102330207825, -9.361588478088379, 3.559945583343506, 29.42306900024414, -19.64255142211914, -24.509828567504883, -0.005126953125, 0.880615234375, -0.126953125, 
315, 3924619233, 0.8105620741844177, -0.5174569487571716, 0.2112305611371994, -0.1750074028968811, 0.3381144404411316, -9.04659652709961, 3.9953863620758057, 33.20266342163086, -17.900474548339844, -23.828771591186523, -0.01123046875, 0.884033203125, -0.1298828125, 
316, 3924627566, 0.8117486238479614, -0.516090452671051, 0.2090170681476593, -0.1761968731880188, 0.034396473318338394, -8.752408027648926, 4.5902838706970215, 31.96387481689453, -17.04641342163086, -22.32310676574707, -0.0126953125, 0.882080078125, -0.132568359375, 
317, 3924635899, 0.8127344846725464, -0.5149556398391724, 0.2069605439901352, -0.1773948073387146, -0.2791396379470825, -8.660295486450195, 5.010136127471924, 27.63503074645996, -15.214299201965332, -22.438034057617188, -0.01708984375, 0.88037109375, -0.139404296875, 
318, 3924644232, 0.8135875463485718, -0.5139572024345398, 0.20497332513332367, -0.17868319153785706, -0.3491038680076599, -9.269441604614258, 5.138730049133301, 25.220319747924805, -13.757795333862305, -23.68852424621582, -0.019775390625, 0.88037109375, -0.140625, 
319, 3924652565, 0.8143547177314758, -0.5130611658096313, 0.2030458003282547, -0.1799602508544922, -0.5021331906318665, -9.625743865966797, 5.117880821228027, 23.323936462402344, -13.175630569458008, -23.616106033325195, -0.021240234375, 0.879638671875, -0.14697265625, 
320, 3924660898, 0.8150680065155029, -0.5122249126434326, 0.2011302411556244, -0.18125909566879272, -0.5159247517585754, -9.7620210647583, 4.873172760009766, 22.270957946777344, -12.890363693237305, -24.097856521606445, -0.027587890625, 0.875732421875, -0.146728515625, 
321, 3924669231, 0.8157842755317688, -0.5113902688026428, 0.19914646446704865, -0.18257901072502136, -0.5627716183662415, -9.781417846679688, 4.7110137939453125, 22.532482147216797, -13.509437561035156, -24.786447525024414, -0.029541015625, 0.87841796875, -0.150634765625, 
322, 3924677564, 0.8165323138237, -0.5104962587356567, 0.19725388288497925, -0.18378743529319763, -0.38901862502098083, -8.811161994934082, 4.812483310699463, 22.8575496673584, -13.216919898986816, -22.67918586730957, -0.037109375, 0.878173828125, -0.15234375, 
323, 3924685897, 0.8173222541809082, -0.5095317959785461, 0.19541683793067932, -0.18491201102733612, -0.4568849503993988, -7.8656792640686035, 4.560863971710205, 23.602310180664062, -13.106266021728516, -21.020355224609375, -0.032470703125, 0.8759765625, -0.15478515625, 
324, 3924694230, 0.8181176781654358, -0.5085194110870361, 0.1936975121498108, -0.18598756194114685, -0.48973044753074646, -7.639825344085693, 4.2670674324035645, 23.720779418945312, -12.032414436340332, -19.53022003173828, -0.04150390625, 0.874267578125, -0.162109375, 
325, 3924702563, 0.8189332485198975, -0.5074272751808167, 0.19213563203811646, -0.1869979202747345, -0.44185906648635864, -7.673219203948975, 4.216871738433838, 24.205419540405273, -10.552726745605469, -17.401491165161133, -0.041015625, 0.875244140625, -0.162353515625, 
326, 3924710896, 0.819756805896759, -0.5062887072563171, 0.19068393111228943, -0.1879589855670929, -0.3994341492652893, -8.281559944152832, 4.366359710693359, 24.348783493041992, -9.571138381958008, -15.965712547302246, -0.04541015625, 0.874267578125, -0.1650390625, 
327, 3924719229, 0.8205410838127136, -0.5051906108856201, 0.189246267080307, -0.18894211947917938, -0.6270501613616943, -8.69626235961914, 4.540590286254883, 23.661218643188477, -9.245452880859375, -16.29083251953125, -0.04638671875, 0.873779296875, -0.1689453125, 
328, 3924727562, 0.8212386965751648, -0.5042041540145874, 0.18791615962982178, -0.1898716390132904, -0.6390835642814636, -8.725126266479492, 4.744261264801025, 21.359085083007812, -8.483580589294434, -15.487056732177734, -0.049072265625, 0.873291015625, -0.172607421875, 
329, 3924735895, 0.821911096572876, -0.5032659769058228, 0.18654733896255493, -0.19079816341400146, -0.78142911195755, -8.679964065551758, 4.597601890563965, 20.751333236694336, -8.986926078796387, -15.877440452575684, -0.050537109375, 0.87109375, -0.172119140625, 
330, 3924744228, 0.822577953338623, -0.5023261308670044, 0.18517813086509705, -0.19173268973827362, -0.8073837161064148, -8.982182502746582, 4.318971633911133, 20.734506607055664, -8.933648109436035, -16.01524543762207, -0.052978515625, 0.872314453125, -0.17578125, 
331, 3924752561, 0.8232520818710327, -0.5013781785964966, 0.1838458925485611, -0.19260090589523315, -0.7944381833076477, -9.048824310302734, 4.134105682373047, 20.626827239990234, -8.954218864440918, -14.93563461303711, -0.054443359375, 0.86865234375, -0.177734375, 
332, 3924760894, 0.8239508867263794, -0.5004004240036011, 0.18250571191310883, -0.19342833757400513, -0.7532129883766174, -8.945757865905762, 3.979865789413452, 21.03667640686035, -9.323420524597168, -14.422782897949219, -0.058349609375, 0.8681640625, -0.181884765625, 
333, 3924769227, 0.824595034122467, -0.4995262324810028, 0.18113410472869873, -0.19423039257526398, -0.9108814597129822, -8.763981819152832, 4.032516956329346, 19.5240535736084, -9.977865219116211, -14.71942138671875, -0.06103515625, 0.87109375, -0.184814453125, 
334, 3924777560, 0.8250716328620911, -0.4988921284675598, 0.17988035082817078, -0.19499987363815308, -0.8271141648292542, -8.44069766998291, 4.185102939605713, 15.237045288085938, -9.103597640991211, -14.624570846557617, -0.060791015625, 0.869140625, -0.186279296875, 
335, 3924785893, 0.8253001570701599, -0.49864330887794495, 0.17873281240463257, -0.19572317600250244, -0.8446894288063049, -8.21955394744873, 4.35805082321167, 8.781637191772461, -8.620076179504395, -14.952198028564453, -0.060791015625, 0.86865234375, -0.187255859375, 
336, 3924794226, 0.8252569437026978, -0.4988175928592682, 0.17774224281311035, -0.19636233150959015, -0.9188514947891235, -8.411365509033203, 4.5135393142700195, 1.4706157445907593, -7.902440071105957, -14.728964805603027, -0.065673828125, 0.86572265625, -0.18896484375, 
337, 3924802559, 0.8250181674957275, -0.4993108808994293, 0.17689374089241028, -0.1968773603439331, -0.7609906196594238, -8.868744850158691, 4.40834903717041, -4.161097049713135, -7.5087761878967285, -13.61595344543457, -0.0703125, 0.865966796875, -0.18701171875, 
338, 3924810892, 0.8247289061546326, -0.49989452958106995, 0.17607751488685608, -0.19733887910842896, -0.8024455308914185, -9.278365135192871, 4.190537929534912, -5.767161846160889, -7.647784233093262, -13.181944847106934, -0.06787109375, 0.866943359375, -0.18701171875, 
339, 3924819225, 0.8244871497154236, -0.5004491209983826, 0.17523908615112305, -0.19768983125686646, -0.6464825868606567, -9.625833511352539, 3.9331517219543457, -5.301109790802002, -8.677167892456055, -11.843755722045898, -0.0732421875, 0.86474609375, -0.184326171875, 
340, 3924827558, 0.8243348002433777, -0.5009317994117737, 0.17436720430850983, -0.19787386059761047, -0.5427678823471069, -9.545598983764648, 3.681652545928955, -4.2010297775268555, -10.244583129882812, -9.801328659057617, -0.0732421875, 0.868408203125, -0.186767578125, 
341, 3924835891, 0.8244203925132751, -0.5011803507804871, 0.17331749200820923, -0.197809636592865, -0.6755608320236206, -9.683428764343262, 3.0755927562713623, 0.0035347649827599525, -13.885645866394043, -6.965959072113037, -0.07470703125, 0.86572265625, -0.185302734375, 
342, 3924844224, 0.8248170614242554, -0.5010666251182556, 0.17226094007492065, -0.19736647605895996, -0.8818413615226746, -10.068124771118164, 2.21641206741333, 5.349047660827637, -16.34861183166504, -1.045278787612915, -0.07470703125, 0.8681640625, -0.185302734375, 
343, 3924852557, 0.8254646062850952, -0.5006428956985474, 0.17117321491241455, -0.19667977094650269, -0.4129241406917572, -10.941984176635742, 2.5088274478912354, 10.129998207092285, -18.114559173583984, 2.954193115234375, -0.076171875, 0.86474609375, -0.186279296875, 
344, 3924860890, 0.8264646530151367, -0.49972090125083923, 0.17002025246620178, -0.1958230435848236, 0.003634978551417589, -11.13102912902832, 3.5741634368896484, 17.958433151245117, -19.526960372924805, 6.525051593780518, -0.07373046875, 0.865234375, -0.187744140625, 
345, 3924869223, 0.8276729583740234, -0.49847960472106934, 0.16892604529857635, -0.19482862949371338, 0.5962283611297607, -11.00275707244873, 4.048850059509277, 22.5777645111084, -19.412059783935547, 9.841382026672363, -0.07421875, 0.864990234375, -0.191162109375, 
346, 3924877556, 0.828481137752533, -0.4978080987930298, 0.1686953902244568, -0.19330424070358276, 1.2669469118118286, -9.645743370056152, 5.164021015167236, 9.767072677612305, -13.832655906677246, 19.355947494506836, -0.07470703125, 0.865966796875, -0.192138671875, 
347, 3924885889, 0.8289466500282288, -0.4976944625377655, 0.16916845738887787, -0.19117514789104462, 1.3808711767196655, -8.954193115234375, 5.883526802062988, -2.167619228363037, -10.621016502380371, 28.905534744262695, -0.07177734375, 0.866943359375, -0.193603515625, 
348, 3924894222, 0.8290022015571594, -0.4982578754425049, 0.17020058631896973, -0.18853279948234558, 1.1378337144851685, -9.271722793579102, 5.054441928863525, -15.396315574645996, -8.608380317687988, 35.881187438964844, -0.06591796875, 0.86669921875, -0.19189453125, 
349, 3924902555, 0.8282808065414429, -0.5000314116477966, 0.17189174890518188, -0.1854475438594818, 0.8237859010696411, -8.018024444580078, 4.126724720001221, -37.22153854370117, -5.425121784210205, 40.65581512451172, -0.059814453125, 0.86962890625, -0.186767578125, 
350, 3924910888, 0.8270016312599182, -0.5025707483291626, 0.17379237711429596, -0.18249757587909698, 0.9058353304862976, -6.199061393737793, 4.358327388763428, -50.031646728515625, -2.768613815307617, 37.266761779785156, -0.059814453125, 0.8701171875, -0.180419921875, 
351, 3924919221, 0.8253790736198425, -0.5054788589477539, 0.17584650218486786, -0.17982448637485504, 1.0746551752090454, -5.622713088989258, 4.626360893249512, -56.286590576171875, 0.813511312007904, 33.49711990356445, -0.052490234375, 0.871337890625, -0.17529296875, 
352, 3924927554, 0.8240759968757629, -0.5076873898506165, 0.17773833870887756, -0.1777065396308899, 0.8243905901908875, -6.611130714416504, 4.595515727996826, -44.4181022644043, 3.75994873046875, 28.487939834594727, -0.046630859375, 0.873779296875, -0.169677734375, 
353, 3924935887, 0.8236018419265747, -0.5085324048995972, 0.17906959354877472, -0.17614559829235077, 0.6387122869491577, -9.337594032287598, 4.1589765548706055, -20.41844367980957, 2.6321465969085693, 23.69121742248535, -0.045166015625, 0.875732421875, -0.16455078125, 
354, 3924944220, 0.824068009853363, -0.5079190731048584, 0.17988930642604828, -0.17489495873451233, 0.16539324820041656, -9.912835121154785, 3.6568596363067627, 4.647935390472412, 0.1952061653137207, 22.39676284790039, -0.03955078125, 0.875, -0.1650390625, 
355, 3924952553, 0.8251656889915466, -0.5064736604690552, 0.18015970289707184, -0.17362812161445618, -0.6296038627624512, -8.806519508361816, 3.1015517711639404, 19.800458908081055, -5.673595905303955, 22.397947311401367, -0.03662109375, 0.8740234375, -0.167236328125, 
356, 3924960886, 0.8266188502311707, -0.5046561360359192, 0.18017235398292542, -0.17198720574378967, -1.246079683303833, -9.04085922241211, 2.863004446029663, 26.156444549560547, -11.224160194396973, 26.54091453552246, -0.03515625, 0.875244140625, -0.169189453125, 
357, 3924969219, 0.8281247615814209, -0.5028890371322632, 0.18020865321159363, -0.16986814141273499, -0.5822400450706482, -9.779085159301758, 3.2219929695129395, 24.743366241455078, -14.495261192321777, 32.2181510925293, -0.03173828125, 0.875732421875, -0.171630859375, 
358, 3924977552, 0.8293542265892029, -0.5016877055168152, 0.18050657212734222, -0.1670825183391571, 0.5778306722640991, -9.74367618560791, 3.4610443115234375, 14.09223461151123, -16.79163360595703, 39.49409866333008, -0.029296875, 0.8759765625, -0.175048828125, 
359, 3924985885, 0.8299535512924194, -0.5014674067497253, 0.1813153475522995, -0.1638612151145935, 1.1960934400558472, -8.342279434204102, 3.925662040710449, -3.658372640609741, -14.628843307495117, 44.184181213378906, -0.022705078125, 0.874755859375, -0.176513671875, 
360, 3924994218, 0.8299922943115234, -0.5020007491111755, 0.18279200792312622, -0.16035422682762146, 1.9375762939453125, -7.586906433105469, 4.812117576599121, -18.385543823242188, -9.308913230895996, 48.82758331298828, -0.016845703125, 0.875732421875, -0.1708984375, 
361, 3925002551, 0.8296341300010681, -0.5029436945915222, 0.18494966626167297, -0.15673843026161194, 2.2619683742523193, -8.211935997009277, 5.189958095550537, -27.534683227539062, -2.1563541889190674, 52.95677947998047, -0.0107421875, 0.87646484375, -0.172119140625, 
362, 3925010884, 0.8291042447090149, -0.5039536952972412, 0.18767769634723663, -0.1530109941959381, 2.2164361476898193, -9.373407363891602, 4.916729927062988, -31.038793563842773, 3.834439754486084, 57.541927337646484, -0.0009765625, 0.879150390625, -0.163330078125, 
363, 3925019217, 0.8284815549850464, -0.5049207806587219, 0.19075030088424683, -0.1493525207042694, 2.1515355110168457, -9.39341926574707, 4.413297653198242, -31.705163955688477, 8.613744735717773, 59.16510772705078, 0.004150390625, 0.879150390625, -0.162353515625, 
364, 3925027550, 0.8278255462646484, -0.5058108568191528, 0.1940757781267166, -0.14564770460128784, 1.6975691318511963, -8.951690673828125, 3.7930450439453125, -31.735647201538086, 11.3742036819458, 61.478424072265625, 0.015625, 0.8779296875, -0.1591796875, 
365, 3925035883, 0.8271469473838806, -0.5066997408866882, 0.19751110672950745, -0.14174342155456543, 0.9291964173316956, -8.523799896240234, 3.190786123275757, -32.59361267089844, 11.346749305725098, 64.58905029296875, 0.02001953125, 0.878173828125, -0.156494140625, 
366, 3925044216, 0.8264148831367493, -0.5076380372047424, 0.20099219679832458, -0.13770580291748047, 0.30096641182899475, -8.213948249816895, 3.015425443649292, -34.01763153076172, 10.94191837310791, 66.06822967529297, 0.031982421875, 0.88232421875, -0.151123046875, 
367, 3925052549, 0.8256903886795044, -0.5085572004318237, 0.20438984036445618, -0.13359719514846802, 0.02279365435242653, -8.444308280944824, 3.01940655708313, -33.74478530883789, 9.558895111083984, 66.48802185058594, 0.04052734375, 0.881591796875, -0.1474609375, 
368, 3925060882, 0.8251047730445862, -0.5092393159866333, 0.20768965780735016, -0.12946319580078125, -0.21968425810337067, -8.692625045776367, 3.201183557510376, -30.01483917236328, 8.269364356994629, 66.8840560913086, 0.046875, 0.883544921875, -0.142822265625, 
369, 3925069215, 0.8248385787010193, -0.5094050168991089, 0.21079781651496887, -0.12542131543159485, -0.3277347683906555, -9.055669784545898, 3.4989101886749268, -21.269550323486328, 6.793923377990723, 66.67718505859375, 0.056884765625, 0.884765625, -0.138671875, 
370, 3925077548, 0.8249059915542603, -0.5090210437774658, 0.2137823849916458, -0.12142200767993927, -0.34355103969573975, -9.405065536499023, 3.724020481109619, -12.40723991394043, 5.625446319580078, 67.35992431640625, 0.06640625, 0.883056640625, -0.137451171875, 
371, 3925085881, 0.8252004384994507, -0.5082210302352905, 0.21679271757602692, -0.11736724525690079, -0.2845374643802643, -9.506464958190918, 3.9063520431518555, -6.257495403289795, 5.60260009765625, 69.91612243652344, 0.0751953125, 0.8818359375, -0.13525390625, 
372, 3925094214, 0.8255852460861206, -0.5071789622306824, 0.219966322183609, -0.11318914592266083, -0.24622075259685516, -9.405238151550293, 4.0425705909729, -3.5565147399902344, 6.667980194091797, 73.18031311035156, 0.086669921875, 0.8818359375, -0.135986328125, 
373, 3925102547, 0.8259661793708801, -0.5060484409332275, 0.22328917682170868, -0.10888147354125977, -0.27366602420806885, -9.443138122558594, 3.789886951446533, -3.155625820159912, 7.659259796142578, 76.10420227050781, 0.0947265625, 0.882080078125, -0.13525390625, 
374, 3925110880, 0.826305091381073, -0.5048726797103882, 0.2267477810382843, -0.10453414916992188, -0.3913978636264801, -9.407772064208984, 3.1085398197174072, -3.3072123527526855, 9.071125030517578, 77.4256362915039, 0.104248046875, 0.88134765625, -0.134033203125, 
375, 3925119213, 0.8266457319259644, -0.5035921931266785, 0.23023968935012817, -0.10029979050159454, -1.1324210166931152, -9.544583320617676, 2.3752939701080322, -1.7508063316345215, 10.429865837097168, 76.86225128173828, 0.1171875, 0.880615234375, -0.1357421875, 
376, 3925127546, 0.827035129070282, -0.5022113919258118, 0.2336360663175583, -0.09606951475143433, -2.162996292114258, -9.878209114074707, 1.8883018493652344, -0.17721301317214966, 9.30603313446045, 76.37884521484375, 0.126953125, 0.880615234375, -0.135009765625, 
377, 3925135879, 0.8274224996566772, -0.5008770823478699, 0.23684778809547424, -0.09173688292503357, -2.573683500289917, -9.66572380065918, 1.53997802734375, -0.7481572031974792, 6.4930877685546875, 76.27986145019531, 0.13720703125, 0.876953125, -0.13427734375, 
378, 3925144212, 0.8277403116226196, -0.4996902346611023, 0.23989583551883698, -0.08731640130281448, -2.4387094974517822, -9.021300315856934, 1.5297455787658691, -3.042153835296631, 4.018406867980957, 75.419677734375, 0.14794921875, 0.877685546875, -0.135986328125, 
379, 3925152545, 0.8278813362121582, -0.49879026412963867, 0.24284353852272034, -0.08286344259977341, -2.228782892227173, -8.808771133422852, 1.8669594526290894, -7.441112041473389, 2.9361228942871094, 74.10951232910156, 0.159912109375, 0.876953125, -0.13427734375, 
380, 3925160878, 0.8278969526290894, -0.4980428218841553, 0.24579238891601562, -0.0783877745270729, -1.8878854513168335, -9.037711143493652, 2.3769636154174805, -10.184255599975586, 2.9907066822052, 73.55526733398438, 0.16943359375, 0.875732421875, -0.133056640625, 
381, 3925169211, 0.8279280662536621, -0.49723243713378906, 0.24865855276584625, -0.07404325157403946, -1.7020320892333984, -8.965744018554688, 2.7996881008148193, -8.751541137695312, 3.0090975761413574, 71.8963394165039, 0.175048828125, 0.87451171875, -0.129638671875, 
382, 3925177544, 0.8279963135719299, -0.49629539251327515, 0.25149115920066833, -0.069884292781353, -1.7113596200942993, -8.40819263458252, 3.3251726627349854, -6.462435722351074, 3.8538830280303955, 69.85431671142578, 0.18408203125, 0.872802734375, -0.1298828125, 
383, 3925185877, 0.8281031250953674, -0.4952155649662018, 0.2543269693851471, -0.06590037047863007, -1.7882559299468994, -7.976617336273193, 4.013426780700684, -3.893315553665161, 5.132293701171875, 68.59151458740234, 0.200439453125, 0.872802734375, -0.1298828125, 
384, 3925194210, 0.8282936215400696, -0.4939345419406891, 0.25712183117866516, -0.062169186770915985, -1.6427098512649536, -7.910029411315918, 4.405416965484619, -0.1889953315258026, 6.230865001678467, 66.03761291503906, 0.2060546875, 0.87158203125, -0.13134765625, 
385, 3925202543, 0.8285579681396484, -0.49248698353767395, 0.25983351469039917, -0.058763206005096436, -1.6516433954238892, -8.056337356567383, 4.332695484161377, 3.506664991378784, 7.421661376953125, 62.60252380371094, 0.216552734375, 0.869384765625, -0.130615234375, 
386, 3925210876, 0.8288396000862122, -0.4909262955188751, 0.26254385709762573, -0.05572660267353058, -2.2098612785339355, -7.6840620040893555, 4.1103434562683105, 6.155862808227539, 9.891378402709961, 58.61862564086914, 0.22412109375, 0.867431640625, -0.12841796875, 
387, 3925219209, 0.8291193842887878, -0.48935389518737793, 0.2651286721229553, -0.05309290438890457, -3.1888978481292725, -7.63427734375, 3.71152663230896, 7.904240608215332, 11.244677543640137, 53.409202575683594, 0.2294921875, 0.86572265625, -0.13134765625, 
388, 3925227542, 0.8293014764785767, -0.4879637062549591, 0.26757803559303284, -0.050704389810562134, -3.7663979530334473, -7.312902450561523, 3.235652446746826, 6.085186958312988, 11.524995803833008, 48.779109954833984, 0.239990234375, 0.864013671875, -0.131591796875, 
389, 3925235875, 0.8294268250465393, -0.48674213886260986, 0.26980990171432495, -0.048520319163799286, -4.0255937576293945, -6.8810224533081055, 3.006364345550537, 4.7604146003723145, 10.554159164428711, 44.51554489135742, 0.244384765625, 0.86328125, -0.133056640625, 
390, 3925244208, 0.8294638395309448, -0.4857670068740845, 0.271811306476593, -0.04644805192947388, -4.349180698394775, -7.221126556396484, 2.7471983432769775, 1.854012131690979, 8.791176795959473, 40.53607177734375, 0.251953125, 0.860107421875, -0.133544921875, 
391, 3925252541, 0.8293351531028748, -0.4851808249950409, 0.2735721170902252, -0.044491298496723175, -4.3604326248168945, -7.414254188537598, 2.502676486968994, -3.0298216342926025, 7.233697891235352, 36.23765182495117, 0.256103515625, 0.860595703125, -0.13134765625, 
392, 3925260874, 0.8291183710098267, -0.484854519367218, 0.2750890851020813, -0.04270082712173462, -4.174604892730713, -7.058596134185791, 2.460702896118164, -5.882045269012451, 5.689643859863281, 31.497417449951172, 0.260498046875, 0.859130859375, -0.13330078125, 
393, 3925269207, 0.8289157748222351, -0.4846656918525696, 0.2762635052204132, -0.04116956144571304, -4.121710300445557, -6.848564147949219, 2.4313459396362305, -6.093976020812988, 3.4197587966918945, 25.927156448364258, 0.26513671875, 0.85888671875, -0.132080078125, 
394, 3925277540, 0.8287967443466187, -0.4845327138900757, 0.2770463228225708, -0.03984939306974411, -4.157286167144775, -6.613821983337402, 2.3697290420532227, -5.230134010314941, -0.027061447501182556, 20.567110061645508, 0.27001953125, 0.857421875, -0.130615234375, 
395, 3925285873, 0.8288487195968628, -0.4843228757381439, 0.2774142324924469, -0.03874075412750244, -4.162631034851074, -6.516340732574463, 2.4652903079986572, -2.0978190898895264, -3.9181718826293945, 15.954188346862793, 0.2734375, 0.858642578125, -0.12890625, 
396, 3925294206, 0.8290045261383057, -0.48417121171951294, 0.2773483097553253, -0.037760935723781586, -3.9816367626190186, -6.625211715698242, 2.6229004859924316, -1.429005742073059, -8.470770835876465, 11.253154754638672, 0.276123046875, 0.856201171875, -0.130859375, 
397, 3925302539, 0.8292731642723083, -0.4840626120567322, 0.2768380045890808, -0.036991655826568604, -3.8944239616394043, -6.061533451080322, 2.5417909622192383, -0.05244515836238861, -12.549633026123047, 5.962892532348633, 0.277587890625, 0.856201171875, -0.12939453125, 
398, 3925310872, 0.8296347260475159, -0.48398318886756897, 0.27597475051879883, -0.036370933055877686, -3.956116199493408, -6.394428253173828, 2.7798407077789307, 0.8950127363204956, -15.99067497253418, 1.6806014776229858, 0.277587890625, 0.857177734375, -0.1328125, 
399, 3925319205, 0.8300102949142456, -0.48403531312942505, 0.2748032808303833, -0.035976722836494446, -3.827157497406006, -6.3085808753967285, 2.8911001682281494, 0.5867710709571838, -18.08497428894043, -3.274946928024292, 0.276611328125, 0.855712890625, -0.1328125, 
400, 3925327538, 0.830356776714325, -0.48432669043540955, 0.2732446789741516, -0.0359308198094368, -4.252011299133301, -5.5543951988220215, 2.7469985485076904, -0.915209949016571, -20.227405548095703, -10.916908264160156, 0.27490234375, 0.858642578125, -0.13427734375, 
401, 3925335871, 0.8305264115333557, -0.48505353927612305, 0.27141648530960083, -0.036063022911548615, -4.835155487060547, -4.4298200607299805, 2.57613205909729, -6.179502487182617, -21.637371063232422, -16.302766799926758, 0.27685546875, 0.858642578125, -0.13232421875, 
402, 3925344204, 0.8304864168167114, -0.4862271845340729, 0.2693997025489807, -0.036300577223300934, -4.872997283935547, -4.419386386871338, 2.893550395965576, -12.275465965270996, -22.561691284179688, -20.704145431518555, 0.27099609375, 0.858154296875, -0.133056640625, 
403, 3925352537, 0.8302084803581238, -0.48794761300086975, 0.2670658230781555, -0.036817945539951324, -4.602111339569092, -4.927389621734619, 3.1309821605682373, -18.834802627563477, -23.672443389892578, -28.005508422851562, 0.27001953125, 0.860107421875, -0.132080078125, 
404, 3925360870, 0.8297845125198364, -0.48997962474823, 0.26453906297683716, -0.037620753049850464, -4.360203266143799, -6.150381088256836, 3.615670680999756, -22.308773040771484, -23.610519409179688, -33.93476486206055, 0.265380859375, 0.861328125, -0.130615234375, 
405, 3925369203, 0.8293344378471375, -0.49213382601737976, 0.26176193356513977, -0.03882994502782822, -3.948282480239868, -7.901906490325928, 3.6696910858154297, -22.18826675415039, -23.667877197265625, -40.56585693359375, 0.260986328125, 0.8623046875, -0.130615234375, 
406, 3925377536, 0.8290601968765259, -0.4941316246986389, 0.25861629843711853, -0.040363579988479614, -3.7952332496643066, -8.43560791015625, 3.282041549682617, -17.93292236328125, -26.25482940673828, -46.25468444824219, 0.25537109375, 0.864013671875, -0.1279296875, 
407, 3925385869, 0.8290080428123474, -0.4958397448062897, 0.25520947575569153, -0.042133621871471405, -4.209725379943848, -7.826699256896973, 3.2451512813568115, -12.05134105682373, -28.223241806030273, -49.41954803466797, 0.25, 0.8662109375, -0.1259765625, 
408, 3925394202, 0.8290335536003113, -0.49754053354263306, 0.25146275758743286, -0.04406502842903137, -4.66549015045166, -7.383884906768799, 3.1254334449768066, -10.759361267089844, -31.298641204833984, -53.65797424316406, 0.239990234375, 0.866943359375, -0.127197265625, 
409, 3925402535, 0.8290740847587585, -0.49930429458618164, 0.24742232263088226, -0.046172164380550385, -4.6646599769592285, -6.935769557952881, 3.236912250518799, -10.503787994384766, -33.503719329833984, -57.73258590698242, 0.2353515625, 0.869384765625, -0.125244140625, 
410, 3925410868, 0.8292814493179321, -0.5009394884109497, 0.24293465912342072, -0.04850788414478302, -4.4358649253845215, -6.674338340759277, 3.3322596549987793, -6.91560697555542, -37.551273345947266, -63.012020111083984, 0.227783203125, 0.87109375, -0.12646484375, 
411, 3925419201, 0.8291025161743164, -0.5033078193664551, 0.23811885714530945, -0.05087222903966904, -4.251541614532471, -5.827657222747803, 3.0668864250183105, -17.53897476196289, -40.26323699951172, -68.16801452636719, 0.219482421875, 0.873291015625, -0.1240234375, 
412, 3925427534, 0.8286265134811401, -0.5061080455780029, 0.2332240343093872, -0.05345878005027771, -4.274033069610596, -4.217001438140869, 2.3430540561676025, -23.8199462890625, -38.98421096801758, -73.00788879394531, 0.21142578125, 0.875, -0.122802734375, 
413, 3925435867, 0.8280503749847412, -0.5088088512420654, 0.22876539826393127, -0.055956222116947174, -4.693140029907227, -7.2045207023620605, 3.2345969676971436, -23.906272888183594, -34.215213775634766, -68.58341217041016, 0.199951171875, 0.876953125, -0.12109375, 
414, 3925444200, 0.827670693397522, -0.5111724138259888, 0.22424758970737457, -0.05827036499977112, -4.167379379272461, -10.895110130310059, 4.156191825866699, -19.306283950805664, -36.556766510009766, -65.82562255859375, 0.18896484375, 0.877197265625, -0.119140625, 
415, 3925452533, 0.8277779817581177, -0.5127313137054443, 0.21968138217926025, -0.060405977070331573, -4.4870429039001465, -11.554563522338867, 4.3071818351745605, -7.153384208679199, -39.194557189941406, -61.1397819519043, 0.182861328125, 0.882080078125, -0.120361328125, 
416, 3925460866, 0.8279428482055664, -0.5141844749450684, 0.2150600403547287, -0.06239314377307892, -5.337942123413086, -10.302979469299316, 4.755055904388428, -6.028990745544434, -40.978031158447266, -59.59480285644531, 0.176025390625, 0.881103515625, -0.118408203125, 
417, 3925469199, 0.82796311378479, -0.5158712267875671, 0.21024420857429504, -0.06457193940877914, -5.326824188232422, -9.24162769317627, 4.646657466888428, -8.892757415771484, -41.586036682128906, -63.84897232055664, 0.164794921875, 0.8837890625, -0.11962890625, 
418, 3925477532, 0.8278298377990723, -0.5177593231201172, 0.20537042617797852, -0.06681643426418304, -4.575228214263916, -8.914504051208496, 3.9955477714538574, -12.11796760559082, -41.540279388427734, -65.84419250488281, 0.156494140625, 0.882568359375, -0.118408203125, 
419, 3925485865, 0.8273163437843323, -0.5201818943023682, 0.2005477398633957, -0.06897318363189697, -4.12303352355957, -8.980104446411133, 4.048964500427246, -21.119991302490234, -40.97671890258789, -66.23209381103516, 0.1494140625, 0.8857421875, -0.11669921875, 
420, 3925494198, 0.8262702226638794, -0.5232837200164795, 0.19608385860919952, -0.07085947692394257, -4.008325576782227, -7.869253635406494, 4.066731929779053, -33.82793045043945, -38.02701950073242, -63.074913024902344, 0.141845703125, 0.8876953125, -0.11669921875, 
421, 3925502531, 0.824693500995636, -0.5269953012466431, 0.1920727640390396, -0.0726853609085083, -3.6108357906341553, -8.62330436706543, 4.547847270965576, -45.09629440307617, -32.46023178100586, -61.18973922729492, 0.130859375, 0.89013671875, -0.111572265625, 
422, 3925510864, 0.8228195309638977, -0.5309626460075378, 0.18844051659107208, -0.07453452795743942, -3.214069366455078, -10.163161277770996, 4.551944255828857, -50.5495491027832, -27.48768424987793, -59.784488677978516, 0.12451171875, 0.89013671875, -0.104248046875, 
423, 3925519197, 0.8210550546646118, -0.5346719026565552, 0.18486551940441132, -0.07640562951564789, -3.3484013080596924, -10.737278938293457, 4.526575088500977, -46.75127410888672, -26.677310943603516, -58.73403549194336, 0.116455078125, 0.890869140625, -0.10205078125, 
424, 3925527530, 0.8195840716362, -0.5379128456115723, 0.18111532926559448, -0.07840459048748016, -3.3946938514709473, -10.132956504821777, 4.690703868865967, -38.87849807739258, -27.99018669128418, -60.06557083129883, 0.107177734375, 0.894287109375, -0.09228515625, 
425, 3925535863, 0.8184548616409302, -0.5406302213668823, 0.17710725963115692, -0.08063432574272156, -3.0649900436401367, -9.508159637451172, 4.9400410652160645, -29.519207000732422, -29.456707000732422, -62.806915283203125, 0.0986328125, 0.89501953125, -0.09130859375, 
426, 3925544196, 0.8176304697990417, -0.5428444743156433, 0.17296020686626434, -0.08308722823858261, -2.7701778411865234, -9.098029136657715, 4.894883155822754, -20.9676456451416, -29.565641403198242, -64.88274383544922, 0.088134765625, 0.89306640625, -0.088623046875, 
427, 3925552529, 0.8169665336608887, -0.5447751879692078, 0.1686878502368927, -0.0857233926653862, -2.6711130142211914, -8.34335708618164, 4.912815093994141, -15.931838035583496, -29.64374542236328, -66.93093872070312, 0.083740234375, 0.89599609375, -0.083251953125, 
428, 3925560862, 0.8163097500801086, -0.5466363430023193, 0.16435983777046204, -0.08849471062421799, -2.5637500286102295, -7.450726509094238, 4.984545707702637, -14.79228401184082, -29.21160888671875, -68.78636169433594, 0.07568359375, 0.896240234375, -0.083984375, 
429, 3925569195, 0.8155033588409424, -0.5486441254615784, 0.1599871814250946, -0.09146775305271149, -2.4702460765838623, -7.094752788543701, 4.990457057952881, -16.981781005859375, -28.015710830688477, -71.81523895263672, 0.06591796875, 0.895751953125, -0.082763671875, 
430, 3925577528, 0.8145209550857544, -0.5508327484130859, 0.15563392639160156, -0.09452662616968155, -2.4984536170959473, -6.681911945343018, 4.529067039489746, -20.244338989257812, -27.012531280517578, -73.33651733398438, 0.054931640625, 0.8974609375, -0.07763671875, 
431, 3925585861, 0.8133755922317505, -0.5531425476074219, 0.15144985914230347, -0.0976468175649643, -2.7112467288970947, -6.407734394073486, 4.062916278839111, -22.86489486694336, -24.44015121459961, -73.13249969482422, 0.04638671875, 0.8984375, -0.07568359375, 
432, 3925594194, 0.8122071623802185, -0.5554388761520386, 0.14717581868171692, -0.10082024335861206, -2.913911819458008, -7.0374932289123535, 3.95809268951416, -22.71687126159668, -24.99650001525879, -74.4939193725586, 0.036376953125, 0.901123046875, -0.074951171875, 
433, 3925602527, 0.8112884759902954, -0.5574042797088623, 0.14256572723388672, -0.10394641011953354, -3.039672613143921, -7.366024971008301, 3.6112101078033447, -16.68952751159668, -29.140039443969727, -75.44624328613281, 0.027099609375, 0.8984375, -0.07177734375, 
434, 3925610860, 0.8108350038528442, -0.5587335228919983, 0.13760758936405182, -0.10698505491018295, -3.066494941711426, -7.569508075714111, 3.7035257816314697, -5.754132270812988, -33.71318435668945, -75.29627227783203, 0.01708984375, 0.8984375, -0.069580078125, 
435, 3925619193, 0.8106991052627563, -0.5596349239349365, 0.13235756754875183, -0.10988733172416687, -2.8594346046447754, -7.545434474945068, 3.5689427852630615, 1.6766412258148193, -37.9703254699707, -74.68038940429688, 0.006103515625, 0.8974609375, -0.06982421875, 
436, 3925627526, 0.8107365965843201, -0.560221254825592, 0.12706798315048218, -0.1128280833363533, -2.61812686920166, -7.189268112182617, 3.6400554180145264, 6.60387659072876, -37.97332000732422, -74.63976287841797, -0.0048828125, 0.898193359375, -0.069091796875, 
437, 3925635859, 0.8109069466590881, -0.5605800747871399, 0.1216343566775322, -0.11577174067497253, -2.407832145690918, -7.351359844207764, 4.101553440093994, 10.440455436706543, -39.41768264770508, -75.12689971923828, -0.0146484375, 0.8955078125, -0.07080078125, 
438, 3925644192, 0.8111465573310852, -0.5607848167419434, 0.11611112952232361, -0.11873506009578705, -2.399395704269409, -7.12837553024292, 4.109138488769531, 12.8192138671875, -40.15310287475586, -75.7203140258789, -0.023193359375, 0.894287109375, -0.072509765625, 
439, 3925652525, 0.8113559484481812, -0.560932457447052, 0.11053908616304398, -0.1218833327293396, -2.4069437980651855, -7.386356353759766, 4.226326942443848, 13.639827728271484, -39.11406707763672, -78.07455444335938, -0.032470703125, 0.89404296875, -0.07373046875, 
440, 3925660858, 0.8114317655563354, -0.5611786246299744, 0.10490494221448898, -0.1251809298992157, -2.4570438861846924, -7.109014511108398, 4.2313337326049805, 11.800665855407715, -38.63257598876953, -80.6357421875, -0.04443359375, 0.89208984375, -0.07470703125, 
441, 3925669191, 0.8113816976547241, -0.561477780342102, 0.09934207051992416, -0.1286529302597046, -2.3508832454681396, -6.813959121704102, 4.3270673751831055, 10.401759147644043, -36.38911056518555, -82.29193878173828, -0.05517578125, 0.888916015625, -0.077880859375, 
442, 3925677524, 0.8113073110580444, -0.5616892576217651, 0.09378121793270111, -0.13232070207595825, -2.080444097518921, -7.318920135498047, 4.331638336181641, 11.421857833862305, -34.677978515625, -84.41781616210938, -0.064697265625, 0.888916015625, -0.0771484375, 
443, 3925685857, 0.811302661895752, -0.5616852045059204, 0.08820263296365738, -0.13614696264266968, -2.002131700515747, -7.867618083953857, 4.421079158782959, 14.62727165222168, -33.33888244628906, -85.89195251464844, -0.07568359375, 0.88720703125, -0.078857421875, 
444, 3925694190, 0.8114555478096008, -0.5613733530044556, 0.0825338289141655, -0.1400223672389984, -1.8333395719528198, -8.973602294921875, 5.173068046569824, 19.480854034423828, -33.592628479003906, -86.49614715576172, -0.087890625, 0.884765625, -0.083251953125, 
445, 3925702523, 0.8115723133087158, -0.5610191226005554, 0.0770338848233223, -0.14384670555591583, -0.9201645255088806, -9.767254829406738, 5.672008037567139, 19.311256408691406, -31.972043991088867, -84.62606811523438, -0.099365234375, 0.884033203125, -0.08544921875, 
446, 3925710856, 0.8116309642791748, -0.5606629848480225, 0.07188836485147476, -0.14752188324928284, -0.3937933146953583, -10.214125633239746, 5.797584056854248, 18.005340576171875, -29.10912322998047, -80.35687255859375, -0.107666015625, 0.87890625, -0.087158203125, 
447, 3925719189, 0.8117221593856812, -0.5601755976676941, 0.06705246865749359, -0.15110501646995544, -0.44358712434768677, -10.701519012451172, 5.480477809906006, 19.01653289794922, -26.123308181762695, -76.73448944091797, -0.1220703125, 0.87744140625, -0.093017578125, 
448, 3925727522, 0.8120501041412354, -0.5592859387397766, 0.06234918534755707, -0.15461128950119019, -0.7351832389831543, -11.229599952697754, 4.933973789215088, 24.96824073791504, -24.623353958129883, -74.00431060791016, -0.130126953125, 0.874267578125, -0.0927734375, 
