sep=,
PacketCounter,SampleTimeFine,Quat_W,Quat_X,Quat_Y,Quat_Z,Acc_X,Acc_Y,Acc_Z,Gyr_X,Gyr_Y,Gyr_Z,Mag_X,Mag_Y,Mag_Z,
0, 3283778201, 0.40827852487564087, -0.669109582901001, -0.16907672584056854, -0.5975207090377808, 0, 0, 0, 0, 0, 0, -0.894775390625, 0.0966796875, 0.1826171875, 
1, 3283786534, 0.40830564498901367, -0.6691117286682129, -0.16905085742473602, -0.5975069999694824, 9.190645217895508, -3.530285596847534, 0.4078121781349182, -0.4308442175388336, -0.6266394853591919, 0.4123891592025757, -0.896484375, 0.094970703125, 0.185546875, 
2, 3283794867, 0.40828394889831543, -0.6691370606422424, -0.1689557433128357, -0.5975204706192017, 9.248125076293945, -3.484564781188965, 0.34387293457984924, -0.36365807056427, -0.6484371423721313, 0.4522705376148224, -0.896728515625, 0.096435546875, 0.18310546875, 
3, 3283803200, 0.4083094596862793, -0.6691434383392334, -0.16891704499721527, -0.5975068211555481, 9.207525253295898, -3.45444393157959, 0.3040458858013153, -0.5747449994087219, -0.5915478467941284, 0.5264236927032471, -0.897705078125, 0.097412109375, 0.18310546875, 
4, 3283811533, 0.4083126485347748, -0.6691606044769287, -0.16885820031166077, -0.5975018739700317, 9.2092924118042, -3.4302244186401367, 0.29689306020736694, -1.0089831352233887, -0.42262205481529236, 0.3358025848865509, -0.897705078125, 0.098388671875, 0.18359375, 
5, 3283819866, 0.4082674980163574, -0.6691852807998657, -0.1687694489955902, -0.5975301861763, 9.214336395263672, -3.3635342121124268, 0.25800371170043945, -1.8362972736358643, -0.2372262179851532, 0.21372517943382263, -0.898681640625, 0.095458984375, 0.181640625, 
6, 3283828199, 0.4081718921661377, -0.6692432165145874, -0.16862931847572327, -0.5975704193115234, 9.183134078979492, -3.4028663635253906, 0.30025920271873474, -2.6403026580810547, -0.21701662242412567, 0.12930066883563995, -0.898681640625, 0.096435546875, 0.181640625, 
7, 3283836532, 0.40805721282958984, -0.6693019866943359, -0.1685020476579666, -0.5976189374923706, 9.164665222167969, -3.463310956954956, 0.3455301821231842, -3.031252384185791, -0.2779272496700287, -0.03822924569249153, -0.894775390625, 0.095703125, 0.181640625, 
8, 3283844865, 0.4079657196998596, -0.6693563461303711, -0.16837963461875916, -0.5976547002792358, 9.1211519241333, -3.5032474994659424, 0.3682596683502197, -2.8431930541992188, -0.15900038182735443, -0.0070823365822434425, -0.898681640625, 0.097412109375, 0.18408203125, 
9, 3283853198, 0.4078958034515381, -0.6693934202194214, -0.1682966649532318, -0.5976844429969788, 9.105446815490723, -3.540560245513916, 0.373268187046051, -2.0900321006774902, -0.41906172037124634, -0.021247006952762604, -0.898193359375, 0.098876953125, 0.18310546875, 
10, 3283861531, 0.4078349471092224, -0.6694445610046387, -0.16819752752780914, -0.5976964831352234, 9.072043418884277, -3.5566582679748535, 0.37783461809158325, -1.3268557786941528, -0.7766876220703125, 0.2111637443304062, -0.897216796875, 0.095458984375, 0.18017578125, 
11, 3283869864, 0.40786683559417725, -0.6694717407226562, -0.16819262504577637, -0.59764564037323, 9.013899803161621, -3.602429151535034, 0.36945152282714844, -0.2685012221336365, -1.2815442085266113, 0.5246819853782654, -0.897216796875, 0.095947265625, 0.18359375, 
12, 3283878197, 0.407934308052063, -0.6695061922073364, -0.16819849610328674, -0.5975593328475952, 8.983297348022461, -3.6328275203704834, 0.3528801500797272, 0.804543137550354, -1.7485684156417847, 0.7976016402244568, -0.898681640625, 0.097412109375, 0.18359375, 
13, 3283886530, 0.408105731010437, -0.669501006603241, -0.16829167306423187, -0.5974218845367432, 8.93826675415039, -3.647726535797119, 0.38569310307502747, 2.203054904937744, -2.041543960571289, 1.1805856227874756, -0.900146484375, 0.096435546875, 0.18505859375, 
14, 3283894863, 0.4083501696586609, -0.6694787740707397, -0.16842570900917053, -0.5972420573234558, 8.929680824279785, -3.5832488536834717, 0.43226873874664307, 2.941307783126831, -2.0463850498199463, 1.401252269744873, -0.896240234375, 0.09765625, 0.18212890625, 
15, 3283903196, 0.40858277678489685, -0.6694434285163879, -0.16851601004600525, -0.5970972180366516, 8.957983016967773, -3.490267515182495, 0.44285881519317627, 2.9297561645507812, -1.701873779296875, 1.6801657676696777, -0.892822265625, 0.09814453125, 0.184814453125, 
16, 3283911529, 0.4087611436843872, -0.6694263219833374, -0.16852590441703796, -0.5969913005828857, 8.964936256408691, -3.402165651321411, 0.4074264466762543, 2.1385836601257324, -1.2516779899597168, 1.6543720960617065, -0.897705078125, 0.098388671875, 0.18505859375, 
17, 3283919862, 0.4088900685310364, -0.6694110035896301, -0.1684694141149521, -0.5969361066818237, 8.99807071685791, -3.4207091331481934, 0.4035454988479614, 0.4490174949169159, -0.4562279284000397, 1.7245551347732544, -0.896240234375, 0.096435546875, 0.18408203125, 
18, 3283928195, 0.4088898301124573, -0.6694597601890564, -0.16824866831302643, -0.5969440340995789, 9.038888931274414, -3.478318214416504, 0.34876149892807007, -1.6092272996902466, -0.02501230128109455, 1.8481439352035522, -0.895751953125, 0.09912109375, 0.184814453125, 
19, 3283936528, 0.4088743329048157, -0.6695184111595154, -0.1680022031068802, -0.5969582796096802, 9.053974151611328, -3.5387165546417236, 0.3284167945384979, -3.0161654949188232, 0.311238557100296, 2.0672476291656494, -0.896728515625, 0.099609375, 0.183349609375, 
20, 3283944861, 0.40887320041656494, -0.6695895195007324, -0.1677294820547104, -0.5969557166099548, 9.162577629089355, -3.6111044883728027, 0.3177957534790039, -3.789229393005371, 0.610361635684967, 2.3376574516296387, -0.897216796875, 0.10009765625, 0.183837890625, 
21, 3283953194, 0.4088369607925415, -0.6696659922599792, -0.16740019619464874, -0.5969874858856201, 9.268539428710938, -3.637942314147949, 0.2553524971008301, -4.0269293785095215, 0.7425311207771301, 2.6023807525634766, -0.895263671875, 0.10107421875, 0.183837890625, 
22, 3283961527, 0.40887877345085144, -0.6697444915771484, -0.16708634793758392, -0.596958577632904, 9.365653991699219, -3.6765987873077393, 0.22224226593971252, -4.01857852935791, 0.7555174231529236, 3.214944839477539, -0.899169921875, 0.1005859375, 0.181640625, 
23, 3283969860, 0.40891462564468384, -0.6698276400566101, -0.16673700511455536, -0.5969384908676147, 9.416176795959473, -3.6892216205596924, 0.2107122540473938, -3.4462287425994873, 0.48749008774757385, 3.68629789352417, -0.896240234375, 0.1005859375, 0.181396484375, 
24, 3283978193, 0.4090474247932434, -0.6699079275131226, -0.16645346581935883, -0.5968363881111145, 9.411181449890137, -3.657939910888672, 0.2622799277305603, -2.7240610122680664, 0.09095614403486252, 4.0995330810546875, -0.89794921875, 0.1015625, 0.18115234375, 
25, 3283986526, 0.4091760516166687, -0.6699885725975037, -0.16616174578666687, -0.5967389941215515, 9.433842658996582, -3.5976147651672363, 0.3051769435405731, -1.9272792339324951, -0.314248263835907, 4.346198081970215, -0.895751953125, 0.10009765625, 0.182373046875, 
26, 3283994859, 0.40931686758995056, -0.6700791716575623, -0.16588202118873596, -0.5966184735298157, 9.412684440612793, -3.5252461433410645, 0.34500089287757874, -1.3588223457336426, -0.6542772054672241, 4.330471038818359, -0.894287109375, 0.1005859375, 0.182373046875, 
27, 3284003192, 0.4094553589820862, -0.6701770424842834, -0.16562913358211517, -0.5964837074279785, 9.39859676361084, -3.4904277324676514, 0.34277012944221497, -1.5286705493927002, -0.9961761832237244, 4.319482803344727, -0.89794921875, 0.1015625, 0.1806640625, 
28, 3284011525, 0.4096255302429199, -0.6702989339828491, -0.16543519496917725, -0.5962837934494019, 9.353808403015137, -3.476076126098633, 0.31953296065330505, -1.8849644660949707, -1.480797529220581, 4.215129852294922, -0.89599609375, 0.10302734375, 0.181396484375, 
29, 3284019858, 0.40971434116363525, -0.6704350709915161, -0.1652124524116516, -0.5961315631866455, 9.353174209594727, -3.4539384841918945, 0.26167064905166626, -1.9151381254196167, -1.753409743309021, 3.8190572261810303, -0.89599609375, 0.1044921875, 0.183349609375, 
30, 3284028191, 0.40975069999694824, -0.6705982685089111, -0.16495397686958313, -0.5959945917129517, 9.340993881225586, -3.4033005237579346, 0.2719607353210449, -2.2370834350585938, -1.8659331798553467, 3.5551536083221436, -0.896728515625, 0.10205078125, 0.181396484375, 
31, 3284036524, 0.4097914695739746, -0.6707549095153809, -0.16475048661231995, -0.5958464741706848, 9.319435119628906, -3.4208691120147705, 0.21933871507644653, -2.326784372329712, -2.1020708084106445, 3.271040678024292, -0.89697265625, 0.10546875, 0.183837890625, 
32, 3284044857, 0.40981608629226685, -0.6709038615226746, -0.1645406037569046, -0.5957199335098267, 9.278825759887695, -3.4410808086395264, 0.267278790473938, -2.093182325363159, -1.8721572160720825, 2.910468578338623, -0.89599609375, 0.10595703125, 0.184326171875, 
33, 3284053190, 0.40985777974128723, -0.6710110306739807, -0.16437505185604095, -0.5956162214279175, 9.283272743225098, -3.4156413078308105, 0.28958451747894287, -1.8285106420516968, -1.4993164539337158, 2.5660853385925293, -0.89453125, 0.10498046875, 0.182861328125, 
34, 3284061523, 0.4098713994026184, -0.6711114645004272, -0.1641770601272583, -0.5955480933189392, 9.290057182312012, -3.374295473098755, 0.23998194932937622, -1.9877797365188599, -1.0168466567993164, 2.271419048309326, -0.89697265625, 0.10498046875, 0.182861328125, 
35, 3284069856, 0.4099084734916687, -0.6711715459823608, -0.1640336513519287, -0.5954943895339966, 9.259021759033203, -3.3897502422332764, 0.22488264739513397, -1.5371742248535156, -0.7860111594200134, 1.9361543655395508, -0.89599609375, 0.10595703125, 0.181884765625, 
36, 3284078189, 0.4100014865398407, -0.6711998581886292, -0.1639707237482071, -0.5954159498214722, 9.213854789733887, -3.392698049545288, 0.2480880469083786, -0.898201584815979, -0.6421104073524475, 1.506911039352417, -0.8935546875, 0.106201171875, 0.183349609375, 
37, 3284086522, 0.4100499749183655, -0.6712278127670288, -0.16390220820903778, -0.5953699946403503, 9.162704467773438, -3.4031789302825928, 0.23190218210220337, -0.6543540358543396, -0.8480488657951355, 1.2230284214019775, -0.892578125, 0.106201171875, 0.183837890625, 
38, 3284094855, 0.41011619567871094, -0.6712543964385986, -0.16386587917804718, -0.5953041315078735, 9.109596252441406, -3.4152750968933105, 0.2793828845024109, 0.17000167071819305, -1.1563929319381714, 1.0306655168533325, -0.89453125, 0.106201171875, 0.181396484375, 
39, 3284103188, 0.41020438075065613, -0.6712561845779419, -0.16388572752475739, -0.59523606300354, 9.097335815429688, -3.4458749294281006, 0.30645641684532166, 0.6316725611686707, -1.2460170984268188, 0.7983187437057495, -0.89453125, 0.106201171875, 0.182861328125, 
40, 3284111521, 0.41029536724090576, -0.6712716817855835, -0.16392213106155396, -0.5951458811759949, 9.07911205291748, -3.3634417057037354, 0.3565593659877777, 0.810178279876709, -1.5274920463562012, 0.660309374332428, -0.89501953125, 0.107421875, 0.184326171875, 
41, 3284119854, 0.4103907644748688, -0.6712875962257385, -0.16398072242736816, -0.5950459241867065, 9.059831619262695, -3.3822834491729736, 0.38222166895866394, 1.0079200267791748, -1.8595292568206787, 0.7099497318267822, -0.89501953125, 0.10546875, 0.182861328125, 
42, 3284128187, 0.41051602363586426, -0.6713032126426697, -0.16404162347316742, -0.5949251055717468, 9.068211555480957, -3.3945534229278564, 0.35926228761672974, 1.1375025510787964, -1.7704942226409912, 0.8751360177993774, -0.8935546875, 0.107177734375, 0.1845703125, 
43, 3284136520, 0.41061246395111084, -0.6713290214538574, -0.16408927738666534, -0.594816267490387, 9.09064769744873, -3.3997318744659424, 0.38944384455680847, 0.8911961317062378, -1.9591686725616455, 0.892067015171051, -0.89599609375, 0.107177734375, 0.181396484375, 
44, 3284144853, 0.4106544852256775, -0.671379804611206, -0.1640554666519165, -0.5947392582893372, 9.13936996459961, -3.324317693710327, 0.37571069598197937, 0.40124696493148804, -1.7371189594268799, 0.9626341462135315, -0.8935546875, 0.105712890625, 0.183837890625, 
45, 3284153186, 0.4106873869895935, -0.6714361906051636, -0.16404685378074646, -0.5946552157402039, 9.125624656677246, -3.337618112564087, 0.3668091297149658, -0.3830992877483368, -1.8047916889190674, 0.8204238414764404, -0.89404296875, 0.107666015625, 0.183349609375, 
46, 3284161519, 0.41068005561828613, -0.6715133190155029, -0.16397994756698608, -0.5945916771888733, 9.144808769226074, -3.4144322872161865, 0.35925397276878357, -1.2824151515960693, -1.4510592222213745, 0.8079497814178467, -0.8955078125, 0.1083984375, 0.185302734375, 
47, 3284169852, 0.4106405973434448, -0.6715846061706543, -0.16390132904052734, -0.5945600271224976, 9.204827308654785, -3.466167688369751, 0.3245936930179596, -1.826666235923767, -1.2120527029037476, 0.6141780614852905, -0.892578125, 0.108642578125, 0.18359375, 
48, 3284178185, 0.41059407591819763, -0.6716582179069519, -0.1638195514678955, -0.5945315957069397, 9.214386940002441, -3.498840570449829, 0.3208780288696289, -2.053992748260498, -1.009162425994873, 0.4079066514968872, -0.8935546875, 0.111083984375, 0.1845703125, 
49, 3284186518, 0.41053688526153564, -0.6717246174812317, -0.1637345552444458, -0.5945193767547607, 9.212313652038574, -3.4989569187164307, 0.33704859018325806, -2.057476282119751, -0.996611475944519, 0.4069589674472809, -0.89599609375, 0.10791015625, 0.184814453125, 
50, 3284194851, 0.41051357984542847, -0.6717764735221863, -0.1636931449174881, -0.5944883823394775, 9.214170455932617, -3.5479209423065186, 0.3226918578147888, -1.5015448331832886, -0.9845727682113647, 0.18498601019382477, -0.89501953125, 0.107421875, 0.18701171875, 
51, 3284203184, 0.41051289439201355, -0.6717979311943054, -0.16367687284946442, -0.5944689512252808, 9.1996488571167, -3.6095457077026367, 0.3306114971637726, -0.7041224837303162, -0.9546553492546082, 0.17179466784000397, -0.89404296875, 0.109130859375, 0.185546875, 
52, 3284211517, 0.4105396270751953, -0.6718000769615173, -0.16368193924427032, -0.5944467782974243, 9.208763122558594, -3.633894681930542, 0.35154077410697937, 0.2296828329563141, -0.8941544890403748, 0.039036091417074203, -0.892578125, 0.108642578125, 0.18359375, 
53, 3284219850, 0.4106077551841736, -0.6717785596847534, -0.1637396365404129, -0.5944082140922546, 9.19186782836914, -3.6075005531311035, 0.39059528708457947, 0.8224475383758545, -1.043255090713501, 0.06178153678774834, -0.89453125, 0.108642578125, 0.1845703125, 
54, 3284228183, 0.41069453954696655, -0.671757161617279, -0.16381019353866577, -0.5943529605865479, 9.169952392578125, -3.586236000061035, 0.38280585408210754, 1.133301854133606, -1.089155673980713, 0.037729766219854355, -0.8935546875, 0.108154296875, 0.18603515625, 
55, 3284236516, 0.41078370809555054, -0.6717190742492676, -0.1639009267091751, -0.5943093299865723, 9.1725492477417, -3.561420202255249, 0.39272943139076233, 1.3911861181259155, -1.0929977893829346, -0.07923764735460281, -0.89111328125, 0.107177734375, 0.1845703125, 
56, 3284244849, 0.4108372628688812, -0.6716917753219604, -0.16396495699882507, -0.5942854881286621, 9.15361499786377, -3.5097148418426514, 0.396818071603775, 1.1914716958999634, -0.9665147066116333, -0.3414505422115326, -0.89404296875, 0.107666015625, 0.184814453125, 
57, 3284253182, 0.4108712077140808, -0.6716739535331726, -0.1640370637178421, -0.5942623615264893, 9.098508834838867, -3.506051778793335, 0.4218246042728424, 0.5683286190032959, -1.0882079601287842, -0.427053302526474, -0.89208984375, 0.108154296875, 0.1826171875, 
58, 3284261515, 0.41087478399276733, -0.6716898083686829, -0.1640814244747162, -0.5942295789718628, 9.07736587524414, -3.6075005531311035, 0.40450042486190796, 0.2634167969226837, -1.3730638027191162, -0.4237234592437744, -0.89501953125, 0.107421875, 0.185791015625, 
59, 3284269848, 0.41089141368865967, -0.671680212020874, -0.164166659116745, -0.5942054986953735, 9.13473129272461, -3.6564831733703613, 0.3750450015068054, 0.4717629849910736, -1.2779070138931274, -0.6669818758964539, -0.8955078125, 0.111083984375, 0.18408203125, 
60, 3284278181, 0.41092973947525024, -0.6716564893722534, -0.1642848700284958, -0.5941731333732605, 9.20387077331543, -3.6345956325531006, 0.3510543704032898, 0.6985514163970947, -1.1072648763656616, -0.9510948657989502, -0.89501953125, 0.108642578125, 0.183837890625, 
61, 3284286514, 0.41097161173820496, -0.6716153025627136, -0.1644054651260376, -0.5941574573516846, 9.193070411682129, -3.708470106124878, 0.3311457335948944, 1.152077078819275, -1.0856465101242065, -0.9057320952415466, -0.89453125, 0.106689453125, 0.183349609375, 
62, 3284294847, 0.411051869392395, -0.6715556979179382, -0.16453474760055542, -0.5941333174705505, 9.234392166137695, -3.768754482269287, 0.33613619208335876, 1.9544938802719116, -0.935444712638855, -0.8082955479621887, -0.89306640625, 0.107666015625, 0.1845703125, 
63, 3284303180, 0.4111706018447876, -0.671464204788208, -0.16468672454357147, -0.5941124558448792, 9.28242301940918, -3.7701122760772705, 0.3464908003807068, 2.4153199195861816, -0.725971519947052, -0.6518182754516602, -0.890625, 0.108154296875, 0.185546875, 
64, 3284311513, 0.4112991392612457, -0.6713718175888062, -0.16481177508831024, -0.594093382358551, 9.308095932006836, -3.7098331451416016, 0.3036607801914215, 2.690595865249634, -0.5462363362312317, -0.47146838903427124, -0.89404296875, 0.107177734375, 0.183837890625, 
65, 3284319846, 0.41145390272140503, -0.671274721622467, -0.1649409532546997, -0.5940600037574768, 9.275671005249023, -3.6520326137542725, 0.3249530792236328, 2.6217195987701416, -0.5848882794380188, -0.08876613527536392, -0.8955078125, 0.110595703125, 0.1845703125, 
66, 3284328179, 0.4115828275680542, -0.6712173819541931, -0.16500601172447205, -0.594017505645752, 9.252718925476074, -3.60661244392395, 0.3270971477031708, 2.2182180881500244, -0.7727429866790771, 0.30903568863868713, -0.89453125, 0.10595703125, 0.185791015625, 
67, 3284336512, 0.41171956062316895, -0.6711849570274353, -0.1650659739971161, -0.5939425230026245, 9.175859451293945, -3.6114611625671387, 0.3816191554069519, 1.6182305812835693, -1.145993709564209, 0.7820537686347961, -0.892578125, 0.107666015625, 0.1826171875, 
68, 3284344845, 0.4118462800979614, -0.671180009841919, -0.16509437561035156, -0.5938524007797241, 9.117566108703613, -3.5725715160369873, 0.41126126050949097, 1.4073482751846313, -1.3164819478988647, 0.9994161128997803, -0.89404296875, 0.109619140625, 0.18408203125, 
69, 3284353178, 0.4119652509689331, -0.6711848378181458, -0.16513344645500183, -0.5937537550926208, 9.074199676513672, -3.575932025909424, 0.4418478012084961, 1.125899314880371, -1.5917068719863892, 1.0509520769119263, -0.8935546875, 0.109619140625, 0.18408203125, 
70, 3284361511, 0.4120899736881256, -0.6712008714675903, -0.1651495099067688, -0.5936444997787476, 9.067190170288086, -3.5925137996673584, 0.43439415097236633, 0.9811020493507385, -1.5095365047454834, 1.2419573068618774, -0.892578125, 0.110107421875, 0.185546875, 
71, 3284369844, 0.41222435235977173, -0.6712098717689514, -0.1651676446199417, -0.5935359597206116, 9.048254013061523, -3.6022610664367676, 0.4401460587978363, 1.095367193222046, -1.5645815134048462, 1.434653401374817, -0.892578125, 0.109130859375, 0.18212890625, 
72, 3284378177, 0.41236981749534607, -0.6712062954902649, -0.16519275307655334, -0.5934320688247681, 9.072437286376953, -3.537731647491455, 0.41228270530700684, 0.5790097713470459, -1.0062423944473267, 1.2093504667282104, -0.8935546875, 0.109130859375, 0.185546875, 
73, 3284386510, 0.4124547839164734, -0.671214759349823, -0.16515886783599854, -0.5933728814125061, 9.05449104309082, -3.452054977416992, 0.37529537081718445, 0.10693944245576859, -0.9190259575843811, 1.230968952178955, -0.8935546875, 0.108642578125, 0.18408203125, 
74, 3284394843, 0.4125637412071228, -0.6712157726287842, -0.1651380956172943, -0.5933015942573547, 9.04966926574707, -3.5530245304107666, 0.3476925492286682, 0.047796159982681274, -0.6763054132461548, 1.1772302389144897, -0.8935546875, 0.108154296875, 0.18359375, 
75, 3284403176, 0.41263747215270996, -0.6711965203285217, -0.16509267687797546, -0.5932847261428833, 9.092916488647461, -3.628659248352051, 0.33334389328956604, -0.029904618859291077, -0.264633446931839, 0.9416559934616089, -0.89404296875, 0.110107421875, 0.18359375, 
76, 3284411509, 0.4127253293991089, -0.6711567044258118, -0.16503337025642395, -0.593285322189331, 9.10947322845459, -3.589353322982788, 0.32756444811820984, 0.12530483305454254, 0.287545382976532, 0.8897616863250732, -0.892578125, 0.111083984375, 0.18603515625, 
77, 3284419842, 0.4128043055534363, -0.671098530292511, -0.16497671604156494, -0.5933118462562561, 9.138341903686523, -3.5151712894439697, 0.29923903942108154, 0.04953792691230774, 0.53141850233078, 0.7544159889221191, -0.89111328125, 0.109130859375, 0.18310546875, 
78, 3284428175, 0.4128859341144562, -0.6710456013679504, -0.16490384936332703, -0.5933351516723633, 9.168185234069824, -3.5169670581817627, 0.2896329164505005, -0.0628957524895668, 0.686051607131958, 0.8015462160110474, -0.8935546875, 0.110595703125, 0.18798828125, 
79, 3284436508, 0.41295111179351807, -0.6709889769554138, -0.1648436039686203, -0.5933704972267151, 9.191102981567383, -3.5995466709136963, 0.29114216566085815, -0.13579389452934265, 0.5873857140541077, 0.6289576292037964, -0.89306640625, 0.110595703125, 0.18408203125, 
80, 3284444841, 0.41302490234375, -0.670944333076477, -0.16478118300437927, -0.5933869481086731, 9.22956371307373, -3.6547021865844727, 0.29963257908821106, 0.17199960350990295, 0.37868088483810425, 0.7128185629844666, -0.89013671875, 0.109130859375, 0.1845703125, 
81, 3284453174, 0.41314178705215454, -0.6708755493164062, -0.16477720439434052, -0.5933845043182373, 9.213269233703613, -3.631047248840332, 0.30435383319854736, 0.9550267457962036, 0.13524314761161804, 0.7189147472381592, -0.8935546875, 0.111083984375, 0.18310546875, 
82, 3284461507, 0.4133010506629944, -0.6708028316497803, -0.16481900215148926, -0.59334397315979, 9.183453559875488, -3.60664963722229, 0.338299423456192, 1.7634119987487793, -0.18474265933036804, 0.6917123794555664, -0.892578125, 0.110107421875, 0.18505859375, 
83, 3284469840, 0.41346901655197144, -0.6707227826118469, -0.16489651799201965, -0.5932959318161011, 9.193192481994629, -3.5557613372802734, 0.3433767855167389, 2.259098768234253, -0.5379629731178284, 0.6175592541694641, -0.89453125, 0.110595703125, 0.18408203125, 
84, 3284478173, 0.41364431381225586, -0.6706598997116089, -0.1649964302778244, -0.5932170152664185, 9.211784362792969, -3.5724709033966064, 0.366245299577713, 2.5418541431427, -0.9602393507957458, 0.5323919057846069, -0.89208984375, 0.111083984375, 0.18310546875, 
85, 3284486506, 0.4138103127479553, -0.6705935597419739, -0.16508494317531586, -0.5931516289710999, 9.244247436523438, -3.5611751079559326, 0.3647754490375519, 2.2911674976348877, -0.8789910078048706, 0.6294955015182495, -0.89013671875, 0.1123046875, 0.18408203125, 
86, 3284494839, 0.4139520823955536, -0.6705456376075745, -0.16513781249523163, -0.5930922627449036, 9.254544258117676, -3.474759817123413, 0.3079223036766052, 1.6270164251327515, -0.6767921447753906, 0.6137170791625977, -0.89306640625, 0.109619140625, 0.1845703125, 
87, 3284503172, 0.41404005885124207, -0.6705202460289001, -0.16513179242610931, -0.5930612683296204, 9.252445220947266, -3.414309501647949, 0.3041818141937256, 0.4891294240951538, -0.5360931754112244, 0.7619210481643677, -0.8935546875, 0.111572265625, 0.18359375, 
88, 3284511505, 0.41407591104507446, -0.6705369353294373, -0.16506759822368622, -0.5930352210998535, 9.212262153625488, -3.3844542503356934, 0.30016931891441345, -0.7172369956970215, -0.47828176617622375, 0.7890976667404175, -0.89306640625, 0.110595703125, 0.18359375, 
89, 3284519838, 0.41406404972076416, -0.6705753803253174, -0.16496765613555908, -0.5930279493331909, 9.187600135803223, -3.3939287662506104, 0.26697155833244324, -1.6140683889389038, -0.5286394953727722, 0.8237026333808899, -0.892578125, 0.110595703125, 0.1845703125, 
90, 3284528171, 0.4140288233757019, -0.6706386804580688, -0.16486497223377228, -0.593009352684021, 9.146547317504883, -3.5026979446411133, 0.2681179344654083, -2.0821173191070557, -0.6908543705940247, 0.6240653395652771, -0.893798828125, 0.113037109375, 0.1826171875, 
91, 3284536504, 0.4139896035194397, -0.6706849336624146, -0.1647646129131317, -0.5930123925209045, 9.135481834411621, -3.5411434173583984, 0.29987406730651855, -1.9374476671218872, -0.5568405985832214, 0.5635899901390076, -0.89404296875, 0.111572265625, 0.18310546875, 
92, 3284544837, 0.41401392221450806, -0.6707059144973755, -0.16473984718322754, -0.5929784774780273, 9.102893829345703, -3.557781219482422, 0.3377643823623657, -1.1988357305526733, -0.5628600120544434, 0.3506588637828827, -0.89306640625, 0.112548828125, 0.185546875, 
93, 3284553170, 0.41403618454933167, -0.6706939339637756, -0.16474699974060059, -0.5929745435714722, 9.0742826461792, -3.530256986618042, 0.332671582698822, -0.14693604409694672, -0.6202358603477478, -0.018839269876480103, -0.89013671875, 0.111328125, 0.18408203125, 
94, 3284561503, 0.41408050060272217, -0.6706767678260803, -0.16479197144508362, -0.5929504632949829, 9.06906795501709, -3.5516726970672607, 0.3077796697616577, 0.9249044060707092, -0.977195680141449, -0.20392771065235138, -0.89306640625, 0.110107421875, 0.18505859375, 
95, 3284569836, 0.4141845107078552, -0.670619010925293, -0.16491998732089996, -0.5929077863693237, 9.094869613647461, -3.574125289916992, 0.33777907490730286, 1.942020058631897, -1.1065220832824707, -0.35079970955848694, -0.892578125, 0.109619140625, 0.18505859375, 
96, 3284578169, 0.41430652141571045, -0.6705480217933655, -0.16506265103816986, -0.5928630232810974, 9.129216194152832, -3.54801869392395, 0.3367985785007477, 2.6651611328125, -1.060416579246521, -0.4826106131076813, -0.89208984375, 0.11279296875, 0.1826171875, 
97, 3284586502, 0.41443848609924316, -0.6704632639884949, -0.16523632407188416, -0.592818021774292, 9.132104873657227, -3.510310649871826, 0.3140767514705658, 2.7296321392059326, -1.1063172817230225, -0.5922139883041382, -0.893310546875, 0.113525390625, 0.18505859375, 
98, 3284594835, 0.4145691990852356, -0.6703896522521973, -0.16539907455444336, -0.592764675617218, 9.190881729125977, -3.460764169692993, 0.3136940002441406, 2.1622002124786377, -0.9042978286743164, -0.597669780254364, -0.894287109375, 0.112548828125, 0.18310546875, 
99, 3284603168, 0.4146261215209961, -0.6703455448150635, -0.16548532247543335, -0.5927505493164062, 9.224349021911621, -3.4067630767822266, 0.30743634700775146, 1.0241339206695557, -0.8219479918479919, -0.48099687695503235, -0.89404296875, 0.112060546875, 0.18408203125, 
100, 3284611501, 0.41462939977645874, -0.6703433394432068, -0.16549862921237946, -0.5927470922470093, 9.183256149291992, -3.444401502609253, 0.3377286195755005, -0.12992820143699646, -0.7092709541320801, -0.3433716595172882, -0.892578125, 0.108642578125, 0.18212890625, 
101, 3284619834, 0.41459113359451294, -0.6703662872314453, -0.1654541790485382, -0.5927603244781494, 9.18264102935791, -3.4815962314605713, 0.3657391667366028, -1.3630486726760864, -0.5896781086921692, -0.05651780962944031, -0.892578125, 0.111572265625, 0.1845703125, 
102, 3284628167, 0.414506196975708, -0.6704297065734863, -0.16534951329231262, -0.5927772521972656, 9.139065742492676, -3.528902292251587, 0.37726321816444397, -2.294074773788452, -0.593904435634613, 0.06180714815855026, -0.89306640625, 0.112548828125, 0.18408203125, 
103, 3284636500, 0.41442108154296875, -0.6704930663108826, -0.16525280475616455, -0.5927920937538147, 9.10520076751709, -3.5945966243743896, 0.4114743173122406, -2.4545738697052, -0.7135998010635376, 0.12812240421772003, -0.8916015625, 0.111572265625, 0.185546875, 
104, 3284644833, 0.41437816619873047, -0.6705511212348938, -0.1651879996061325, -0.5927746295928955, 9.076064109802246, -3.638320207595825, 0.40956005454063416, -2.2055776119232178, -0.7124471068382263, 0.17824944853782654, -0.894775390625, 0.113037109375, 0.18212890625, 
105, 3284653166, 0.41435208916664124, -0.670600175857544, -0.16514423489570618, -0.5927496552467346, 9.057196617126465, -3.7003519535064697, 0.37176889181137085, -1.3065438270568848, -1.1305227279663086, 0.3149270713329315, -0.893798828125, 0.115234375, 0.18212890625, 
106, 3284661499, 0.41438019275665283, -0.6706333160400391, -0.16513437032699585, -0.5926949977874756, 9.096735000610352, -3.740915298461914, 0.35112589597702026, 0.06516261398792267, -1.3756507635116577, 0.4598267376422882, -0.88916015625, 0.1123046875, 0.18359375, 
107, 3284669832, 0.41448044776916504, -0.6706168055534363, -0.1651962548494339, -0.5926263332366943, 9.218056678771973, -3.671952962875366, 0.2986110746860504, 1.19085693359375, -1.3155854940414429, 0.47086647152900696, -0.8916015625, 0.11328125, 0.1845703125, 
108, 3284678165, 0.4146381616592407, -0.6705867648124695, -0.16528476774692535, -0.5925254225730896, 9.267040252685547, -3.6473169326782227, 0.27678191661834717, 2.3229548931121826, -1.470807671546936, 0.7156873345375061, -0.892822265625, 0.113525390625, 0.18408203125, 
109, 3284686498, 0.41482624411582947, -0.6705266833305359, -0.16538861393928528, -0.5924327969551086, 9.300371170043945, -3.591435194015503, 0.30415335297584534, 2.6460018157958984, -1.219890832901001, 0.8367146849632263, -0.893310546875, 0.114501953125, 0.1845703125, 
110, 3284694831, 0.41500142216682434, -0.6704780459403992, -0.16545607149600983, -0.5923461318016052, 9.33916187286377, -3.449794292449951, 0.3006591498851776, 2.074625253677368, -0.904758870601654, 0.9117130637168884, -0.891845703125, 0.11328125, 0.18310546875, 
111, 3284703164, 0.41512253880500793, -0.6704437136650085, -0.1654737889766693, -0.5922954082489014, 9.27720832824707, -3.3664638996124268, 0.3058129847049713, 1.0852495431900024, -0.7026625275611877, 0.9050533175468445, -0.88818359375, 0.11181640625, 0.1845703125, 
112, 3284711497, 0.41520053148269653, -0.6704548597335815, -0.16543716192245483, -0.5922381281852722, 9.233254432678223, -3.333432197570801, 0.3484148383140564, -0.6176488399505615, -0.5356320142745972, 1.021162748336792, -0.8935546875, 0.113037109375, 0.185546875, 
113, 3284719830, 0.4151487648487091, -0.6705053448677063, -0.1652851104736328, -0.5922597646713257, 9.191427230834961, -3.268192768096924, 0.3752213716506958, -2.53971529006958, -0.15113678574562073, 0.8410689830780029, -0.8916015625, 0.11328125, 0.18359375, 
114, 3284728163, 0.4150082468986511, -0.6706210970878601, -0.16507668793201447, -0.5922855138778687, 9.057121276855469, -3.3001630306243896, 0.3978365361690521, -4.072291374206543, -0.4317663311958313, 0.6345670819282532, -0.89208984375, 0.111572265625, 0.1845703125, 
115, 3284736496, 0.4148114323616028, -0.6707483530044556, -0.16486094892024994, -0.5923393368721008, 9.005034446716309, -3.4241485595703125, 0.392547607421875, -4.9086737632751465, -0.4472373127937317, 0.2397492229938507, -0.889892578125, 0.11572265625, 0.18408203125, 
116, 3284744829, 0.4146556258201599, -0.6708658933639526, -0.16470420360565186, -0.5923588871955872, 9.013484954833984, -3.501847982406616, 0.3832961618900299, -5.128545761108398, -0.3017740845680237, -0.0012679045321419835, -0.891357421875, 0.11376953125, 0.18408203125, 
117, 3284753162, 0.4144617021083832, -0.6709721088409424, -0.16452656686306, -0.592423677444458, 8.975686073303223, -3.593240737915039, 0.3702569007873535, -4.475588321685791, -0.38445690274238586, -0.20080281794071198, -0.89208984375, 0.113037109375, 0.185546875, 
118, 3284761495, 0.4143499732017517, -0.6710355877876282, -0.16443724930286407, -0.5924547910690308, 8.951753616333008, -3.6417717933654785, 0.28997117280960083, -3.3611643314361572, -0.2487526684999466, -0.42054733633995056, -0.890625, 0.1123046875, 0.18359375, 
119, 3284769828, 0.41426903009414673, -0.6710578799247742, -0.16437743604183197, -0.5925029516220093, 8.942867279052734, -3.651017665863037, 0.2653697729110718, -1.9574782848358154, -0.2703966200351715, -0.46101775765419006, -0.890625, 0.114501953125, 0.188232421875, 
120, 3284778161, 0.41429802775382996, -0.6710320711135864, -0.16440963745117188, -0.5925026535987854, 9.011216163635254, -3.669816255569458, 0.24819649755954742, -0.6225155591964722, -0.1347949057817459, -0.42738625407218933, -0.892333984375, 0.11328125, 0.18310546875, 
121, 3284786494, 0.41433441638946533, -0.6709703207015991, -0.16445206105709076, -0.5925353765487671, 9.05135726928711, -3.6384007930755615, 0.23646584153175354, 0.4714556336402893, -0.04506824538111687, -0.5511800050735474, -0.893798828125, 0.112548828125, 0.18310546875, 
122, 3284794827, 0.41449612379074097, -0.6708724498748779, -0.1646231710910797, -0.5924856662750244, 9.096356391906738, -3.6467840671539307, 0.2408362179994583, 1.1507705450057983, -0.0545198991894722, -0.5722604393959045, -0.88330078125, 0.111572265625, 0.181396484375, 
123, 3284803160, 0.41456010937690735, -0.6707876920700073, -0.16469806432724, -0.5925161242485046, 9.108423233032227, -3.569648027420044, 0.2668370306491852, 1.1267445087432861, -0.0027279157657176256, -0.6642667055130005, -0.891845703125, 0.11376953125, 0.1845703125, 
124, 3284811493, 0.414598673582077, -0.6707245707511902, -0.16476410627365112, -0.5925421118736267, 9.09945297241211, -3.5669655799865723, 0.2913714647293091, 0.7628944516181946, -0.09811533242464066, -0.8480233550071716, -0.890625, 0.111328125, 0.18212890625, 
125, 3284819826, 0.4146004319190979, -0.6706740856170654, -0.16483324766159058, -0.5925789475440979, 9.138779640197754, -3.586735963821411, 0.33570438623428345, 0.29620301723480225, -0.33169153332710266, -1.0772706270217896, -0.89013671875, 0.11181640625, 0.181640625, 
126, 3284828159, 0.414486825466156, -0.6706790924072266, -0.16478058695793152, -0.5926674604415894, 9.163642883300781, -3.5440404415130615, 0.35303571820259094, -1.1011431217193604, -0.15651577711105347, -1.1355173587799072, -0.89208984375, 0.111083984375, 0.18310546875, 
127, 3284836492, 0.41435706615448, -0.6707057356834412, -0.16474756598472595, -0.5927372574806213, 9.104344367980957, -3.5361740589141846, 0.3395344316959381, -2.263465642929077, -0.3696261942386627, -1.2196345329284668, -0.8896484375, 0.11083984375, 0.18359375, 
128, 3284844825, 0.4141707420349121, -0.6707788109779358, -0.16464665532112122, -0.5928126573562622, 9.074102401733398, -3.6702451705932617, 0.29947033524513245, -2.8597397804260254, -0.5894988179206848, -1.0724295377731323, -0.892578125, 0.111083984375, 0.18310546875, 
129, 3284853158, 0.41400954127311707, -0.6708510518074036, -0.1645880937576294, -0.5928598046302795, 9.072440147399902, -3.769106388092041, 0.2500423789024353, -2.970137119293213, -0.8774284720420837, -1.0084965229034424, -0.890625, 0.11181640625, 0.1826171875, 
130, 3284861491, 0.41391563415527344, -0.6709291338920593, -0.16457170248031616, -0.5928417444229126, 9.027670860290527, -3.9160704612731934, 0.2431546449661255, -1.8974382877349854, -1.4604339599609375, -0.5992833971977234, -0.89306640625, 0.110595703125, 0.18310546875, 
131, 3284869824, 0.4139055013656616, -0.670970618724823, -0.16461493074893951, -0.5927898287773132, 9.050716400146484, -4.031644821166992, 0.15908625721931458, -0.34685513377189636, -1.7770003080368042, -0.2222675085067749, -0.89111328125, 0.111572265625, 0.18505859375, 
132, 3284878157, 0.4139784574508667, -0.6709902286529541, -0.16469062864780426, -0.5926956534385681, 9.137677192687988, -4.02058744430542, 0.12971378862857819, 1.5309628248214722, -2.082501173019409, 0.24546124041080475, -0.888671875, 0.11083984375, 0.18310546875, 
133, 3284886490, 0.4141797423362732, -0.6709666848182678, -0.16487880051136017, -0.592529296875, 9.189376831054688, -4.015209197998047, 0.1171366274356842, 3.413583755493164, -2.650932550430298, 0.6676605939865112, -0.88671875, 0.111328125, 0.18359375, 
134, 3284894823, 0.4144941568374634, -0.6709127426147461, -0.16513095796108246, -0.5923004150390625, 9.192967414855957, -4.010265827178955, 0.12398025393486023, 5.325993537902832, -2.947340488433838, 1.148311734199524, -0.89208984375, 0.112548828125, 0.18408203125, 
135, 3284903156, 0.4149017632007599, -0.6708237528800964, -0.16545604169368744, -0.5920249819755554, 9.134581565856934, -3.9104928970336914, 0.2085960954427719, 7.053495407104492, -3.433473587036133, 1.557576298713684, -0.89404296875, 0.111572265625, 0.18408203125, 
136, 3284911489, 0.4153592586517334, -0.6707180738449097, -0.1657867133617401, -0.5917313098907471, 9.22193431854248, -3.775362491607666, 0.26362553238868713, 7.639650344848633, -3.210141897201538, 1.8315201997756958, -0.89111328125, 0.110595703125, 0.18408203125, 
137, 3284919822, 0.4157906770706177, -0.6706258654594421, -0.16608572006225586, -0.5914490222930908, 9.229982376098633, -3.6542530059814453, 0.28236839175224304, 7.094862461090088, -3.2661356925964355, 2.024421453475952, -0.89013671875, 0.113037109375, 0.1865234375, 
138, 3284928155, 0.4161486029624939, -0.6705899834632874, -0.16631309688091278, -0.5911738276481628, 9.217413902282715, -3.5621426105499268, 0.2939816415309906, 5.218055248260498, -3.1540472507476807, 2.015994071960449, -0.888671875, 0.11376953125, 0.186767578125, 
139, 3284936488, 0.4163864254951477, -0.670624852180481, -0.16644412279129028, -0.5909298658370972, 9.157431602478027, -3.501802921295166, 0.2619459331035614, 3.129214286804199, -3.430783271789551, 2.0699634552001953, -0.891845703125, 0.114013671875, 0.185546875, 
140, 3284944821, 0.41652318835258484, -0.6707298159599304, -0.16648328304290771, -0.5907033681869507, 9.130636215209961, -3.53326153755188, 0.3312893807888031, 1.1654733419418335, -3.451223611831665, 2.023012161254883, -0.89013671875, 0.115234375, 0.186767578125, 
141, 3284953154, 0.41657230257987976, -0.6708651185035706, -0.16645340621471405, -0.590523362159729, 9.120287895202637, -3.5136823654174805, 0.34707021713256836, -0.6398563981056213, -3.164677143096924, 1.8855149745941162, -0.890625, 0.11474609375, 0.18603515625, 
142, 3284961487, 0.4165315628051758, -0.6710445284843445, -0.16633184254169464, -0.59038245677948, 9.079309463500977, -3.5331313610076904, 0.33454129099845886, -2.469020128250122, -2.7234461307525635, 1.7395907640457153, -0.890380859375, 0.115234375, 0.185546875, 
143, 3284969820, 0.4164485037326813, -0.6712402105331421, -0.16616617143154144, -0.5902653336524963, 9.07034969329834, -3.591654062271118, 0.24956519901752472, -3.450967311859131, -2.601778745651245, 1.843149185180664, -0.888916015625, 0.1162109375, 0.187255859375, 
144, 3284978153, 0.41634756326675415, -0.6714467406272888, -0.16595050692558289, -0.5901623964309692, 9.076520919799805, -3.684887647628784, 0.19941823184490204, -3.3483824729919434, -2.4622838497161865, 2.0031869411468506, -0.88818359375, 0.11572265625, 0.187255859375, 
145, 3284986486, 0.4163280129432678, -0.671609103679657, -0.16581185162067413, -0.5900302529335022, 9.044425964355469, -3.71213436126709, 0.18125148117542267, -2.421403169631958, -2.479368209838867, 2.1189377307891846, -0.8857421875, 0.11669921875, 0.188720703125, 
146, 3284994819, 0.41639435291290283, -0.6717436909675598, -0.16573584079742432, -0.5898515582084656, 9.033140182495117, -3.728506565093994, 0.2161829173564911, -1.2811344861984253, -2.5212221145629883, 2.2751591205596924, -0.890625, 0.115478515625, 0.189697265625, 
147, 3285003152, 0.41650161147117615, -0.6718449592590332, -0.1656680554151535, -0.5896795988082886, 9.058253288269043, -3.601813793182373, 0.2774116098880768, -0.23433181643486023, -2.4667916297912598, 2.5809671878814697, -0.88916015625, 0.11572265625, 0.189697265625, 
148, 3285011485, 0.4166112542152405, -0.6719499826431274, -0.165586456656456, -0.5895052552223206, 9.10584545135498, -3.534623861312866, 0.3197188079357147, 0.3044763505458832, -2.5340030193328857, 2.64180064201355, -0.891845703125, 0.114990234375, 0.18798828125, 
149, 3285019818, 0.41674143075942993, -0.6720402836799622, -0.1655319631099701, -0.5893256068229675, 9.112639427185059, -3.4720935821533203, 0.3856447637081146, 0.1655704230070114, -2.4747579097747803, 2.664111375808716, -0.8876953125, 0.11669921875, 0.187744140625, 
150, 3285028151, 0.4168224632740021, -0.6721622347831726, -0.1654260754585266, -0.5891590118408203, 9.1250638961792, -3.3938002586364746, 0.3785008192062378, -0.8029167056083679, -2.313746929168701, 2.602816581726074, -0.8876953125, 0.1162109375, 0.190185546875, 
151, 3285036484, 0.4168374538421631, -0.6723089218139648, -0.16527508199214935, -0.5890233516693115, 9.095687866210938, -3.2678334712982178, 0.3708355724811554, -2.1054258346557617, -2.2330870628356934, 2.4976439476013184, -0.888427734375, 0.11767578125, 0.187744140625, 
152, 3285044817, 0.41676250100135803, -0.672514021396637, -0.16505742073059082, -0.5889030694961548, 9.11606502532959, -3.2740907669067383, 0.34813928604125977, -3.6361587047576904, -2.312312364578247, 2.3048970699310303, -0.889404296875, 0.11962890625, 0.187744140625, 
153, 3285053150, 0.41663628816604614, -0.6727334856987, -0.16484448313713074, -0.5888015627861023, 9.112462043762207, -3.349693536758423, 0.3314574956893921, -4.406660079956055, -2.473912477493286, 1.8974257707595825, -0.889404296875, 0.11865234375, 0.188720703125, 
154, 3285061483, 0.41643989086151123, -0.6729788184165955, -0.16459788382053375, -0.5887290239334106, 9.125859260559082, -3.462062120437622, 0.3344144821166992, -4.951808452606201, -2.4613358974456787, 1.4292230606079102, -0.888427734375, 0.11767578125, 0.191162109375, 
155, 3285069816, 0.41627219319343567, -0.6731873750686646, -0.1644151210784912, -0.5886602997779846, 9.13620662689209, -3.544362783432007, 0.3161005973815918, -4.558321952819824, -2.3477365970611572, 1.0689332485198975, -0.887451171875, 0.119140625, 0.189697265625, 
156, 3285078149, 0.4161233901977539, -0.6733721494674683, -0.164268359541893, -0.5885951519012451, 9.184329986572266, -3.5408005714416504, 0.33534756302833557, -3.583444595336914, -2.281165361404419, 0.7026753425598145, -0.889404296875, 0.12109375, 0.186767578125, 
157, 3285086482, 0.41602814197540283, -0.6734954714775085, -0.16421079635620117, -0.588537335395813, 9.20041275024414, -3.5984020233154297, 0.3068869411945343, -2.4105429649353027, -2.1107025146484375, 0.24167029559612274, -0.888916015625, 0.1171875, 0.189208984375, 
158, 3285094815, 0.4160243272781372, -0.673568844795227, -0.164242684841156, -0.5884470343589783, 9.21006965637207, -3.632622003555298, 0.2790525555610657, -0.9223302006721497, -1.977687954902649, 0.07200160622596741, -0.883544921875, 0.121826171875, 0.18994140625, 
159, 3285103148, 0.4160465896129608, -0.6736032366752625, -0.16430413722991943, -0.5883749127388, 9.21875286102295, -3.5906496047973633, 0.3060114085674286, 0.18232212960720062, -1.9379091262817383, -0.028854437172412872, -0.885986328125, 0.119140625, 0.188720703125, 
160, 3285111481, 0.41608768701553345, -0.6736317873001099, -0.16437172889709473, -0.5882943868637085, 9.220108032226562, -3.5554237365722656, 0.33474189043045044, 0.7998044490814209, -1.9432622194290161, -0.008747261017560959, -0.888916015625, 0.119140625, 0.188720703125, 
161, 3285119814, 0.41612571477890015, -0.673650860786438, -0.16444164514541626, -0.5882260203361511, 9.255964279174805, -3.47538161277771, 0.39399442076683044, 0.4758100211620331, -1.7920360565185547, -0.036999765783548355, -0.887451171875, 0.1181640625, 0.190673828125, 
162, 3285128147, 0.41612815856933594, -0.6736976504325867, -0.16447670757770538, -0.5881608128547668, 9.220016479492188, -3.380366802215576, 0.48356157541275024, -0.20766741037368774, -1.7507201433181763, -0.07803376764059067, -0.886962890625, 0.1181640625, 0.191650390625, 
163, 3285136480, 0.416048526763916, -0.6737616062164307, -0.1644519865512848, -0.5881508588790894, 9.214963912963867, -3.3305249214172363, 0.5722043514251709, -1.7690086364746094, -1.339637279510498, -0.34370458126068115, -0.888916015625, 0.12060546875, 0.189697265625, 
164, 3285144813, 0.41589295864105225, -0.6738587021827698, -0.16436557471752167, -0.5881739854812622, 9.178908348083496, -3.312333345413208, 0.5578545928001404, -3.2554800510406494, -0.957882821559906, -0.6254612803459167, -0.887451171875, 0.11962890625, 0.191650390625, 
165, 3285153146, 0.41566023230552673, -0.6739745140075684, -0.164236381649971, -0.5882418155670166, 9.164536476135254, -3.4045302867889404, 0.494189977645874, -4.505249500274658, -0.786062479019165, -0.9410029649734497, -0.88623046875, 0.1181640625, 0.188720703125, 
166, 3285161479, 0.4153866469860077, -0.6741064190864563, -0.1640884280204773, -0.5883250832557678, 9.163208961486816, -3.4679200649261475, 0.4155254662036896, -5.189943790435791, -0.5977978706359863, -1.2713496685028076, -0.889404296875, 0.11865234375, 0.189208984375, 
167, 3285169812, 0.41509342193603516, -0.674230694770813, -0.1639426052570343, -0.5884302854537964, 9.19072151184082, -3.4978573322296143, 0.39617735147476196, -5.333332538604736, -0.5476707220077515, -1.4706796407699585, -0.888427734375, 0.119140625, 0.190185546875, 
168, 3285178145, 0.4148167371749878, -0.6743556261062622, -0.1637830138206482, -0.5885266661643982, 9.198347091674805, -3.5355303287506104, 0.44829320907592773, -4.951346397399902, -0.5028202533721924, -1.2602074146270752, -0.888916015625, 0.117431640625, 0.192626953125, 
169, 3285186478, 0.4145946502685547, -0.6744267344474792, -0.16367807984352112, -0.5886310935020447, 9.288756370544434, -3.5668246746063232, 0.439142107963562, -4.03671407699585, -0.19906103610992432, -1.388842225074768, -0.888427734375, 0.119140625, 0.191650390625, 
170, 3285194811, 0.4144369661808014, -0.6744661927223206, -0.1636098474264145, -0.5887157917022705, 9.313844680786133, -3.553670883178711, 0.4480074644088745, -2.8146073818206787, -0.08671699464321136, -1.279597520828247, -0.88671875, 0.11669921875, 0.190673828125, 
171, 3285203144, 0.41434627771377563, -0.6744539737701416, -0.16358599066734314, -0.5888001918792725, 9.282084465026855, -3.5719776153564453, 0.4497988522052765, -1.6409374475479126, 0.12302517145872116, -1.1505273580551147, -0.8828125, 0.1162109375, 0.1904296875, 
172, 3285211477, 0.41426950693130493, -0.6744179129600525, -0.16357065737247467, -0.5888996124267578, 9.275391578674316, -3.5067670345306396, 0.4484618008136749, -0.4341484606266022, 0.2184125781059265, -1.328802466392517, -0.8876953125, 0.115234375, 0.190673828125, 
173, 3285219810, 0.41425561904907227, -0.6743364930152893, -0.16365987062454224, -0.5889779329299927, 9.226422309875488, -3.4717767238616943, 0.5063395500183105, 0.3941262364387512, 0.15629805624485016, -1.6978522539138794, -0.8857421875, 0.1162109375, 0.190673828125, 
174, 3285228143, 0.41423800587654114, -0.6742353439331055, -0.1637762486934662, -0.5890738368034363, 9.202887535095215, -3.4383528232574463, 0.5674946308135986, 0.6610009074211121, 0.4523985981941223, -2.237287998199463, -0.89013671875, 0.115966796875, 0.189208984375, 
175, 3285236476, 0.4142008423805237, -0.6741150617599487, -0.16391655802726746, -0.589198648929596, 9.178287506103516, -3.448840856552124, 0.6047803163528442, 0.7087714672088623, 0.5588257908821106, -2.714660882949829, -0.88818359375, 0.11669921875, 0.188232421875, 
176, 3285244809, 0.41413524746894836, -0.6739898920059204, -0.16405418515205383, -0.5893497467041016, 9.17115306854248, -3.4433088302612305, 0.6876668334007263, 0.22146064043045044, 0.9990318417549133, -3.1967713832855225, -0.88916015625, 0.115966796875, 0.190673828125, 
177, 3285253142, 0.4140208959579468, -0.6738573312759399, -0.16414415836334229, -0.5895564556121826, 9.179764747619629, -3.397067070007324, 0.7304445505142212, -0.5291004776954651, 1.5295283794403076, -3.367823600769043, -0.8876953125, 0.1171875, 0.189697265625, 
178, 3285261475, 0.41384804248809814, -0.6737382411956787, -0.1641542762517929, -0.5898109078407288, 9.126459121704102, -3.398475408554077, 0.6876653432846069, -1.6670641899108887, 2.2260563373565674, -3.4378275871276855, -0.88818359375, 0.11474609375, 0.188232421875, 
179, 3285269808, 0.41365116834640503, -0.6736108064651489, -0.16409064829349518, -0.5901122689247131, 9.131979942321777, -3.376746416091919, 0.5961159467697144, -2.782256603240967, 3.0531911849975586, -3.139805793762207, -0.888671875, 0.11474609375, 0.188720703125, 
180, 3285278141, 0.4134376645088196, -0.6734991669654846, -0.16396275162696838, -0.5904247760772705, 9.172901153564453, -3.4268245697021484, 0.4989396929740906, -3.6653330326080322, 3.523776054382324, -2.817194700241089, -0.8896484375, 0.113525390625, 0.187744140625, 
181, 3285286474, 0.41323322057724, -0.6733813881874084, -0.16379666328430176, -0.5907483100891113, 9.198062896728516, -3.5235021114349365, 0.49984604120254517, -3.788717031478882, 3.7454674243927, -2.355958938598633, -0.88525390625, 0.11474609375, 0.188232421875, 
182, 3285294807, 0.4130695164203644, -0.6732375025749207, -0.1636376976966858, -0.5910707712173462, 9.224803924560547, -3.5203540325164795, 0.5465333461761475, -3.4588825702667236, 4.229294776916504, -2.260366678237915, -0.888671875, 0.1123046875, 0.187255859375, 
183, 3285303140, 0.41290706396102905, -0.6730650663375854, -0.16346555948257446, -0.5914281010627747, 9.237961769104004, -3.508086919784546, 0.6488122940063477, -3.2144205570220947, 4.630900859832764, -2.2747108936309814, -0.88916015625, 0.111572265625, 0.18701171875, 
184, 3285311473, 0.41274285316467285, -0.67286616563797, -0.1632806360721588, -0.5918201208114624, 9.25059986114502, -3.4917593002319336, 0.7452313303947449, -2.7317452430725098, 5.1515350341796875, -2.5003204345703125, -0.88134765625, 0.114501953125, 0.185302734375, 
185, 3285319806, 0.4125708043575287, -0.6726232767105103, -0.16312441229820251, -0.5922591686248779, 9.284360885620117, -3.4060287475585938, 0.8300773501396179, -2.9581751823425293, 5.847628116607666, -3.1232845783233643, -0.8896484375, 0.1123046875, 0.18603515625, 
186, 3285328139, 0.41233929991722107, -0.6723647117614746, -0.16295382380485535, -0.5927606225013733, 9.222291946411133, -3.340977907180786, 0.8362901210784912, -3.6438684463500977, 6.610572814941406, -3.9588725566864014, -0.8896484375, 0.110595703125, 0.18701171875, 
187, 3285336472, 0.41201940178871155, -0.6720927953720093, -0.16273002326488495, -0.5933526158332825, 9.18679141998291, -3.4172911643981934, 0.8167348504066467, -5.05470085144043, 7.551026821136475, -4.634217739105225, -0.89013671875, 0.110107421875, 0.18408203125, 
188, 3285344805, 0.41161298751831055, -0.6718305945396423, -0.1624387949705124, -0.5940111875534058, 9.228096008300781, -3.4855594635009766, 0.8086969256401062, -6.655718803405762, 8.410102844238281, -5.172014236450195, -0.89013671875, 0.11083984375, 0.1826171875, 
189, 3285353138, 0.4110988974571228, -0.6715657711029053, -0.16203463077545166, -0.5947765111923218, 9.281367301940918, -3.5092592239379883, 0.7331858277320862, -8.748684883117676, 9.683335304260254, -5.518805503845215, -0.890625, 0.107177734375, 0.18017578125, 
190, 3285361471, 0.4105112850666046, -0.6713123917579651, -0.16152863204479218, -0.5956053137779236, 9.259505271911621, -3.612929105758667, 0.5988308787345886, -10.241944313049316, 10.610929489135742, -5.594854354858398, -0.890625, 0.1083984375, 0.17919921875, 
191, 3285369804, 0.40992414951324463, -0.671042263507843, -0.16097985208034515, -0.5964621305465698, 9.240272521972656, -3.728240728378296, 0.50654137134552, -10.779664039611816, 11.224237442016602, -5.310587406158447, -0.89013671875, 0.1083984375, 0.1787109375, 
192, 3285378137, 0.4093503952026367, -0.6707592606544495, -0.16035492718219757, -0.5973421335220337, 9.31753158569336, -3.8192245960235596, 0.5085924863815308, -10.511431694030762, 11.821946144104004, -4.705758571624756, -0.890625, 0.105224609375, 0.177978515625, 
193, 3285386470, 0.40886807441711426, -0.6704332828521729, -0.15977129340171814, -0.5981945395469666, 9.350076675415039, -3.908700466156006, 0.4660164415836334, -9.774201393127441, 12.070709228515625, -4.225311756134033, -0.892578125, 0.105712890625, 0.176025390625, 
194, 3285394803, 0.4084956645965576, -0.6700801849365234, -0.15922029316425323, -0.5989907383918762, 9.348260879516602, -3.950042247772217, 0.46508339047431946, -8.421642303466797, 12.025552749633789, -3.4759676456451416, -0.89208984375, 0.1044921875, 0.173095703125, 
195, 3285403136, 0.4082280397415161, -0.6696972250938416, -0.15871787071228027, -0.5997345447540283, 9.329663276672363, -3.9681293964385986, 0.48274123668670654, -6.569808483123779, 11.553224563598633, -2.721013307571411, -0.89453125, 0.104736328125, 0.173095703125, 
196, 3285411469, 0.4080665111541748, -0.6693004369735718, -0.15830406546592712, -0.600396454334259, 9.299877166748047, -3.8596768379211426, 0.5088838934898376, -4.561345100402832, 10.742919921875, -2.328295946121216, -0.890869140625, 0.1015625, 0.171630859375, 
197, 3285419802, 0.40799373388290405, -0.6688731908798218, -0.15802410244941711, -0.6009954810142517, 9.249834060668945, -3.796123743057251, 0.5255085229873657, -2.3751187324523926, 9.762738227844238, -2.445660352706909, -0.885986328125, 0.1015625, 0.169677734375, 
198, 3285428135, 0.4079694151878357, -0.6684586405754089, -0.15783695876598358, -0.6015221476554871, 9.181872367858887, -3.7320520877838135, 0.5209547281265259, -1.0932797193527222, 8.693548202514648, -2.5671226978302, -0.89501953125, 0.102294921875, 0.17041015625, 
199, 3285436468, 0.4079132080078125, -0.6680503487586975, -0.1576511561870575, -0.6020625233650208, 9.181519508361816, -3.570178985595703, 0.44482696056365967, -1.4234472513198853, 8.573725700378418, -2.8041317462921143, -0.89501953125, 0.100830078125, 0.16748046875, 
200, 3285444801, 0.4078017771244049, -0.6676812171936035, -0.1574660986661911, -0.6025952100753784, 9.192378044128418, -3.471130609512329, 0.2922948896884918, -2.581313133239746, 8.340662956237793, -3.2750489711761475, -0.893310546875, 0.10009765625, 0.16748046875, 
201, 3285453134, 0.4075702130794525, -0.6673569679260254, -0.15720632672309875, -0.6031787395477295, 9.191827774047852, -3.46836519241333, 0.16334883868694305, -4.210250377655029, 8.311051368713379, -3.638617753982544, -0.8935546875, 0.10205078125, 0.16552734375, 
202, 3285461467, 0.4072718322277069, -0.6670838594436646, -0.15689702332019806, -0.6037628054618835, 9.154592514038086, -3.451791286468506, 0.03053705208003521, -6.165975093841553, 8.381388664245605, -3.7769858837127686, -0.89501953125, 0.099609375, 0.1640625, 
203, 3285469800, 0.4068790674209595, -0.6668581366539001, -0.1564914733171463, -0.604381799697876, 9.0689058303833, -3.453038454055786, -0.0434802807867527, -7.528755187988281, 8.287947654724121, -3.6254007816314697, -0.892822265625, 0.099609375, 0.1611328125, 
204, 3285478133, 0.40647661685943604, -0.6666600704193115, -0.1560690999031067, -0.6049800515174866, 8.994205474853516, -3.5470194816589355, -0.05184759199619293, -8.314956665039062, 8.22992992401123, -3.50775408744812, -0.895263671875, 0.0986328125, 0.162841796875, 
205, 3285486466, 0.40604376792907715, -0.6664827466011047, -0.1556011587381363, -0.6055864095687866, 8.890341758728027, -3.594710111618042, -0.033241454511880875, -8.658623695373535, 8.029627799987793, -3.2119102478027344, -0.893798828125, 0.09912109375, 0.1630859375, 
206, 3285494799, 0.40560856461524963, -0.6663275361061096, -0.15509331226348877, -0.6061788201332092, 8.792610168457031, -3.714355230331421, 0.011387703940272331, -8.021137237548828, 7.643211364746094, -2.7575135231018066, -0.895263671875, 0.09765625, 0.160888671875, 
207, 3285503132, 0.40529733896255493, -0.666142463684082, -0.15470227599143982, -0.6066901087760925, 8.719943046569824, -3.8095548152923584, 0.019095182418823242, -6.656921863555908, 7.053264617919922, -2.387131452560425, -0.888427734375, 0.097900390625, 0.15966796875, 
208, 3285511465, 0.4050960838794708, -0.6659479737281799, -0.1544002890586853, -0.6071147918701172, 8.694016456604004, -3.865718126296997, -0.04284152388572693, -4.790234565734863, 6.254101276397705, -1.9365005493164062, -0.894775390625, 0.09814453125, 0.158935546875, 
209, 3285519798, 0.4049913287162781, -0.665734589099884, -0.1541910320520401, -0.6074718832969666, 8.728739738464355, -3.8637020587921143, -0.11175773292779922, -2.7638399600982666, 5.304887771606445, -1.5312318801879883, -0.896240234375, 0.0966796875, 0.156494140625, 
210, 3285528131, 0.40502259135246277, -0.6655234098434448, -0.1541392207145691, -0.6076954007148743, 8.773359298706055, -3.8619558811187744, -0.1853257566690445, -0.08699874579906464, 3.6713902950286865, -1.2069041728973389, -0.887939453125, 0.095458984375, 0.155517578125, 
211, 3285536464, 0.4051692485809326, -0.6652984023094177, -0.15424026548862457, -0.6078184247016907, 8.825881958007812, -3.8493494987487793, -0.23922519385814667, 2.6922097206115723, 2.062176465988159, -0.9903103113174438, -0.89501953125, 0.09765625, 0.156005859375, 
212, 3285544797, 0.4054092764854431, -0.6650829315185547, -0.15445825457572937, -0.6078387498855591, 8.91524600982666, -3.7714526653289795, -0.24043400585651398, 4.740861892700195, 0.7134845852851868, -0.7963850498199463, -0.894775390625, 0.09521484375, 0.156982421875, 
213, 3285553130, 0.40571707487106323, -0.6648769378662109, -0.15477684140205383, -0.6077777743339539, 9.011704444885254, -3.7467825412750244, -0.15344518423080444, 6.268622875213623, -0.6492311954498291, -0.5692123174667358, -0.897216796875, 0.095703125, 0.155029296875, 
214, 3285561463, 0.4059993624687195, -0.6647109389305115, -0.15504644811153412, -0.6077020764350891, 9.146766662597656, -3.572166919708252, -0.01909538172185421, 5.414106369018555, -0.7391116619110107, -0.2835880219936371, -0.894287109375, 0.09521484375, 0.156982421875, 
215, 3285569796, 0.406182199716568, -0.6646066308021545, -0.15518836677074432, -0.607657790184021, 9.235334396362305, -3.3419089317321777, -0.03926869109272957, 3.046685218811035, -0.6257942318916321, 0.12499748170375824, -0.893798828125, 0.09619140625, 0.156005859375, 
216, 3285578129, 0.40621402859687805, -0.6646202802658081, -0.1551516056060791, -0.6076309084892273, 9.240909576416016, -3.3484818935394287, -0.11751434952020645, 0.05991169810295105, -0.8445398211479187, 0.5840558409690857, -0.896484375, 0.09765625, 0.155517578125, 
217, 3285586462, 0.40613043308258057, -0.6647220253944397, -0.1550036519765854, -0.6076132655143738, 9.184711456298828, -3.292104482650757, -0.1478465497493744, -3.01947021484375, -1.0534238815307617, 0.8396345973014832, -0.8955078125, 0.10009765625, 0.155029296875, 
218, 3285594795, 0.405900776386261, -0.6649360656738281, -0.15471699833869934, -0.6076057553291321, 9.118500709533691, -3.3591256141662598, -0.1995304971933365, -5.470956802368164, -1.5380195379257202, 1.012479543685913, -0.895751953125, 0.0947265625, 0.154052734375, 
219, 3285603128, 0.40562212467193604, -0.665218710899353, -0.15441477298736572, -0.6075592637062073, 9.039085388183594, -3.5114870071411133, -0.18124137818813324, -7.03913688659668, -2.383033275604248, 1.164909839630127, -0.89404296875, 0.09765625, 0.154541015625, 
220, 3285611461, 0.4053203761577606, -0.6655541658401489, -0.15412300825119019, -0.6074674129486084, 8.997291564941406, -3.5962560176849365, -0.12386330962181091, -7.377041339874268, -3.169365167617798, 1.1298696994781494, -0.89501953125, 0.09716796875, 0.155029296875, 
221, 3285619794, 0.4050290882587433, -0.6659023761749268, -0.15385276079177856, -0.6073485612869263, 8.997830390930176, -3.624877691268921, -0.035535041242837906, -7.0995612144470215, -3.7982451915740967, 1.3100913763046265, -0.894775390625, 0.0966796875, 0.156005859375, 
222, 3285628127, 0.40482664108276367, -0.6662570238113403, -0.1536746472120285, -0.6071395874023438, 8.948896408081055, -3.6686434745788574, 0.03811183571815491, -5.690317630767822, -4.698098659515381, 1.5859054327011108, -0.894775390625, 0.09716796875, 0.159423828125, 
223, 3285636460, 0.4046967923641205, -0.666588544845581, -0.15357349812984467, -0.6068880558013916, 8.942349433898926, -3.6670515537261963, 0.07462148368358612, -3.8351807594299316, -5.472954750061035, 1.8129243850708008, -0.895263671875, 0.09619140625, 0.158447265625, 
224, 3285644793, 0.4046781659126282, -0.6669168472290039, -0.15358372032642365, -0.6065369844436646, 8.955549240112305, -3.636866569519043, 0.16343368589878082, -2.092618942260742, -6.394964694976807, 2.120192527770996, -0.894287109375, 0.0966796875, 0.158447265625, 
225, 3285653126, 0.40470772981643677, -0.6672370433807373, -0.15365585684776306, -0.6061467528343201, 8.960347175598145, -3.6119189262390137, 0.18453063070774078, -0.5716201663017273, -7.279298305511475, 2.3019773960113525, -0.894287109375, 0.09716796875, 0.158935546875, 
226, 3285661459, 0.40473461151123047, -0.667587161064148, -0.153721421957016, -0.6057263016700745, 8.973716735839844, -3.5298023223876953, 0.28945136070251465, -0.10344308614730835, -7.842885971069336, 2.5065066814422607, -0.894775390625, 0.09814453125, 0.161865234375, 
227, 3285669792, 0.4047752618789673, -0.6679413318634033, -0.1538221836090088, -0.6052830219268799, 9.043126106262207, -3.3969690799713135, 0.38602063059806824, -0.3093559741973877, -8.184401512145996, 2.4982335567474365, -0.892822265625, 0.09814453125, 0.16162109375, 
228, 3285678125, 0.4047583341598511, -0.6683421730995178, -0.15388676524162292, -0.6048353910446167, 9.046051979064941, -3.358487367630005, 0.46087223291397095, -1.2236818075180054, -8.412932395935059, 2.3717758655548096, -0.893798828125, 0.09912109375, 0.1611328125, 
229, 3285686458, 0.40467774868011475, -0.6687653064727783, -0.15391941368579865, -0.6044130921363831, 9.061299324035645, -3.3925669193267822, 0.4615536034107208, -2.41745924949646, -8.443029403686523, 2.1453206539154053, -0.890380859375, 0.0986328125, 0.1640625, 
230, 3285694791, 0.40456798672676086, -0.6692065000534058, -0.15393048524856567, -0.6039952635765076, 9.086620330810547, -3.472444772720337, 0.46646249294281006, -2.9206764698028564, -8.32817554473877, 2.005056858062744, -0.89306640625, 0.10107421875, 0.16455078125, 
231, 3285703124, 0.40445011854171753, -0.6696337461471558, -0.15396496653556824, -0.6035916209220886, 9.110967636108398, -3.514566659927368, 0.4857097566127777, -2.808562755584717, -8.396077156066895, 1.7236076593399048, -0.893310546875, 0.0986328125, 0.1650390625, 
232, 3285711457, 0.40438681840896606, -0.6700349450111389, -0.15405112504959106, -0.6031668186187744, 9.196802139282227, -3.63507080078125, 0.45591846108436584, -1.891675353050232, -8.2809419631958, 1.6357507705688477, -0.892822265625, 0.10009765625, 0.16552734375, 
233, 3285719790, 0.40438777208328247, -0.6703855991363525, -0.1542104184627533, -0.6027354598045349, 9.223657608032227, -3.730715036392212, 0.4608737826347351, -0.1939125806093216, -8.458038330078125, 1.5505833625793457, -0.890869140625, 0.1005859375, 0.1689453125, 
234, 3285728123, 0.4045065641403198, -0.6706828474998474, -0.1544736623764038, -0.6022576093673706, 9.266290664672852, -3.7676403522491455, 0.5147079825401306, 1.763540267944336, -8.434934616088867, 1.577606439590454, -0.892333984375, 0.099853515625, 0.16943359375, 
235, 3285736456, 0.4047030508518219, -0.6709194779396057, -0.1547979712486267, -0.6017786264419556, 9.324362754821777, -3.7152764797210693, 0.5638352632522583, 3.711298704147339, -8.453607559204102, 1.6731219291687012, -0.890380859375, 0.099609375, 0.16845703125, 
236, 3285744789, 0.4049330949783325, -0.671136200428009, -0.15510667860507965, -0.6013027429580688, 9.35322093963623, -3.6398282051086426, 0.6321566104888916, 4.408236026763916, -8.080280303955078, 1.9459904432296753, -0.890869140625, 0.101318359375, 0.173095703125, 
237, 3285753122, 0.4051989018917084, -0.671332836151123, -0.15541599690914154, -0.6008240580558777, 9.334955215454102, -3.5114388465881348, 0.6604422926902771, 4.4491167068481445, -7.889915466308594, 2.2976226806640625, -0.891845703125, 0.1025390625, 0.171142578125, 
238, 3285761455, 0.4054417312145233, -0.6715558767318726, -0.1556912511587143, -0.6003394722938538, 9.3609619140625, -3.392717123031616, 0.7515648007392883, 3.7476184368133545, -7.812917709350586, 2.3919594287872314, -0.888427734375, 0.10107421875, 0.172119140625, 
239, 3285769788, 0.4056122601032257, -0.6717924475669861, -0.15589767694473267, -0.5999058485031128, 9.32487964630127, -3.354032278060913, 0.7672544717788696, 2.400874137878418, -7.434571266174316, 2.2970080375671387, -0.887939453125, 0.10009765625, 0.172607421875, 
240, 3285778121, 0.40566176176071167, -0.6720759272575378, -0.15599802136421204, -0.5995286703109741, 9.278943061828613, -3.3100314140319824, 0.7628127932548523, 0.5047541260719299, -6.9775872230529785, 1.979519248008728, -0.890380859375, 0.10302734375, 0.172607421875, 
241, 3285786454, 0.4056237041950226, -0.6723752617835999, -0.1560474932193756, -0.5992057919502258, 9.277461051940918, -3.3100028038024902, 0.7089624404907227, -1.4079248905181885, -6.500546932220459, 1.5415928363800049, -0.887451171875, 0.10498046875, 0.174560546875, 
242, 3285794787, 0.40547674894332886, -0.672705352306366, -0.15604794025421143, -0.5989347100257874, 9.240266799926758, -3.3991596698760986, 0.691633403301239, -2.411618709564209, -6.333670139312744, 0.8075912594795227, -0.889892578125, 0.10205078125, 0.175048828125, 
243, 3285803120, 0.405335009098053, -0.6729851365089417, -0.1560954749584198, -0.5987038016319275, 9.233086585998535, -3.5017645359039307, 0.6724140644073486, -2.4711461067199707, -5.699717998504639, 0.14951027929782867, -0.889404296875, 0.103515625, 0.174072265625, 
244, 3285811453, 0.40518781542778015, -0.6732335686683655, -0.15616105496883392, -0.5985068678855896, 9.247127532958984, -3.581693172454834, 0.6830801367759705, -1.8560458421707153, -5.235383033752441, -0.40108051896095276, -0.889892578125, 0.104248046875, 0.177490234375, 
245, 3285819786, 0.4050931930541992, -0.6734043955802917, -0.15627822279930115, -0.5983482003211975, 9.22546672821045, -3.6107406616210938, 0.6604483723640442, -1.0094186067581177, -4.419877529144287, -0.7424670457839966, -0.889404296875, 0.101806640625, 0.177490234375, 
246, 3285828119, 0.40504032373428345, -0.6735274791717529, -0.15640631318092346, -0.5982120633125305, 9.163822174072266, -3.6287968158721924, 0.6423830389976501, 0.23485691845417023, -3.8413026332855225, -0.805042564868927, -0.887939453125, 0.10498046875, 0.177001953125, 
247, 3285836452, 0.40506798028945923, -0.6735857129096985, -0.15660199522972107, -0.598076581954956, 9.151243209838867, -3.6360883712768555, 0.6423545479774475, 1.3458486795425415, -3.45552659034729, -0.8358820676803589, -0.890380859375, 0.103271484375, 0.178466796875, 
248, 3285844785, 0.40514570474624634, -0.6736112236976624, -0.1568051129579544, -0.5979418754577637, 9.155613899230957, -3.628650188446045, 0.6363524794578552, 2.151057720184326, -2.987682819366455, -0.6669818758964539, -0.887939453125, 0.103271484375, 0.178955078125, 
249, 3285853118, 0.4052594304084778, -0.6736043095588684, -0.15701697766780853, -0.5978168249130249, 9.218404769897461, -3.6040046215057373, 0.639413595199585, 2.6173136234283447, -2.728159189224243, -0.4765399992465973, -0.888916015625, 0.102294921875, 0.178466796875, 
250, 3285861451, 0.40538203716278076, -0.6735914349555969, -0.15721416473388672, -0.5976964235305786, 9.219090461730957, -3.5424797534942627, 0.6539686322212219, 2.4578394889831543, -2.318613290786743, -0.420572966337204, -0.889892578125, 0.103271484375, 0.181884765625, 
251, 3285869784, 0.4054870307445526, -0.6735807657241821, -0.15736837685108185, -0.5975967049598694, 9.192063331604004, -3.560499668121338, 0.6608697772026062, 2.0277254581451416, -2.1583449840545654, -0.1628168821334839, -0.888916015625, 0.103515625, 0.177978515625, 
252, 3285878117, 0.40557795763015747, -0.6735824346542358, -0.1575000286102295, -0.5974982976913452, 9.179182052612305, -3.5373783111572266, 0.6729958057403564, 1.4609335660934448, -1.928764820098877, -0.16571129858493805, -0.888427734375, 0.103759765625, 0.18115234375, 
253, 3285886450, 0.4056239426136017, -0.6735805869102478, -0.15760108828544617, -0.5974425673484802, 9.221639633178711, -3.4836666584014893, 0.6421167254447937, 0.8991620540618896, -1.6554349660873413, -0.3816392421722412, -0.887939453125, 0.102783203125, 0.179931640625, 
254, 3285894783, 0.405653715133667, -0.6735923290252686, -0.15767866373062134, -0.5973886251449585, 9.184303283691406, -3.5245091915130615, 0.6308952569961548, 0.6913793683052063, -1.5847399234771729, -0.37198272347450256, -0.886962890625, 0.1015625, 0.178466796875, 
255, 3285903116, 0.40569210052490234, -0.6735832691192627, -0.15775753557682037, -0.5973517894744873, 9.178621292114258, -3.5924081802368164, 0.6019760966300964, 0.6459653377532959, -1.3147403001785278, -0.3594317138195038, -0.884521484375, 0.10400390625, 0.18017578125, 
256, 3285911449, 0.4057272672653198, -0.6735520958900452, -0.15782395005226135, -0.5973455309867859, 9.205279350280762, -3.6117351055145264, 0.5217494368553162, 0.7086946368217468, -0.6895735859870911, -0.5861689448356628, -0.887451171875, 0.10302734375, 0.179443359375, 
257, 3285919782, 0.4057666063308716, -0.6734870076179504, -0.15786591172218323, -0.5973811149597168, 9.22249698638916, -3.556114673614502, 0.4625600576400757, 0.5079302787780762, 0.02528124861419201, -0.5364516973495483, -0.887939453125, 0.10302734375, 0.177978515625, 
258, 3285928115, 0.4058302044868469, -0.6734268665313721, -0.15789894759655, -0.5973970890045166, 9.240449905395508, -3.5744330883026123, 0.40636730194091797, 0.2747383117675781, 0.20801320672035217, -0.2600485384464264, -0.889892578125, 0.104736328125, 0.179443359375, 
259, 3285936448, 0.4058738350868225, -0.6733487248420715, -0.15787295997142792, -0.5974623560905457, 9.274941444396973, -3.5825514793395996, 0.35791394114494324, -0.0027023013681173325, 0.7965514659881592, -0.06476558744907379, -0.888427734375, 0.103759765625, 0.178955078125, 
260, 3285944781, 0.4059043824672699, -0.6732794046401978, -0.1578049212694168, -0.597537636756897, 9.268375396728516, -3.497511386871338, 0.33724939823150635, -0.37994876503944397, 1.1062787771224976, 0.08557716012001038, -0.887451171875, 0.10498046875, 0.17919921875, 
261, 3285953114, 0.4059435725212097, -0.6732062101364136, -0.1577584445476532, -0.5976058840751648, 9.204306602478027, -3.557673931121826, 0.32158467173576355, -0.2451922744512558, 0.8865599632263184, 0.08209362626075745, -0.888916015625, 0.103759765625, 0.178955078125, 
262, 3285961447, 0.40597784519195557, -0.6731412410736084, -0.15769889950752258, -0.5976715087890625, 9.184000015258789, -3.6042819023132324, 0.3568195700645447, -0.33176836371421814, 0.9641453623771667, 0.09771830588579178, -0.885498046875, 0.10205078125, 0.177490234375, 
263, 3285969780, 0.40604066848754883, -0.6730704307556152, -0.15764518082141876, -0.5977227091789246, 9.159966468811035, -3.6115634441375732, 0.3384796679019928, -0.06292136013507843, 0.8007777333259583, 0.44374099373817444, -0.887451171875, 0.10400390625, 0.177978515625, 
264, 3285978113, 0.4061431288719177, -0.6730074882507324, -0.1576320081949234, -0.5977275371551514, 9.066178321838379, -3.691453456878662, 0.31768637895584106, 0.7682990431785583, 0.28490716218948364, 0.5712998509407043, -0.888916015625, 0.102294921875, 0.177001953125, 
265, 3285986446, 0.40630102157592773, -0.6729223728179932, -0.15768107771873474, -0.5977031588554382, 9.050228118896484, -3.6944432258605957, 0.27295035123825073, 1.9047515392303467, -0.14862659573554993, 0.6645869016647339, -0.888916015625, 0.105712890625, 0.18115234375, 
266, 3285994779, 0.406489759683609, -0.6728507876396179, -0.1577642560005188, -0.597633421421051, 9.073047637939453, -3.666520357131958, 0.2585947811603546, 3.153625011444092, -0.9139543175697327, 0.8190664649009705, -0.89013671875, 0.1064453125, 0.177978515625, 
267, 3286003112, 0.40676650404930115, -0.6727477312088013, -0.15794362127780914, -0.597513735294342, 9.080324172973633, -3.6902730464935303, 0.24971677362918854, 4.383569240570068, -1.3543142080307007, 0.9308468699455261, -0.886962890625, 0.10498046875, 0.17919921875, 
268, 3286011445, 0.4071090519428253, -0.6726429462432861, -0.15816666185855865, -0.5973392724990845, 9.063961029052734, -3.6313493251800537, 0.3040100634098053, 5.256041049957275, -1.7135283946990967, 1.250051498413086, -0.887939453125, 0.1044921875, 0.1787109375, 
269, 3286019778, 0.40745794773101807, -0.6725238561630249, -0.15839587152004242, -0.5971749424934387, 9.112225532531738, -3.548208236694336, 0.3704380393028259, 5.647503852844238, -1.755458950996399, 1.2773051261901855, -0.887451171875, 0.10546875, 0.1787109375, 
270, 3286028111, 0.40778470039367676, -0.6724303960800171, -0.15859514474868774, -0.5970041155815125, 9.171229362487793, -3.4179341793060303, 0.4339665472507477, 4.990984916687012, -1.7297677993774414, 1.3536611795425415, -0.887939453125, 0.1044921875, 0.17919921875, 
271, 3286036444, 0.40804529190063477, -0.6723607778549194, -0.15870365500450134, -0.596875786781311, 9.15985107421875, -3.349881887435913, 0.4977956712245941, 3.483074903488159, -1.3454515933990479, 1.5732005834579468, -0.885986328125, 0.10595703125, 0.18115234375, 
272, 3286044777, 0.408236563205719, -0.6723268628120422, -0.15874040126800537, -0.5967732071876526, 9.209037780761719, -3.2787134647369385, 0.5377752184867859, 1.499687910079956, -0.8080651164054871, 1.4695912599563599, -0.888916015625, 0.105224609375, 0.1806640625, 
273, 3286053110, 0.4082908034324646, -0.6723304986953735, -0.15864646434783936, -0.5967569947242737, 9.224499702453613, -3.2738919258117676, 0.5281587839126587, -0.7423388957977295, -0.22482894361019135, 1.2818642854690552, -0.88720703125, 0.10791015625, 0.177734375, 
274, 3286061443, 0.4082585573196411, -0.6723711490631104, -0.15846146643161774, -0.5967825651168823, 9.246371269226074, -3.3009955883026123, 0.5069378614425659, -2.5252435207366943, 0.29955849051475525, 1.163142442703247, -0.888916015625, 0.10595703125, 0.1796875, 
275, 3286069776, 0.4081765115261078, -0.6724050045013428, -0.1582442820072174, -0.5968579053878784, 9.281731605529785, -3.4187819957733154, 0.49700286984443665, -3.383679151535034, 0.76911860704422, 0.8548752069473267, -0.884521484375, 0.10693359375, 0.17724609375, 
276, 3286078109, 0.40807870030403137, -0.6724277138710022, -0.15802551805973053, -0.5969573855400085, 9.287676811218262, -3.4353320598602295, 0.5148205161094666, -3.5431785583496094, 1.2055597305297852, 0.48246973752975464, -0.888916015625, 0.1044921875, 0.176513671875, 
277, 3286086442, 0.4079820513725281, -0.6724036335945129, -0.15783140063285828, -0.5971019864082336, 9.28034782409668, -3.4272990226745605, 0.5829429626464844, -3.1532535552978516, 1.724094271659851, 0.008222169242799282, -0.884521484375, 0.10498046875, 0.17822265625, 
278, 3286094775, 0.40790480375289917, -0.6723428964614868, -0.1576715111732483, -0.5972652435302734, 9.297046661376953, -3.4353110790252686, 0.6124156713485718, -2.457288980484009, 2.1593568325042725, -0.4257213771343231, -0.886962890625, 0.1044921875, 0.176513671875, 
279, 3286103108, 0.4078477621078491, -0.6722354292869568, -0.15756556391716003, -0.5974531173706055, 9.286276817321777, -3.458526372909546, 0.6364299654960632, -1.6884007453918457, 2.4000022411346436, -0.9066797494888306, -0.888671875, 0.10595703125, 0.177001953125, 
280, 3286111441, 0.407809853553772, -0.6721212863922119, -0.15747718513011932, -0.5976305603981018, 9.331573486328125, -3.466327428817749, 0.8010056614875793, -1.3961424827575684, 2.4727470874786377, -0.9664891958236694, -0.88720703125, 0.10693359375, 0.1767578125, 
281, 3286119774, 0.4077962338924408, -0.6719980239868164, -0.1574067920446396, -0.597797155380249, 9.336981773376465, -3.457718849182129, 1.0156340599060059, -0.8609073162078857, 2.2272090911865234, -0.7932344079017639, -0.887451171875, 0.10498046875, 0.177001953125, 
282, 3286128107, 0.4078126549720764, -0.671860933303833, -0.15734592080116272, -0.5979559421539307, 9.332662582397461, -3.465006113052368, 1.1799126863479614, -0.40899527072906494, 2.4122207164764404, -0.7119860649108887, -0.886962890625, 0.103515625, 0.176025390625, 
283, 3286136440, 0.40779033303260803, -0.6717036366462708, -0.15722647309303284, -0.5981793403625488, 9.352825164794922, -3.380876302719116, 1.2262221574783325, -1.2761139869689941, 3.2902255058288574, -0.8039411902427673, -0.887451171875, 0.1044921875, 0.174072265625, 
284, 3286144773, 0.4077720046043396, -0.6716343760490417, -0.1570304036140442, -0.5983210206031799, 9.389169692993164, -3.35172700881958, 1.6741697788238525, -2.3679981231689453, 2.4436495304107666, 0.4854922592639923, -0.8876953125, 0.1064453125, 0.175048828125, 
285, 3286153106, 0.4078029990196228, -0.671602189540863, -0.15672196447849274, -0.5984170436859131, 9.610868453979492, -3.4605631828308105, 2.3725671768188477, -2.766632080078125, 2.2583816051483154, 2.365858554840088, -0.8876953125, 0.10791015625, 0.17431640625, 
286, 3286161439, 0.4077877402305603, -0.671530544757843, -0.1562284529209137, -0.5986367464065552, 9.773567199707031, -3.4108550548553467, 2.8621201515197754, -4.251463413238525, 4.5710649490356445, 2.859931707382202, -0.8896484375, 0.10595703125, 0.172119140625, 
287, 3286169772, 0.4077736735343933, -0.6713553071022034, -0.15557092428207397, -0.5990138649940491, 9.644325256347656, -3.2200381755828857, 3.212885618209839, -5.857707977294922, 7.89292573928833, 3.3335394859313965, -0.887939453125, 0.10498046875, 0.172119140625, 
288, 3286178105, 0.40766382217407227, -0.6711044907569885, -0.1545647382736206, -0.5996299386024475, 9.647589683532715, -3.2177090644836426, 3.614819049835205, -8.897965431213379, 12.236281394958496, 4.231882572174072, -0.884033203125, 0.105224609375, 0.171875, 
289, 3286186438, 0.40748679637908936, -0.6706849336624146, -0.15336260199546814, -0.6005277037620544, 9.743027687072754, -3.3194549083709717, 3.829962730407715, -11.589664459228516, 17.418582916259766, 3.581101894378662, -0.88818359375, 0.106201171875, 0.171142578125, 
290, 3286194771, 0.4071391224861145, -0.6701140403747559, -0.15190023183822632, -0.6017712950706482, 9.737963676452637, -3.4418013095855713, 4.229290008544922, -15.13649845123291, 22.985740661621094, 2.2389416694641113, -0.8876953125, 0.106689453125, 0.167724609375, 
291, 3286203104, 0.40672940015792847, -0.6693798303604126, -0.15021154284477234, -0.6032875776290894, 9.748242378234863, -3.5806124210357666, 4.698665142059326, -17.293428421020508, 27.95849609375, 2.01855731010437, -0.888671875, 0.105712890625, 0.163330078125, 
292, 3286211437, 0.4063447117805481, -0.6683916449546814, -0.1483820229768753, -0.6050922870635986, 9.763864517211914, -3.953372001647949, 4.95296049118042, -17.338464736938477, 33.54749298095703, 1.3162659406661987, -0.8916015625, 0.105712890625, 0.16162109375, 
293, 3286219770, 0.40607839822769165, -0.6670446395874023, -0.14660592377185822, -0.6071868538856506, 9.836381912231445, -4.264152526855469, 4.999366283416748, -14.461420059204102, 39.14982604980469, -0.4749526381492615, -0.89111328125, 0.105224609375, 0.15625, 
294, 3286228103, 0.40604060888290405, -0.6653435826301575, -0.14494411647319794, -0.6094731092453003, 9.890007972717285, -4.356272220611572, 5.109157085418701, -9.982486724853516, 43.72895431518555, -1.4846676588058472, -0.888671875, 0.1044921875, 0.15185546875, 
295, 3286236436, 0.406211256980896, -0.6633234024047852, -0.14336220920085907, -0.6119307279586792, 10.032096862792969, -4.330075263977051, 5.2602362632751465, -5.802443027496338, 47.900814056396484, -1.9761292934417725, -0.891845703125, 0.105224609375, 0.143798828125, 
296, 3286244769, 0.40665775537490845, -0.6609821915626526, -0.1419478952884674, -0.614491879940033, 10.23340892791748, -4.434492111206055, 5.3526835441589355, -0.19042949378490448, 51.0489616394043, -2.4608547687530518, -0.894287109375, 0.104248046875, 0.136962890625, 
297, 3286253102, 0.4074365496635437, -0.6582947373390198, -0.14077168703079224, -0.6171259880065918, 10.391270637512207, -4.632065296173096, 5.593042850494385, 6.538895130157471, 54.059059143066406, -2.8338253498077393, -0.891357421875, 0.1044921875, 0.13134765625, 
298, 3286261435, 0.40863746404647827, -0.6552269458770752, -0.13978588581085205, -0.6198146343231201, 10.623766899108887, -4.685697555541992, 6.176711559295654, 14.075423240661621, 57.39380645751953, -2.0866572856903076, -0.894287109375, 0.10302734375, 0.12109375, 
299, 3286269768, 0.41024333238601685, -0.6517831087112427, -0.13897517323493958, -0.6225611567497253, 10.939423561096191, -4.714575290679932, 6.605608940124512, 21.14531898498535, 61.05303192138672, -1.1923341751098633, -0.896484375, 0.105224609375, 0.114990234375, 
300, 3286278101, 0.4122082591056824, -0.6479374766349792, -0.13824963569641113, -0.6254323124885559, 11.285228729248047, -4.646778583526611, 7.036916255950928, 27.06757926940918, 65.68038940429688, -0.4376339316368103, -0.896484375, 0.103515625, 0.1044921875, 
301, 3286286434, 0.4144441485404968, -0.6437689661979675, -0.13756844401359558, -0.628402590751648, 11.34428596496582, -4.364380836486816, 7.50418758392334, 31.558767318725586, 69.73899841308594, 0.4075501561164856, -0.89453125, 0.103759765625, 0.0947265625, 
302, 3286294767, 0.4169961214065552, -0.6392815113067627, -0.1369611918926239, -0.6314207911491394, 11.301506996154785, -4.29636812210083, 8.012673377990723, 37.11109161376953, 72.73102569580078, 1.5951358079910278, -0.89501953125, 0.10205078125, 0.084716796875, 
303, 3286303100, 0.4197925925254822, -0.6344476342201233, -0.13642776012420654, -0.6345512866973877, 11.476669311523438, -4.426012992858887, 8.242924690246582, 41.28709411621094, 77.12797546386719, 1.7859901189804077, -0.890625, 0.103271484375, 0.075439453125, 
304, 3286311433, 0.42270082235336304, -0.6291705965995789, -0.1358027309179306, -0.6379993557929993, 11.82384204864502, -4.39336633682251, 8.267513275146484, 43.39216613769531, 84.25318145751953, 0.8209683299064636, -0.898193359375, 0.105224609375, 0.06591796875, 
305, 3286319766, 0.4255574941635132, -0.6235207319259644, -0.1349330097436905, -0.641819953918457, 11.948379516601562, -4.240260601043701, 8.226767539978027, 42.30375289916992, 92.32261657714844, -0.30198177695274353, -0.90087890625, 0.1044921875, 0.051025390625, 
306, 3286328099, 0.42838698625564575, -0.6175417900085449, -0.13380944728851318, -0.6459404230117798, 11.856209754943848, -4.159335136413574, 8.07638931274414, 41.175785064697266, 98.92607116699219, -0.7940109372138977, -0.900390625, 0.1064453125, 0.037109375, 
307, 3286336432, 0.4311860203742981, -0.611272394657135, -0.13254159688949585, -0.6502881050109863, 11.865623474121094, -4.364152431488037, 7.853861331939697, 40.95280838012695, 104.5373764038086, -1.6491782665252686, -0.8994140625, 0.103271484375, 0.022216796875, 
308, 3286344765, 0.4340153932571411, -0.6046133637428284, -0.1312205195426941, -0.6548829674720764, 12.038932800292969, -4.614240646362305, 7.528395652770996, 42.49671173095703, 110.14349365234375, -3.177471876144409, -0.900634765625, 0.10205078125, 0.0078125, 
309, 3286353098, 0.4369140863418579, -0.5975995063781738, -0.12996703386306763, -0.6596262454986572, 12.07941722869873, -4.822041034698486, 7.242220401763916, 45.62710952758789, 114.62273406982422, -4.569217205047607, -0.901123046875, 0.10205078125, -0.0068359375, 
310, 3286361431, 0.439996600151062, -0.5901595950126648, -0.12878207862377167, -0.6644899845123291, 12.120269775390625, -5.01636266708374, 7.033291816711426, 50.02641677856445, 119.02246856689453, -5.012742042541504, -0.900146484375, 0.100830078125, -0.022216796875, 
311, 3286369764, 0.44328808784484863, -0.582301914691925, -0.12773104012012482, -0.6694191694259644, 12.337275505065918, -5.160507678985596, 6.816317081451416, 55.4349479675293, 123.30122375488281, -5.263054847717285, -0.8994140625, 0.099365234375, -0.03955078125, 
312, 3286378097, 0.4467966556549072, -0.5739727020263672, -0.12683744728565216, -0.6744312644004822, 12.466829299926758, -5.196444988250732, 6.6842265129089355, 61.26971435546875, 127.33277130126953, -5.920233249664307, -0.896484375, 0.09619140625, -0.056396484375, 
313, 3286386430, 0.4504740238189697, -0.565263569355011, -0.12607045471668243, -0.6794657111167908, 12.44022274017334, -5.0400800704956055, 6.651454925537109, 66.15367126464844, 130.94520568847656, -6.0927815437316895, -0.8935546875, 0.09375, -0.07666015625, 
314, 3286394763, 0.4542780816555023, -0.5561791062355042, -0.12530535459518433, -0.6845524311065674, 12.51050090789795, -4.727702617645264, 6.641279697418213, 69.34075164794922, 134.6389923095703, -5.94376277923584, -0.890625, 0.0908203125, -0.094970703125, 
315, 3286403096, 0.4580696225166321, -0.5468184351921082, -0.12442322075366974, -0.6897086501121521, 12.555220603942871, -4.500711917877197, 6.67529821395874, 69.7991714477539, 138.9089813232422, -6.032011032104492, -0.8916015625, 0.08935546875, -0.1123046875, 
316, 3286411429, 0.461719810962677, -0.537212610244751, -0.12325835227966309, -0.6950123310089111, 12.499821662902832, -4.252603530883789, 6.521844863891602, 67.26404571533203, 143.45603942871094, -6.642520427703857, -0.88916015625, 0.08837890625, -0.134033203125, 
317, 3286419762, 0.4651980400085449, -0.5275111198425293, -0.12183117866516113, -0.7003551125526428, 12.404396057128906, -4.27685022354126, 6.469721794128418, 64.11186981201172, 146.4585418701172, -6.711246967315674, -0.88671875, 0.083984375, -0.152587890625, 
318, 3286428095, 0.46848446130752563, -0.5176963210105896, -0.12004007399082184, -0.705776572227478, 12.497262001037598, -4.365918159484863, 6.448429584503174, 59.71236801147461, 149.7028350830078, -6.657458305358887, -0.8828125, 0.0810546875, -0.17724609375, 
319, 3286436428, 0.4715002775192261, -0.5078483819961548, -0.11786603182554245, -0.7112681269645691, 12.493857383728027, -4.422094821929932, 6.282949924468994, 54.26066207885742, 152.96983337402344, -7.018886089324951, -0.87939453125, 0.0771484375, -0.195068359375, 
320, 3286444761, 0.47427618503570557, -0.4979286789894104, -0.11530055850744247, -0.7168347835540771, 12.241130828857422, -4.444112300872803, 6.121669292449951, 49.07597732543945, 155.89874267578125, -7.23868989944458, -0.873046875, 0.073974609375, -0.21630859375, 
321, 3286453094, 0.4768526256084442, -0.4880407452583313, -0.11241912841796875, -0.7223621606826782, 11.914531707763672, -4.536464691162109, 6.030813217163086, 44.47609329223633, 157.5051727294922, -6.729748725891113, -0.868896484375, 0.070556640625, -0.235595703125, 
322, 3286461427, 0.4793247878551483, -0.4781171977519989, -0.10931827127933502, -0.7278176546096802, 11.726064682006836, -4.6034955978393555, 5.921206474304199, 41.84959411621094, 158.24485778808594, -5.921138286590576, -0.862548828125, 0.067138671875, -0.25927734375, 
323, 3286469760, 0.48171791434288025, -0.4681478440761566, -0.10612589865922928, -0.7331711649894714, 11.687650680541992, -4.760156631469727, 5.6536688804626465, 40.9614143371582, 158.92938232421875, -5.462736129760742, -0.855712890625, 0.0634765625, -0.27734375, 
324, 3286478093, 0.48409464955329895, -0.45805519819259644, -0.10286930203437805, -0.7384259700775146, 11.52474594116211, -4.796981334686279, 5.618239402770996, 41.0977668762207, 159.5368194580078, -4.778590679168701, -0.849853515625, 0.06005859375, -0.298583984375, 
325, 3286486426, 0.4865303933620453, -0.44785624742507935, -0.0996788740158081, -0.7435014247894287, 11.312334060668945, -4.822543144226074, 5.534246921539307, 43.17367935180664, 159.5293731689453, -3.5144217014312744, -0.8388671875, 0.057861328125, -0.317626953125, 
326, 3286494759, 0.48907580971717834, -0.437458336353302, -0.09655764698982239, -0.7484174370765686, 11.29093074798584, -4.943246364593506, 5.383524417877197, 46.04304504394531, 159.89112854003906, -2.0646986961364746, -0.83544921875, 0.0556640625, -0.3408203125, 
327, 3286503092, 0.49167048931121826, -0.4268917143344879, -0.09356242418289185, -0.7531843781471252, 11.221643447875977, -4.882229804992676, 5.194732189178467, 49.0323371887207, 160.32823181152344, -1.5008646249771118, -0.822998046875, 0.050537109375, -0.360107421875, 
328, 3286511425, 0.49428611993789673, -0.41616976261138916, -0.0906248465180397, -0.7578179836273193, 10.906636238098145, -4.601377010345459, 5.079470157623291, 50.917503356933594, 160.44119262695312, -0.9651814103126526, -0.817626953125, 0.045654296875, -0.38134765625, 
329, 3286519758, 0.4968963861465454, -0.4054260849952698, -0.08768926560878754, -0.7622673511505127, 10.595796585083008, -4.407307147979736, 5.065685272216797, 51.34185028076172, 159.94174194335938, 0.24111275374889374, -0.808837890625, 0.044921875, -0.40087890625, 
330, 3286528091, 0.49936649203300476, -0.39473292231559753, -0.08444566279649734, -0.7666192650794983, 10.642895698547363, -4.153425216674805, 5.037092208862305, 47.065006256103516, 160.4837188720703, 1.1669363975524902, -0.80029296875, 0.0390625, -0.419189453125, 
331, 3286536424, 0.5015870332717896, -0.384187251329422, -0.08084316551685333, -0.7709035277366638, 10.563982009887695, -3.8934245109558105, 5.015913486480713, 41.03015899658203, 161.05772399902344, 1.1673458814620972, -0.788330078125, 0.033935546875, -0.440673828125, 
332, 3286544757, 0.5035653114318848, -0.3737817108631134, -0.07686281204223633, -0.7751249074935913, 10.04914665222168, -3.807471752166748, 5.024683475494385, 34.828636169433594, 161.28750610351562, 1.1481856107711792, -0.77978515625, 0.0322265625, -0.46044921875, 
333, 3286553090, 0.5053305625915527, -0.3635949194431305, -0.07254127413034439, -0.7792270183563232, 9.432035446166992, -3.69559383392334, 4.8698577880859375, 28.728912353515625, 160.76956176757812, 1.725389838218689, -0.77099609375, 0.02880859375, -0.4775390625, 
334, 3286561423, 0.5069448351860046, -0.35364219546318054, -0.06797295063734055, -0.783160924911499, 9.056761741638184, -3.67684006690979, 4.809919834136963, 23.853235244750977, 158.73204040527344, 2.6979575157165527, -0.758544921875, 0.024169921875, -0.49609375, 
335, 3286569756, 0.5084400773048401, -0.34395891427993774, -0.06327921152114868, -0.7868887782096863, 8.899112701416016, -3.7364206314086914, 4.829143524169922, 20.255434036254883, 155.8427734375, 3.759918451309204, -0.74609375, 0.02294921875, -0.5146484375, 
336, 3286578089, 0.5098954439163208, -0.33445897698402405, -0.058543749153614044, -0.7904009819030762, 8.831268310546875, -3.8142552375793457, 5.1214799880981445, 18.520326614379883, 152.8758087158203, 5.150183200836182, -0.73388671875, 0.02099609375, -0.53173828125, 
337, 3286586422, 0.5113050937652588, -0.325056254863739, -0.053868409246206284, -0.7937385439872742, 8.669149398803711, -3.9166605472564697, 5.19595193862915, 18.422183990478516, 150.77883911132812, 5.722438335418701, -0.72607421875, 0.02099609375, -0.54931640625, 
338, 3286594755, 0.5126749277114868, -0.3156481683254242, -0.049231939017772675, -0.7969467043876648, 8.3071928024292, -3.948359251022339, 5.062018394470215, 18.813854217529297, 149.769775390625, 5.970644474029541, -0.711181640625, 0.017333984375, -0.56640625, 
339, 3286603088, 0.5140279531478882, -0.306270956993103, -0.04467165097594261, -0.7999967932701111, 7.7515058517456055, -3.817631721496582, 4.784448146820068, 19.45283317565918, 148.3823699951172, 6.640263080596924, -0.69970703125, 0.01513671875, -0.580078125, 
340, 3286611421, 0.5154146552085876, -0.29692813754081726, -0.04033627733588219, -0.8028521537780762, 7.2791666984558105, -3.810842275619507, 4.400835037231445, 21.97138786315918, 145.46343994140625, 7.4082136154174805, -0.678466796875, 0.01416015625, -0.596435546875, 
341, 3286619754, 0.5168601870536804, -0.28765732049942017, -0.03645322099328041, -0.8054796457290649, 6.908432960510254, -4.042623519897461, 4.249955177307129, 26.79676628112793, 140.71530151367188, 7.918784141540527, -0.673828125, 0.0107421875, -0.609619140625, 
342, 3286628087, 0.5184465646743774, -0.27838000655174255, -0.033318422734737396, -0.8078519701957703, 6.56426477432251, -4.3134284019470215, 4.243213653564453, 35.8603630065918, 134.4098663330078, 8.273360252380371, -0.66259765625, 0.008056640625, -0.626953125, 
343, 3286636420, 0.5202093720436096, -0.26908430457115173, -0.031069457530975342, -0.8099554181098938, 6.311733245849609, -4.3469319343566895, 4.526736736297607, 46.585784912109375, 127.47137451171875, 8.806421279907227, -0.649658203125, 0.006103515625, -0.637939453125, 
344, 3286644753, 0.522147536277771, -0.2596384882926941, -0.02963165193796158, -0.8118428587913513, 6.335878849029541, -4.193271636962891, 4.931109428405762, 57.50227737426758, 122.52550506591797, 9.177626609802246, -0.640625, 0.000732421875, -0.650146484375, 
345, 3286653086, 0.524084210395813, -0.2500966191291809, -0.028713803738355637, -0.813621461391449, 6.225533962249756, -3.7008349895477295, 5.107391357421875, 63.96934127807617, 119.56500244140625, 8.110495567321777, -0.626953125, -0.005126953125, -0.662353515625, 
346, 3286661419, 0.5259607434272766, -0.2406311184167862, -0.02797059714794159, -0.8152893781661987, 5.822262287139893, -3.0787289142608643, 5.16445779800415, 65.29597473144531, 116.9837417602539, 7.599479675292969, -0.615478515625, -0.009521484375, -0.674072265625, 
347, 3286669752, 0.527778148651123, -0.23144155740737915, -0.027204055339097977, -0.8167999982833862, 5.4808878898620605, -2.592109441757202, 5.3715949058532715, 62.817108154296875, 113.58010864257812, 8.32124137878418, -0.60693359375, -0.016357421875, -0.682861328125, 
348, 3286678085, 0.5294831991195679, -0.22260692715644836, -0.026108067482709885, -0.8181865215301514, 5.414653301239014, -2.3007121086120605, 5.409364223480225, 56.326507568359375, 111.5059585571289, 9.076786041259766, -0.596435546875, -0.02294921875, -0.695068359375, 
349, 3286686418, 0.5309974551200867, -0.21414366364479065, -0.0246724896132946, -0.8195074796676636, 5.364267826080322, -2.157238006591797, 5.442823886871338, 49.143882751464844, 109.57171630859375, 8.645886421203613, -0.580322265625, -0.027587890625, -0.704833984375, 
350, 3286694751, 0.5323657393455505, -0.2060335874557495, -0.02293216809630394, -0.8207483291625977, 5.095104694366455, -2.161942481994629, 5.60001277923584, 42.83523941040039, 107.5126953125, 8.544215202331543, -0.5712890625, -0.032958984375, -0.713134765625, 
351, 3286703084, 0.5336098670959473, -0.19828052818775177, -0.02088373899459839, -0.8219040036201477, 4.812079429626465, -2.115645170211792, 5.70820426940918, 36.31087875366211, 105.4775390625, 8.80998420715332, -0.562744140625, -0.0380859375, -0.721923828125, 
352, 3286711417, 0.5347532033920288, -0.190853089094162, -0.01859576255083084, -0.8229735493659973, 4.668926239013672, -2.0716540813446045, 5.894092559814453, 31.07973861694336, 103.29279327392578, 8.99396800994873, -0.55126953125, -0.03955078125, -0.73046875, 
353, 3286719750, 0.5358301401138306, -0.18371905386447906, -0.016191966831684113, -0.8239468336105347, 4.385098934173584, -2.0856945514678955, 6.239599227905273, 27.346786499023438, 100.55196380615234, 9.385298728942871, -0.533935546875, -0.044921875, -0.73779296875, 
354, 3286728083, 0.5369850993156433, -0.17680378258228302, -0.013805270195007324, -0.8247507810592651, 4.115356922149658, -2.366870880126953, 6.7358503341674805, 26.286102294921875, 97.55644989013672, 11.468134880065918, -0.529296875, -0.044921875, -0.748046875, 
355, 3286736416, 0.5382155179977417, -0.1699226200580597, -0.011464767158031464, -0.8254309892654419, 4.0568413734436035, -2.696226119995117, 7.0584845542907715, 26.64237403869629, 96.52202606201172, 13.186786651611328, -0.517822265625, -0.048828125, -0.755126953125, 
356, 3286744749, 0.5394138097763062, -0.16304072737693787, -0.009124517440795898, -0.8260654807090759, 3.98336124420166, -2.6355602741241455, 7.028297424316406, 26.71453094482422, 96.45152282714844, 13.104386329650879, -0.508544921875, -0.0517578125, -0.765869140625, 
357, 3286753082, 0.5406526327133179, -0.1561392992734909, -0.006936226040124893, -0.8266100883483887, 3.7804224491119385, -2.3373448848724365, 7.135519027709961, 28.55699920654297, 95.31644439697266, 13.94284725189209, -0.4990234375, -0.052490234375, -0.770751953125, 
358, 3286761415, 0.5419830679893494, -0.1491784304380417, -0.005043677985668182, -0.827038049697876, 3.7060611248016357, -2.336920976638794, 7.220788478851318, 32.70868682861328, 93.5971908569336, 15.158944129943848, -0.483154296875, -0.05517578125, -0.77783203125, 
359, 3286769748, 0.5432561635971069, -0.14215342700481415, -0.003521241247653961, -0.827447772026062, 3.521038055419922, -2.3689699172973633, 7.109136581420898, 37.13937759399414, 91.47996520996094, 13.931217193603516, -0.4775390625, -0.058837890625, -0.7822265625, 
360, 3286778081, 0.544444739818573, -0.1350066363811493, -0.0025709234178066254, -0.8278669118881226, 2.872145652770996, -2.258211374282837, 7.104780673980713, 44.54521179199219, 88.6667251586914, 11.724379539489746, -0.467041015625, -0.06298828125, -0.792236328125, 
361, 3286786414, 0.5455842018127441, -0.127803236246109, -0.002086292952299118, -0.8282613158226013, 2.4208598136901855, -1.9606164693832397, 7.264774799346924, 50.028568267822266, 85.71587371826172, 10.534150123596191, -0.4580078125, -0.068603515625, -0.794677734375, 
362, 3286794747, 0.5466976761817932, -0.12062671780586243, -0.0020703542977571487, -0.8286032676696777, 2.356867790222168, -1.6468678712844849, 7.6278581619262695, 55.28065872192383, 81.86759185791016, 9.76008129119873, -0.44580078125, -0.072998046875, -0.802978515625, 
363, 3286803080, 0.5477806329727173, -0.1134413480758667, -0.0024488624185323715, -0.8289018869400024, 2.512053966522217, -1.6372196674346924, 8.00997257232666, 59.6314811706543, 78.86390686035156, 9.132808685302734, -0.438720703125, -0.0810546875, -0.807373046875, 
364, 3286811413, 0.5487481355667114, -0.10630114376544952, -0.0029677264392375946, -0.8292065262794495, 2.6500418186187744, -1.5770235061645508, 8.215849876403809, 60.87600326538086, 77.36866760253906, 7.5062642097473145, -0.42919921875, -0.087158203125, -0.812744140625, 
365, 3286819746, 0.5496532917022705, -0.09912297874689102, -0.003579096868634224, -0.8294939398765564, 2.6577341556549072, -1.289297103881836, 8.526397705078125, 61.9627799987793, 77.00415802001953, 6.835934638977051, -0.4208984375, -0.09326171875, -0.816162109375, 
366, 3286828079, 0.5504825115203857, -0.09198270738124847, -0.004103170707821846, -0.8297639489173889, 2.5423316955566406, -1.0259921550750732, 8.61742115020752, 60.747005462646484, 77.28191375732422, 6.17597770690918, -0.412353515625, -0.1025390625, -0.817626953125, 
367, 3286836412, 0.5512365698814392, -0.08488666266202927, -0.004369473084807396, -0.8300182223320007, 2.418773889541626, -0.7701122760772705, 8.705876350402832, 57.206932067871094, 78.627685546875, 5.811483383178711, -0.40283203125, -0.107177734375, -0.823974609375, 
368, 3286844745, 0.5519241094589233, -0.07786783576011658, -0.004241885617375374, -0.8302499651908875, 2.384866714477539, -0.5697424411773682, 8.645532608032227, 52.21858215332031, 80.78722381591797, 5.643758773803711, -0.39404296875, -0.11376953125, -0.8271484375, 
369, 3286853078, 0.5524537563323975, -0.07093724608421326, -0.003582160919904709, -0.8305218815803528, 2.2907140254974365, -0.3819112479686737, 8.29444694519043, 45.13394546508789, 83.76656341552734, 4.1551995277404785, -0.385986328125, -0.119873046875, -0.83154296875, 
370, 3286861411, 0.5528032183647156, -0.06426040083169937, -0.002425340935587883, -0.830837070941925, 1.9172921180725098, -0.24494478106498718, 7.942521572113037, 37.517887115478516, 84.77205657958984, 2.226790428161621, -0.375732421875, -0.12646484375, -0.83642578125, 
371, 3286869744, 0.5529720187187195, -0.057811394333839417, -0.0012477543205022812, -0.8312010169029236, 1.609202265739441, -0.4966464042663574, 7.869884967803955, 35.219749450683594, 82.2695541381836, -0.14324863255023956, -0.363525390625, -0.1279296875, -0.842041015625, 
372, 3286878077, 0.5530920624732971, -0.0515238381922245, 0.0001462167128920555, -0.8315355181694031, 1.551023006439209, -0.7756875157356262, 7.5606889724731445, 31.646217346191406, 82.1474609375, -0.3382510244846344, -0.357666015625, -0.13525390625, -0.845703125, 
373, 3286886410, 0.5531027317047119, -0.04536084085702896, 0.0013411110267043114, -0.8318862318992615, 1.295945167541504, -0.8626019954681396, 7.632352828979492, 32.73167037963867, 79.11880493164062, -1.8167654275894165, -0.33935546875, -0.137939453125, -0.84765625, 
374, 3286894743, 0.5531067848205566, -0.03918498754501343, 0.0022884923964738846, -0.8321954011917114, 1.1892540454864502, -0.8765504360198975, 7.862162113189697, 35.826271057128906, 77.46288299560547, -1.7652291059494019, -0.332763671875, -0.143798828125, -0.85009765625, 
375, 3286903076, 0.5530741214752197, -0.03304189443588257, 0.0031866012141108513, -0.8324807286262512, 0.941624104976654, -0.7197492122650146, 7.573437213897705, 35.950294494628906, 76.59659576416016, -1.9960402250289917, -0.323486328125, -0.14794921875, -0.85302734375, 
376, 3286911409, 0.5529030561447144, -0.026974478736519814, 0.004019054118543863, -0.8328093886375427, 0.6853892803192139, -0.5464450120925903, 7.16423225402832, 36.23729705810547, 75.36688995361328, -3.9766476154327393, -0.31884765625, -0.155517578125, -0.85986328125, 
377, 3286919742, 0.552708625793457, -0.021012814715504646, 0.004702739417552948, -0.833106517791748, 0.36721232533454895, -0.5555680990219116, 6.8123908042907715, 36.954872131347656, 72.90238189697266, -4.032203674316406, -0.306396484375, -0.156005859375, -0.863525390625, 
378, 3286928075, 0.5524791479110718, -0.015226693823933601, 0.005237713921815157, -0.8333814144134521, 0.22052451968193054, -0.601021945476532, 6.468528747558594, 37.48685073852539, 69.8700942993164, -4.350641250610352, -0.2998046875, -0.164306640625, -0.865478515625, 
379, 3286936408, 0.5521575212478638, -0.00956160668283701, 0.00556942680850625, -0.8336766362190247, 0.27651309967041016, -0.6979708671569824, 6.021914958953857, 38.704002380371094, 66.83694458007812, -5.580538272857666, -0.289306640625, -0.16796875, -0.867431640625, 
380, 3286944741, 0.5518300533294678, -0.004092009738087654, 0.005787696689367294, -0.8339366912841797, 0.38583776354789734, -0.71385657787323, 5.525544166564941, 38.69458770751953, 63.84330368041992, -5.44193696975708, -0.28076171875, -0.174072265625, -0.870849609375, 
381, 3286953074, 0.5515136122703552, 0.0011375203030183911, 0.005903944838792086, -0.834154486656189, 0.474761039018631, -0.6225760579109192, 5.273208141326904, 37.86321258544922, 60.200740814208984, -4.9894328117370605, -0.27099609375, -0.17724609375, -0.86865234375, 
382, 3286961407, 0.5512266755104065, 0.00601751497015357, 0.006105185952037573, -0.8343216180801392, 0.4219057261943817, -0.4270203113555908, 5.101491928100586, 34.414730072021484, 56.94729995727539, -4.324122428894043, -0.268798828125, -0.183837890625, -0.87109375, 
383, 3286969740, 0.550990879535675, 0.010486608371138573, 0.006471704691648483, -0.834430456161499, 0.12001287937164307, -0.08421270549297333, 5.0740227699279785, 29.2120304107666, 53.37226867675781, -3.3149919509887695, -0.255859375, -0.188232421875, -0.871826171875, 
384, 3286978073, 0.5508824586868286, 0.014423416927456856, 0.006994063965976238, -0.8344390988349915, -0.23223429918289185, 0.24604852497577667, 5.387115001678467, 23.54581642150879, 48.56709289550781, -1.1901298761367798, -0.246826171875, -0.19189453125, -0.876708984375, 
385, 3286986406, 0.5509265661239624, 0.017830723896622658, 0.007779233157634735, -0.8343372344970703, -0.37802568078041077, 0.4047410786151886, 5.704065799713135, 16.295806884765625, 44.371116638183594, 1.320672631263733, -0.248291015625, -0.193603515625, -0.873291015625, 
386, 3286994739, 0.551054835319519, 0.020673755556344986, 0.008930652402341366, -0.8341752290725708, -0.5942674875259399, 0.42477041482925415, 6.022000312805176, 7.972032070159912, 40.79288101196289, 2.5656280517578125, -0.23974609375, -0.194580078125, -0.878173828125, 
387, 3287003072, 0.5512403845787048, 0.023030754178762436, 0.010358237661421299, -0.8339743614196777, -0.8941363096237183, 0.27275583148002625, 6.294910907745361, 0.9192959666252136, 37.1981315612793, 3.405160427093506, -0.23681640625, -0.196044921875, -0.881591796875, 
388, 3287011405, 0.5514596700668335, 0.024921970441937447, 0.012000219896435738, -0.8337529301643372, -1.0179173946380615, -0.01757500320672989, 6.453333854675293, -4.906373023986816, 33.593666076660156, 3.7907824516296387, -0.230712890625, -0.19775390625, -0.88232421875, 
389, 3287019738, 0.5516881942749023, 0.0264800563454628, 0.013584587723016739, -0.8335294723510742, -0.9076379537582397, -0.2833782136440277, 6.587912082672119, -6.9527201652526855, 29.227251052856445, 3.8992841243743896, -0.226318359375, -0.194580078125, -0.880859375, 
390, 3287028071, 0.5519005060195923, 0.02780880406498909, 0.01497611589729786, -0.8333218097686768, -0.5987052321434021, -0.30522528290748596, 6.744212627410889, -6.295431137084961, 25.237821578979492, 3.6017470359802246, -0.224853515625, -0.194580078125, -0.88427734375, 
391, 3287036404, 0.5520781874656677, 0.029072320088744164, 0.01612641103565693, -0.8331394195556641, -0.43278223276138306, -0.16435031592845917, 7.038844585418701, -4.186047077178955, 22.55168342590332, 3.110466241836548, -0.221923828125, -0.1953125, -0.885986328125, 
392, 3287044737, 0.5522270202636719, 0.030295396223664284, 0.01710193231701851, -0.8329777121543884, -0.6307135820388794, -0.014873419888317585, 7.286395072937012, -2.2960996627807617, 20.862905502319336, 2.66644287109375, -0.218017578125, -0.19287109375, -0.884521484375, 
393, 3287053070, 0.5523766279220581, 0.031533852219581604, 0.017809346318244934, -0.832817792892456, -1.0296223163604736, -0.08375575393438339, 7.333621978759766, 0.7150983214378357, 18.898441314697266, 2.795077085494995, -0.216552734375, -0.193603515625, -0.886474609375, 
394, 3287061403, 0.5525354146957397, 0.032829008996486664, 0.018102165311574936, -0.8326561450958252, -1.287540078163147, -0.16175974905490875, 7.517297744750977, 6.066681861877441, 16.49748992919922, 3.0893592834472656, -0.21240234375, -0.193603515625, -0.8876953125, 
395, 3287069736, 0.5527029037475586, 0.03424999490380287, 0.017985869199037552, -0.8324902653694153, -1.3911688327789307, -0.1488729864358902, 7.662467956542969, 11.524103164672852, 14.729316711425781, 3.454464912414551, -0.20947265625, -0.193359375, -0.88720703125, 
396, 3287078069, 0.5528372526168823, 0.0357385128736496, 0.017614658921957016, -0.8323463797569275, -1.3573601245880127, 0.03512599319219589, 7.747372627258301, 15.155232429504395, 13.655516624450684, 3.0288074016571045, -0.2099609375, -0.195556640625, -0.88818359375, 
397, 3287086402, 0.5529677867889404, 0.03723837062716484, 0.017141442745923996, -0.8322036862373352, -1.2177457809448242, 0.24454984068870544, 7.711498260498047, 16.233102798461914, 12.917799949645996, 3.0432794094085693, -0.207763671875, -0.198486328125, -0.88720703125, 
398, 3287094735, 0.5531150102615356, 0.03864763677120209, 0.016714856028556824, -0.8320503830909729, -0.8894237875938416, 0.34020212292671204, 7.6417236328125, 15.176566123962402, 12.32219123840332, 3.2567737102508545, -0.205322265625, -0.20068359375, -0.8876953125, 
399, 3287103068, 0.553248405456543, 0.03996274247765541, 0.016416499391198158, -0.8319056630134583, -0.742450475692749, 0.446349561214447, 7.715157985687256, 12.823615074157715, 12.134336471557617, 2.95731782913208, -0.20361328125, -0.204833984375, -0.8876953125, 
400, 3287111401, 0.5533549785614014, 0.04112729802727699, 0.016418270766735077, -0.8317777514457703, -0.9198538064956665, 0.6368289589881897, 7.676487922668457, 8.439738273620605, 12.773923873901367, 2.311659574508667, -0.203857421875, -0.202392578125, -0.8876953125, 
401, 3287119734, 0.5534800887107849, 0.04203255474567413, 0.016790758818387985, -0.8316417336463928, -1.0916231870651245, 0.9796245098114014, 7.6682281494140625, 2.039175033569336, 12.547775268554688, 2.327744960784912, -0.201171875, -0.205810546875, -0.8876953125, 
402, 3287128067, 0.5536832213401794, 0.04261975735425949, 0.0175288375467062, -0.8314613699913025, -0.9027926921844482, 1.1354539394378662, 7.900472164154053, -4.451537609100342, 11.78083324432373, 3.264432191848755, -0.20166015625, -0.20458984375, -0.890625, 
403, 3287136400, 0.5538827180862427, 0.04288049042224884, 0.018788862973451614, -0.8312876224517822, -0.8606559038162231, 1.049638271331787, 8.051370620727539, -13.066657066345215, 11.93736457824707, 2.797254800796509, -0.19677734375, -0.201416015625, -0.89111328125, 
404, 3287144733, 0.5540529489517212, 0.04284074902534485, 0.020585495978593826, -0.8311336040496826, -1.1492265462875366, 0.9252217411994934, 8.041133880615234, -21.310375213623047, 12.66445255279541, 1.9082870483398438, -0.195556640625, -0.199951171875, -0.89208984375, 
405, 3287153066, 0.5541942119598389, 0.042552459985017776, 0.022749966010451317, -0.8309979438781738, -1.436106562614441, 0.7829607129096985, 7.86555814743042, -27.542842864990234, 12.54616928100586, 1.1608123779296875, -0.195068359375, -0.197509765625, -0.890380859375, 
406, 3287161399, 0.5542709827423096, 0.042023152112960815, 0.02514270879328251, -0.8309046030044556, -1.5136526823043823, 0.4759233295917511, 7.509560585021973, -31.785850524902344, 11.599903106689453, -0.11778717488050461, -0.190673828125, -0.193603515625, -0.891845703125, 
407, 3287169732, 0.5542576909065247, 0.041330695152282715, 0.027686771005392075, -0.8308675289154053, -1.5548661947250366, 0.19476523995399475, 7.035847187042236, -34.83994674682617, 10.814650535583496, -1.7076902389526367, -0.1904296875, -0.188232421875, -0.8916015625, 
408, 3287178065, 0.5541492700576782, 0.04057547077536583, 0.0302487313747406, -0.8308875560760498, -1.502199649810791, -0.13387273252010345, 6.556880474090576, -35.2979850769043, 10.303467750549316, -3.272850275039673, -0.19091796875, -0.187255859375, -0.89453125, 
409, 3287186398, 0.5539376735687256, 0.03976057842373848, 0.03278873488306999, -0.8309717774391174, -1.368553638458252, -0.3801116943359375, 5.982775688171387, -35.56439208984375, 9.395362854003906, -4.946434497833252, -0.189453125, -0.1826171875, -0.89599609375, 
410, 3287194731, 0.5536574125289917, 0.03883231058716774, 0.035250354558229446, -0.8311015367507935, -1.2204409837722778, -0.31391653418540955, 5.306164741516113, -35.326820373535156, 7.5684003829956055, -6.090751647949219, -0.181396484375, -0.1767578125, -0.899658203125, 
411, 3287203064, 0.5534310340881348, 0.0377766415476799, 0.03743206709623337, -0.8312057256698608, -1.001765489578247, -0.35535168647766113, 4.723607540130615, -33.2880744934082, 3.9094278812408447, -5.186720848083496, -0.186767578125, -0.17578125, -0.899169921875, 
412, 3287211397, 0.5532327890396118, 0.03647156059741974, 0.039337288588285446, -0.8313078284263611, -0.953850507736206, -0.3842371106147766, 3.9832475185394287, -31.88958740234375, -1.0048857927322388, -4.841287136077881, -0.1845703125, -0.169921875, -0.8974609375, 
413, 3287219730, 0.5531337261199951, 0.0348714217543602, 0.040744226425886154, -0.8313747048377991, -0.9700964093208313, -0.0801004096865654, 3.813852071762085, -28.659313201904297, -8.258970260620117, -3.3408286571502686, -0.1875, -0.16845703125, -0.898193359375, 
414, 3287228063, 0.5531983375549316, 0.03295653313398361, 0.04151243716478348, -0.8313720226287842, -0.9126060009002686, 0.20339174568653107, 4.0958075523376465, -23.717350006103516, -16.723892211914062, -0.8178502917289734, -0.189208984375, -0.16259765625, -0.89892578125, 
415, 3287236396, 0.553282618522644, 0.03067299723625183, 0.041901495307683945, -0.8313838243484497, -1.2039488554000854, 0.3160231113433838, 4.272999286651611, -22.338619232177734, -23.889921188354492, -0.7365251779556274, -0.187744140625, -0.162353515625, -0.900390625, 
416, 3287244729, 0.5533607006072998, 0.028003349900245667, 0.041971877217292786, -0.8314223289489746, -1.6154035329818726, 0.33109575510025024, 4.4503278732299805, -21.46776580810547, -30.693105697631836, -1.104013442993164, -0.1923828125, -0.156005859375, -0.8994140625, 
417, 3287253062, 0.5534868240356445, 0.024900127202272415, 0.041798703372478485, -0.8314459323883057, -1.5372493267059326, 0.3885098695755005, 4.584827899932861, -22.15684700012207, -37.56882858276367, -0.5920355319976807, -0.19580078125, -0.154296875, -0.89794921875, 
418, 3287261395, 0.5535929799079895, 0.021328814327716827, 0.04160516709089279, -0.8314840793609619, -1.0779364109039307, 0.3843689262866974, 4.633581161499023, -25.32916259765625, -43.03608703613281, -1.1990944147109985, -0.201904296875, -0.1513671875, -0.897705078125, 
419, 3287269728, 0.5535911321640015, 0.017344780266284943, 0.04148665815591812, -0.8315839171409607, -0.8686387538909912, 0.30642983317375183, 4.446986198425293, -29.40384864807129, -47.1739501953125, -3.156744956970215, -0.20556640625, -0.14892578125, -0.896728515625, 
420, 3287278061, 0.5534821152687073, 0.012914246879518032, 0.04142063483595848, -0.8317403793334961, -0.8105486631393433, 0.3017842471599579, 4.210402011871338, -33.21054458618164, -51.80293273925781, -5.086658954620361, -0.211669921875, -0.145263671875, -0.893798828125, 
421, 3287286394, 0.5533181428909302, 0.008076620288193226, 0.04123551771044731, -0.8319196105003357, -0.6266517639160156, 0.22221049666404724, 4.224034786224365, -35.05764389038086, -57.36858367919922, -6.0928449630737305, -0.21728515625, -0.140869140625, -0.893310546875, 
422, 3287294727, 0.553101658821106, 0.0028370190411806107, 0.040790509432554245, -0.8321198225021362, -0.27893027663230896, 0.03151379153132439, 4.441722393035889, -34.99639129638672, -63.89023208618164, -7.059379577636719, -0.225341796875, -0.13671875, -0.892333984375, 
423, 3287303060, 0.5528326034545898, -0.002638762816786766, 0.03997400775551796, -0.8323389887809753, 0.04821094125509262, -0.2389676570892334, 4.797102451324463, -32.6595344543457, -69.41767120361328, -7.9154157638549805, -0.23291015625, -0.132568359375, -0.890625, 
424, 3287311393, 0.552520751953125, -0.008238653652369976, 0.03878752887248993, -0.8325655460357666, -0.008390605449676514, -0.5579665899276733, 5.236008167266846, -29.237672805786133, -73.59745788574219, -8.554498672485352, -0.241943359375, -0.126953125, -0.888671875, 
425, 3287319726, 0.5522357225418091, -0.013885951600968838, 0.0370965413749218, -0.832756757736206, -0.12654529511928558, -0.9867002367973328, 5.604650974273682, -23.964679718017578, -78.02064514160156, -8.050716400146484, -0.2529296875, -0.123779296875, -0.885009765625, 
426, 3287328059, 0.5519968271255493, -0.01955285109579563, 0.0348404236137867, -0.832898736000061, 0.04584437608718872, -1.3573073148727417, 5.913396835327148, -17.530426025390625, -82.53890991210938, -7.279444217681885, -0.261474609375, -0.12353515625, -0.882080078125, 
427, 3287336392, 0.5517740249633789, -0.025212690234184265, 0.03212650492787361, -0.8330034017562866, 0.372800350189209, -1.3877232074737549, 6.020335674285889, -12.375226974487305, -85.98258209228516, -6.918078899383545, -0.27197265625, -0.12060546875, -0.87548828125, 
428, 3287344725, 0.55153888463974, -0.03092450648546219, 0.029180536046624184, -0.8330751657485962, 0.6755966544151306, -1.1277400255203247, 5.970517158508301, -9.994142532348633, -88.3118896484375, -6.931862831115723, -0.281982421875, -0.118408203125, -0.8740234375, 
429, 3287353058, 0.5512880682945251, -0.036782264709472656, 0.026094621047377586, -0.8331055045127869, 0.9376938939094543, -0.7683190107345581, 6.079427719116211, -9.658623695373535, -91.08848571777344, -6.895876884460449, -0.292724609375, -0.119873046875, -0.870849609375, 
430, 3287361391, 0.5510175228118896, -0.04292050004005432, 0.022983692586421967, -0.8330823183059692, 1.1572550535202026, -0.7864323854446411, 6.16526460647583, -11.388601303100586, -94.47273254394531, -6.852975845336914, -0.30322265625, -0.115234375, -0.8681640625, 
431, 3287369724, 0.5506992340087891, -0.04942400008440018, 0.019956015050411224, -0.8330104947090149, 1.4573802947998047, -0.7617811560630798, 6.529176235198975, -15.291254997253418, -98.07931518554688, -7.074828147888184, -0.314208984375, -0.1123046875, -0.863525390625, 
432, 3287378057, 0.5503880977630615, -0.056246161460876465, 0.016943246126174927, -0.8328499794006348, 1.79096519947052, -0.8505339026451111, 7.215409278869629, -17.755735397338867, -101.63358306884766, -6.424583911895752, -0.32177734375, -0.11279296875, -0.854736328125, 
433, 3287386390, 0.5500013828277588, -0.06333829462528229, 0.01408262737095356, -0.8326495289802551, 1.9534945487976074, -1.0231049060821533, 7.994374752044678, -21.748836517333984, -103.63101196289062, -6.906779766082764, -0.3408203125, -0.109375, -0.85302734375, 
434, 3287394723, 0.5495342016220093, -0.0706605464220047, 0.011453764513134956, -0.8324092626571655, 1.9266606569290161, -1.160713791847229, 8.466139793395996, -26.08266830444336, -104.47631072998047, -7.399785995483398, -0.35205078125, -0.10791015625, -0.845947265625, 
435, 3287403056, 0.5490302443504333, -0.07815857231616974, 0.009109370410442352, -0.8321004509925842, 2.0645525455474854, -1.2068307399749756, 8.798063278198242, -30.850605010986328, -104.45631408691406, -7.024943828582764, -0.364990234375, -0.10595703125, -0.83935546875, 
436, 3287411389, 0.5484799146652222, -0.08579843491315842, 0.0070985183119773865, -0.83173006772995, 2.419752359390259, -1.292441487312317, 8.871886253356934, -35.657630920410156, -103.55645751953125, -6.782759666442871, -0.377197265625, -0.10009765625, -0.8349609375, 
437, 3287419722, 0.5478372573852539, -0.09349541366100311, 0.005496645346283913, -0.8313362002372742, 2.6516971588134766, -1.4417974948883057, 8.681577682495117, -41.01554489135742, -101.20844268798828, -7.153323650360107, -0.3857421875, -0.094970703125, -0.828125, 
438, 3287428055, 0.5470870733261108, -0.10127663612365723, 0.004407675936818123, -0.8309250473976135, 2.7132010459899902, -1.5144699811935425, 7.997996807098389, -47.51366424560547, -98.244384765625, -7.634313583374023, -0.399169921875, -0.08935546875, -0.822998046875, 
439, 3287436388, 0.5462599992752075, -0.1092090830206871, 0.003717411309480667, -0.8304677605628967, 2.949967622756958, -1.5380140542984009, 7.177088260650635, -53.45867919921875, -97.10978698730469, -7.581498146057129, -0.408935546875, -0.083984375, -0.819091796875, 
440, 3287444721, 0.545496940612793, -0.11733073741197586, 0.0030992627143859863, -0.8298637866973877, 3.4162673950195312, -1.7616711854934692, 7.233831882476807, -55.469932556152344, -98.86351013183594, -5.6910223960876465, -0.4208984375, -0.080810546875, -0.8134765625, 
441, 3287453054, 0.5448146462440491, -0.1255524605512619, 0.0023597590625286102, -0.8291109204292297, 3.7571675777435303, -2.285935163497925, 7.732832908630371, -54.85573959350586, -101.24848175048828, -3.8130431175231934, -0.43310546875, -0.071044921875, -0.8056640625, 
442, 3287461387, 0.5441429615020752, -0.13378414511680603, 0.0013407468795776367, -0.828266441822052, 3.633465051651001, -2.671809673309326, 8.207268714904785, -51.57823181152344, -103.5071792602539, -3.533665657043457, -0.444091796875, -0.0673828125, -0.80078125, 
443, 3287469720, 0.5435218811035156, -0.14184382557868958, 0.000002291053533554077, -0.827333927154541, 3.4385030269622803, -2.9420018196105957, 8.760849952697754, -46.71223449707031, -104.2085189819336, -2.8368988037109375, -0.4541015625, -0.060791015625, -0.79541015625, 
444, 3287478053, 0.5429656505584717, -0.14979322254657745, -0.001565244048833847, -0.8262959718704224, 3.4584667682647705, -2.9217584133148193, 9.1574125289917, -42.99639892578125, -104.75194549560547, -1.8092693090438843, -0.466552734375, -0.05712890625, -0.784912109375, 
445, 3287486386, 0.5424355268478394, -0.15760692954063416, -0.0032960884273052216, -0.8251849412918091, 3.6424384117126465, -2.7617061138153076, 9.39882755279541, -40.229434967041016, -104.69866180419922, -1.2557646036148071, -0.479248046875, -0.051025390625, -0.777587890625, 
446, 3287494719, 0.5418790578842163, -0.16531820595264435, -0.004998419433832169, -0.824032187461853, 3.861717700958252, -2.7110042572021484, 9.556571006774902, -39.680419921875, -103.28610229492188, -1.2433668375015259, -0.4912109375, -0.045166015625, -0.770263671875, 
