sep=,
PacketCounter,SampleTimeFine,Quat_W,Quat_X,Quat_Y,Quat_Z,Acc_X,Acc_Y,Acc_Z,Gyr_X,Gyr_Y,Gyr_Z,Mag_X,Mag_Y,Mag_Z,
0, 4015473932, 0.8585103750228882, -0.5046162009239197, 0.017534270882606506, 0.08965487778186798, 0, 0, 0, 0, 0, 0, -0.07861328125, 0.787353515625, -0.382568359375, 
1, 4015482265, 0.8581185340881348, -0.5053053498268127, 0.018422819674015045, 0.08934606611728668, -1.4468971490859985, -8.706525802612305, 5.537352085113525, -10.176972389221191, 12.909282684326172, 2.71673583984375, -0.075927734375, 0.79052734375, -0.3857421875, 
2, 4015490598, 0.8577939867973328, -0.5058848857879639, 0.019313469529151917, 0.08899327367544174, -1.4897263050079346, -8.385211944580078, 5.258687973022461, -8.40103530883789, 13.073751449584961, 2.136522054672241, -0.0732421875, 0.7900390625, -0.38720703125, 
3, 4015498931, 0.8575069308280945, -0.506401777267456, 0.02018096297979355, 0.08862748742103577, -1.5613685846328735, -8.125713348388672, 4.992426872253418, -7.4279255867004395, 12.820171356201172, 1.8143465518951416, -0.07080078125, 0.7861328125, -0.384765625, 
4, 4015507264, 0.8572304844856262, -0.5069028735160828, 0.020975232124328613, 0.0882517620921135, -1.5588314533233643, -8.037121772766113, 4.734099864959717, -7.251263618469238, 11.988554000854492, 1.1578278541564941, -0.069091796875, 0.78662109375, -0.38525390625, 
5, 4015515597, 0.8569656610488892, -0.5073878169059753, 0.02165450155735016, 0.08787284791469574, -1.5129280090332031, -7.991154670715332, 4.486959457397461, -7.123704433441162, 10.646238327026367, 0.3264918923377991, -0.067626953125, 0.78662109375, -0.3857421875, 
6, 4015523930, 0.856695830821991, -0.5078791975975037, 0.022226490080356598, 0.08752186596393585, -1.628570318222046, -7.984039306640625, 4.3084001541137695, -7.367717266082764, 9.18295955657959, -0.1047494187951088, -0.067626953125, 0.78466796875, -0.380859375, 
7, 4015532263, 0.8564178943634033, -0.5083901286125183, 0.0226457342505455, 0.08716796338558197, -1.751930832862854, -7.90880823135376, 4.123241424560547, -7.840953826904297, 7.443972110748291, -1.1880651712417603, -0.065185546875, 0.78564453125, -0.383056640625, 
8, 4015540596, 0.8561345338821411, -0.5089215040206909, 0.02292756736278534, 0.08677537739276886, -1.830090045928955, -7.849049091339111, 3.9870553016662598, -8.270478248596191, 6.107753276824951, -2.6184921264648438, -0.067138671875, 0.78369140625, -0.38330078125, 
9, 4015548929, 0.8558516502380371, -0.5094487071037292, 0.02312435209751129, 0.08641974627971649, -1.9561409950256348, -7.8200531005859375, 3.9524614810943604, -8.33154296875, 4.8563947677612305, -2.764160394668579, -0.06396484375, 0.78125, -0.380859375, 
10, 4015557262, 0.8555861711502075, -0.5099376440048218, 0.023266874253749847, 0.08612698316574097, -2.0846312046051025, -7.928874492645264, 4.033854007720947, -7.843257427215576, 3.7125911712646484, -2.4269487857818604, -0.06298828125, 0.7822265625, -0.38330078125, 
11, 4015565595, 0.8553802967071533, -0.5103098154067993, 0.023407727479934692, 0.08592663705348969, -2.257814407348633, -8.209985733032227, 4.241266250610352, -6.0808186531066895, 2.895881414413452, -1.3743573427200317, -0.06103515625, 0.77978515625, -0.381591796875, 
12, 4015573928, 0.8553030490875244, -0.5104405879974365, 0.023625142872333527, 0.08585989475250244, -2.4497485160827637, -8.571688652038574, 4.463511943817139, -2.29429292678833, 2.5240654945373535, 0.6503838300704956, -0.0625, 0.78173828125, -0.381591796875, 
13, 4015582261, 0.8554137945175171, -0.5102307200431824, 0.0238819420337677, 0.08593336492776871, -2.5828723907470703, -9.086225509643555, 4.67118501663208, 3.0329947471618652, 1.5466259717941284, 2.4732465744018555, -0.05908203125, 0.783447265625, -0.383544921875, 
14, 4015590594, 0.8557156324386597, -0.5096599459648132, 0.024240732192993164, 0.08621467649936676, -2.7254180908203125, -9.498528480529785, 4.805615425109863, 8.672430038452148, 0.7917744517326355, 5.517344951629639, -0.0615234375, 0.779296875, -0.38232421875, 
15, 4015598927, 0.8562076091766357, -0.5087448358535767, 0.02464110404253006, 0.0866202861070633, -2.7306997776031494, -9.705741882324219, 4.683619499206543, 14.065176963806152, -0.05906643718481064, 7.167108058929443, -0.057861328125, 0.776123046875, -0.38623046875, 
16, 4015607260, 0.856797456741333, -0.507646918296814, 0.02500051259994507, 0.08712518960237503, -2.772064447402954, -9.508964538574219, 4.466436386108398, 16.818300247192383, -1.490108609199524, 7.988864898681641, -0.057373046875, 0.77392578125, -0.3857421875, 
17, 4015615593, 0.8574073910713196, -0.5065140128135681, 0.02527415007352829, 0.08763580024242401, -2.770601272583008, -9.107246398925781, 4.25227165222168, 17.270261764526367, -2.588191032409668, 7.447661399841309, -0.056884765625, 0.774658203125, -0.38818359375, 
18, 4015623926, 0.8579926490783691, -0.5054202079772949, 0.025503642857074738, 0.08815537393093109, -2.852267265319824, -8.683164596557617, 4.1958699226379395, 16.5766658782959, -3.116292953491211, 7.25958776473999, -0.055908203125, 0.773681640625, -0.3935546875, 
19, 4015632259, 0.8585873246192932, -0.5043125748634338, 0.025648407638072968, 0.08866699039936066, -2.8718175888061523, -8.421245574951172, 4.283473968505859, 16.71065330505371, -4.086252689361572, 6.571461200714111, -0.0517578125, 0.767822265625, -0.39013671875, 
20, 4015640592, 0.8592454791069031, -0.5031081438064575, 0.02576829493045807, 0.08909792453050613, -2.8143470287323, -8.19737434387207, 4.523535251617432, 18.287673950195312, -3.955671548843384, 5.400712013244629, -0.053955078125, 0.77392578125, -0.39599609375, 
21, 4015648925, 0.860034167766571, -0.5017297863960266, 0.025656893849372864, 0.08929228037595749, -2.353562593460083, -8.21299934387207, 4.7865729331970215, 21.052244186401367, -5.320706367492676, 0.9044134020805359, -0.056396484375, 0.772705078125, -0.3974609375, 
22, 4015657258, 0.8608849048614502, -0.5002867579460144, 0.025326460599899292, 0.08928657323122025, -1.995267391204834, -8.204590797424316, 4.852198123931885, 22.0406494140625, -6.621808052062988, -3.0212388038635254, -0.052001953125, 0.7734375, -0.40087890625, 
23, 4015665591, 0.8617252707481384, -0.49887147545814514, 0.024862587451934814, 0.08922776579856873, -1.9148542881011963, -8.341492652893066, 4.936519145965576, 21.500394821166992, -7.809822082519531, -4.571413040161133, -0.054931640625, 0.76953125, -0.401123046875, 
24, 4015673924, 0.8625474572181702, -0.4974999725818634, 0.024336814880371094, 0.08908580243587494, -1.8060472011566162, -8.405984878540039, 5.049301624298096, 20.80386734008789, -7.902060031890869, -5.969310760498047, -0.056396484375, 0.77099609375, -0.403076171875, 
25, 4015682257, 0.863332986831665, -0.4962034523487091, 0.02386324107646942, 0.08883559703826904, -1.549863576889038, -8.292855262756348, 5.239147186279297, 19.77052116394043, -6.4514851570129395, -6.8818817138671875, -0.055908203125, 0.7685546875, -0.408447265625, 
26, 4015690590, 0.8640316724777222, -0.49505671858787537, 0.02349039912223816, 0.08853955566883087, -1.2504066228866577, -8.079404830932617, 5.398165225982666, 17.530784606933594, -4.717963695526123, -6.676019668579102, -0.057373046875, 0.76904296875, -0.408935546875, 
27, 4015698923, 0.8645904064178467, -0.4941437840461731, 0.023219235241413116, 0.08825717866420746, -1.037440538406372, -7.9930524826049805, 5.461049556732178, 13.923683166503906, -3.284027099609375, -5.735207557678223, -0.059326171875, 0.76904296875, -0.40966796875, 
28, 4015707256, 0.8650068640708923, -0.49346792697906494, 0.023037739098072052, 0.08800439536571503, -0.8977757692337036, -8.02105712890625, 5.4947357177734375, 10.23461627960205, -2.0751631259918213, -4.665709972381592, -0.059814453125, 0.767578125, -0.40966796875, 
29, 4015715589, 0.8653051257133484, -0.49299517273902893, 0.022920332849025726, 0.08775252103805542, -0.8099136352539062, -8.105947494506836, 5.388498783111572, 7.096155643463135, -1.0471354722976685, -4.1514787673950195, -0.061279296875, 0.762939453125, -0.41015625, 
30, 4015723922, 0.8654775619506836, -0.49273496866226196, 0.022873319685459137, 0.08752624690532684, -0.7345107793807983, -8.09801959991455, 5.320425987243652, 3.7878973484039307, -0.07507532089948654, -3.275932788848877, -0.060791015625, 0.76708984375, -0.41357421875, 
31, 4015732255, 0.865519106388092, -0.49269425868988037, 0.022924691438674927, 0.08732959628105164, -0.683309018611908, -8.070998191833496, 5.273597717285156, 0.3998766243457794, 1.1919711828231812, -2.177953004837036, -0.059814453125, 0.76611328125, -0.41162109375, 
32, 4015740588, 0.8654325008392334, -0.49286726117134094, 0.023070618510246277, 0.08717526495456696, -0.6489788293838501, -8.12950325012207, 5.224249839782715, -2.914425849914551, 2.336069345474243, -0.9375449419021606, -0.062255859375, 0.764892578125, -0.41015625, 
33, 4015748921, 0.8652454614639282, -0.49320685863494873, 0.02327384054660797, 0.08705451339483261, -0.694433867931366, -8.215558052062988, 5.178301811218262, -5.518011093139648, 3.017049551010132, -0.08915034681558609, -0.060302734375, 0.763427734375, -0.4091796875, 
34, 4015757254, 0.8649991154670715, -0.4936470091342926, 0.023504674434661865, 0.08694662153720856, -0.7595728635787964, -8.275611877441406, 5.187138557434082, -7.087255477905273, 3.402275323867798, 0.296062171459198, -0.061279296875, 0.764892578125, -0.41162109375, 
35, 4015765587, 0.8647148013114929, -0.494143009185791, 0.023721978068351746, 0.08689847588539124, -0.7783775925636292, -8.3074951171875, 5.175564765930176, -8.047224998474121, 2.9110195636749268, 0.9370071887969971, -0.06005859375, 0.77001953125, -0.41455078125, 
36, 4015773920, 0.8644035458564758, -0.4946794807910919, 0.0239284485578537, 0.08688662946224213, -0.7888252139091492, -8.31591796875, 5.166828155517578, -8.734404563903809, 2.5971686840057373, 1.3199657201766968, -0.059326171875, 0.767578125, -0.40966796875, 
37, 4015782253, 0.8640798330307007, -0.4952329695224762, 0.024102315306663513, 0.08690373599529266, -0.8645502924919128, -8.3416166305542, 5.128061771392822, -9.071526527404785, 2.0330278873443604, 1.4475630521774292, -0.057373046875, 0.767578125, -0.41162109375, 
38, 4015790586, 0.8637292385101318, -0.49582767486572266, 0.024268709123134613, 0.0869506299495697, -0.9562718272209167, -8.336122512817383, 5.0489091873168945, -9.76315975189209, 1.8023200035095215, 1.7728893756866455, -0.059814453125, 0.767333984375, -0.40771484375, 
39, 4015798919, 0.8633238673210144, -0.4965113401412964, 0.02444329857826233, 0.08702878654003143, -1.0127267837524414, -8.317384719848633, 4.97145414352417, -11.19391918182373, 1.810542345046997, 2.231665849685669, -0.060302734375, 0.76953125, -0.40673828125, 
40, 4015807252, 0.8628861904144287, -0.49724823236465454, 0.0246090367436409, 0.08711400628089905, -1.096570611000061, -8.34091567993164, 4.976299285888672, -12.05625057220459, 1.733520269393921, 2.28043532371521, -0.059814453125, 0.76953125, -0.40869140625, 
41, 4015815585, 0.8624235391616821, -0.4980255961418152, 0.024768337607383728, 0.08721040189266205, -1.1780617237091064, -8.408556938171387, 4.972775936126709, -12.722081184387207, 1.6353284120559692, 2.38144588470459, -0.059326171875, 0.77099609375, -0.406494140625, 
42, 4015823918, 0.8619338870048523, -0.4988490045070648, 0.02491980791091919, 0.0873030573129654, -1.2381645441055298, -8.38570499420166, 4.993536472320557, -13.460050582885742, 1.6341499090194702, 2.3040390014648438, -0.057373046875, 0.765869140625, -0.402587890625, 
43, 4015832251, 0.8614198565483093, -0.49971330165863037, 0.02504631131887436, 0.08739742636680603, -1.2746875286102295, -8.39321231842041, 4.986237525939941, -14.14462947845459, 1.3845263719558716, 2.163788318634033, -0.058837890625, 0.770263671875, -0.402587890625, 
44, 4015840584, 0.8608986735343933, -0.5005887746810913, 0.025113865733146667, 0.08750328421592712, -1.3512675762176514, -8.532267570495605, 4.865182399749756, -14.397647857666016, 0.6226052641868591, 1.9040087461471558, -0.059814453125, 0.770751953125, -0.400146484375, 
45, 4015848917, 0.8603730201721191, -0.5014751553535461, 0.025124147534370422, 0.08759387582540512, -1.3663763999938965, -8.633683204650879, 4.74421501159668, -14.624499320983887, 0.06304944306612015, 1.3267533779144287, -0.056640625, 0.765625, -0.394287109375, 
46, 4015857250, 0.8599139451980591, -0.5022439360618591, 0.025056496262550354, 0.08771611750125885, -1.3782292604446411, -8.61514949798584, 4.770273208618164, -12.875227928161621, -1.2396267652511597, 1.128268837928772, -0.057861328125, 0.772705078125, -0.397705078125, 
47, 4015865583, 0.8595224618911743, -0.5028901100158691, 0.024875588715076447, 0.08790376782417297, -1.4704800844192505, -8.600446701049805, 4.879338264465332, -11.120318412780762, -3.2051351070404053, 1.0758363008499146, -0.05859375, 0.774169921875, -0.39697265625, 
48, 4015873916, 0.8591445088386536, -0.5035038590431213, 0.024594426155090332, 0.08816362172365189, -1.513321876525879, -8.59251880645752, 5.003325939178467, -10.788127899169922, -4.930100440979004, 1.235643744468689, -0.058837890625, 0.772216796875, -0.394775390625, 
49, 4015882249, 0.8587504625320435, -0.5041424632072449, 0.02425502985715866, 0.08844541013240814, -1.4429967403411865, -8.534339904785156, 4.915826320648193, -11.272058486938477, -5.736129283905029, 1.0964303016662598, -0.058349609375, 0.773681640625, -0.39306640625, 
50, 4015890582, 0.8583222031593323, -0.5048483610153198, 0.023927435278892517, 0.08866462111473083, -1.4567885398864746, -8.458069801330566, 4.792168617248535, -12.267311096191406, -5.06825065612793, 0.4634127616882324, -0.057373046875, 0.771728515625, -0.39208984375, 
51, 4015898915, 0.8578892350196838, -0.5055671334266663, 0.02362331748008728, 0.08884091675281525, -1.5150203704833984, -8.433012962341309, 4.753706932067871, -12.408843040466309, -4.480340003967285, 0.11937515437602997, -0.05859375, 0.775634765625, -0.39111328125, 
52, 4015907248, 0.8574779033660889, -0.5062490105628967, 0.023261509835720062, 0.08902658522129059, -1.6432528495788574, -8.553258895874023, 4.851823329925537, -11.899556159973145, -5.27340841293335, -0.1843969076871872, -0.06005859375, 0.774658203125, -0.392578125, 
53, 4015915581, 0.8570094108581543, -0.5070149898529053, 0.022810541093349457, 0.08929227292537689, -1.678390622138977, -8.708301544189453, 5.098698139190674, -13.422219276428223, -6.763004302978516, 0.17839036881923676, -0.0595703125, 0.776123046875, -0.39208984375, 
54, 4015923914, 0.8564237952232361, -0.5079712271690369, 0.022307835519313812, 0.08960277587175369, -1.6385442018508911, -8.553706169128418, 5.3215155601501465, -16.55853271484375, -7.412633419036865, 0.43345701694488525, -0.060302734375, 0.77490234375, -0.38623046875, 
55, 4015932247, 0.855749785900116, -0.5090826153755188, 0.021810047328472137, 0.08985674381256104, -1.5050256252288818, -8.202853202819824, 5.485418796539307, -18.979923248291016, -6.744870185852051, -0.14279940724372864, -0.058837890625, 0.770263671875, -0.3818359375, 
56, 4015940580, 0.8550186157226562, -0.5102922320365906, 0.02131977677345276, 0.09007404744625092, -1.527396321296692, -8.022913932800293, 5.696187973022461, -20.516679763793945, -6.258047580718994, -0.4733256697654724, -0.060302734375, 0.770263671875, -0.37939453125, 
57, 4015948913, 0.8542060256004333, -0.5116353631019592, 0.0208720862865448, 0.09026838839054108, -1.7435165643692017, -8.095719337463379, 5.734761714935303, -22.602628707885742, -5.409421920776367, -0.3903355002403259, -0.05908203125, 0.77783203125, -0.382080078125, 
58, 4015957246, 0.8533239960670471, -0.5131012797355652, 0.02044520527124405, 0.09038906544446945, -1.9099055528640747, -8.259896278381348, 5.63381814956665, -24.479793548583984, -4.471940517425537, -1.0514137744903564, -0.061767578125, 0.774658203125, -0.37548828125, 
59, 4015965579, 0.8523876070976257, -0.5146713256835938, 0.019985593855381012, 0.09040306508541107, -1.9867472648620605, -8.347309112548828, 5.5695576667785645, -26.104511260986328, -3.9618589878082275, -2.504075050354004, -0.06298828125, 0.779541015625, -0.373291015625, 
60, 4015973912, 0.8513836860656738, -0.516357958316803, 0.019480466842651367, 0.09035462141036987, -1.994901180267334, -8.389599800109863, 5.679885387420654, -27.98119354248047, -3.8860156536102295, -3.49826717376709, -0.06494140625, 0.779541015625, -0.373779296875, 
61, 4015982245, 0.8502253293991089, -0.5183021426200867, 0.018939197063446045, 0.09024445712566376, -1.9780452251434326, -8.385144233703613, 5.724137306213379, -32.133548736572266, -3.5102808475494385, -4.367435455322266, -0.06689453125, 0.78271484375, -0.368896484375, 
62, 4015990578, 0.8488667011260986, -0.5205773115158081, 0.018449172377586365, 0.09004037827253342, -1.872376561164856, -8.349798202514648, 5.682302474975586, -37.330848693847656, -1.7791670560836792, -4.924548625946045, -0.06494140625, 0.784423828125, -0.366943359375, 
63, 4015998911, 0.8473472595214844, -0.5231091976165771, 0.017976313829421997, 0.08977452665567398, -1.8859295845031738, -8.13852310180664, 5.578537940979004, -41.45473861694336, -0.7762789726257324, -5.4057769775390625, -0.06787109375, 0.78466796875, -0.361572265625, 
64, 4016007244, 0.8457305431365967, -0.5258073210716248, 0.017409496009349823, 0.08936876803636551, -1.791375756263733, -8.096386909484863, 5.456647872924805, -44.159976959228516, -0.636245846748352, -7.615086555480957, -0.066650390625, 0.78759765625, -0.3544921875, 
65, 4016015577, 0.8441173434257507, -0.5285019278526306, 0.0167800635099411, 0.08884194493293762, -1.749517560005188, -8.09593391418457, 5.369483947753906, -44.15774154663086, -0.49269068241119385, -9.498441696166992, -0.072021484375, 0.7861328125, -0.3515625, 
66, 4016023910, 0.8431537747383118, -0.5301287770271301, 0.016579285264015198, 0.08833567053079605, -2.503016471862793, -7.75268030166626, 5.572625160217285, -26.50667953491211, 2.878491163253784, -6.673255443572998, -0.071044921875, 0.78857421875, -0.34765625, 
67, 4016032243, 0.8430439829826355, -0.5303460955619812, 0.01642368733882904, 0.0881071612238884, -2.873922348022461, -8.338699340820312, 5.505470275878906, -3.972102165222168, -0.5261164307594299, -3.8630881309509277, -0.076171875, 0.782958984375, -0.345947265625, 
68, 4016040576, 0.8435682654380798, -0.5295493006706238, 0.0162762850522995, 0.08790965378284454, -2.41351056098938, -9.42651081085205, 5.094017028808594, 12.437183380126953, -2.033130168914795, -3.9587316513061523, -0.077880859375, 0.785888671875, -0.346923828125, 
69, 4016048909, 0.844834566116333, -0.5276274085044861, 0.016014501452445984, 0.08735255151987076, -1.7057429552078247, -8.963273048400879, 5.161929130554199, 30.806589126586914, -2.263327121734619, -9.635981559753418, -0.076416015625, 0.78466796875, -0.351318359375, 
70, 4016057242, 0.8465825319290161, -0.5249776840209961, 0.01567968726158142, 0.08645033836364746, -1.5994757413864136, -7.781421661376953, 5.38837194442749, 42.768768310546875, -1.5931826829910278, -14.567224502563477, -0.080322265625, 0.783447265625, -0.35546875, 
71, 4016065575, 0.8485389947891235, -0.5219885110855103, 0.01517399400472641, 0.08545327186584473, -1.7875396013259888, -7.070558071136475, 5.52326774597168, 48.01546096801758, -3.3410003185272217, -17.108501434326172, -0.087158203125, 0.77734375, -0.356689453125, 
72, 4016073908, 0.8504713177680969, -0.5190339684486389, 0.014520063996315002, 0.08434860408306122, -1.791745901107788, -7.119974613189697, 5.6803202629089355, 47.31599426269531, -4.257505893707275, -19.378700256347656, -0.090576171875, 0.776611328125, -0.3671875, 
73, 4016082241, 0.8522679805755615, -0.516292929649353, 0.013828292489051819, 0.08314236253499985, -1.6731334924697876, -7.165231704711914, 5.6340203285217285, 43.79273223876953, -3.693068027496338, -20.753000259399414, -0.09375, 0.775634765625, -0.37255859375, 
74, 4016090574, 0.8538854718208313, -0.5138548612594604, 0.012991242110729218, 0.08177338540554047, -1.6256601810455322, -6.892828464508057, 5.5023369789123535, 38.86927795410156, -3.8666298389434814, -23.511762619018555, -0.098388671875, 0.7705078125, -0.376953125, 
75, 4016098907, 0.8552021384239197, -0.5119404792785645, 0.011994175612926483, 0.08015811443328857, -1.5869724750518799, -6.605834007263184, 5.26658296585083, 30.421113967895508, -3.3545987606048584, -27.327329635620117, -0.10302734375, 0.767578125, -0.382568359375, 
76, 4016107240, 0.8560972213745117, -0.510728120803833, 0.011010251939296722, 0.0784611850976944, -1.586755633354187, -6.524760723114014, 5.133700370788574, 19.26160430908203, -1.7905395030975342, -27.80953025817871, -0.10791015625, 0.765869140625, -0.386962890625, 
77, 4016115573, 0.8565943837165833, -0.5101889967918396, 0.009963423013687134, 0.07666081190109253, -1.449552059173584, -7.144226551055908, 4.959142684936523, 8.447388648986816, -1.0071011781692505, -29.181293487548828, -0.11474609375, 0.763671875, -0.388671875, 
78, 4016123906, 0.8567886352539062, -0.5101414918899536, 0.00898464024066925, 0.07490765303373337, -1.409490942955017, -8.296751022338867, 4.826486587524414, 0.6391139626502991, 0.011641677469015121, -27.855165481567383, -0.1220703125, 0.75732421875, -0.386962890625, 
79, 4016132239, 0.856852650642395, -0.5103087425231934, 0.007949374616146088, 0.07313235104084015, -1.3281859159469604, -9.42355728149414, 4.725630760192871, -2.903324604034424, -0.24856072664260864, -28.44890594482422, -0.127685546875, 0.759521484375, -0.3935546875, 
80, 4016140572, 0.8568834662437439, -0.5105409622192383, 0.006950683891773224, 0.07122820615768433, -1.106638789176941, -10.038813591003418, 4.753305435180664, -3.8081984519958496, 1.1425366401672363, -29.639917373657227, -0.131591796875, 0.759765625, -0.393310546875, 
81, 4016148905, 0.857026994228363, -0.5105454325675964, 0.006116747856140137, 0.06952380388975143, -1.3276546001434326, -10.178038597106934, 4.8340840339660645, -0.23349951207637787, 1.454799771308899, -26.259368896484375, -0.137939453125, 0.756591796875, -0.394775390625, 
82, 4016157238, 0.857417643070221, -0.5101272463798523, 0.005372591316699982, 0.06781692057847977, -1.2387311458587646, -10.231266975402832, 4.940370082855225, 6.613650798797607, 2.0998051166534424, -25.818408966064453, -0.1455078125, 0.7548828125, -0.396728515625, 
83, 4016165571, 0.8581547737121582, -0.509109377861023, 0.004766404628753662, 0.06616915762424469, -1.1435458660125732, -9.847949028015137, 5.071154594421387, 16.197160720825195, 2.7301595211029053, -24.474445343017578, -0.15234375, 0.752197265625, -0.39892578125, 
84, 4016173904, 0.8591803312301636, -0.50758296251297, 0.004362471401691437, 0.06459502130746841, -1.1646701097488403, -9.195667266845703, 5.198355197906494, 24.435659408569336, 4.116173267364502, -22.376747131347656, -0.15625, 0.74853515625, -0.3984375, 
85, 4016182237, 0.8604758381843567, -0.5055832862854004, 0.004075288772583008, 0.06303302198648453, -1.180444598197937, -8.828157424926758, 5.1538543701171875, 31.975543975830078, 4.978055953979492, -21.672603607177734, -0.162109375, 0.748046875, -0.405517578125, 
86, 4016190570, 0.861991822719574, -0.5032026171684265, 0.0038336291909217834, 0.06136526167392731, -1.0425820350646973, -8.677290916442871, 5.061492919921875, 38.10078048706055, 5.905192852020264, -22.735248565673828, -0.1669921875, 0.74560546875, -0.41015625, 
87, 4016198903, 0.8636415600776672, -0.5005741119384766, 0.003648027777671814, 0.059651896357536316, -1.0917798280715942, -8.39774227142334, 4.96403694152832, 41.975887298583984, 6.669947147369385, -23.03083038330078, -0.1708984375, 0.742919921875, -0.413330078125, 
88, 4016207236, 0.8653406500816345, -0.4978468716144562, 0.0034971460700035095, 0.05783257633447647, -1.1038702726364136, -8.111461639404297, 4.832574844360352, 43.561370849609375, 7.728435039520264, -24.042089462280273, -0.177978515625, 0.741943359375, -0.4189453125, 
89, 4016215569, 0.8670321702957153, -0.49511420726776123, 0.0033452287316322327, 0.0559350922703743, -1.0326805114746094, -7.908801078796387, 4.712800979614258, 43.53578186035156, 8.24443531036377, -25.017303466796875, -0.184326171875, 0.7333984375, -0.42578125, 
90, 4016223902, 0.8686631321907043, -0.49246689677238464, 0.0031128451228141785, 0.05397992581129074, -0.9693602919578552, -8.15671157836914, 4.563043117523193, 42.0872688293457, 7.747542381286621, -26.165536880493164, -0.187744140625, 0.7333984375, -0.4296875, 
91, 4016232235, 0.8701384663581848, -0.49006789922714233, 0.002784326672554016, 0.05203346163034439, -0.7514261603355408, -8.746920585632324, 4.37514591217041, 37.95710754394531, 6.731062889099121, -26.654199600219727, -0.195068359375, 0.731201171875, -0.4375, 
92, 4016240568, 0.8714444637298584, -0.48794254660606384, 0.0023420751094818115, 0.05014106631278992, -0.5889341831207275, -8.918265342712402, 4.288094997406006, 33.49467849731445, 5.2087273597717285, -26.61577033996582, -0.19970703125, 0.729736328125, -0.44091796875, 
93, 4016248901, 0.8725597858428955, -0.48613327741622925, 0.0017811283469200134, 0.048310451209545135, -0.48147714138031006, -8.466435432434082, 4.29568338394165, 28.307954788208008, 3.5916457176208496, -26.597780227661133, -0.20556640625, 0.7265625, -0.444091796875, 
94, 4016257234, 0.8734973073005676, -0.48461833596229553, 0.001086600124835968, 0.046577729284763336, -0.37003207206726074, -7.854950904846191, 4.240773677825928, 23.53434181213379, 1.5396602153778076, -26.15876579284668, -0.21435546875, 0.723876953125, -0.4453125, 
95, 4016265567, 0.8743162155151367, -0.4832872450351715, 0.0003233999013900757, 0.045024216175079346, -0.2034972608089447, -7.477929592132568, 4.231084823608398, 20.455650329589844, -0.3667321503162384, -24.435863494873047, -0.21923828125, 0.7197265625, -0.445556640625, 
96, 4016273900, 0.8750486373901367, -0.4820891320705414, -0.0004193335771560669, 0.043618060648441315, -0.040048372000455856, -7.435758113861084, 4.3027873039245605, 18.327110290527344, -1.010968804359436, -22.429271697998047, -0.22265625, 0.71826171875, -0.451171875, 
97, 4016282233, 0.8757185339927673, -0.4809799790382385, -0.001133754849433899, 0.04239094257354736, 0.07039414346218109, -7.653563499450684, 4.3740692138671875, 16.82682228088379, -1.8110554218292236, -20.093610763549805, -0.23095703125, 0.71435546875, -0.450439453125, 
98, 4016290566, 0.8763136863708496, -0.47997838258743286, -0.0017705932259559631, 0.04141446202993393, 0.1905192732810974, -7.690094947814941, 4.463328838348389, 15.11967945098877, -2.4661779403686523, -16.472814559936523, -0.234619140625, 0.718994140625, -0.457763671875, 
99, 4016298899, 0.8767904043197632, -0.47917377948760986, -0.0022944658994674683, 0.04060542583465576, 0.2323748618364334, -7.281851291656494, 4.46437406539917, 12.00206470489502, -2.1089870929718018, -13.67952823638916, -0.24072265625, 0.71728515625, -0.4599609375, 
100, 4016307232, 0.8771113753318787, -0.4786522388458252, -0.0027849897742271423, 0.03978431969881058, 0.23581010103225708, -6.941651344299316, 4.418989181518555, 7.610656261444092, -1.4669402837753296, -13.467007637023926, -0.24755859375, 0.715576171875, -0.460693359375, 
101, 4016315565, 0.8772815465927124, -0.4784100353717804, -0.0032959729433059692, 0.03889986127614975, 0.3284389078617096, -6.910766124725342, 4.247387886047363, 3.2068898677825928, -1.1550227403640747, -14.313542366027832, -0.2509765625, 0.716064453125, -0.46435546875, 
102, 4016323898, 0.8772956728935242, -0.4784577786922455, -0.0038291364908218384, 0.03793496638536453, 0.5049334764480591, -7.066003799438477, 3.9399383068084717, -1.3044308423995972, -0.7394062280654907, -15.292853355407715, -0.257080078125, 0.716796875, -0.4638671875, 
103, 4016332231, 0.8771812319755554, -0.47874361276626587, -0.004399843513965607, 0.03689716011285782, 0.6612796783447266, -7.365944862365723, 3.426903009414673, -5.075295448303223, -0.5998983979225159, -16.3770694732666, -0.261962890625, 0.7158203125, -0.465087890625, 
104, 4016340564, 0.8769444227218628, -0.4792509377002716, -0.005029864609241486, 0.03584570437669754, 0.8984381556510925, -7.889410018920898, 2.8561320304870605, -8.553325653076172, -1.1157180070877075, -16.819169998168945, -0.27099609375, 0.715087890625, -0.46435546875, 
105, 4016348897, 0.8765556812286377, -0.48002997040748596, -0.005715601146221161, 0.03480904549360275, 1.2198277711868286, -8.679795265197754, 2.459277391433716, -12.881047248840332, -1.7683053016662598, -16.94828224182129, -0.27587890625, 0.7158203125, -0.466796875, 
106, 4016357230, 0.8760672807693481, -0.48097920417785645, -0.0064217448234558105, 0.03386840969324112, 1.532778024673462, -9.364548683166504, 2.296283721923828, -15.56982135772705, -2.5675973892211914, -15.829550743103027, -0.280029296875, 0.7177734375, -0.46484375, 
107, 4016365563, 0.8754968643188477, -0.48205894231796265, -0.007053829729557037, 0.03313184529542923, 1.8557556867599487, -9.943497657775879, 2.5292088985443115, -17.645639419555664, -2.980050563812256, -12.859209060668945, -0.286376953125, 0.7158203125, -0.462158203125, 
108, 4016373896, 0.8748461604118347, -0.4832659959793091, -0.007311835885047913, 0.032676175236701965, 2.3138880729675293, -11.36755657196045, 3.1700310707092285, -19.499216079711914, -0.2802838981151581, -6.921852111816406, -0.2890625, 0.71875, -0.462158203125, 
109, 4016382229, 0.8744109869003296, -0.48405131697654724, -0.006869271397590637, 0.032795920968055725, 2.711653232574463, -13.568124771118164, 4.291896820068359, -12.624734878540039, 4.144512176513672, 4.500217437744141, -0.294921875, 0.7216796875, -0.46484375, 
110, 4016390562, 0.8741368055343628, -0.4845147132873535, -0.006003722548484802, 0.033427901566028595, 2.8892247676849365, -13.532522201538086, 4.781742095947266, -7.438079357147217, 5.7031636238098145, 13.389511108398438, -0.294921875, 0.716064453125, -0.45703125, 
111, 4016398895, 0.8737930059432983, -0.4850790500640869, -0.00472230464220047, 0.034420959651470184, 2.8342134952545166, -9.997715950012207, 4.8087053298950195, -8.887850761413574, 8.326706886291504, 20.534942626953125, -0.294677734375, 0.72705078125, -0.461669921875, 
112, 4016407228, 0.873185396194458, -0.48610737919807434, -0.003110364079475403, 0.03550098091363907, 2.3865644931793213, -5.58788537979126, 4.552170753479004, -16.067426681518555, 11.92994213104248, 23.945079803466797, -0.291748046875, 0.729248046875, -0.463623046875, 
113, 4016415561, 0.8721804022789001, -0.48784613609313965, -0.00138033926486969, 0.03644903749227524, 2.454838275909424, -6.314323902130127, 4.8133955001831055, -27.19544792175293, 14.556434631347656, 23.375478744506836, -0.288818359375, 0.732177734375, -0.458984375, 
114, 4016423894, 0.8708028793334961, -0.4902200996875763, 0.0002989843487739563, 0.03754577040672302, 1.9985852241516113, -9.23460578918457, 4.124098777770996, -37.341270446777344, 13.265546798706055, 25.016738891601562, -0.28662109375, 0.728759765625, -0.4541015625, 
115, 4016432227, 0.8698235750198364, -0.4918714463710785, 0.0019436776638031006, 0.038582414388656616, 1.221951961517334, -9.050461769104004, 3.4844019412994385, -26.014490127563477, 12.882196426391602, 23.86925506591797, -0.280517578125, 0.73486328125, -0.45361328125, 
116, 4016440560, 0.869394063949585, -0.4925651252269745, 0.0034422501921653748, 0.039302460849285126, 0.9897986650466919, -7.771947383880615, 3.587817430496216, -10.918559074401855, 12.752168655395508, 18.818851470947266, -0.280029296875, 0.7353515625, -0.45361328125, 
117, 4016448893, 0.8693566918373108, -0.49257588386535645, 0.004810042679309845, 0.03984566032886505, 0.9456333518028259, -7.748350143432617, 4.058706760406494, -0.14625732600688934, 12.000235557556152, 15.654848098754883, -0.275390625, 0.735595703125, -0.45458984375, 
118, 4016457226, 0.8695992231369019, -0.49209728837013245, 0.006086111068725586, 0.04029148817062378, 0.7041553258895874, -8.78111743927002, 4.8263373374938965, 7.5430474281311035, 11.274531364440918, 13.73219108581543, -0.27294921875, 0.736328125, -0.45556640625, 
119, 4016465559, 0.8701123595237732, -0.4911341965198517, 0.007342614233493805, 0.040752679109573364, 0.1994059681892395, -9.361398696899414, 5.473136901855469, 15.168564796447754, 10.649417877197266, 13.69279956817627, -0.27099609375, 0.73486328125, -0.45458984375, 
120, 4016473892, 0.8707802891731262, -0.48988598585128784, 0.008611172437667847, 0.04125956445932388, -0.27089962363243103, -9.195809364318848, 5.842590808868408, 19.6142520904541, 10.306726455688477, 14.244353294372559, -0.266845703125, 0.7314453125, -0.4580078125, 
121, 4016482225, 0.8713574409484863, -0.48878663778305054, 0.010032221674919128, 0.0417889729142189, -0.40733808279037476, -8.74366283416748, 5.911505222320557, 17.317806243896484, 12.079334259033203, 15.595939636230469, -0.264892578125, 0.731689453125, -0.46142578125, 
122, 4016490558, 0.8716862797737122, -0.4881227910518646, 0.011587180197238922, 0.04228493571281433, -0.4982806146144867, -8.473285675048828, 5.750295162200928, 10.498523712158203, 14.191021919250488, 16.15753173828125, -0.264892578125, 0.731201171875, -0.46240234375, 
123, 4016498891, 0.8716964721679688, -0.4880182445049286, 0.01323440670967102, 0.04279562085866928, -0.752869725227356, -8.515542984008789, 5.509485721588135, 1.7187929153442383, 15.577329635620117, 17.068180084228516, -0.25830078125, 0.725830078125, -0.460205078125, 
124, 4016507224, 0.871472954750061, -0.4883284568786621, 0.014909811317920685, 0.043257422745227814, -1.0194385051727295, -8.45909595489502, 5.28732967376709, -4.809074401855469, 16.524913787841797, 16.715076446533203, -0.256103515625, 0.73095703125, -0.465087890625, 
125, 4016515557, 0.8712015151977539, -0.4887333810329437, 0.016468726098537445, 0.04358017444610596, -1.0287600755691528, -8.518172264099121, 5.299402236938477, -6.295007705688477, 16.133859634399414, 14.295193672180176, -0.25341796875, 0.72509765625, -0.462646484375, 
126, 4016523890, 0.8709432482719421, -0.4891244173049927, 0.01799599826335907, 0.04375321418046951, -1.0141334533691406, -8.392053604125977, 5.348648548126221, -6.035279273986816, 16.746450424194336, 12.263958930969238, -0.2509765625, 0.72802734375, -0.464599609375, 
127, 4016532223, 0.8707870244979858, -0.4893406927585602, 0.019421391189098358, 0.043834246695041656, -1.2345786094665527, -8.304576873779297, 5.480754375457764, -3.285065174102783, 16.01702117919922, 10.477890014648438, -0.24365234375, 0.7314453125, -0.46826171875, 
128, 4016540556, 0.8707351088523865, -0.48938271403312683, 0.020681165158748627, 0.04382216930389404, -1.4330233335494995, -8.268105506896973, 5.5710344314575195, -0.581520140171051, 14.52385139465332, 8.211759567260742, -0.2451171875, 0.728759765625, -0.46630859375, 
129, 4016548889, 0.8707579970359802, -0.48930826783180237, 0.021664179861545563, 0.043724045157432556, -1.589764952659607, -8.235965728759766, 5.677355766296387, 1.1839286088943481, 11.702007293701172, 5.325623035430908, -0.24169921875, 0.72900390625, -0.46875, 
130, 4016557222, 0.8708621859550476, -0.4891062378883362, 0.022379443049430847, 0.043551161885261536, -1.7095091342926025, -8.225175857543945, 5.702734470367432, 3.1099905967712402, 8.894402503967285, 2.6001904010772705, -0.239013671875, 0.728515625, -0.4677734375, 
131, 4016565555, 0.871001124382019, -0.48886632919311523, 0.02280718833208084, 0.043238356709480286, -1.5972412824630737, -8.190652847290039, 5.64804220199585, 3.6750917434692383, 6.362076282501221, -1.0044364929199219, -0.236572265625, 0.726806640625, -0.4697265625, 
132, 4016573888, 0.8710851669311523, -0.48872339725494385, 0.02321287989616394, 0.04294521361589432, -1.7625234127044678, -8.140599250793457, 5.59975004196167, 2.118591785430908, 6.036340236663818, -0.9287465214729309, -0.238037109375, 0.725830078125, -0.47119140625, 
133, 4016582221, 0.8711368441581726, -0.4886525571346283, 0.023415617644786835, 0.042590223252773285, -1.6740577220916748, -8.234526634216309, 5.516796588897705, 0.9446402788162231, 4.077005386352539, -3.026296615600586, -0.235595703125, 0.727294921875, -0.47021484375, 
134, 4016590554, 0.8710837364196777, -0.4887655973434448, 0.02360500395298004, 0.04227417707443237, -1.747175693511963, -8.153792381286621, 5.385557651519775, -1.99066162109375, 3.7948126792907715, -2.6578354835510254, -0.23583984375, 0.723388671875, -0.470703125, 
135, 4016598887, 0.8709514141082764, -0.489023894071579, 0.02368135005235672, 0.04197128117084503, -1.6859543323516846, -8.097196578979492, 5.222864151000977, -4.327524662017822, 2.46317982673645, -3.254518985748291, -0.234619140625, 0.724853515625, -0.46923828125, 
136, 4016607220, 0.8707768321037292, -0.4893650412559509, 0.023646272718906403, 0.04163545370101929, -1.4439090490341187, -8.215139389038086, 5.081236362457275, -5.662744045257568, 1.4108449220657349, -4.407774925231934, -0.239013671875, 0.726806640625, -0.4716796875, 
137, 4016615553, 0.8706234693527222, -0.48967480659484863, 0.023528791964054108, 0.04126376658678055, -1.1926519870758057, -8.548479080200195, 4.978238582611084, -5.174332141876221, 0.6409321427345276, -5.388031482696533, -0.23681640625, 0.72314453125, -0.46826171875, 
138, 4016623886, 0.8705637454986572, -0.4898233413696289, 0.02335275709629059, 0.04086240381002426, -1.0807276964187622, -8.78836441040039, 4.877953052520752, -2.642287492752075, 0.016380300745368004, -6.145392417907715, -0.237548828125, 0.724609375, -0.46826171875, 
139, 4016632219, 0.8706104159355164, -0.48978638648986816, 0.023083098232746124, 0.04046013951301575, -1.0510274171829224, -8.693161010742188, 4.829102039337158, 0.2484453022480011, -1.2353235483169556, -6.779550552368164, -0.237060546875, 0.725830078125, -0.47021484375, 
140, 4016640552, 0.8707467317581177, -0.4895922541618347, 0.022720113396644592, 0.04007933288812637, -0.9295362234115601, -8.504939079284668, 4.77294397354126, 2.6691701412200928, -2.614394187927246, -7.157744407653809, -0.241455078125, 0.724609375, -0.46875, 
141, 4016648885, 0.8709536194801331, -0.4892732501029968, 0.02228652685880661, 0.03972053527832031, -0.7519352436065674, -8.418387413024902, 4.783173084259033, 4.600637435913086, -3.700847625732422, -7.364017009735107, -0.241943359375, 0.723876953125, -0.46826171875, 
142, 4016657218, 0.8712310791015625, -0.488822340965271, 0.021848097443580627, 0.03943048417568207, -0.6411575078964233, -8.441473960876465, 4.76861047744751, 6.625084400177002, -4.311798572540283, -6.576020240783691, -0.242919921875, 0.72412109375, -0.469970703125, 
143, 4016665551, 0.8715679049491882, -0.4882584512233734, 0.02143631875514984, 0.039204806089401245, -0.5445114970207214, -8.445523262023926, 4.814515590667725, 8.3799409866333, -4.507901191711426, -5.620250701904297, -0.243408203125, 0.72509765625, -0.4697265625, 
144, 4016673884, 0.8719527125358582, -0.48759913444519043, 0.02103041112422943, 0.03907036781311035, -0.48030710220336914, -8.475366592407227, 4.905337810516357, 9.814979553222656, -5.112397193908691, -4.489996433258057, -0.245361328125, 0.7236328125, -0.472900390625, 
145, 4016682217, 0.8723669648170471, -0.486876904964447, 0.020647145807743073, 0.03903479874134064, -0.4225798547267914, -8.41706371307373, 4.977142333984375, 10.758378028869629, -5.550220966339111, -3.142073154449463, -0.247802734375, 0.722412109375, -0.474365234375, 
146, 4016690550, 0.8728017807006836, -0.4861084520816803, 0.02030046284198761, 0.039073944091796875, -0.40691816806793213, -8.392426490783691, 5.0332841873168945, 11.441354751586914, -5.638487339019775, -2.0063118934631348, -0.245361328125, 0.721435546875, -0.473388671875, 
147, 4016698883, 0.8732550740242004, -0.48529788851737976, 0.02001868188381195, 0.039164647459983826, -0.3805012106895447, -8.291398048400879, 5.0512375831604, 12.09892463684082, -5.234013080596924, -0.9443202018737793, -0.245361328125, 0.718505859375, -0.470458984375, 
148, 4016707216, 0.8737349510192871, -0.48443201184272766, 0.019802972674369812, 0.03929044306278229, -0.41154322028160095, -8.247800827026367, 5.062421798706055, 12.958693504333496, -4.708998680114746, -0.08742140233516693, -0.247802734375, 0.721435546875, -0.47705078125, 
149, 4016715549, 0.8742178678512573, -0.483552485704422, 0.019605904817581177, 0.03948170691728592, -0.40935060381889343, -8.258645057678223, 5.117377758026123, 13.142949104309082, -4.931113243103027, 0.8323091864585876, -0.245849609375, 0.719482421875, -0.4755859375, 
150, 4016723882, 0.8746684789657593, -0.48272761702537537, 0.019431769847869873, 0.039681509137153625, -0.42035937309265137, -8.126609802246094, 5.106385231018066, 12.27330493927002, -4.673112392425537, 1.0820350646972656, -0.246826171875, 0.72021484375, -0.478515625, 
151, 4016732215, 0.8751130700111389, -0.48191002011299133, 0.01929723471403122, 0.03988301008939743, -0.3914048969745636, -8.13772964477539, 5.2166924476623535, 12.17420482635498, -4.204474925994873, 1.374754548072815, -0.244384765625, 0.718017578125, -0.4775390625, 
152, 4016740548, 0.8755258917808533, -0.4811455309391022, 0.019227586686611176, 0.04008728265762329, -0.4203781187534332, -8.17090129852295, 5.329605579376221, 11.352128982543945, -3.401916742324829, 1.835388422012329, -0.246826171875, 0.717529296875, -0.48095703125, 
153, 4016748881, 0.8758862018585205, -0.48047345876693726, 0.01923888921737671, 0.04026958346366882, -0.44467592239379883, -8.140707969665527, 5.412960052490234, 9.95068359375, -2.2178854942321777, 2.1180028915405273, -0.245361328125, 0.7197265625, -0.48046875, 
154, 4016757214, 0.8761531710624695, -0.4799710810184479, 0.0193122997879982, 0.04041702300310135, -0.4485873878002167, -8.04556941986084, 5.424718379974365, 7.324737548828125, -1.119880199432373, 2.106656074523926, -0.245361328125, 0.716796875, -0.48193359375, 
155, 4016765547, 0.8763338327407837, -0.4796273410320282, 0.019443422555923462, 0.04051841050386429, -0.49057236313819885, -7.997482776641846, 5.438501358032227, 4.895623207092285, -0.008875332772731781, 1.9471172094345093, -0.244384765625, 0.71875, -0.4814453125, 
156, 4016773880, 0.8764519691467285, -0.4793998599052429, 0.019610583782196045, 0.040575094521045685, -0.5682685375213623, -8.012027740478516, 5.4646406173706055, 3.1079800128936768, 0.799932599067688, 1.6410785913467407, -0.244873046875, 0.71728515625, -0.48193359375, 
157, 4016782213, 0.8765265941619873, -0.4792531728744507, 0.01982639729976654, 0.0405903086066246, -0.6067530512809753, -8.05273151397705, 5.45798921585083, 1.89136803150177, 1.7180365324020386, 1.4753673076629639, -0.244873046875, 0.71923828125, -0.48193359375, 
158, 4016790546, 0.8765633702278137, -0.47917723655700684, 0.02009570598602295, 0.040559321641922, -0.6232485175132751, -8.092458724975586, 5.417672634124756, 0.8250985741615295, 2.7162489891052246, 1.2625129222869873, -0.245849609375, 0.71630859375, -0.48193359375, 
159, 4016798879, 0.8765692710876465, -0.4791610836982727, 0.020373225212097168, 0.04048498719930649, -0.6813584566116333, -8.128393173217773, 5.3849263191223145, -0.07425566762685776, 3.1462860107421875, 0.8045047521591187, -0.244140625, 0.712158203125, -0.4814453125, 
160, 4016807212, 0.8765497803688049, -0.47919410467147827, 0.020637817680835724, 0.04038216173648834, -0.7096176147460938, -8.139711380004883, 5.337287425994873, -0.8423752784729004, 3.209681272506714, 0.36619389057159424, -0.241455078125, 0.7177734375, -0.48291015625, 
161, 4016815545, 0.8765276670455933, -0.479236364364624, 0.02087659388780594, 0.04023568332195282, -0.7343090176582336, -8.218433380126953, 5.27229642868042, -0.9676802754402161, 3.1925454139709473, -0.3222014904022217, -0.244873046875, 0.716796875, -0.484375, 
162, 4016823878, 0.8765153288841248, -0.47926321625709534, 0.02110542356967926, 0.04006584733724594, -0.7549375295639038, -8.354637145996094, 5.226099967956543, -0.7197855710983276, 3.2143943309783936, -0.6793663501739502, -0.24267578125, 0.71630859375, -0.48193359375, 
163, 4016832211, 0.8765266537666321, -0.47924789786338806, 0.021322377026081085, 0.03988546133041382, -0.7443141341209412, -8.3898286819458, 5.188691139221191, -0.05458392947912216, 3.1127572059631348, -0.8752896189689636, -0.24267578125, 0.71533203125, -0.484375, 
164, 4016840544, 0.8765789866447449, -0.4791591465473175, 0.021514490246772766, 0.039699725806713104, -0.7454527616500854, -8.303793907165527, 5.192352771759033, 1.0835974216461182, 2.7929635047912598, -1.1157561540603638, -0.244140625, 0.71533203125, -0.48095703125, 
165, 4016848877, 0.876663863658905, -0.4790117144584656, 0.021678775548934937, 0.03951359540224075, -0.7373883724212646, -8.274565696716309, 5.21162223815918, 1.9955158233642578, 2.4220950603485107, -1.2923662662506104, -0.2421875, 0.71484375, -0.48388671875, 
166, 4016857210, 0.876759946346283, -0.47884199023246765, 0.021846212446689606, 0.03934294730424881, -0.7323030233383179, -8.26443862915039, 5.238664150238037, 2.331446409225464, 2.34061598777771, -1.0960332155227661, -0.24365234375, 0.71435546875, -0.486328125, 
167, 4016865543, 0.8768612742424011, -0.4786633253097534, 0.022002972662448883, 0.039170533418655396, -0.7464803457260132, -8.262197494506836, 5.23192024230957, 2.4720044136047363, 2.2179365158081055, -1.1770381927490234, -0.24365234375, 0.7158203125, -0.4853515625, 
168, 4016873876, 0.8769866824150085, -0.4784410297870636, 0.022135920822620392, 0.039006784558296204, -0.7445584535598755, -8.218880653381348, 5.280337810516357, 3.1349260807037354, 1.8407669067382812, -1.2385634183883667, -0.2431640625, 0.71533203125, -0.484375, 
169, 4016882209, 0.8771342635154724, -0.47817593812942505, 0.022243209183216095, 0.03887607902288437, -0.7326115965843201, -8.223834037780762, 5.269798755645752, 3.7815444469451904, 1.2860010862350464, -0.998289167881012, -0.2431640625, 0.71533203125, -0.4853515625, 
170, 4016890542, 0.8773115277290344, -0.47785672545433044, 0.022315330803394318, 0.0387597382068634, -0.7055529356002808, -8.218408584594727, 5.258581638336182, 4.598382949829102, 0.729506254196167, -1.0654242038726807, -0.2412109375, 0.7138671875, -0.482421875, 
171, 4016898875, 0.8775050640106201, -0.4775066375732422, 0.02235536277294159, 0.03867153823375702, -0.7040508985519409, -8.188992500305176, 5.237171649932861, 5.058696269989014, 0.13482053577899933, -0.926569402217865, -0.243408203125, 0.71630859375, -0.48779296875, 
172, 4016907208, 0.877720832824707, -0.47711434960365295, 0.022373132407665253, 0.038608208298683167, -0.6945363283157349, -8.12733268737793, 5.235308647155762, 5.687808036804199, -0.3251214921474457, -0.7807219624519348, -0.2421875, 0.7138671875, -0.4873046875, 
173, 4016915541, 0.8779558539390564, -0.4766855239868164, 0.022382542490959167, 0.03855711966753006, -0.6492485404014587, -8.230537414550781, 5.241678714752197, 6.253613471984863, -0.5304324626922607, -0.6773813366889954, -0.2412109375, 0.714599609375, -0.48828125, 
174, 4016923874, 0.8781993389129639, -0.4762389361858368, 0.022393077611923218, 0.03852451592683792, -0.6230323910713196, -8.289311408996582, 5.205755233764648, 6.513545513153076, -0.6519463062286377, -0.45466548204421997, -0.24072265625, 0.71240234375, -0.4873046875, 
175, 4016932207, 0.8784509897232056, -0.4757767915725708, 0.022411197423934937, 0.038484297692775726, -0.6027783155441284, -8.313976287841797, 5.21724271774292, 6.767383098602295, -0.5190596580505371, -0.48665764927864075, -0.2412109375, 0.712890625, -0.48876953125, 
176, 4016940540, 0.8787254691123962, -0.47527238726615906, 0.02240852266550064, 0.03845396637916565, -0.6635510325431824, -8.302420616149902, 5.272387504577637, 7.4053449630737305, -0.8675029873847961, -0.5124640464782715, -0.24072265625, 0.71337890625, -0.48779296875, 
177, 4016948873, 0.879001796245575, -0.47476357221603394, 0.022418484091758728, 0.03841917961835861, -0.6204845905303955, -8.22512435913086, 5.3724799156188965, 7.4867730140686035, -0.6865127682685852, -0.47214728593826294, -0.24267578125, 0.70947265625, -0.487548828125, 
178, 4016957206, 0.8792436122894287, -0.47431543469429016, 0.022451050579547882, 0.03840086609125137, -0.547249436378479, -8.213140487670898, 5.450218200683594, 6.527531623840332, -0.4790758192539215, -0.13799668848514557, -0.24169921875, 0.71044921875, -0.489501953125, 
179, 4016965539, 0.8794333338737488, -0.47396019101142883, 0.022512994706630707, 0.0384061336517334, -0.47617611289024353, -8.208521842956543, 5.541714668273926, 5.081133842468262, -0.21385324001312256, 0.3496471345424652, -0.240234375, 0.711669921875, -0.49072265625, 
180, 4016973872, 0.8795595765113831, -0.47371986508369446, 0.022623717784881592, 0.03841429203748703, -0.39736175537109375, -8.11939811706543, 5.567610740661621, 3.294285535812378, 0.4393226206302643, 0.6890357732772827, -0.24169921875, 0.711669921875, -0.491455078125, 
181, 4016982205, 0.8796210885047913, -0.47359663248062134, 0.02279958873987198, 0.03842199593782425, -0.29056882858276367, -8.040024757385254, 5.494349479675293, 1.4985480308532715, 1.3137155771255493, 1.1180741786956787, -0.24267578125, 0.7119140625, -0.491943359375, 
182, 4016990538, 0.8796132206916809, -0.47359806299209595, 0.023029275238513947, 0.038449741899967194, -0.17760244011878967, -8.043374061584473, 5.474638938903809, -0.44938895106315613, 1.9191209077835083, 1.6960465908050537, -0.2392578125, 0.711181640625, -0.492431640625, 
183, 4016998871, 0.879561722278595, -0.4736727476119995, 0.023368917405605316, 0.038503825664520264, 0.006435813847929239, -8.048699378967285, 5.464569568634033, -1.559612512588501, 3.1335175037384033, 2.7450778484344482, -0.23974609375, 0.713623046875, -0.494140625, 
184, 4017007204, 0.8794813752174377, -0.4737900495529175, 0.023895815014839172, 0.038572460412979126, 0.13946856558322906, -8.07367992401123, 5.502170562744141, -2.1765823364257812, 5.332037925720215, 4.127068042755127, -0.238037109375, 0.70654296875, -0.489013671875, 
185, 4017015537, 0.8795371055603027, -0.47379398345947266, 0.02314179390668869, 0.037701889872550964, 2.20383620262146, -8.875945091247559, 5.639528274536133, -0.28283241391181946, -4.138954162597656, -15.596202850341797, -0.2392578125, 0.709716796875, -0.490234375, 
186, 4017023870, 0.8792179226875305, -0.4744074046611786, 0.02362941950559616, 0.037125974893569946, 1.5761562585830688, -8.20438003540039, 5.270289897918701, -9.554343223571777, 9.387760162353516, -3.957528591156006, -0.23876953125, 0.71142578125, -0.4873046875, 
187, 4017032203, 0.8789191246032715, -0.47496408224105835, 0.024027451872825623, 0.03682254999876022, 0.5312068462371826, -7.692602634429932, 5.46342134475708, -8.862320899963379, 6.500879764556885, -1.2169835567474365, -0.235595703125, 0.708740234375, -0.490234375, 
188, 4017040536, 0.8783968687057495, -0.4759899079799652, 0.024079032242298126, 0.03599584847688675, 2.0360918045043945, -8.16562271118164, 5.126105308532715, -16.00092124938965, 6.033639907836914, -9.868463516235352, -0.236083984375, 0.708251953125, -0.48828125, 
189, 4017048869, 0.8777933716773987, -0.4771304428577423, 0.02451639622449875, 0.03532089293003082, 1.9248803853988647, -8.535384178161621, 5.219696998596191, -17.771392822265625, 9.798331260681152, -5.4807820320129395, -0.234619140625, 0.710693359375, -0.4853515625, 
190, 4017057202, 0.8771438002586365, -0.47834962606430054, 0.025020502507686615, 0.0346066951751709, 1.619917392730713, -8.155157089233398, 5.1970930099487305, -18.98444938659668, 10.900962829589844, -5.549057483673096, -0.235595703125, 0.70654296875, -0.48388671875, 
191, 4017065535, 0.8764811158180237, -0.47958216071128845, 0.025560572743415833, 0.03393479436635971, 1.3051589727401733, -7.923300743103027, 5.3923492431640625, -19.222787857055664, 11.086128234863281, -4.765825271606445, -0.2333984375, 0.70654296875, -0.48193359375, 
192, 4017073868, 0.8757470846176147, -0.4809326231479645, 0.026161201298236847, 0.033311620354652405, 1.6244596242904663, -7.669780731201172, 5.603716850280762, -21.108036041259766, 11.555906295776367, -3.8220555782318115, -0.22900390625, 0.705322265625, -0.481201171875, 
193, 4017082201, 0.874979555606842, -0.48231515288352966, 0.026899412274360657, 0.032900430262088776, 1.4937599897384644, -7.525874137878418, 5.847928047180176, -21.724031448364258, 11.862201690673828, -0.31710439920425415, -0.2275390625, 0.70458984375, -0.478759765625, 
194, 4017090534, 0.8742303252220154, -0.48366230726242065, 0.02764846384525299, 0.032417379319667816, 1.065958857536316, -7.716904640197754, 5.999875068664551, -21.15140151977539, 12.422257423400879, -1.1425491571426392, -0.222412109375, 0.700439453125, -0.478271484375, 
195, 4017098867, 0.8735569715499878, -0.4848712980747223, 0.028338968753814697, 0.03190954029560089, 0.6223215460777283, -8.054736137390137, 6.191461086273193, -19.00146484375, 11.82436752319336, -1.7676132917404175, -0.222900390625, 0.701416015625, -0.477294921875, 
196, 4017107200, 0.8730233907699585, -0.4858250916004181, 0.028993092477321625, 0.03141379356384277, 0.3832223415374756, -8.209683418273926, 6.39694356918335, -15.025468826293945, 11.107476234436035, -1.8715556859970093, -0.21875, 0.697265625, -0.474365234375, 
197, 4017115533, 0.8726480007171631, -0.48650336265563965, 0.029558904469013214, 0.030813857913017273, 0.29618072509765625, -8.189237594604492, 6.647678375244141, -10.659442901611328, 10.597878456115723, -3.6276423931121826, -0.2158203125, 0.695068359375, -0.474853515625, 
198, 4017123866, 0.8724254369735718, -0.4869216978549957, 0.030080363154411316, 0.029994241893291473, 0.21652759611606598, -8.020050048828125, 6.776695251464844, -6.446309566497803, 11.32780647277832, -6.560497283935547, -0.212158203125, 0.693115234375, -0.47412109375, 
199, 4017132199, 0.872348427772522, -0.48709139227867126, 0.030599981546401978, 0.028934307396411896, 0.060474593192338943, -7.7536845207214355, 7.061836242675781, -2.394239664077759, 12.79196834564209, -9.370405197143555, -0.2080078125, 0.688720703125, -0.47412109375, 
200, 4017140532, 0.8724304437637329, -0.4869830012321472, 0.031114988029003143, 0.02771482616662979, -0.19782428443431854, -7.612445831298828, 7.560418128967285, 2.0751376152038574, 13.58758544921875, -11.304574966430664, -0.20849609375, 0.685791015625, -0.477294921875, 
201, 4017148865, 0.872637152671814, -0.48665833473205566, 0.03171967715024948, 0.02617238461971283, -0.27510806918144226, -7.4637861251831055, 7.891330242156982, 5.667100429534912, 16.73724365234375, -14.492220878601074, -0.203857421875, 0.67822265625, -0.474853515625, 
202, 4017157198, 0.8729281425476074, -0.4861888587474823, 0.03245101124048233, 0.024228282272815704, -0.2752514183521271, -7.267360687255859, 7.951416492462158, 8.201005935668945, 20.808570861816406, -18.4741268157959, -0.19921875, 0.674560546875, -0.478759765625, 
203, 4017165531, 0.8733429312705994, -0.48549315333366394, 0.033360838890075684, 0.021881215274333954, -0.3958062529563904, -7.134242534637451, 7.824942111968994, 11.960465431213379, 25.565814971923828, -22.015230178833008, -0.197998046875, 0.66650390625, -0.477294921875, 
204, 4017173864, 0.8738371729850769, -0.48464271426200867, 0.03446623682975769, 0.019115015864372253, -0.6891260743141174, -6.913572311401367, 7.54357385635376, 14.62435531616211, 30.57951545715332, -25.739913940429688, -0.197265625, 0.662353515625, -0.484375, 
205, 4017182197, 0.8743835091590881, -0.48367881774902344, 0.03575114905834198, 0.01591755449771881, -1.0106213092803955, -6.574188232421875, 7.357400894165039, 16.5540771484375, 35.61600112915039, -29.646883010864258, -0.192626953125, 0.655517578125, -0.4873046875, 
206, 4017190530, 0.8749532103538513, -0.4826439917087555, 0.037189558148384094, 0.012329310178756714, -1.2582067251205444, -6.207577705383301, 7.3238654136657715, 17.819869995117188, 39.972862243652344, -33.33292770385742, -0.192626953125, 0.639404296875, -0.486083984375, 
207, 4017198863, 0.875431478023529, -0.48173460364341736, 0.038801275193691254, 0.008319646120071411, -1.461942434310913, -5.803361892700195, 7.488252639770508, 15.907344818115234, 44.98725128173828, -37.27041244506836, -0.188720703125, 0.63671875, -0.4931640625, 
208, 4017207196, 0.875644326210022, -0.481251060962677, 0.04065070301294327, 0.003908693790435791, -1.7095600366592407, -5.425363540649414, 7.667722702026367, 9.30467414855957, 50.635318756103516, -40.75332260131836, -0.1884765625, 0.630859375, -0.49560546875, 
209, 4017215529, 0.8754664063453674, -0.481408953666687, 0.042736418545246124, -0.000854790210723877, -2.049516201019287, -5.432028770446777, 7.762781143188477, -0.8458753228187561, 56.134735107421875, -43.7506217956543, -0.188232421875, 0.622802734375, -0.499267578125, 
210, 4017223862, 0.8747889995574951, -0.48239028453826904, 0.04507476091384888, -0.005930081009864807, -2.442302942276001, -5.881462097167969, 7.720334053039551, -13.834474563598633, 61.454833984375, -46.34441375732422, -0.18310546875, 0.612548828125, -0.502685546875, 
211, 4017232195, 0.8736159801483154, -0.4841645658016205, 0.04769650101661682, -0.011322021484375, -2.820660352706909, -6.60094690322876, 7.4806809425354, -26.55215072631836, 67.28242492675781, -48.7913703918457, -0.18408203125, 0.6025390625, -0.501953125, 
212, 4017240528, 0.8720639944076538, -0.48649927973747253, 0.05057891458272934, -0.016970187425613403, -3.100351333618164, -7.380034923553467, 7.156515121459961, -35.61733627319336, 72.20507049560547, -50.575557708740234, -0.18212890625, 0.59521484375, -0.505126953125, 
213, 4017248861, 0.8703126311302185, -0.4890595078468323, 0.053659990429878235, -0.022816672921180725, -3.3578295707702637, -8.068629264831543, 6.861623287200928, -39.63446044921875, 76.07552337646484, -51.823150634765625, -0.17919921875, 0.585693359375, -0.503662109375, 
214, 4017257194, 0.8685199022293091, -0.4915603697299957, 0.05684313923120499, -0.028879284858703613, -3.5596261024475098, -8.5515718460083, 6.665427207946777, -39.004154205322266, 78.72514343261719, -53.69766616821289, -0.179443359375, 0.57568359375, -0.5009765625, 
215, 4017265527, 0.8668085932731628, -0.4937816262245178, 0.06007944792509079, -0.03516179323196411, -3.700259208679199, -8.65673542022705, 6.432509422302246, -35.04092025756836, 80.96664428710938, -55.71897506713867, -0.1767578125, 0.56787109375, -0.50341796875, 
216, 4017273860, 0.8652286529541016, -0.4956379234790802, 0.06334293633699417, -0.04163619875907898, -3.8104140758514404, -8.502890586853027, 6.168428421020508, -29.574237823486328, 82.58878326416016, -57.45170593261719, -0.175048828125, 0.55224609375, -0.500244140625, 
217, 4017282193, 0.8638188242912292, -0.4970672130584717, 0.06657490134239197, -0.048294201493263245, -3.9582793712615967, -8.297627449035645, 5.8252081871032715, -23.24152183532715, 83.62921905517578, -59.39789962768555, -0.17236328125, 0.541748046875, -0.5, 
218, 4017290526, 0.8625041246414185, -0.498206228017807, 0.06973662227392197, -0.05511271953582764, -4.123694896697998, -8.25149917602539, 5.485678195953369, -18.86432647705078, 83.92994689941406, -61.43777847290039, -0.17333984375, 0.537353515625, -0.505615234375, 
219, 4017298859, 0.8612183332443237, -0.49917054176330566, 0.0728287473320961, -0.06205584108829498, -4.207762718200684, -8.33920955657959, 5.170225143432617, -16.507795333862305, 84.12225341796875, -63.23350143432617, -0.16943359375, 0.526123046875, -0.506103515625, 
220, 4017307192, 0.8598731756210327, -0.5001088976860046, 0.07587501406669617, -0.06910423934459686, -4.215487957000732, -8.506132125854492, 4.949626922607422, -16.37894630432129, 84.32477569580078, -64.78966522216797, -0.174560546875, 0.514892578125, -0.503662109375, 
221, 4017315525, 0.8583499193191528, -0.5012184977531433, 0.0789046362042427, -0.07624076306819916, -4.150163173675537, -8.619760513305664, 4.693456649780273, -19.605432510375977, 84.81092834472656, -66.3353500366211, -0.17138671875, 0.5048828125, -0.507080078125, 
222, 4017323858, 0.8565107583999634, -0.5027250647544861, 0.08204220235347748, -0.08336050808429718, -4.041055202484131, -8.710874557495117, 4.513622760772705, -26.515161514282227, 85.84136962890625, -66.11428833007812, -0.1748046875, 0.490234375, -0.503662109375, 
223, 4017332191, 0.8542841076850891, -0.5047490000724792, 0.08533935993909836, -0.09037311375141144, -3.82025408744812, -8.983616828918457, 4.42856502532959, -35.67505645751953, 86.87335205078125, -64.82965850830078, -0.17431640625, 0.478271484375, -0.504150390625, 
224, 4017340524, 0.8515681028366089, -0.5074397325515747, 0.08886013925075531, -0.0972808301448822, -3.487624406814575, -9.23124885559082, 4.316413402557373, -47.221309661865234, 88.46894836425781, -63.38232421875, -0.178466796875, 0.467041015625, -0.504638671875, 
225, 4017348857, 0.8483921885490417, -0.5107355117797852, 0.09265795350074768, -0.10400818288326263, -3.2286312580108643, -9.393102645874023, 4.089145660400391, -58.188724517822266, 90.24786376953125, -60.75417709350586, -0.180419921875, 0.452880859375, -0.49755859375, 
226, 4017357190, 0.8448672890663147, -0.5144482254981995, 0.09664662927389145, -0.1105663925409317, -3.116978168487549, -9.685269355773926, 3.6310935020446777, -65.910888671875, 91.09423828125, -58.410316467285156, -0.180908203125, 0.4482421875, -0.49658203125, 
227, 4017365523, 0.8411931991577148, -0.5182891488075256, 0.10064003616571426, -0.11689779162406921, -3.2545344829559326, -9.785087585449219, 2.6809864044189453, -68.8423080444336, 89.58523559570312, -56.20720291137695, -0.183349609375, 0.435546875, -0.488525390625, 
228, 4017373856, 0.8377671241760254, -0.5216688513755798, 0.10433042794466019, -0.12307073175907135, -3.440918445587158, -9.868824005126953, 1.5736863613128662, -61.3942756652832, 85.3115005493164, -55.42808151245117, -0.186279296875, 0.428466796875, -0.486328125, 
229, 4017382189, 0.8347555994987488, -0.5243716239929199, 0.10761269927024841, -0.129074826836586, -3.3502118587493896, -9.948503494262695, 0.7912718653678894, -50.24059295654297, 79.98127746582031, -54.816139221191406, -0.19287109375, 0.41796875, -0.480224609375, 
230, 4017390522, 0.8323370218276978, -0.5261825323104858, 0.11038020998239517, -0.13485775887966156, -3.1496989727020264, -9.915943145751953, 0.3357331156730652, -35.07268524169922, 73.1513900756836, -53.53833770751953, -0.196044921875, 0.41357421875, -0.482177734375, 
231, 4017398855, 0.8305489420890808, -0.5270858407020569, 0.11262477934360504, -0.14038541913032532, -2.8630642890930176, -9.90765380859375, 0.018205944448709488, -19.594070434570312, 66.05843353271484, -51.933589935302734, -0.203857421875, 0.403076171875, -0.481201171875, 
232, 4017407188, 0.8293800950050354, -0.5271227955818176, 0.11429718881845474, -0.14570413529872894, -2.5511720180511475, -9.92175579071045, -0.013017145916819572, -4.376983642578125, 58.708229064941406, -51.07741165161133, -0.2119140625, 0.395751953125, -0.47998046875, 
233, 4017415521, 0.8287370204925537, -0.5264548063278198, 0.11537325382232666, -0.15083922445774078, -2.3479762077331543, -9.873719215393066, 0.09435852617025375, 8.34250545501709, 51.17123794555664, -51.23106002807617, -0.22265625, 0.389404296875, -0.47900390625, 
234, 4017423854, 0.8284105062484741, -0.5254002809524536, 0.11598020046949387, -0.15576425194740295, -2.198014497756958, -9.714186668395996, 0.25705966353416443, 15.715460777282715, 44.59480667114258, -50.876251220703125, -0.232421875, 0.383056640625, -0.476806640625, 
235, 4017432187, 0.8281886577606201, -0.5242610573768616, 0.11634986102581024, -0.16043700277805328, -1.796827793121338, -9.524161338806152, 0.36923104524612427, 17.519624710083008, 40.078834533691406, -49.44664764404297, -0.244384765625, 0.37890625, -0.482666015625, 
236, 4017440520, 0.8279317617416382, -0.5232552289962769, 0.11660308390855789, -0.1648029088973999, -1.3990892171859741, -9.363607406616211, 0.49707385897636414, 15.537245750427246, 36.30817794799805, -46.9926872253418, -0.252197265625, 0.375732421875, -0.48486328125, 
237, 4017448853, 0.8275962471961975, -0.5224524140357971, 0.11683929711580276, -0.16881905496120453, -1.1957157850265503, -9.449724197387695, 0.5800079107284546, 12.126799583435059, 33.24850845336914, -43.727210998535156, -0.266357421875, 0.3720703125, -0.484375, 
238, 4017457186, 0.8272053599357605, -0.5218254327774048, 0.11709051579236984, -0.1724604368209839, -1.1075561046600342, -9.759017944335938, 0.552574872970581, 9.102334976196289, 30.422134399414062, -39.67618179321289, -0.27685546875, 0.37353515625, -0.487060546875, 
239, 4017465519, 0.8268553018569946, -0.5212398171424866, 0.11728386580944061, -0.17574793100357056, -0.9258489608764648, -10.021994590759277, 0.48863163590431213, 8.492300033569336, 27.037092208862305, -36.123130798339844, -0.288818359375, 0.37158203125, -0.4892578125, 
240, 4017473852, 0.8266063928604126, -0.5206062197685242, 0.11732576787471771, -0.17874325811862946, -0.6620581150054932, -10.018570899963379, 0.3998580574989319, 9.657772064208984, 23.197349548339844, -33.47672653198242, -0.298583984375, 0.3671875, -0.483642578125, 
241, 4017482185, 0.8265068531036377, -0.5198585391044617, 0.11723916232585907, -0.1814161241054535, -0.32273706793785095, -9.585280418395996, 0.2757551372051239, 11.834726333618164, 19.437501907348633, -30.267202377319336, -0.3125, 0.38134765625, -0.494140625, 
242, 4017490518, 0.8266281485557556, -0.5188820958137512, 0.1170211136341095, -0.18378429114818573, -0.037254706025123596, -9.545721054077148, 0.2310647964477539, 15.833109855651855, 16.01007843017578, -26.736289978027344, -0.321044921875, 0.381591796875, -0.494384765625, 
243, 4017498851, 0.8268919587135315, -0.5178142189979553, 0.11672631651163101, -0.18578627705574036, 0.10446111112833023, -9.834228515625, 0.3357057273387909, 17.524803161621094, 12.48954963684082, -22.699174880981445, -0.329833984375, 0.39013671875, -0.500244140625, 
244, 4017507184, 0.8272383213043213, -0.5167640447616577, 0.11626876145601273, -0.1874469816684723, 0.13447067141532898, -10.022953987121582, 0.597769021987915, 17.749998092651367, 8.068707466125488, -19.710962295532227, -0.338623046875, 0.402587890625, -0.5087890625, 
245, 4017515517, 0.8276322484016418, -0.5157744884490967, 0.11563072353601456, -0.1888231784105301, 0.19365940988063812, -10.289751052856445, 1.0859708786010742, 17.450592041015625, 3.7131056785583496, -17.80887222290039, -0.344482421875, 0.413818359375, -0.51318359375, 
246, 4017523850, 0.8280295133590698, -0.5148788690567017, 0.11489559710025787, -0.1899711638689041, 0.32972773909568787, -10.53672981262207, 1.5205459594726562, 16.25353240966797, 0.7874202132225037, -15.962104797363281, -0.353759765625, 0.42431640625, -0.52099609375, 
247, 4017532183, 0.8284348845481873, -0.5140583515167236, 0.11411873251199722, -0.19089199602603912, 0.5531625151634216, -10.677265167236328, 1.9848747253417969, 15.256548881530762, -1.5581912994384766, -13.843449592590332, -0.3583984375, 0.43798828125, -0.5283203125, 
248, 4017540516, 0.8288981318473816, -0.5132197141647339, 0.1132778525352478, -0.19163742661476135, 0.6657987833023071, -10.60782241821289, 2.265894651412964, 15.713685035705566, -3.5162463188171387, -12.042691230773926, -0.36328125, 0.450439453125, -0.5322265625, 
249, 4017548849, 0.8294757604598999, -0.512245774269104, 0.11235874146223068, -0.1922837793827057, 0.6980500817298889, -10.443076133728027, 2.46726655960083, 18.17586898803711, -4.987183570861816, -11.025177955627441, -0.36474609375, 0.46533203125, -0.538818359375, 
250, 4017557182, 0.8302101492881775, -0.5110946297645569, 0.11131108552217484, -0.19278647005558014, 0.6483443975448608, -10.25671100616455, 2.595304250717163, 21.359695434570312, -7.1814284324646, -9.532917976379395, -0.365234375, 0.47900390625, -0.54541015625, 
251, 4017565515, 0.8309483528137207, -0.509978175163269, 0.11024759709835052, -0.19317284226417542, 0.8689836263656616, -9.830696105957031, 2.6830763816833496, 20.921934127807617, -8.341201782226562, -8.422194480895996, -0.365966796875, 0.49072265625, -0.5498046875, 
252, 4017573848, 0.8316853046417236, -0.5089179277420044, 0.10912966728210449, -0.19343236088752747, 1.1689491271972656, -9.460999488830566, 2.7598955631256104, 20.15437889099121, -9.936022758483887, -7.379694938659668, -0.365966796875, 0.50537109375, -0.554443359375, 
253, 4017582181, 0.8322960734367371, -0.508111834526062, 0.10802598297595978, -0.19354403018951416, 1.3303337097167969, -9.354969024658203, 2.808516263961792, 16.18046760559082, -11.361210823059082, -6.365844249725342, -0.36474609375, 0.514404296875, -0.5576171875, 
254, 4017590514, 0.8327966928482056, -0.5075206160545349, 0.10694611072540283, -0.19354169070720673, 1.427136778831482, -9.292757034301758, 2.8189661502838135, 12.642485618591309, -12.227137565612793, -5.445793151855469, -0.363037109375, 0.531494140625, -0.559814453125, 
255, 4017598847, 0.8332317471504211, -0.5070939064025879, 0.10585271567106247, -0.19338849186897278, 1.4772688150405884, -9.317962646484375, 2.779592752456665, 10.197375297546387, -13.843371391296387, -4.2862868309021, -0.36181640625, 0.540771484375, -0.56591796875, 
256, 4017607180, 0.8336583971977234, -0.5067412257194519, 0.10470239818096161, -0.1931004524230957, 1.5236636400222778, -9.438265800476074, 2.75173282623291, 9.164056777954102, -15.553543090820312, -3.2111928462982178, -0.35546875, 0.563720703125, -0.5732421875, 
257, 4017615513, 0.8341211080551147, -0.5063941478729248, 0.1034514456987381, -0.1926860213279724, 1.613908290863037, -9.594090461730957, 2.878359317779541, 9.524016380310059, -17.726835250854492, -2.423504590988159, -0.3525390625, 0.575439453125, -0.579345703125, 
258, 4017623846, 0.8346750140190125, -0.5059519410133362, 0.10205230861902237, -0.19219490885734558, 1.6832714080810547, -9.594294548034668, 3.0007736682891846, 11.445279121398926, -19.766489028930664, -2.1539530754089355, -0.348388671875, 0.587646484375, -0.58154296875, 
259, 4017632179, 0.8353040814399719, -0.5054323673248291, 0.10050931572914124, -0.1916414499282837, 1.7737385034561157, -9.532689094543457, 3.099531650543213, 13.24258041381836, -21.823955535888672, -2.171473503112793, -0.3447265625, 0.598876953125, -0.582763671875, 
260, 4017640512, 0.836014449596405, -0.5048307776451111, 0.09881844371557236, -0.19100795686244965, 1.8761651515960693, -9.539828300476074, 3.2691640853881836, 14.936539649963379, -23.902746200561523, -1.9122449159622192, -0.3408203125, 0.614501953125, -0.587646484375, 
261, 4017648845, 0.836834192276001, -0.5041102766990662, 0.09692369401454926, -0.1902904212474823, 1.9373847246170044, -9.539068222045898, 3.3750438690185547, 17.58127784729004, -26.742740631103516, -1.9438143968582153, -0.331298828125, 0.62548828125, -0.591796875, 
262, 4017657178, 0.83773273229599, -0.5033401846885681, 0.09481940418481827, -0.18943320214748383, 2.0530126094818115, -9.422724723815918, 3.4219253063201904, 18.963043212890625, -30.0205020904541, -1.486011266708374, -0.328125, 0.6357421875, -0.593994140625, 
263, 4017665511, 0.8385071158409119, -0.5028631687164307, 0.09266988933086395, -0.18833446502685547, 2.174391269683838, -8.909656524658203, 3.404106616973877, 14.63276195526123, -32.89182662963867, 0.25091731548309326, -0.324951171875, 0.64892578125, -0.59716796875, 
264, 4017673844, 0.8392307758331299, -0.5025781989097595, 0.09047891199588776, -0.18693192303180695, 2.2856285572052, -8.317748069763184, 3.2076094150543213, 11.684345245361328, -35.82838821411133, 3.119112968444824, -0.32177734375, 0.656982421875, -0.599853515625, 
265, 4017682177, 0.8400874137878418, -0.502177357673645, 0.08819644153118134, -0.185245081782341, 2.556928873062134, -8.60460376739502, 3.2372589111328125, 13.92823600769043, -38.78946304321289, 6.232324600219727, -0.316650390625, 0.667724609375, -0.598876953125, 
266, 4017690510, 0.8410072326660156, -0.5017566084861755, 0.08597401529550552, -0.1832459568977356, 2.863821268081665, -9.130693435668945, 3.389139175415039, 13.95715618133545, -40.2037353515625, 10.459603309631348, -0.309814453125, 0.67236328125, -0.5966796875, 
267, 4017698843, 0.8419772386550903, -0.5013411641120911, 0.08379462361335754, -0.18092267215251923, 3.067948579788208, -9.313100814819336, 3.446345806121826, 13.861590385437012, -42.09110641479492, 14.611910820007324, -0.305908203125, 0.689208984375, -0.604248046875, 
268, 4017707176, 0.843026340007782, -0.5008780360221863, 0.08153604716062546, -0.17833362519741058, 3.305668830871582, -9.302778244018555, 3.3809938430786133, 14.738629341125488, -44.73707580566406, 17.41109848022461, -0.301513671875, 0.69189453125, -0.603515625, 
269, 4017715509, 0.8440884947776794, -0.5004838705062866, 0.0792519822716713, -0.17542201280593872, 3.5023484230041504, -9.15243148803711, 3.2556405067443848, 13.843363761901855, -47.516571044921875, 20.924152374267578, -0.295654296875, 0.709228515625, -0.608642578125, 
270, 4017723842, 0.8452164530754089, -0.5000912547111511, 0.07685026526451111, -0.17214858531951904, 3.6580190658569336, -8.975261688232422, 3.1389169692993164, 14.054612159729004, -51.370018005371094, 24.47602653503418, -0.29150390625, 0.71728515625, -0.6103515625, 
271, 4017732175, 0.8465031385421753, -0.4995580017566681, 0.07417032122612, -0.16851189732551575, 3.6174139976501465, -8.8692045211792, 3.0386195182800293, 17.174028396606445, -57.012611389160156, 27.31399917602539, -0.285400390625, 0.728271484375, -0.615478515625, 
272, 4017740508, 0.8480793237686157, -0.49868255853652954, 0.07112095504999161, -0.16444535553455353, 3.44096040725708, -8.777241706848145, 3.1722309589385986, 23.443954467773438, -63.69272994995117, 30.793893814086914, -0.2822265625, 0.73828125, -0.61962890625, 
273, 4017748841, 0.8499412536621094, -0.49745985865592957, 0.06774035841226578, -0.15990032255649567, 3.4003312587738037, -8.528449058532715, 3.6220874786376953, 29.860322952270508, -70.40863800048828, 35.10543441772461, -0.278076171875, 0.74658203125, -0.622314453125, 
274, 4017757174, 0.8520944714546204, -0.49585017561912537, 0.06410833448171616, -0.1548585742712021, 3.4814937114715576, -8.53416919708252, 4.4179887771606445, 36.33989715576172, -76.0881118774414, 40.176048278808594, -0.27587890625, 0.752197265625, -0.62841796875, 
275, 4017765507, 0.85445237159729, -0.49395889043807983, 0.06038212776184082, -0.1493089646100998, 3.636317014694214, -8.650444030761719, 5.032751083374023, 40.91463851928711, -80.30555725097656, 46.187225341796875, -0.270751953125, 0.76220703125, -0.634521484375, 
276, 4017773840, 0.8568639159202576, -0.49200862646102905, 0.05672531574964523, -0.14323876798152924, 3.818262815475464, -8.374480247497559, 5.330310821533203, 41.270626068115234, -82.8807144165039, 52.91645812988281, -0.271484375, 0.768798828125, -0.638427734375, 
277, 4017782173, 0.8592146635055542, -0.49017077684402466, 0.053269870579242706, -0.13663271069526672, 3.9634976387023926, -7.92031717300415, 5.41672945022583, 38.84514236450195, -84.3790512084961, 60.41402053833008, -0.26904296875, 0.77587890625, -0.643310546875, 
278, 4017790506, 0.8614150881767273, -0.48857489228248596, 0.050073713064193726, -0.12951722741127014, 4.022362232208252, -7.8073039054870605, 5.3882975578308105, 33.98970413208008, -85.01980590820312, 67.69243621826172, -0.26171875, 0.790283203125, -0.653564453125, 
279, 4017798839, 0.8633546233177185, -0.4873827397823334, 0.04708001762628555, -0.12199768424034119, 4.107029438018799, -7.957917213439941, 5.237220764160156, 26.936601638793945, -85.94881439208984, 73.13386535644531, -0.260986328125, 0.798583984375, -0.660400390625, 
280, 4017807172, 0.8650022149085999, -0.4866388440132141, 0.04421476274728775, -0.1141141802072525, 4.087754249572754, -7.7118821144104, 4.904753684997559, 19.0853271484375, -87.35448455810547, 77.49752044677734, -0.25830078125, 0.808837890625, -0.6669921875, 
281, 4017815505, 0.8665128350257874, -0.486050546169281, 0.04137556999921799, -0.1059316098690033, 3.9434616565704346, -7.706854343414307, 4.731367111206055, 16.21575164794922, -89.27049255371094, 80.96370697021484, -0.2568359375, 0.819580078125, -0.67236328125, 
282, 4017823838, 0.8681561946868896, -0.48513785004615784, 0.03837652504444122, -0.0974506288766861, 3.732438564300537, -8.037590026855469, 4.692772388458252, 20.910053253173828, -92.70926666259766, 83.78630828857422, -0.254638671875, 0.831787109375, -0.675048828125, 
283, 4017832171, 0.8700094819068909, -0.48373323678970337, 0.035195671021938324, -0.08871541917324066, 3.6422126293182373, -8.247621536254883, 4.927834987640381, 28.412761688232422, -96.08506774902344, 86.1977310180664, -0.253662109375, 0.841552734375, -0.68359375, 
284, 4017840504, 0.8721476793289185, -0.481682151556015, 0.031893014907836914, -0.07966697216033936, 3.561126232147217, -7.800600051879883, 5.271940231323242, 37.92098617553711, -98.9181137084961, 89.74825286865234, -0.25390625, 0.8544921875, -0.686279296875, 
285, 4017848837, 0.8745256662368774, -0.47901150584220886, 0.028587788343429565, -0.07041889429092407, 3.711629629135132, -7.5431671142578125, 5.73118782043457, 46.97417449951172, -99.75730895996094, 92.71669006347656, -0.25634765625, 0.8671875, -0.697021484375, 
286, 4017857170, 0.8767985105514526, -0.4763096570968628, 0.02554813027381897, -0.061024054884910583, 3.752211570739746, -7.3250322341918945, 6.165987014770508, 46.22176742553711, -97.39896392822266, 96.08342742919922, -0.2578125, 0.8798828125, -0.703857421875, 
287, 4017865503, 0.8788319826126099, -0.473819762468338, 0.022815324366092682, -0.051497191190719604, 3.743394136428833, -7.1295599937438965, 6.411004066467285, 41.91112518310547, -94.70977783203125, 99.47355651855469, -0.25830078125, 0.889404296875, -0.70703125, 
288, 4017873836, 0.8805641531944275, -0.4716593325138092, 0.020319320261478424, -0.041886210441589355, 3.8057079315185547, -7.399728298187256, 6.514334678649902, 35.65595626831055, -92.48210144042969, 101.65232849121094, -0.260498046875, 0.90087890625, -0.71240234375, 
289, 4017882169, 0.8819456696510315, -0.46992966532707214, 0.017989948391914368, -0.03220655024051666, 3.857393741607666, -7.751183032989502, 6.598008155822754, 28.16112518310547, -91.10820770263672, 103.31278991699219, -0.26708984375, 0.91845703125, -0.718017578125, 
290, 4017890502, 0.8830652236938477, -0.46847131848335266, 0.015764623880386353, -0.022472813725471497, 3.8744754791259766, -7.7024335861206055, 6.710618495941162, 23.008113861083984, -90.20262908935547, 104.3878402709961, -0.265625, 0.93505859375, -0.7177734375, 
291, 4017898835, 0.8838827013969421, -0.46736180782318115, 0.0136018767952919, -0.012750625610351562, 3.8680002689361572, -7.717398643493652, 6.885791778564453, 16.913942337036133, -89.45098114013672, 104.55778503417969, -0.27197265625, 0.94873046875, -0.716064453125, 
292, 4017907168, 0.8843663930892944, -0.46666648983955383, 0.011520229279994965, -0.0029792040586471558, 3.9151275157928467, -7.727543830871582, 7.0119428634643555, 9.606154441833496, -88.75152587890625, 105.46393585205078, -0.27685546875, 0.9638671875, -0.70751953125, 
293, 4017915501, 0.8844980597496033, -0.46641966700553894, 0.009514912962913513, 0.006974518299102783, 3.751742362976074, -7.574331283569336, 7.134191036224365, 1.9631092548370361, -88.98695373535156, 108.16650390625, -0.279296875, 0.9775390625, -0.697509765625, 
294, 4017923834, 0.8843496441841125, -0.4664822518825531, 0.007387764751911163, 0.01699254661798477, 3.3673670291900635, -7.52780294418335, 7.142815113067627, -3.719816207885742, -90.78401184082031, 108.07559967041016, -0.2861328125, 0.9931640625, -0.684814453125, 
295, 4017932167, 0.8838854432106018, -0.4669223725795746, 0.0050087422132492065, 0.026986919343471527, 3.1179819107055664, -7.6694440841674805, 7.119042873382568, -10.294698715209961, -93.60110473632812, 106.29084014892578, -0.286865234375, 1.00634765625, -0.67041015625, 
296, 4017940500, 0.8829107284545898, -0.4681016504764557, 0.0024398863315582275, 0.03697073459625244, 3.081836700439453, -7.7872138023376465, 6.736919403076172, -22.723722457885742, -95.50530242919922, 104.99712371826172, -0.291015625, 1.01611328125, -0.65087890625, 
297, 4017948833, 0.8813911080360413, -0.47007957100868225, -0.00036354362964630127, 0.046883583068847656, 3.0971486568450928, -7.982125282287598, 6.323927402496338, -35.94961929321289, -97.48270416259766, 102.959716796875, -0.290283203125, 1.026611328125, -0.62744140625, 
298, 4017957166, 0.8794505596160889, -0.4726044237613678, -0.0034222081303596497, 0.056774310767650604, 2.953131675720215, -8.281923294067383, 6.080270290374756, -45.56047058105469, -100.07288360595703, 101.23257446289062, -0.294921875, 1.039794921875, -0.59912109375, 
299, 4017965499, 0.8772790431976318, -0.47531741857528687, -0.006663389503955841, 0.0665874108672142, 2.8111374378204346, -8.412196159362793, 6.012178897857666, -49.38750457763672, -101.65229797363281, 99.3870620727539, -0.292724609375, 1.040283203125, -0.56982421875, 
300, 4017973832, 0.8750627636909485, -0.4778907895088196, -0.010095305740833282, 0.07620342075824738, 2.846081495285034, -8.206942558288574, 6.007328033447266, -48.2841682434082, -102.78363037109375, 95.70092010498047, -0.292724609375, 1.04541015625, -0.54052734375, 
301, 4017982165, 0.8729925155639648, -0.47997942566871643, -0.013741835951805115, 0.08566360175609589, 2.9638028144836426, -7.9005608558654785, 6.131295680999756, -41.641326904296875, -104.8349380493164, 92.28868103027344, -0.28857421875, 1.0478515625, -0.5126953125, 
302, 4017990498, 0.871124804019928, -0.4814842641353607, -0.01753494143486023, 0.09502805024385452, 2.960284948348999, -7.7944464683532715, 6.17011833190918, -33.581687927246094, -106.6067886352539, 89.72883605957031, -0.280517578125, 1.047119140625, -0.486083984375, 
303, 4017998831, 0.8695303201675415, -0.4823122024536133, -0.021394982933998108, 0.10419999063014984, 2.8144521713256836, -7.8485565185546875, 6.1862640380859375, -23.701923370361328, -106.95368957519531, 86.55791473388672, -0.275634765625, 1.040771484375, -0.4638671875, 
304, 4018007164, 0.8681783676147461, -0.48252782225608826, -0.025320682674646378, 0.1132049635052681, 2.519711494445801, -7.999425888061523, 6.181416034698486, -15.013033866882324, -107.43647003173828, 83.49960327148438, -0.270263671875, 1.036865234375, -0.441162109375, 
305, 4018015497, 0.8669278621673584, -0.48241108655929565, -0.02923322096467018, 0.1220012977719307, 2.272656202316284, -7.952814102172852, 6.224893569946289, -10.325927734375, -106.37181091308594, 80.9248275756836, -0.259521484375, 1.02880859375, -0.423583984375, 
306, 4018023830, 0.8657682538032532, -0.4819851815700531, -0.03315627574920654, 0.13061222434043884, 2.018996000289917, -7.679390907287598, 6.321837425231934, -6.226146697998047, -105.75450897216797, 78.2646255493164, -0.251708984375, 1.020751953125, -0.41015625, 
307, 4018032163, 0.8645985722541809, -0.48145508766174316, -0.037135861814022064, 0.13897687196731567, 1.7173856496810913, -7.571043968200684, 6.461065292358398, -5.171231269836426, -104.97261810302734, 75.03278350830078, -0.23974609375, 1.01025390625, -0.396240234375, 
308, 4018040496, 0.8634341955184937, -0.48082104325294495, -0.04112112894654274, 0.14705441892147064, 1.4987212419509888, -7.505892753601074, 6.780817985534668, -4.153379917144775, -103.34898376464844, 71.41556549072266, -0.22998046875, 0.999755859375, -0.385498046875, 
309, 4018048829, 0.8622706532478333, -0.4801292419433594, -0.045070599764585495, 0.15478071570396423, 1.4188594818115234, -7.482702732086182, 7.098969459533691, -3.4938266277313232, -100.69742584228516, 67.5508804321289, -0.22021484375, 0.99267578125, -0.374267578125, 
310, 4018057162, 0.861029326915741, -0.4795582592487335, -0.04893416538834572, 0.16211378574371338, 1.3395665884017944, -7.5240397453308105, 7.33405876159668, -5.5929856300354, -96.89405822753906, 63.590763092041016, -0.211669921875, 0.978759765625, -0.362548828125, 
311, 4018065495, 0.8596576452255249, -0.47924473881721497, -0.05267750471830368, 0.16900137066841125, 1.296749234199524, -7.478753566741943, 7.405584335327148, -9.444607734680176, -92.01679992675781, 59.674678802490234, -0.197021484375, 0.9716796875, -0.35791015625, 
312, 4018073828, 0.8581690788269043, -0.4791894257068634, -0.05629356950521469, 0.17543549835681915, 1.243157148361206, -7.260684013366699, 7.405665397644043, -13.390890121459961, -87.03755950927734, 55.51183319091797, -0.187744140625, 0.96240234375, -0.35400390625, 
313, 4018082161, 0.85661780834198, -0.47931936383247375, -0.059763409197330475, 0.1814125031232834, 1.0785630941390991, -6.969079494476318, 7.406040191650391, -15.903797149658203, -81.86431121826172, 51.474369049072266, -0.177490234375, 0.94873046875, -0.343505859375, 
314, 4018090494, 0.8550330996513367, -0.47961968183517456, -0.06301053613424301, 0.18691271543502808, 0.9180089235305786, -6.8512864112854, 7.433459758758545, -18.05381202697754, -75.73820495605469, 47.44913864135742, -0.168212890625, 0.944091796875, -0.33935546875, 
315, 4018098827, 0.8534018993377686, -0.480130672454834, -0.06604311615228653, 0.1919403374195099, 0.8326666355133057, -6.936910629272461, 7.366363525390625, -20.61392593383789, -69.55411529541016, 43.70967102050781, -0.160888671875, 0.93505859375, -0.33544921875, 
316, 4018107160, 0.851718008518219, -0.4808759391307831, -0.06883363425731659, 0.19651973247528076, 0.7863038778305054, -6.977975845336914, 7.203020095825195, -23.561691284179688, -63.22639083862305, 40.29877471923828, -0.147705078125, 0.927978515625, -0.331787109375, 
317, 4018115493, 0.8500114679336548, -0.481819748878479, -0.07139857113361359, 0.2006380259990692, 0.7162056565284729, -6.912876129150391, 7.143927574157715, -25.787378311157227, -56.96883773803711, 36.739681243896484, -0.14306640625, 0.920166015625, -0.328857421875, 
318, 4018123826, 0.8483046889305115, -0.482938289642334, -0.07369663566350937, 0.20430827140808105, 0.5629732608795166, -6.8453850746154785, 7.0635552406311035, -27.61168098449707, -50.45073318481445, 33.34172439575195, -0.134765625, 0.91357421875, -0.323486328125, 
319, 4018132159, 0.8465709090232849, -0.48430687189102173, -0.07571656256914139, 0.20749658346176147, 0.3847616910934448, -6.932676792144775, 7.032664775848389, -30.342607498168945, -43.271995544433594, 29.995851516723633, -0.130615234375, 0.90576171875, -0.319091796875, 
320, 4018140492, 0.8448013663291931, -0.48593780398368835, -0.07746991515159607, 0.2102307379245758, 0.2965867817401886, -7.063620567321777, 7.02135705947876, -33.41872024536133, -36.49061584472656, 26.759756088256836, -0.121826171875, 0.8984375, -0.31298828125, 
321, 4018148825, 0.8429870009422302, -0.48784613609313965, -0.0790012776851654, 0.21251116693019867, 0.19949616491794586, -7.066546440124512, 6.943887710571289, -36.716617584228516, -30.062664031982422, 23.49750328063965, -0.1142578125, 0.89306640625, -0.31103515625, 
322, 4018157158, 0.8411567211151123, -0.4899861216545105, -0.0802956372499466, 0.21434727311134338, 0.07764336466789246, -7.096377372741699, 6.851607322692871, -39.36484909057617, -23.7381591796875, 20.134830474853516, -0.111083984375, 0.888427734375, -0.308349609375, 
323, 4018165491, 0.8393073678016663, -0.49235591292381287, -0.08136682212352753, 0.2157580554485321, -0.07185955345630646, -7.267190456390381, 6.7533674240112305, -41.90293502807617, -17.566852569580078, 17.128400802612305, -0.10400390625, 0.881591796875, -0.303955078125, 
324, 4018173824, 0.8374741673469543, -0.4948849380016327, -0.0822259783744812, 0.21676728129386902, -0.18172968924045563, -7.577540397644043, 6.609949111938477, -43.51164245605469, -11.978224754333496, 13.95988941192627, -0.1005859375, 0.875244140625, -0.298095703125, 
325, 4018182157, 0.8357207775115967, -0.4974462687969208, -0.08293958753347397, 0.21739846467971802, -0.2483481466770172, -7.699835300445557, 6.463430881500244, -43.280731201171875, -7.469611167907715, 10.494515419006348, -0.094970703125, 0.870849609375, -0.298095703125, 
326, 4018190490, 0.8341808915138245, -0.4998093843460083, -0.08348109573125839, 0.21768561005592346, -0.3712240159511566, -7.459066390991211, 6.253057956695557, -39.47320556640625, -3.5599734783172607, 6.7552900314331055, -0.0888671875, 0.865966796875, -0.294921875, 
327, 4018198823, 0.8330081105232239, -0.5017164349555969, -0.08381853997707367, 0.21765996515750885, -0.43986132740974426, -7.232423305511475, 6.113053798675537, -31.418296813964844, 0.06107720732688904, 3.044344186782837, -0.0869140625, 0.86181640625, -0.29296875, 
328, 4018207156, 0.8322531580924988, -0.5030401349067688, -0.0839691013097763, 0.21743422746658325, -0.5180497169494629, -7.2724528312683105, 5.949368000030518, -21.573366165161133, 2.2436411380767822, 0.021733686327934265, -0.08154296875, 0.856201171875, -0.29443359375, 
329, 4018215489, 0.8319449424743652, -0.5037733316421509, -0.08384521305561066, 0.21696345508098602, -0.42529845237731934, -7.329536437988281, 5.722373008728027, -11.14498519897461, 5.908013343811035, -2.806039571762085, -0.078857421875, 0.84765625, -0.293701171875, 
330, 4018223822, 0.8320797085762024, -0.5038822889328003, -0.08342885226011276, 0.21635355055332184, -0.36208999156951904, -7.406115531921387, 5.428691387176514, -0.26472315192222595, 8.787259101867676, -4.50864315032959, -0.074462890625, 0.845458984375, -0.297119140625, 
331, 4018232155, 0.8327075242996216, -0.5032855868339539, -0.08263646811246872, 0.21562963724136353, -0.24446293711662292, -7.682268142700195, 5.162817478179932, 12.250125885009766, 12.428886413574219, -5.388698577880859, -0.07373046875, 0.83984375, -0.297607421875, 
332, 4018240488, 0.8338204622268677, -0.5020442605018616, -0.08137892186641693, 0.21469876170158386, -0.17077688872814178, -8.019803047180176, 5.346945285797119, 24.09609031677246, 17.744930267333984, -6.805068016052246, -0.072021484375, 0.83251953125, -0.302734375, 
333, 4018248821, 0.8352286219596863, -0.5004760026931763, -0.07974743843078613, 0.21349534392356873, -0.37948399782180786, -8.386964797973633, 5.546053409576416, 30.7156925201416, 23.364809036254883, -8.492103576660156, -0.06689453125, 0.8232421875, -0.30712890625, 
334, 4018257154, 0.8367894887924194, -0.4987949728965759, -0.07788186520338058, 0.2120012491941452, -0.7426271438598633, -8.6707181930542, 5.7668657302856445, 33.39649200439453, 27.805282592773438, -10.886656761169434, -0.063232421875, 0.819091796875, -0.316162109375, 
335, 4018265487, 0.8383229970932007, -0.49731171131134033, -0.07596785575151443, 0.21011340618133545, -0.8939691185951233, -8.62398624420166, 6.15071439743042, 30.683635711669922, 31.69754981994629, -14.698872566223145, -0.06201171875, 0.807373046875, -0.3212890625, 
336, 4018273820, 0.8396074175834656, -0.4963686764240265, -0.07410908490419388, 0.20786675810813904, -0.969313383102417, -8.095903396606445, 6.425123691558838, 22.18588638305664, 34.72745895385742, -18.023834228515625, -0.059814453125, 0.800537109375, -0.32568359375, 
337, 4018282153, 0.8405113816261292, -0.49616533517837524, -0.07240572571754456, 0.20528343319892883, -1.1250056028366089, -7.596566677093506, 6.5878376960754395, 10.288589477539062, 37.04941940307617, -21.03668785095215, -0.057861328125, 0.80126953125, -0.335693359375, 
338, 4018290486, 0.8410869836807251, -0.4966188967227936, -0.07080218195915222, 0.20236782729625702, -1.2047678232192993, -7.47221040725708, 6.680454254150391, -0.1813107132911682, 39.5988883972168, -24.07124137878418, -0.0556640625, 0.7939453125, -0.338134765625, 
339, 4018298819, 0.8414172530174255, -0.4975849390029907, -0.06925412267446518, 0.19913135468959808, -1.179133415222168, -7.572009563446045, 6.772419452667236, -8.236249923706055, 42.428707122802734, -26.89006233215332, -0.0546875, 0.79248046875, -0.340576171875, 
340, 4018307152, 0.8416191339492798, -0.49885237216949463, -0.06767051666975021, 0.19562125205993652, -1.205507755279541, -7.716888904571533, 6.807229995727539, -12.781152725219727, 45.32301330566406, -29.262269973754883, -0.052978515625, 0.78515625, -0.34423828125, 
341, 4018315485, 0.8418576717376709, -0.5001499652862549, -0.06601093709468842, 0.1918109506368637, -1.224028468132019, -7.78651762008667, 6.772224426269531, -12.945332527160645, 48.47447967529297, -32.200408935546875, -0.05224609375, 0.78076171875, -0.34228515625, 
342, 4018323818, 0.8422275185585022, -0.5013265013694763, -0.06429821252822876, 0.18765264749526978, -1.22135591506958, -7.884408950805664, 6.643814563751221, -10.82434368133545, 51.185462951660156, -36.4053955078125, -0.0517578125, 0.774658203125, -0.343017578125, 
343, 4018332151, 0.8427784442901611, -0.5022813677787781, -0.06254500895738602, 0.18316441774368286, -1.3307337760925293, -7.868722915649414, 6.517053127288818, -7.196259021759033, 53.61547088623047, -40.52863693237305, -0.050537109375, 0.770751953125, -0.347412109375, 
344, 4018340484, 0.8435189723968506, -0.5029752254486084, -0.060790739953517914, 0.17838001251220703, -1.4473047256469727, -7.859506607055664, 6.462702751159668, -3.1142563819885254, 55.07978820800781, -44.73905944824219, -0.050537109375, 0.769775390625, -0.349365234375, 
345, 4018348817, 0.8444065451622009, -0.5034663677215576, -0.05908317118883133, 0.17329588532447815, -1.561743974685669, -7.950603008270264, 6.341802597045898, -0.12063083052635193, 56.33647537231445, -48.98747634887695, -0.04931640625, 0.764892578125, -0.35205078125, 
346, 4018357150, 0.8453956246376038, -0.5038360357284546, -0.05746365711092949, 0.16785886883735657, -1.5247547626495361, -7.961453437805176, 6.22858190536499, 1.506765604019165, 57.451297760009766, -54.11648178100586, -0.053466796875, 0.749755859375, -0.348388671875, 
347, 4018365483, 0.8464617729187012, -0.5040914416313171, -0.05591528117656708, 0.16214509308338165, -1.5580800771713257, -7.910557746887207, 6.293201446533203, 2.96738862991333, 58.438629150390625, -58.01992416381836, -0.053955078125, 0.75048828125, -0.3583984375, 
348, 4018373816, 0.847560703754425, -0.5042765140533447, -0.0544014498591423, 0.15623602271080017, -1.7199007272720337, -7.874603748321533, 6.498753070831299, 3.803725481033325, 59.158843994140625, -60.73444747924805, -0.057373046875, 0.746826171875, -0.359375, 
349, 4018382149, 0.8486599326133728, -0.5044384598731995, -0.05297126621007919, 0.15011803805828094, -1.6848002672195435, -7.826550483703613, 6.732081890106201, 3.716099262237549, 59.68513870239258, -63.6960563659668, -0.056884765625, 0.742431640625, -0.364501953125, 
350, 4018390482, 0.849699079990387, -0.5046701431274414, -0.051591210067272186, 0.1438090056180954, -1.6997703313827515, -7.734333038330078, 6.892857074737549, 2.265223979949951, 60.4228401184082, -66.16987609863281, -0.060546875, 0.73828125, -0.36572265625, 
351, 4018398815, 0.850681483745575, -0.5049604177474976, -0.05026719719171524, 0.13730363547801971, -1.6679428815841675, -7.612301349639893, 7.049838066101074, 0.9019479155540466, 61.30867385864258, -68.63400268554688, -0.0625, 0.73291015625, -0.369873046875, 
352, 4018407148, 0.8516342043876648, -0.5052522420883179, -0.0489121712744236, 0.13065391778945923, -1.6747350692749023, -7.493256092071533, 7.301083564758301, 0.6728783845901489, 62.55438232421875, -70.11550903320312, -0.064208984375, 0.725830078125, -0.371826171875, 
353, 4018415481, 0.852618396282196, -0.5054475665092468, -0.04755983129143715, 0.12379827350378036, -1.7078953981399536, -7.505773067474365, 7.422375679016113, 1.8330082893371582, 63.90482711791992, -72.60728454589844, -0.063720703125, 0.720947265625, -0.37548828125, 
354, 4018423814, 0.8537352085113525, -0.5053756833076477, -0.04615622013807297, 0.1167234256863594, -1.6158355474472046, -7.6484575271606445, 7.554335117340088, 5.876071929931641, 65.55806732177734, -75.28189849853516, -0.07373046875, 0.713134765625, -0.37548828125, 
355, 4018432147, 0.8550755977630615, -0.5048714876174927, -0.044656284153461456, 0.10945142805576324, -1.646899938583374, -7.7698445320129395, 7.642014503479004, 12.476030349731445, 67.612548828125, -77.50738525390625, -0.071533203125, 0.705810546875, -0.37939453125, 
356, 4018440480, 0.8566883206367493, -0.5038564205169678, -0.04300792142748833, 0.101919025182724, -1.7908146381378174, -7.689293384552002, 7.5428080558776855, 20.49773406982422, 70.45894622802734, -80.31550598144531, -0.076904296875, 0.70166015625, -0.384033203125, 
357, 4018448813, 0.8585781455039978, -0.502309262752533, -0.04117640107870102, 0.094109445810318, -1.93449068069458, -7.313197135925293, 7.400297164916992, 28.70806121826172, 74.06204223632812, -82.97179412841797, -0.0810546875, 0.689208984375, -0.387939453125, 
358, 4018457146, 0.8607156872749329, -0.5002549886703491, -0.03914068266749382, 0.08604947477579117, -2.141415596008301, -6.923985958099365, 7.238001823425293, 36.5966682434082, 77.57930755615234, -85.167236328125, -0.08251953125, 0.68115234375, -0.3935546875, 
359, 4018465479, 0.8630234003067017, -0.4978005290031433, -0.03689955547451973, 0.07776235044002533, -2.4527933597564697, -6.497062683105469, 7.1007161140441895, 42.544620513916016, 81.29642486572266, -86.82767486572266, -0.085205078125, 0.67041015625, -0.40234375, 
360, 4018473812, 0.8653806447982788, -0.4951285421848297, -0.03447342291474342, 0.06927410513162613, -2.690958261489868, -6.13638162612915, 7.16725492477417, 45.64179992675781, 84.5556869506836, -88.14458465576172, -0.0888671875, 0.662841796875, -0.409912109375, 
361, 4018482145, 0.867643415927887, -0.49247226119041443, -0.03183607757091522, 0.06062610447406769, -2.8482136726379395, -5.953908443450928, 7.195701599121094, 44.844112396240234, 88.23043060302734, -88.48936462402344, -0.09130859375, 0.653564453125, -0.418212890625, 
362, 4018490478, 0.8696553707122803, -0.4901005029678345, -0.02897149696946144, 0.05181484669446945, -2.938816785812378, -6.033175468444824, 6.99523401260376, 39.96210479736328, 92.07219696044922, -88.58451080322266, -0.09326171875, 0.6396484375, -0.42578125, 
363, 4018498811, 0.8713597655296326, -0.48810267448425293, -0.025902159512043, 0.04289558529853821, -3.0637006759643555, -6.178238391876221, 6.500668525695801, 33.41193389892578, 95.4961929321289, -88.12540435791016, -0.09765625, 0.632568359375, -0.43310546875, 
364, 4018507144, 0.8727887272834778, -0.4864235520362854, -0.02247266098856926, 0.03391266614198685, -3.120070457458496, -6.589876174926758, 5.998824119567871, 28.04347801208496, 100.2257080078125, -86.19873046875, -0.095703125, 0.621337890625, -0.440185546875, 
365, 4018515477, 0.8738980293273926, -0.4851372241973877, -0.018642466515302658, 0.024895384907722473, -3.184799909591675, -7.358038425445557, 5.549342632293701, 21.25068473815918, 105.4434585571289, -83.66681671142578, -0.099365234375, 0.609375, -0.44677734375, 
366, 4018523810, 0.8747431635856628, -0.4841378927230835, -0.014422804117202759, 0.015814855694770813, -3.1383557319641113, -8.039655685424805, 5.225240707397461, 16.27233123779297, 110.48141479492188, -81.65760040283203, -0.1005859375, 0.597900390625, -0.45068359375, 
367, 4018532143, 0.8753792643547058, -0.4833122193813324, -0.00988159328699112, 0.006776213645935059, -3.165018320083618, -8.287161827087402, 5.060986518859863, 12.751381874084473, 114.15367889404297, -78.9560775756836, -0.0966796875, 0.585205078125, -0.455322265625, 
368, 4018540476, 0.875848650932312, -0.48257744312286377, -0.005114257335662842, -0.002253815531730652, -3.168062210083008, -8.179983139038086, 5.036474704742432, 10.690683364868164, 116.71793365478516, -77.29952239990234, -0.098388671875, 0.57421875, -0.45751953125, 
369, 4018548809, 0.8762741088867188, -0.48170650005340576, -0.00022416561841964722, -0.011199533939361572, -3.189647674560547, -8.066583633422852, 5.194060325622559, 11.92287826538086, 117.71232604980469, -75.51033782958984, -0.094970703125, 0.560302734375, -0.462158203125, 
370, 4018557142, 0.8765934109687805, -0.48081082105636597, 0.004781067371368408, -0.020136117935180664, -3.2950801849365234, -7.857194900512695, 5.4947710037231445, 11.61760425567627, 118.96853637695312, -74.6240234375, -0.09326171875, 0.547607421875, -0.47021484375, 
371, 4018565475, 0.8767493963241577, -0.47999268770217896, 0.00987611711025238, -0.029039427638053894, -3.236356496810913, -8.025970458984375, 5.657699108123779, 9.456979751586914, 119.88916778564453, -73.72650909423828, -0.09228515625, 0.53466796875, -0.469970703125, 
372, 4018573808, 0.8766889572143555, -0.4793456792831421, 0.015047833323478699, -0.03796137869358063, -3.0959410667419434, -8.358864784240723, 5.80350923538208, 6.056528091430664, 120.82878112792969, -73.50801849365234, -0.09130859375, 0.51513671875, -0.46875, 
373, 4018582141, 0.8763952255249023, -0.4789058268070221, 0.020295098423957825, -0.0468192994594574, -2.967620849609375, -8.581464767456055, 5.855361461639404, 1.849149465560913, 121.31729125976562, -72.46249389648438, -0.086669921875, 0.50634765625, -0.477783203125, 
374, 4018590474, 0.8758922219276428, -0.47861915826797485, 0.02565944194793701, -0.05569019913673401, -2.836920738220215, -8.712096214294434, 5.686530113220215, -1.3265846967697144, 122.71351623535156, -71.96493530273438, -0.083740234375, 0.4931640625, -0.47998046875, 
375, 4018598807, 0.8751804232597351, -0.47849607467651367, 0.03109125792980194, -0.06447699666023254, -2.777137041091919, -8.56558609008789, 5.25567626953125, -4.872708320617676, 122.97096252441406, -70.79779815673828, -0.08154296875, 0.47509765625, -0.480224609375, 
376, 4018607140, 0.8742541074752808, -0.4785635769367218, 0.0365758016705513, -0.07308903336524963, -2.7535388469696045, -8.212485313415527, 4.564093589782715, -8.579508781433105, 122.329345703125, -68.54750061035156, -0.075439453125, 0.46337890625, -0.484375, 
377, 4018615473, 0.8730844855308533, -0.47889602184295654, 0.04213862866163254, -0.0814228355884552, -2.838127374649048, -7.901028633117676, 3.650808811187744, -13.698902130126953, 121.33958435058594, -65.14800262451172, -0.073974609375, 0.447998046875, -0.482177734375, 
378, 4018623806, 0.8717035055160522, -0.47944942116737366, 0.0478535071015358, -0.08941221237182617, -2.8721184730529785, -7.7867655754089355, 2.9489572048187256, -18.001018524169922, 120.7278060913086, -60.292442321777344, -0.06982421875, 0.432373046875, -0.478271484375, 
379, 4018632139, 0.8701321482658386, -0.48020118474960327, 0.053766071796417236, -0.09700146317481995, -2.8462154865264893, -8.167235374450684, 2.5820043087005615, -22.243764877319336, 120.37532043457031, -54.65070724487305, -0.067626953125, 0.420654296875, -0.482421875, 
380, 4018640472, 0.8683193325996399, -0.4812483787536621, 0.05983659625053406, -0.1042315661907196, -2.723454236984253, -8.83202075958252, 2.4156839847564697, -27.745895385742188, 119.64285278320312, -49.75629425048828, -0.06298828125, 0.402587890625, -0.479248046875, 
381, 4018648805, 0.8661757111549377, -0.4827488660812378, 0.06596963852643967, -0.1111961305141449, -2.633171319961548, -9.395207405090332, 2.3198680877685547, -35.74980163574219, 118.27979278564453, -47.12187957763672, -0.05615234375, 0.38916015625, -0.4765625, 
382, 4018657138, 0.8636164665222168, -0.48485830426216125, 0.07206731289625168, -0.11793467402458191, -2.584693193435669, -9.925806999206543, 2.2558436393737793, -45.81783676147461, 115.77901458740234, -45.75116729736328, -0.05322265625, 0.373779296875, -0.47509765625, 
383, 4018665471, 0.860588788986206, -0.48764389753341675, 0.07818025350570679, -0.12450490891933441, -2.496819257736206, -10.396380424499512, 2.2932348251342773, -57.24494171142578, 114.22224426269531, -45.18807601928711, -0.048583984375, 0.356689453125, -0.468994140625, 
384, 4018673804, 0.8571504354476929, -0.49102240800857544, 0.0843028575181961, -0.1307910829782486, -2.299241781234741, -10.693793296813965, 2.3686413764953613, -67.25495910644531, 111.84172058105469, -42.99262237548828, -0.045654296875, 0.344970703125, -0.46826171875, 
385, 4018682137, 0.8534477353096008, -0.49473562836647034, 0.0903407633304596, -0.13684046268463135, -2.193084955215454, -10.86119556427002, 2.3322174549102783, -73.17383575439453, 108.95243835449219, -41.74848175048828, -0.044677734375, 0.3271484375, -0.4609375, 
386, 4018690470, 0.8496620655059814, -0.4984976649284363, 0.09620446711778641, -0.14262725412845612, -2.156914472579956, -11.072084426879883, 2.293945550918579, -74.24457550048828, 105.12908935546875, -39.95924758911133, -0.041259765625, 0.316650390625, -0.457763671875, 
387, 4018698803, 0.8458884358406067, -0.5021472573280334, 0.10191995650529861, -0.1481771022081375, -2.0629892349243164, -11.073819160461426, 2.3394339084625244, -72.9228286743164, 101.97822570800781, -38.149871826171875, -0.041259765625, 0.303466796875, -0.45263671875, 
388, 4018707136, 0.8422535061836243, -0.5054978728294373, 0.10741379857063293, -0.15351320803165436, -2.0499730110168457, -10.899455070495605, 2.255988836288452, -68.28073120117188, 98.3381118774414, -36.37567138671875, -0.041259765625, 0.285400390625, -0.44189453125, 
389, 4018715469, 0.8387326002120972, -0.5085967779159546, 0.112720787525177, -0.15866389870643616, -1.9614816904067993, -10.607958793640137, 2.257213592529297, -64.49113464355469, 95.23753356933594, -35.031986236572266, -0.042236328125, 0.27490234375, -0.442626953125, 
390, 4018723802, 0.8353113532066345, -0.5114936828613281, 0.11783330887556076, -0.16360868513584137, -1.8184568881988525, -10.379498481750488, 2.1561779975891113, -61.3226203918457, 91.85103607177734, -33.37004089355469, -0.04931640625, 0.25732421875, -0.435791015625, 
391, 4018732135, 0.8320415019989014, -0.5141171216964722, 0.12270907312631607, -0.1683928221464157, -1.649849534034729, -10.34233570098877, 2.061613082885742, -56.868064880371094, 88.35652923583984, -32.525779724121094, -0.054443359375, 0.24609375, -0.4345703125, 
392, 4018740468, 0.8289434313774109, -0.5164493918418884, 0.1273060441017151, -0.17305859923362732, -1.3959218263626099, -10.348794937133789, 1.9529647827148438, -51.851356506347656, 84.72942352294922, -32.1337890625, -0.059814453125, 0.23291015625, -0.43212890625, 
393, 4018748801, 0.825990617275238, -0.5185537934303284, 0.1315997838973999, -0.17761236429214478, -1.1488338708877563, -10.301369667053223, 1.8929129838943481, -47.70927429199219, 80.74614715576172, -32.38749694824219, -0.0712890625, 0.21826171875, -0.42626953125, 
394, 4018757134, 0.8231539130210876, -0.5204962491989136, 0.1355881690979004, -0.18204471468925476, -0.8758354783058167, -10.284302711486816, 1.753286361694336, -44.503719329833984, 76.61544799804688, -32.48729705810547, -0.083740234375, 0.201416015625, -0.421875, 
395, 4018765467, 0.8205030560493469, -0.5221863389015198, 0.13920888304710388, -0.18638727068901062, -0.5001994371414185, -10.266944885253906, 1.6656510829925537, -39.56465148925781, 72.07138061523438, -33.28627395629883, -0.095947265625, 0.1962890625, -0.41943359375, 
396, 4018773800, 0.8180880546569824, -0.5235724449157715, 0.1423933207988739, -0.19065946340560913, -0.1650146096944809, -10.142057418823242, 1.6177387237548828, -33.455318450927734, 66.99609375, -34.32000732421875, -0.1142578125, 0.18994140625, -0.42138671875, 
397, 4018782133, 0.8159199953079224, -0.5246401429176331, 0.1451951563358307, -0.19485580921173096, -0.06703371554613113, -9.896651268005371, 1.5494294166564941, -27.230939865112305, 62.472373962402344, -35.0683479309082, -0.12939453125, 0.184326171875, -0.42041015625, 
398, 4018790466, 0.8139820098876953, -0.5253888964653015, 0.14764392375946045, -0.19905835390090942, -0.10718528181314468, -9.917006492614746, 1.4661580324172974, -21.0463924407959, 58.97585678100586, -36.31406021118164, -0.1513671875, 0.17333984375, -0.4130859375, 
399, 4018798799, 0.8122020959854126, -0.5259037017822266, 0.14984187483787537, -0.20328208804130554, -0.1683070957660675, -10.22026252746582, 1.391248345375061, -16.53290557861328, 56.601463317871094, -37.56694412231445, -0.16748046875, 0.176513671875, -0.4208984375, 
400, 4018807132, 0.8105488419532776, -0.5262484550476074, 0.15180587768554688, -0.20748862624168396, -0.25789162516593933, -10.282744407653809, 1.3507983684539795, -13.120891571044922, 54.1184196472168, -38.24929428100586, -0.19384765625, 0.177978515625, -0.426025390625, 
401, 4018815465, 0.8089589476585388, -0.5265620946884155, 0.15352442860603333, -0.21159237623214722, -0.2663060426712036, -10.075628280639648, 1.1887078285217285, -11.796614646911621, 50.55335998535156, -38.74493408203125, -0.211181640625, 0.177734375, -0.42138671875, 
402, 4018823798, 0.8073694705963135, -0.5269399285316467, 0.1549854874610901, -0.2156193107366562, -0.005696251522749662, -10.286704063415527, 1.1263571977615356, -11.952449798583984, 46.9865837097168, -39.7797737121582, -0.23193359375, 0.189208984375, -0.4306640625, 
403, 4018832131, 0.8057866096496582, -0.5273845791816711, 0.15626966953277588, -0.21949131786823273, 0.3204813301563263, -10.714702606201172, 1.1602123975753784, -12.408447265625, 43.64878463745117, -39.571434020996094, -0.251220703125, 0.19873046875, -0.435791015625, 
404, 4018840464, 0.8042870759963989, -0.5278146862983704, 0.1573127955198288, -0.22318068146705627, 0.5282459855079651, -10.709504127502441, 1.181980848312378, -11.352360725402832, 39.55685043334961, -38.9052848815918, -0.27197265625, 0.208251953125, -0.441162109375, 
405, 4018848797, 0.8027603030204773, -0.5284057855606079, 0.1581641286611557, -0.226650670170784, 0.7477794289588928, -10.222833633422852, 1.302738070487976, -13.160703659057617, 35.3643913269043, -38.40605163574219, -0.289306640625, 0.221923828125, -0.44384765625, 
406, 4018857130, 0.8012075424194336, -0.5291950106620789, 0.15880373120307922, -0.22983399033546448, 0.9600655436515808, -9.649506568908691, 1.3413283824920654, -15.557287216186523, 30.42716407775879, -37.186737060546875, -0.305908203125, 0.2431640625, -0.455078125, 
407, 4018865463, 0.7995965480804443, -0.5301501750946045, 0.15943625569343567, -0.23278668522834778, 1.2358229160308838, -9.3446626663208, 1.512747049331665, -18.222646713256836, 28.22332191467285, -35.34223556518555, -0.319091796875, 0.26171875, -0.4609375, 
408, 4018873796, 0.7980005741119385, -0.5310642719268799, 0.16017290949821472, -0.23565608263015747, 1.4989811182022095, -9.257920265197754, 1.3504657745361328, -18.245990753173828, 28.910511016845703, -33.432472229003906, -0.33203125, 0.281005859375, -0.4658203125, 
409, 4018882129, 0.7965432405471802, -0.5319058895111084, 0.1608389914035797, -0.23822039365768433, 1.2100284099578857, -9.481317520141602, 1.3265411853790283, -16.803565979003906, 25.782075881958008, -30.079702377319336, -0.33984375, 0.301513671875, -0.47216796875, 
410, 4018890462, 0.7953081130981445, -0.5326179265975952, 0.16123634576797485, -0.2404770851135254, 1.006020188331604, -9.852248191833496, 1.3494559526443481, -13.636240005493164, 20.576923370361328, -27.571012496948242, -0.351318359375, 0.3212890625, -0.47998046875, 
411, 4018898795, 0.7943488359451294, -0.5331100225448608, 0.16126622259616852, -0.24252843856811523, 1.0964875221252441, -9.947006225585938, 1.3713809251785278, -8.365591049194336, 15.112963676452637, -26.702043533325195, -0.356689453125, 0.3447265625, -0.487060546875, 
412, 4018907128, 0.7936320304870605, -0.533403217792511, 0.16090041399002075, -0.2444659024477005, 1.3372613191604614, -9.85772705078125, 1.5509191751480103, -3.4313104152679443, 10.138260841369629, -27.025209426879883, -0.36083984375, 0.36376953125, -0.49462890625, 
413, 4018915461, 0.7931833863258362, -0.5334513783454895, 0.1602182537317276, -0.2462577521800995, 1.4515904188156128, -9.673971176147461, 1.7614948749542236, 2.0416219234466553, 5.784580707550049, -26.38715934753418, -0.36181640625, 0.381591796875, -0.499755859375, 
414, 4018923794, 0.7929324507713318, -0.5333165526390076, 0.1592891365289688, -0.2479550838470459, 1.4418928623199463, -9.575886726379395, 1.8258341550827026, 6.024407863616943, 2.6455295085906982, -26.021825790405273, -0.368896484375, 0.39990234375, -0.501708984375, 
415, 4018932127, 0.7929660081863403, -0.5328789353370667, 0.15802130103111267, -0.2495945394039154, 1.492276906967163, -9.530957221984863, 1.7746995687484741, 12.54218578338623, -1.1279493570327759, -26.308963775634766, -0.3671875, 0.42626953125, -0.512939453125, 
416, 4018940460, 0.7933504581451416, -0.5320542454719543, 0.15635482966899872, -0.2511768937110901, 1.716991662979126, -9.624372482299805, 1.7836005687713623, 20.475849151611328, -5.261630535125732, -26.494468688964844, -0.370361328125, 0.441162109375, -0.51416015625, 
417, 4018948793, 0.7940472364425659, -0.5309010148048401, 0.15435776114463806, -0.2526457607746124, 2.066787004470825, -9.669157981872559, 1.8796212673187256, 27.351337432861328, -9.30090045928955, -25.95242691040039, -0.366943359375, 0.4580078125, -0.521240234375, 
418, 4018957126, 0.7949978113174438, -0.5295055508613586, 0.15207993984222412, -0.2539631426334381, 2.324892520904541, -9.571118354797363, 2.046919345855713, 32.39515686035156, -13.104851722717285, -24.88859748840332, -0.367431640625, 0.477294921875, -0.53076171875, 
419, 4018965459, 0.7960670590400696, -0.5280551910400391, 0.14966776967048645, -0.2550644278526306, 2.4763927459716797, -9.420634269714355, 2.174787998199463, 33.9898796081543, -16.274005889892578, -23.0278263092041, -0.36474609375, 0.495849609375, -0.53759765625, 
420, 4018973792, 0.7971491813659668, -0.5267139673233032, 0.14722228050231934, -0.25587978959083557, 2.6345107555389404, -9.496381759643555, 2.445141553878784, 32.30463790893555, -19.054384231567383, -20.267013549804688, -0.3642578125, 0.51171875, -0.5439453125, 
421, 4018982125, 0.798187255859375, -0.5256057381629944, 0.1447601616382599, -0.2563270032405853, 2.7461681365966797, -9.764409065246582, 2.660506248474121, 28.863454818725586, -22.705154418945312, -17.022476196289062, -0.360595703125, 0.52490234375, -0.54736328125, 
422, 4018990458, 0.7991146445274353, -0.5248718857765198, 0.14230820536613464, -0.2563137114048004, 2.748842716217041, -9.866470336914062, 2.788914680480957, 22.88245391845703, -26.949501037597656, -12.985037803649902, -0.357666015625, 0.54248046875, -0.552490234375, 
423, 4018998791, 0.7997536063194275, -0.5247132778167725, 0.14009495079517365, -0.25586432218551636, 2.8130640983581543, -9.5880765914917, 2.8855082988739014, 12.910086631774902, -29.010351181030273, -8.648321151733398, -0.353271484375, 0.557861328125, -0.555908203125, 
424, 4019007124, 0.8001020550727844, -0.5251609086990356, 0.13812586665153503, -0.25492554903030396, 2.8868253231048584, -9.10561466217041, 2.7618470191955566, 2.218015432357788, -31.356063842773438, -3.659085988998413, -0.348388671875, 0.573974609375, -0.55322265625, 
425, 4019015457, 0.8002230525016785, -0.5261856317520142, 0.13637003302574158, -0.2533736526966095, 2.8882837295532227, -8.975798606872559, 2.870576858520508, -7.556323051452637, -35.10354232788086, 2.705967664718628, -0.34375, 0.589599609375, -0.55517578125, 
426, 4019023790, 0.8002135753631592, -0.5276234745979309, 0.13478592038154602, -0.25125211477279663, 3.0380027294158936, -9.092916488647461, 3.0403645038604736, -14.840758323669434, -38.455787658691406, 9.014957427978516, -0.33935546875, 0.6044921875, -0.5576171875, 
427, 4019032123, 0.8000763654708862, -0.5294680595397949, 0.1333310306072235, -0.24857059121131897, 3.139674186706543, -9.390642166137695, 3.2065463066101074, -21.59725570678711, -42.34068298339844, 14.899768829345703, -0.332275390625, 0.618408203125, -0.55078125, 
428, 4019040456, 0.7998046875, -0.5317168235778809, 0.1320161521434784, -0.2453254908323288, 3.2559382915496826, -9.36438274383545, 3.2050602436065674, -28.665945053100586, -45.96416473388672, 20.93773651123047, -0.327392578125, 0.640625, -0.5546875, 
429, 4019048789, 0.799451470375061, -0.5343007445335388, 0.13074898719787598, -0.24151143431663513, 3.320333242416382, -9.208134651184082, 3.004713296890259, -34.00928497314453, -50.657569885253906, 26.649703979492188, -0.31689453125, 0.657958984375, -0.547119140625, 
430, 4019057122, 0.7991408109664917, -0.5370765328407288, 0.12931476533412933, -0.23711517453193665, 3.1079752445220947, -9.111706733703613, 2.722381353378296, -36.43128967285156, -57.40963363647461, 31.631046295166016, -0.3115234375, 0.673095703125, -0.54443359375, 
431, 4019065455, 0.7989605069160461, -0.5398896932601929, 0.12766538560390472, -0.23217624425888062, 2.9389805793762207, -9.154879570007324, 2.684432029724121, -36.00656509399414, -64.21330261230469, 36.35892868041992, -0.304443359375, 0.690673828125, -0.537841796875, 
432, 4019073788, 0.7990618348121643, -0.5425145626068115, 0.12571343779563904, -0.22671037912368774, 2.9794490337371826, -9.214445114135742, 2.734865665435791, -31.941490173339844, -71.26514434814453, 41.136566162109375, -0.296630859375, 0.707275390625, -0.535888671875, 
433, 4019082121, 0.7995312809944153, -0.5448101162910461, 0.12337808310985565, -0.22075438499450684, 3.1638824939727783, -9.103297233581543, 2.755683183670044, -25.091594696044922, -78.82333374023438, 45.37939453125, -0.28955078125, 0.726318359375, -0.52685546875, 
434, 4019090454, 0.8003826141357422, -0.546765923500061, 0.12067370861768723, -0.21423307061195374, 3.1782705783843994, -8.878496170043945, 2.832343816757202, -18.469619750976562, -86.65190887451172, 50.56504821777344, -0.28271484375, 0.739990234375, -0.52490234375, 
435, 4019098787, 0.8015508651733398, -0.54843670129776, 0.11766985058784485, -0.207148015499115, 3.144742965698242, -8.729069709777832, 3.0663697719573975, -12.866348266601562, -93.96168518066406, 55.93299102783203, -0.278564453125, 0.757080078125, -0.5224609375, 
436, 4019107120, 0.803013801574707, -0.5497883558273315, 0.11445439606904984, -0.19956231117248535, 3.1683349609375, -8.6673583984375, 3.3490703105926514, -7.470583438873291, -99.54871368408203, 61.20365905761719, -0.271484375, 0.770751953125, -0.51806640625, 
437, 4019115453, 0.8048436045646667, -0.5506621599197388, 0.1110292449593544, -0.19155675172805786, 3.2716991901397705, -8.766843795776367, 3.569174289703369, 0.633307695388794, -104.38811492919922, 66.02627563476562, -0.263427734375, 0.783203125, -0.518798828125, 
438, 4019123786, 0.8071547746658325, -0.5509226322174072, 0.10723819583654404, -0.18305405974388123, 3.1511802673339844, -8.639278411865234, 3.6453351974487305, 11.131285667419434, -111.24000549316406, 70.94793701171875, -0.2568359375, 0.791748046875, -0.513916015625, 
439, 4019132119, 0.8094763159751892, -0.5511758923530579, 0.10335299372673035, -0.17405354976654053, 3.161388397216797, -7.882294178009033, 3.4107611179351807, 10.929460525512695, -116.13956451416016, 75.81739044189453, -0.247314453125, 0.81005859375, -0.516357421875, 
440, 4019140452, 0.8117446899414062, -0.5514996647834778, 0.09942297637462616, -0.16449065506458282, 3.193772077560425, -7.893038749694824, 3.461362838745117, 8.912524223327637, -120.90888214111328, 81.49102783203125, -0.24267578125, 0.816162109375, -0.51220703125, 
441, 4019148785, 0.8140043616294861, -0.551780104637146, 0.09534203261137009, -0.15449561178684235, 3.2829325199127197, -8.440338134765625, 3.634085178375244, 9.217495918273926, -125.84620666503906, 85.23541259765625, -0.234375, 0.835205078125, -0.51953125, 
442, 4019157118, 0.816410481929779, -0.5517582297325134, 0.09104684740304947, -0.14412036538124084, 3.3371284008026123, -8.696114540100098, 3.771996259689331, 13.532580375671387, -130.59397888183594, 88.54708862304688, -0.2275390625, 0.84375, -0.517578125, 
443, 4019165451, 0.8190755844116211, -0.5512194037437439, 0.0865185409784317, -0.13345468044281006, 3.4874587059020996, -8.668983459472656, 3.9012086391448975, 21.534908294677734, -134.80087280273438, 91.22997283935547, -0.21923828125, 0.85986328125, -0.526123046875, 
444, 4019173784, 0.8220539689064026, -0.5500526428222656, 0.08176181465387344, -0.12250614166259766, 3.577441453933716, -8.758036613464355, 4.201991558074951, 30.929658889770508, -138.65298461914062, 93.97730255126953, -0.215087890625, 0.87109375, -0.530517578125, 
445, 4019182117, 0.8253701329231262, -0.5481777191162109, 0.07677290588617325, -0.1113300621509552, 3.499091863632202, -8.84344482421875, 4.606142997741699, 41.757713317871094, -142.27069091796875, 96.19373321533203, -0.211181640625, 0.8857421875, -0.53369140625, 
446, 4019190450, 0.829049825668335, -0.5455064177513123, 0.07152998447418213, -0.10002832114696503, 3.3618757724761963, -8.841313362121582, 4.848299026489258, 53.65859603881836, -145.182861328125, 97.068359375, -0.202880859375, 0.894287109375, -0.543212890625, 
