sep=,
PacketCounter,SampleTimeFine,Quat_W,Quat_X,Quat_Y,Quat_Z,Acc_X,Acc_Y,Acc_Z,Gyr_X,Gyr_Y,Gyr_Z,Mag_X,Mag_Y,Mag_Z,
0, 3080586329, 0.9662259817123413, -0.1134302169084549, -0.034082625061273575, -0.2288990020751953, 0, 0, 0, 0, 0, 0, -0.21435546875, 0.374755859375, -0.896484375, 
1, 3080594662, 0.9662333130836487, -0.11345217376947403, -0.03403687849640846, -0.22886425256729126, 1.1624730825424194, -1.9464246034622192, 9.429558753967285, -0.8977532386779785, -0.2108563780784607, 0.43727338314056396, -0.2158203125, 0.375732421875, -0.89599609375, 
2, 3080602995, 0.9662361741065979, -0.1135038211941719, -0.03398028761148453, -0.22883477807044983, 1.1349201202392578, -1.9171693325042725, 9.389851570129395, -1.3364484310150146, -0.11779986321926117, 0.39680296182632446, -0.21435546875, 0.3779296875, -0.897216796875, 
3, 3080611328, 0.9662364721298218, -0.11354155838489532, -0.033933136612176895, -0.22882184386253357, 1.133890151977539, -1.979720950126648, 9.415566444396973, -1.1344799995422363, -0.2106514573097229, 0.13336050510406494, -0.21728515625, 0.376220703125, -0.89501953125, 
4, 3080619661, 0.9662330150604248, -0.11356020718812943, -0.03389948233962059, -0.22883164882659912, 1.1250921487808228, -2.0487959384918213, 9.422611236572266, -0.8335127830505371, -0.29881566762924194, -0.01762259379029274, -0.216796875, 0.377685546875, -0.89697265625, 
5, 3080627994, 0.9662342071533203, -0.11353279650211334, -0.03389032185077667, -0.22884222865104675, 1.1162869930267334, -2.0870349407196045, 9.395316123962402, -0.15765562653541565, -0.4730437099933624, -0.265363484621048, -0.21630859375, 0.374755859375, -0.8974609375, 
6, 3080636327, 0.966240644454956, -0.1134461835026741, -0.03392505645751953, -0.22885292768478394, 1.1118378639221191, -2.0583808422088623, 9.408034324645996, 0.7791210412979126, -0.839480996131897, -0.29494792222976685, -0.2138671875, 0.376220703125, -0.89697265625, 
7, 3080644660, 0.9662512540817261, -0.11332627385854721, -0.03398347645998001, -0.22885921597480774, 1.128407597541809, -2.0264523029327393, 9.4727201461792, 1.300857424736023, -1.0822526216506958, -0.32806718349456787, -0.21484375, 0.374267578125, -0.8974609375, 
8, 3080652993, 0.966261625289917, -0.11320339143276215, -0.03403414785861969, -0.2288682758808136, 1.1371876001358032, -1.9985471963882446, 9.504969596862793, 1.3399447202682495, -0.9809997081756592, -0.11252333968877792, -0.21533203125, 0.375732421875, -0.8994140625, 
9, 3080661326, 0.9662778377532959, -0.1130974292755127, -0.03407576307654381, -0.22884637117385864, 1.1346628665924072, -1.985893964767456, 9.487465858459473, 1.084365725517273, -0.9434747695922852, 0.09796162694692612, -0.21630859375, 0.375732421875, -0.8974609375, 
10, 3080669659, 0.9662911891937256, -0.11301235109567642, -0.03411804884672165, -0.22882553935050964, 1.1169593334197998, -1.9921025037765503, 9.489404678344727, 0.801277220249176, -0.9785404801368713, 0.07844357937574387, -0.21630859375, 0.376220703125, -0.89697265625, 
11, 3080677992, 0.9663049578666687, -0.11293385177850723, -0.03414025157690048, -0.22880303859710693, 1.137030005455017, -1.959635615348816, 9.468862533569336, 0.6540722250938416, -0.7760601043701172, 0.14099355041980743, -0.2158203125, 0.37841796875, -0.89990234375, 
12, 3080686325, 0.9663110971450806, -0.11286824196577072, -0.03414907306432724, -0.2288077175617218, 1.1501555442810059, -1.9685980081558228, 9.476336479187012, 0.49242088198661804, -0.7003956437110901, 0.42956358194351196, -0.21435546875, 0.374267578125, -0.89599609375, 
13, 3080694658, 0.9663291573524475, -0.11281190067529678, -0.034142911434173584, -0.22875991463661194, 1.153517484664917, -1.9921811819076538, 9.466394424438477, 0.2887108623981476, -0.5045235753059387, 0.544212818145752, -0.2158203125, 0.375244140625, -0.896484375, 
14, 3080702991, 0.9663432836532593, -0.11276721954345703, -0.03413049876689911, -0.2287241518497467, 1.1660064458847046, -1.969285011291504, 9.41487979888916, 0.10538976639509201, -0.41026321053504944, 0.4192921817302704, -0.2158203125, 0.373779296875, -0.8994140625, 
15, 3080711324, 0.9663565158843994, -0.11272905766963959, -0.034110378473997116, -0.2286902368068695, 1.1290404796600342, -1.9504014253616333, 9.391439437866211, -0.010117623955011368, -0.35744667053222656, 0.3753894567489624, -0.21435546875, 0.374755859375, -0.89892578125, 
16, 3080719657, 0.9663589596748352, -0.11268139630556107, -0.034094832837581635, -0.2287060022354126, 1.1354494094848633, -1.8955820798873901, 9.387491226196289, 0.1313370019197464, -0.3563196361064911, 0.029392335563898087, -0.2158203125, 0.375244140625, -0.8955078125, 
17, 3080727990, 0.966364860534668, -0.112595334649086, -0.03409012407064438, -0.22872427105903625, 1.148967981338501, -1.9401153326034546, 9.406745910644531, 0.6383963227272034, -0.3334973156452179, -0.3882605731487274, -0.2138671875, 0.373779296875, -0.8984375, 
18, 3080736323, 0.966361403465271, -0.1124984547495842, -0.0340958833694458, -0.22878563404083252, 1.1563142538070679, -1.9376980066299438, 9.5072660446167, 0.8245350122451782, -0.41851094365119934, -0.6404582858085632, -0.216796875, 0.375244140625, -0.8974609375, 
19, 3080744656, 0.9663643836975098, -0.11238854378461838, -0.034087661653757095, -0.22882872819900513, 1.2146743535995483, -1.9375406503677368, 9.567950248718262, 0.9281958341598511, -0.17525260150432587, -0.7323365807533264, -0.214111328125, 0.373291015625, -0.896484375, 
20, 3080752989, 0.9663658142089844, -0.11231016367673874, -0.03405417874455452, -0.2288651168346405, 1.2094742059707642, -1.9145227670669556, 9.561748504638672, 0.446494460105896, 0.057363077998161316, -0.45116910338401794, -0.21630859375, 0.372802734375, -0.8974609375, 
21, 3080761322, 0.9663690328598022, -0.11224519461393356, -0.033998776227235794, -0.22889220714569092, 1.1820430755615234, -1.9148017168045044, 9.553000450134277, 0.18904584646224976, 0.2854834496974945, -0.42565733194351196, -0.21533203125, 0.374267578125, -0.8984375, 
22, 3080769655, 0.9663702249526978, -0.11218428611755371, -0.0339290015399456, -0.22892680764198303, 1.2040380239486694, -1.9204601049423218, 9.533187866210938, 0.08789525181055069, 0.5074820518493652, -0.48154759407043457, -0.2158203125, 0.373291015625, -0.8974609375, 
23, 3080777988, 0.966370165348053, -0.11216085404157639, -0.033833570778369904, -0.22895312309265137, 1.2143810987472534, -1.912605881690979, 9.513409614562988, -0.49263861775398254, 0.6845276951789856, -0.3432307839393616, -0.21337890625, 0.37451171875, -0.8994140625, 
24, 3080786321, 0.966364324092865, -0.11218374222517014, -0.03372726961970329, -0.22898241877555847, 1.1781591176986694, -1.8884649276733398, 9.43625259399414, -1.1404225826263428, 0.6999730467796326, -0.25855007767677307, -0.214111328125, 0.373779296875, -0.8974609375, 
25, 3080794654, 0.9663581848144531, -0.1122400164604187, -0.0336117260158062, -0.22899779677391052, 1.1578850746154785, -1.911517858505249, 9.379576683044434, -1.6192553043365479, 0.6802756786346436, -0.14951030910015106, -0.2177734375, 0.373779296875, -0.89794921875, 
26, 3080802987, 0.9663438200950623, -0.11234137415885925, -0.03351638466119766, -0.22902226448059082, 1.1428636312484741, -1.910440444946289, 9.365200996398926, -2.1602790355682373, 0.2938593029975891, -0.19520609080791473, -0.212646484375, 0.3740234375, -0.8984375, 
27, 3080811320, 0.9663266539573669, -0.11247817426919937, -0.033422380685806274, -0.22904148697853088, 1.1216646432876587, -1.9433337450027466, 9.360199928283691, -2.640059471130371, 0.14237673580646515, -0.23119409382343292, -0.213134765625, 0.373779296875, -0.8984375, 
28, 3080819653, 0.9663060307502747, -0.11261193454265594, -0.03334103897213936, -0.22907418012619019, 1.1337772607803345, -1.9453761577606201, 9.360149383544922, -2.56380558013916, 0.02347544953227043, -0.3651565611362457, -0.2138671875, 0.374755859375, -0.8984375, 
29, 3080827986, 0.9662883877754211, -0.11270719021558762, -0.03328445553779602, -0.22911062836647034, 1.1426302194595337, -2.0250139236450195, 9.415628433227539, -1.978520393371582, -0.1977674961090088, -0.5388978719711304, -0.215087890625, 0.372314453125, -0.8984375, 
30, 3080836319, 0.966271698474884, -0.1127430647611618, -0.03325878083705902, -0.22916677594184875, 1.1442548036575317, -2.067793369293213, 9.515419006347656, -1.0676013231277466, -0.4164618253707886, -0.5813150405883789, -0.21337890625, 0.37451171875, -0.8994140625, 
31, 3080844652, 0.9662668704986572, -0.11273685842752457, -0.03324276953935623, -0.2291930913925171, 1.160906434059143, -2.053316593170166, 9.544074058532715, -0.47880688309669495, -0.4271429479122162, -0.47368404269218445, -0.2138671875, 0.375732421875, -0.89697265625, 
32, 3080852985, 0.9662643074989319, -0.11273635178804398, -0.03321686387062073, -0.22920724749565125, 1.154518961906433, -1.9864088296890259, 9.500298500061035, -0.5470688343048096, -0.3511199355125427, -0.026792488992214203, -0.21337890625, 0.3740234375, -0.89990234375, 
33, 3080861318, 0.9662663340568542, -0.11274886131286621, -0.03318290039896965, -0.2291976809501648, 1.1005865335464478, -1.9787839651107788, 9.464835166931152, -0.7563371062278748, -0.2995584309101105, 0.06187117472290993, -0.21435546875, 0.375244140625, -0.89892578125, 
34, 3080869651, 0.9662677049636841, -0.11279577016830444, -0.03315696120262146, -0.2291724681854248, 1.1089409589767456, -1.995171070098877, 9.426538467407227, -1.188833475112915, -0.4915115237236023, 0.22329208254814148, -0.21630859375, 0.375244140625, -0.89794921875, 
35, 3080877984, 0.9662653803825378, -0.11286240071058273, -0.03313469886779785, -0.2291526198387146, 1.110271692276001, -1.9566246271133423, 9.421346664428711, -1.4402629137039185, -0.6455299258232117, 0.19209396839141846, -0.21630859375, 0.374267578125, -0.900390625, 
36, 3080886317, 0.9662564992904663, -0.11296626180410385, -0.033105261623859406, -0.2291431427001953, 1.1024290323257446, -1.9782230854034424, 9.375020027160645, -1.9644324779510498, -0.6332607269287109, 0.1449381411075592, -0.21484375, 0.376708984375, -0.89794921875, 
37, 3080894650, 0.9662489891052246, -0.11306490749120712, -0.03307804837822914, -0.22912997007369995, 1.0939991474151611, -1.9904496669769287, 9.375160217285156, -1.8933275938034058, -0.6717076897621155, 0.10871963202953339, -0.212890625, 0.376220703125, -0.896240234375, 
38, 3080902983, 0.9662438035011292, -0.11314914375543594, -0.033071670681238174, -0.22911125421524048, 1.0934737920761108, -2.005129098892212, 9.382999420166016, -1.6684343814849854, -0.8028525710105896, -0.17540627717971802, -0.21337890625, 0.376708984375, -0.895751953125, 
39, 3080911316, 0.9662355780601501, -0.11317859590053558, -0.03306792303919792, -0.22913232445716858, 1.1345911026000977, -2.052408218383789, 9.440779685974121, -0.9161442518234253, -0.7117170095443726, -0.41643622517585754, -0.21435546875, 0.374755859375, -0.89697265625, 
40, 3080919649, 0.9662330150604248, -0.11316084116697311, -0.03308060020208359, -0.2291502058506012, 1.1195486783981323, -2.052114963531494, 9.449821472167969, -0.242771714925766, -0.722065269947052, -0.5206092596054077, -0.21435546875, 0.376708984375, -0.896484375, 
41, 3080927982, 0.9662342071533203, -0.11310276389122009, -0.03310924768447876, -0.22916942834854126, 1.1008154153823853, -2.056978702545166, 9.460721969604492, 0.3650156557559967, -0.864787757396698, -0.4531158208847046, -0.216796875, 0.377685546875, -0.8984375, 
42, 3080936315, 0.9662485122680664, -0.11300351470708847, -0.033164869993925095, -0.22914940118789673, 1.118575930595398, -2.0266506671905518, 9.49343204498291, 0.9964321851730347, -1.0412442684173584, -0.2792976498603821, -0.21435546875, 0.376220703125, -0.894775390625, 
43, 3080944648, 0.9662600755691528, -0.1128958985209465, -0.03321430832147598, -0.22914713621139526, 1.1042344570159912, -2.0214436054229736, 9.487837791442871, 1.1146419048309326, -1.0143237113952637, -0.19039060175418854, -0.212890625, 0.376953125, -0.896240234375, 
44, 3080952981, 0.9662679433822632, -0.11280042678117752, -0.03325989469885826, -0.22915434837341309, 1.107767939567566, -1.9848781824111938, 9.475414276123047, 0.9641709923744202, -1.0186909437179565, -0.006698122248053551, -0.21337890625, 0.37451171875, -0.89892578125, 
45, 3080961314, 0.9662822484970093, -0.11271794140338898, -0.03330357372760773, -0.2291281521320343, 1.096895694732666, -1.9864733219146729, 9.445414543151855, 0.7781732082366943, -1.0525656938552856, 0.157284215092659, -0.2158203125, 0.373779296875, -0.89892578125, 
46, 3080969647, 0.9662988781929016, -0.1126541793346405, -0.03335244953632355, -0.22908204793930054, 1.0997567176818848, -1.9642778635025024, 9.445380210876465, 0.5451093316078186, -1.1528966426849365, 0.33064135909080505, -0.2138671875, 0.374267578125, -0.8984375, 
47, 3080977980, 0.9663100838661194, -0.11262247711420059, -0.033407896757125854, -0.22904255986213684, 1.130470871925354, -1.9448580741882324, 9.44229507446289, 0.1416851431131363, -1.3906223773956299, 0.32915571331977844, -0.21630859375, 0.374755859375, -0.8984375, 
48, 3080986313, 0.966317355632782, -0.11261353641748428, -0.0334552526473999, -0.22900936007499695, 1.14218008518219, -1.932755470275879, 9.435463905334473, -0.2008155882358551, -1.3080165386199951, 0.23843008279800415, -0.21630859375, 0.376708984375, -0.89599609375, 
49, 3080994646, 0.9663224220275879, -0.11261539906263351, -0.033506639301776886, -0.22897958755493164, 1.1511142253875732, -1.9304522275924683, 9.388564109802246, -0.3309871554374695, -1.4302220344543457, 0.2029031664133072, -0.21337890625, 0.37548828125, -0.89794921875, 
50, 3081002979, 0.966320276260376, -0.11263035982847214, -0.03355362266302109, -0.22897401452064514, 1.1657989025115967, -1.9187144041061401, 9.41311264038086, -0.5250661969184875, -1.3774056434631348, 0.029955849051475525, -0.21435546875, 0.374755859375, -0.896484375, 
51, 3081011312, 0.9663205146789551, -0.1126001849770546, -0.03360170125961304, -0.22898104786872864, 1.1868067979812622, -1.950344204902649, 9.431416511535645, 0.058951158076524734, -1.2303797006607056, -0.3119557797908783, -0.214111328125, 0.372314453125, -0.8974609375, 
52, 3081019645, 0.9663273096084595, -0.11252411454916, -0.03365087881684303, -0.22898194193840027, 1.1567223072052002, -2.0188472270965576, 9.47164535522461, 0.6582730412483215, -1.0228276252746582, -0.45946812629699707, -0.21484375, 0.375244140625, -0.8974609375, 
53, 3081027978, 0.9663369059562683, -0.11241096258163452, -0.033713649958372116, -0.22898823022842407, 1.1665444374084473, -2.015557050704956, 9.505009651184082, 1.2218374013900757, -1.1609139442443848, -0.33449625968933105, -0.21533203125, 0.373779296875, -0.89892578125, 
54, 3081036311, 0.9663451910018921, -0.11232338100671768, -0.03376778960227966, -0.22898820042610168, 1.162251353263855, -1.9486562013626099, 9.521463394165039, 0.8599082231521606, -1.107866883277893, -0.2023780643939972, -0.216796875, 0.373779296875, -0.8984375, 
55, 3081044644, 0.9663552045822144, -0.11227735131978989, -0.033813949674367905, -0.2289617955684662, 1.149261713027954, -1.8906607627868652, 9.5108003616333, 0.2935519516468048, -1.2033311128616333, 0.15953825414180756, -0.21484375, 0.374755859375, -0.89794921875, 
56, 3081052977, 0.9663578271865845, -0.11228004842996597, -0.03385854512453079, -0.2289433777332306, 1.1313222646713257, -1.8859186172485352, 9.474913597106934, -0.37596574425697327, -1.2887547016143799, 0.04663071408867836, -0.21533203125, 0.375244140625, -0.89794921875, 
57, 3081061310, 0.9663523435592651, -0.112327441573143, -0.03388594835996628, -0.22893905639648438, 1.1500341892242432, -1.912763237953186, 9.456974983215332, -1.0397331714630127, -1.2203645706176758, -0.11065348982810974, -0.21484375, 0.373779296875, -0.89892578125, 
58, 3081069643, 0.966342568397522, -0.11238963156938553, -0.03390931338071823, -0.22894588112831116, 1.1524008512496948, -1.9220017194747925, 9.43130874633789, -1.2458508014678955, -1.19446861743927, -0.11183173954486847, -0.21533203125, 0.373779296875, -0.8984375, 
59, 3081077976, 0.966331422328949, -0.11243751645088196, -0.033926740288734436, -0.22896695137023926, 1.1714211702346802, -1.929429292678833, 9.398835182189941, -1.0996959209442139, -1.052437663078308, -0.4492480754852295, -0.21435546875, 0.372802734375, -0.90087890625, 
60, 3081086309, 0.9663375020027161, -0.11244720220565796, -0.03395579382777214, -0.2289322018623352, 1.1650477647781372, -1.931503415107727, 9.450356483459473, -0.5923804044723511, -0.9667067527770996, -0.44837716221809387, -0.21484375, 0.374755859375, -0.900390625, 
61, 3081094642, 0.9663293957710266, -0.1124369353055954, -0.03397795930504799, -0.2289680540561676, 1.1664141416549683, -1.9787768125534058, 9.50519847869873, -0.3126985430717468, -0.908562421798706, -0.670606255531311, -0.21337890625, 0.373779296875, -0.89990234375, 
62, 3081102975, 0.9663228392601013, -0.1124301478266716, -0.03399510309100151, -0.22899660468101501, 1.1833020448684692, -1.9589850902557373, 9.524175643920898, -0.36369654536247253, -0.8425545692443848, -0.49417540431022644, -0.212646484375, 0.373291015625, -0.8974609375, 
63, 3081111308, 0.966315507888794, -0.11244489997625351, -0.03399224206805229, -0.22902068495750427, 1.1689175367355347, -1.967389464378357, 9.444091796875, -0.7179926037788391, -0.6712978482246399, -0.4623368978500366, -0.213623046875, 0.373046875, -0.90087890625, 
64, 3081119641, 0.9662914872169495, -0.11247815191745758, -0.03397146984934807, -0.22910907864570618, 1.1511785984039307, -1.999140977859497, 9.37814998626709, -0.9734433889389038, -0.559056282043457, -0.4413076341152191, -0.21435546875, 0.373291015625, -0.89990234375, 
65, 3081127974, 0.9662885665893555, -0.1124771386384964, -0.033964853733778, -0.22912266850471497, 1.1237974166870117, -2.0538313388824463, 9.44116497039795, -0.5080327391624451, -0.5876929759979248, -0.3099834620952606, -0.215576171875, 0.371826171875, -0.8974609375, 
66, 3081136307, 0.9662930965423584, -0.11246109008789062, -0.03397553414106369, -0.22910979390144348, 1.1637389659881592, -2.0438389778137207, 9.526371002197266, -0.2646462917327881, -0.7111024260520935, -0.24984125792980194, -0.2158203125, 0.373291015625, -0.89990234375, 
67, 3081144640, 0.9662975072860718, -0.11245265603065491, -0.03396361321210861, -0.22909727692604065, 1.1906837224960327, -1.9488922357559204, 9.569180488586426, -0.4039108455181122, -0.5307525396347046, 0.06489365547895432, -0.21533203125, 0.373291015625, -0.89990234375, 
68, 3081152973, 0.9662958383560181, -0.1124722808599472, -0.033928658813238144, -0.22910016775131226, 1.1636674404144287, -1.933678150177002, 9.508517265319824, -0.8366889357566833, -0.30926626920700073, 0.13840651512145996, -0.21435546875, 0.374267578125, -0.89892578125, 
69, 3081161306, 0.9663028120994568, -0.11248413473367691, -0.03388189896941185, -0.22907143831253052, 1.1461354494094849, -1.9298654794692993, 9.454469680786133, -0.7712446451187134, -0.1550942063331604, 0.35092782974243164, -0.2138671875, 0.374267578125, -0.89892578125, 
70, 3081169639, 0.9663066864013672, -0.11249592155218124, -0.033841393887996674, -0.22905531525611877, 1.1302134990692139, -1.9410881996154785, 9.42188835144043, -0.7670183777809143, -0.1769687682390213, 0.12575308978557587, -0.2177734375, 0.373291015625, -0.900390625, 
71, 3081177972, 0.9663070440292358, -0.11251328140497208, -0.03379533439874649, -0.22905224561691284, 1.1436394453048706, -1.9184569120407104, 9.432990074157715, -0.8638657331466675, -0.14559131860733032, -0.008222169242799282, -0.21435546875, 0.374267578125, -0.89794921875, 
72, 3081186305, 0.9663049578666687, -0.1125388815999031, -0.033750053495168686, -0.22905486822128296, 1.1374021768569946, -1.8971842527389526, 9.427854537963867, -0.9856100678443909, -0.12607325613498688, -0.1448228806257248, -0.216796875, 0.373291015625, -0.89990234375, 
73, 3081194638, 0.9662987589836121, -0.11256144195795059, -0.03370946645736694, -0.22907599806785583, 1.1425880193710327, -1.9535129070281982, 9.439170837402344, -0.938838541507721, -0.2002776861190796, -0.35754910111427307, -0.214111328125, 0.372802734375, -0.89892578125, 
74, 3081202971, 0.9662808179855347, -0.11258897185325623, -0.03368115797638893, -0.22914257645606995, 1.1593395471572876, -1.9606590270996094, 9.429801940917969, -0.9604313373565674, -0.36159616708755493, -0.6305968761444092, -0.212646484375, 0.373779296875, -0.89697265625, 
75, 3081211304, 0.9662640690803528, -0.1126222163438797, -0.03366303816437721, -0.22919920086860657, 1.165634036064148, -1.9595143795013428, 9.442524909973145, -1.0414490699768066, -0.48257219791412354, -0.8915033936500549, -0.21337890625, 0.374755859375, -0.8974609375, 
76, 3081219637, 0.9662498831748962, -0.11264507472515106, -0.033648256212472916, -0.22924932837486267, 1.1643970012664795, -1.9811515808105469, 9.427490234375, -0.8987779021263123, -0.4469427764415741, -0.9053606986999512, -0.21533203125, 0.375244140625, -0.900390625, 
77, 3081227970, 0.9662376642227173, -0.11265401542186737, -0.03362405300140381, -0.22930052876472473, 1.1608846187591553, -1.978183388710022, 9.464241027832031, -0.7276747822761536, -0.3308078348636627, -0.8068227767944336, -0.2138671875, 0.375, -0.90087890625, 
78, 3081236303, 0.9662270545959473, -0.11266622692346573, -0.03359217941761017, -0.22934356331825256, 1.162966012954712, -1.9910085201263428, 9.471688270568848, -0.7689648866653442, -0.25893428921699524, -0.48457011580467224, -0.2138671875, 0.37548828125, -0.8994140625, 
79, 3081244636, 0.966221272945404, -0.11267239600419998, -0.03355669602751732, -0.2293701171875, 1.1386395692825317, -1.9483486413955688, 9.50278091430664, -0.7060051560401917, -0.2080388069152832, -0.4424602687358856, -0.215576171875, 0.371826171875, -0.8994140625, 
80, 3081252969, 0.9662228226661682, -0.11270713806152344, -0.03351939097046852, -0.22935256361961365, 1.1554559469223022, -1.9494858980178833, 9.473955154418945, -1.1138604879379272, -0.20265981554985046, -0.27791446447372437, -0.214599609375, 0.372314453125, -0.89892578125, 
81, 3081261302, 0.9662160873413086, -0.11275260895490646, -0.03347389027476311, -0.22936469316482544, 1.1265369653701782, -1.9390712976455688, 9.43559455871582, -1.2539961338043213, -0.2211277037858963, -0.22084595263004303, -0.21533203125, 0.376220703125, -0.8994140625, 
82, 3081269635, 0.9662061333656311, -0.11281207948923111, -0.03341737389564514, -0.229385644197464, 1.131229281425476, -1.9732047319412231, 9.447103500366211, -1.456707239151001, -0.1246388778090477, -0.08470628410577774, -0.2138671875, 0.374755859375, -0.8974609375, 
83, 3081277968, 0.9662017822265625, -0.1128482073545456, -0.033370185643434525, -0.2293933928012848, 1.1296340227127075, -1.9793635606765747, 9.443563461303711, -1.1303561925888062, -0.17540627717971802, -0.1583472043275833, -0.212158203125, 0.37451171875, -0.89697265625, 
84, 3081286301, 0.9661960601806641, -0.11285634338855743, -0.033320292830467224, -0.22942104935646057, 1.1516432762145996, -1.9970811605453491, 9.472911834716797, -0.7539806365966797, -0.032248321920633316, -0.2208971530199051, -0.21337890625, 0.374755859375, -0.89697265625, 
85, 3081294634, 0.9661927223205566, -0.1128665879368782, -0.03326345607638359, -0.22943803668022156, 1.1429957151412964, -1.9719243049621582, 9.49232292175293, -0.818528413772583, 0.05003740265965462, -0.2729965150356293, -0.21533203125, 0.376220703125, -0.89892578125, 
86, 3081302967, 0.966191828250885, -0.11288156360387802, -0.03319156542420387, -0.22944515943527222, 1.140649676322937, -1.9899921417236328, 9.473045349121094, -0.9250068664550781, 0.26053518056869507, -0.13452595472335815, -0.212646484375, 0.37353515625, -0.89892578125, 
87, 3081311300, 0.9661908149719238, -0.1129031702876091, -0.03311094641685486, -0.22945013642311096, 1.1412575244903564, -1.9897205829620361, 9.472395896911621, -1.0370947122573853, 0.3123783469200134, -0.06616156548261642, -0.21240234375, 0.37451171875, -0.89794921875, 
88, 3081319633, 0.9661928415298462, -0.11291797459125519, -0.033041276037693024, -0.22944432497024536, 1.1474664211273193, -2.0500831604003906, 9.489046096801758, -0.9212158918380737, 0.24286139011383057, -0.09431160986423492, -0.21337890625, 0.3759765625, -0.8994140625, 
89, 3081327966, 0.966195285320282, -0.11292482912540436, -0.03296907991170883, -0.22944149374961853, 1.1430457830429077, -2.072500467300415, 9.450465202331543, -0.803287923336029, 0.2364834100008011, 0.030749889090657234, -0.2138671875, 0.3759765625, -0.8984375, 
90, 3081336299, 0.9662063121795654, -0.11291920393705368, -0.03289349377155304, -0.22940850257873535, 1.1468725204467773, -2.035377025604248, 9.446300506591797, -0.6610521674156189, 0.38325297832489014, 0.1358194798231125, -0.21435546875, 0.374755859375, -0.8984375, 
91, 3081344632, 0.9662131071090698, -0.11290458589792252, -0.032820552587509155, -0.229397714138031, 1.125278115272522, -2.020921230316162, 9.44736099243164, -0.5107990503311157, 0.3022351562976837, 0.14155705273151398, -0.211669921875, 0.37451171875, -0.896728515625, 
92, 3081352965, 0.9662215709686279, -0.11288435757160187, -0.032761991024017334, -0.22938045859336853, 1.0887771844863892, -2.051199197769165, 9.460078239440918, -0.3797309994697571, 0.14442585408687592, 0.2592032253742218, -0.21435546875, 0.37939453125, -0.899658203125, 
93, 3081361298, 0.9662309288978577, -0.11285441368818283, -0.032719936221838, -0.22936168313026428, 1.104198694229126, -1.9951424598693848, 9.428033828735352, -0.20260858535766602, -0.06887668371200562, 0.2010333240032196, -0.211669921875, 0.375, -0.898193359375, 
94, 3081369631, 0.9662444591522217, -0.11282453685998917, -0.03269477188587189, -0.22932282090187073, 1.1181461811065674, -2.000049591064453, 9.426122665405273, -0.1758929342031479, -0.21423745155334473, 0.10362238436937332, -0.21337890625, 0.375, -0.89990234375, 
95, 3081377964, 0.9662531018257141, -0.11277655512094498, -0.03268277645111084, -0.2293119728565216, 1.0816385746002197, -2.0062007904052734, 9.427018165588379, 0.1274692267179489, -0.39950522780418396, 0.03771695867180824, -0.213623046875, 0.373291015625, -0.89697265625, 
96, 3081386297, 0.9662611484527588, -0.11269790679216385, -0.032694507390260696, -0.22931453585624695, 1.1037909984588623, -2.0143191814422607, 9.428906440734863, 0.5985150337219238, -0.5552909970283508, -0.23162952065467834, -0.209716796875, 0.37353515625, -0.900390625, 
97, 3081394630, 0.9662699103355408, -0.1125999465584755, -0.032728590071201324, -0.22932088375091553, 1.1092486381530762, -2.005843162536621, 9.443090438842773, 0.9285544157028198, -0.8279033303260803, -0.2838057279586792, -0.21337890625, 0.3740234375, -0.90283203125, 
98, 3081402963, 0.9662838578224182, -0.11248119920492172, -0.03277869522571564, -0.22931280732154846, 1.1074174642562866, -1.9543708562850952, 9.442545890808105, 1.255494475364685, -0.9349707365036011, -0.23916012048721313, -0.212890625, 0.37744140625, -0.8994140625, 
99, 3081411296, 0.9662933945655823, -0.11238093674182892, -0.03282710164785385, -0.2293154001235962, 1.1275885105133057, -1.8866626024246216, 9.443934440612793, 1.008291482925415, -1.015834927558899, -0.2542725205421448, -0.211669921875, 0.37255859375, -0.900390625, 
100, 3081419629, 0.9662925004959106, -0.11233363300561905, -0.03285599127411842, -0.2293378710746765, 1.1251065731048584, -1.8651540279388428, 9.444221496582031, 0.2511603832244873, -0.9274658560752869, -0.20460651814937592, -0.212890625, 0.374755859375, -0.89794921875, 
101, 3081427962, 0.9662949442863464, -0.11231383681297302, -0.03287508338689804, -0.22933447360992432, 1.1428526639938354, -1.9048950672149658, 9.438827514648438, -0.16203564405441284, -0.8943977952003479, -0.11444439738988876, -0.21337890625, 0.373046875, -0.90283203125, 
102, 3081436295, 0.9663052558898926, -0.11232399195432663, -0.032886020839214325, -0.22928458452224731, 1.1393120288848877, -1.8990583419799805, 9.441938400268555, -0.6316726207733154, -0.76642906665802, -0.12868592143058777, -0.2119140625, 0.375, -0.90087890625, 
103, 3081444628, 0.966305136680603, -0.11234356462955475, -0.03288217633962631, -0.22927647829055786, 1.1335896253585815, -1.906068205833435, 9.476465225219727, -0.7600511908531189, -0.7209638953208923, -0.00770988455042243, -0.213623046875, 0.373779296875, -0.8984375, 
104, 3081452961, 0.9663037657737732, -0.11236173659563065, -0.03285864368081093, -0.22927653789520264, 1.124834656715393, -1.95443594455719, 9.5149564743042, -0.8090255856513977, -0.40954601764678955, -0.09162212163209915, -0.21435546875, 0.375732421875, -0.8974609375, 
105, 3081461294, 0.9663028717041016, -0.1123807355761528, -0.03283104673027992, -0.22927504777908325, 1.1403419971466064, -1.9540497064590454, 9.4889554977417, -0.8312844038009644, -0.39404940605163574, -0.06170469522476196, -0.21337890625, 0.374267578125, -0.8974609375, 
106, 3081469627, 0.9663026928901672, -0.1123875305056572, -0.03280360996723175, -0.22927626967430115, 1.1225956678390503, -1.984391450881958, 9.47789478302002, -0.6619741916656494, -0.3338046967983246, -0.03632098436355591, -0.212158203125, 0.374267578125, -0.89697265625, 
107, 3081477960, 0.9663055539131165, -0.11238200217485428, -0.03277625888586044, -0.22927060723304749, 1.1090552806854248, -1.9956071376800537, 9.465004920959473, -0.4957122504711151, -0.3247116506099701, -0.00514846108853817, -0.2138671875, 0.37548828125, -0.89892578125, 
108, 3081486293, 0.9663053750991821, -0.11239577829837799, -0.03275138512253761, -0.22926855087280273, 1.1135904788970947, -2.018625497817993, 9.440566062927246, -0.7493700385093689, -0.3854942321777344, -0.03580869734287262, -0.21240234375, 0.37548828125, -0.89892578125, 
109, 3081494626, 0.9663070440292358, -0.11239795386791229, -0.03273244574666023, -0.2292630970478058, 1.1083401441574097, -2.002624273300171, 9.408964157104492, -0.5753981471061707, -0.46090251207351685, -0.023180881515145302, -0.212158203125, 0.374267578125, -0.89697265625, 
110, 3081502959, 0.9663099050521851, -0.11238066852092743, -0.032723452895879745, -0.2292604148387909, 1.1133328676223755, -2.041600227355957, 9.407705307006836, -0.28626468777656555, -0.4886171221733093, -0.09761584550142288, -0.21142578125, 0.37646484375, -0.898193359375, 
111, 3081511292, 0.9663146138191223, -0.11235377192497253, -0.032727427780628204, -0.22925302386283875, 1.0987123250961304, -2.0253775119781494, 9.450242042541504, -0.1089373379945755, -0.6759852766990662, -0.03565501421689987, -0.213623046875, 0.373291015625, -0.89697265625, 
112, 3081519625, 0.9663170576095581, -0.11232130974531174, -0.03274569660425186, -0.22925624251365662, 1.1159794330596924, -1.9468679428100586, 9.468096733093262, 0.010514642111957073, -0.8198603987693787, -0.11295876652002335, -0.2138671875, 0.37646484375, -0.8974609375, 
113, 3081527958, 0.9663201570510864, -0.11229430139064789, -0.03274429962038994, -0.22925657033920288, 1.1299419403076172, -1.9724396467208862, 9.475443840026855, -0.13086313009262085, -0.5909972786903381, -0.13585790991783142, -0.213623046875, 0.373291015625, -0.89892578125, 
114, 3081536291, 0.9663209915161133, -0.11227797716856003, -0.03274304047226906, -0.22926124930381775, 1.1027895212173462, -1.9715094566345215, 9.432811737060547, -0.26449257135391235, -0.6178409457206726, -0.05857975035905838, -0.2138671875, 0.373779296875, -0.900390625, 
115, 3081544624, 0.9663241505622864, -0.11225400120019913, -0.03274637460708618, -0.22925907373428345, 1.0868029594421387, -1.9524900913238525, 9.433655738830566, -0.15481244027614594, -0.6698635220527649, -0.10594048351049423, -0.212890625, 0.37353515625, -0.90087890625, 
116, 3081552957, 0.9663299322128296, -0.1122293472290039, -0.032761719077825546, -0.2292446792125702, 1.079986333847046, -1.9535558223724365, 9.485564231872559, -0.1030716821551323, -0.8041589260101318, 0.01602170243859291, -0.214599609375, 0.372802734375, -0.900390625, 
117, 3081561290, 0.9663354754447937, -0.11223097890615463, -0.032769378274679184, -0.22921934723854065, 1.112789273262024, -1.9315751791000366, 9.500112533569336, -0.46876609325408936, -0.8410689830780029, 0.21255971491336823, -0.212646484375, 0.37353515625, -0.89990234375, 
118, 3081569623, 0.9663376808166504, -0.11224766075611115, -0.03277846425771713, -0.22920069098472595, 1.112882375717163, -1.8767200708389282, 9.467060089111328, -0.6773172616958618, -0.8578464388847351, 0.07414040714502335, -0.213134765625, 0.373779296875, -0.89892578125, 
119, 3081577956, 0.9663329720497131, -0.11229845136404037, -0.03274545818567276, -0.22920039296150208, 1.1021887063980103, -1.8848026990890503, 9.414085388183594, -1.276562213897705, -0.42112356424331665, -0.06626401841640472, -0.21435546875, 0.375, -0.9013671875, 
120, 3081586289, 0.9663196802139282, -0.1123383492231369, -0.03271801769733429, -0.2292405664920807, 1.0983262062072754, -1.9980179071426392, 9.423005104064941, -1.105279803276062, -0.44942736625671387, -0.2843180000782013, -0.2119140625, 0.375, -0.8994140625, 
121, 3081594622, 0.9663165211677551, -0.11235088109970093, -0.03270167112350464, -0.2292502224445343, 1.10359787940979, -2.0844600200653076, 9.525018692016602, -0.7191452980041504, -0.5067008137702942, -0.23780253529548645, -0.212890625, 0.374755859375, -0.8974609375, 
122, 3081602955, 0.9663205146789551, -0.1123255267739296, -0.03270823508501053, -0.22924500703811646, 1.1445764303207397, -2.0906901359558105, 9.571133613586426, -0.12896767258644104, -0.6699146628379822, -0.10993628948926926, -0.214111328125, 0.372802734375, -0.89794921875, 
123, 3081611288, 0.9663264155387878, -0.11227605491876602, -0.032686442136764526, -0.22924718260765076, 1.1750693321228027, -2.0227599143981934, 9.507109642028809, 0.1056971400976181, -0.24607594311237335, -0.12991538643836975, -0.213134765625, 0.373046875, -0.90185546875, 
124, 3081619621, 0.9663434624671936, -0.11220822483301163, -0.032668694853782654, -0.22921109199523926, 1.1330317258834839, -1.9873745441436768, 9.444535255432129, 0.3586377203464508, -0.19267027080059052, 0.06566210091114044, -0.213134765625, 0.37353515625, -0.900390625, 
125, 3081627954, 0.9663538336753845, -0.11213292926549911, -0.03265238553285599, -0.22920653223991394, 1.123060703277588, -2.0036330223083496, 9.432990074157715, 0.47733408212661743, -0.24569173157215118, -0.04577263817191124, -0.213623046875, 0.372802734375, -0.900390625, 
126, 3081636287, 0.966367244720459, -0.11206073313951492, -0.03265167027711868, -0.22918608784675598, 1.1311291456222534, -1.989548921585083, 9.459205627441406, 0.484813392162323, -0.4338538944721222, 0.05539077892899513, -0.212646484375, 0.3740234375, -0.8994140625, 
127, 3081644620, 0.9663777947425842, -0.11198404431343079, -0.032650455832481384, -0.22917941212654114, 1.1679376363754272, -2.030034065246582, 9.445980072021484, 0.5453142523765564, -0.444304496049881, -0.03983013704419136, -0.21337890625, 0.374267578125, -0.89794921875, 
128, 3081652953, 0.9663932919502258, -0.11189527064561844, -0.032669782638549805, -0.22915425896644592, 1.1583960056304932, -2.0025815963745117, 9.432389259338379, 0.7617032527923584, -0.632236123085022, -0.014856255613267422, -0.21142578125, 0.37451171875, -0.90185546875, 
129, 3081661286, 0.9664056301116943, -0.11181389540433884, -0.03270150348544121, -0.22913768887519836, 1.165784478187561, -1.9189075231552124, 9.410924911499023, 0.7175187468528748, -0.8842033743858337, 0.04450473189353943, -0.210693359375, 0.37353515625, -0.900390625, 
130, 3081669619, 0.9664113521575928, -0.1117759421467781, -0.03273949772119522, -0.22912698984146118, 1.1562212705612183, -1.8755040168762207, 9.413263320922852, 0.14240233600139618, -1.0581753253936768, -0.07768796384334564, -0.2109375, 0.3759765625, -0.90283203125, 
131, 3081677952, 0.9664087295532227, -0.11179432272911072, -0.03277852013707161, -0.22912323474884033, 1.1313936710357666, -1.851792335510254, 9.416258811950684, -0.6134609580039978, -1.2805581092834473, -0.14005865156650543, -0.212158203125, 0.3740234375, -0.89990234375, 
132, 3081686285, 0.9664003252983093, -0.11184115707874298, -0.03281005099415779, -0.2291313111782074, 1.142781138420105, -1.9092224836349487, 9.423542022705078, -1.039656162261963, -1.2079927921295166, -0.36305615305900574, -0.213623046875, 0.372314453125, -0.900390625, 
133, 3081694618, 0.9663891196250916, -0.1118851751089096, -0.032833416014909744, -0.22915393114089966, 1.1545761823654175, -1.9635913372039795, 9.41268253326416, -1.0286931991577148, -1.1174978017807007, -0.48195740580558777, -0.2109375, 0.37548828125, -0.90185546875, 
134, 3081702951, 0.9663753509521484, -0.11188782006502151, -0.032883767038583755, -0.22920292615890503, 1.1601125001907349, -1.9987903833389282, 9.466094017028809, -0.38398298621177673, -1.3269709348678589, -0.659873902797699, -0.21484375, 0.373779296875, -0.900390625, 
135, 3081711284, 0.9663680791854858, -0.11184462159872055, -0.032938774675130844, -0.22924676537513733, 1.1579022407531738, -1.967847228050232, 9.49852466583252, 0.22726230323314667, -1.227946400642395, -0.8404542803764343, -0.21435546875, 0.373291015625, -0.90087890625, 
136, 3081719617, 0.9663628339767456, -0.11180172860622406, -0.0329928956925869, -0.22928160429000854, 1.15061354637146, -1.9014477729797363, 9.46938419342041, 0.2165299504995346, -1.179023265838623, -0.7979347705841064, -0.213134765625, 0.372314453125, -0.89794921875, 
137, 3081727950, 0.9663544297218323, -0.11180373281240463, -0.033017806708812714, -0.22931259870529175, 1.146822452545166, -1.8919126987457275, 9.481908798217773, -0.4659741222858429, -0.9915270209312439, -0.6057766079902649, -0.211669921875, 0.373046875, -0.900390625, 
138, 3081736283, 0.9663439989089966, -0.11185649037361145, -0.03302917256951332, -0.22932982444763184, 1.1229747533798218, -1.8902678489685059, 9.465315818786621, -1.1894994974136353, -0.9451395869255066, -0.46415555477142334, -0.212646484375, 0.370849609375, -0.89990234375, 
139, 3081744616, 0.9663229584693909, -0.11197961866855621, -0.03301433101296425, -0.229360431432724, 1.1135226488113403, -1.8545889854431152, 9.49167251586914, -2.2199859619140625, -0.8516221642494202, -0.5248612761497498, -0.211669921875, 0.37109375, -0.900390625, 
140, 3081752949, 0.9662947654724121, -0.11216071248054504, -0.032975297421216965, -0.22939589619636536, 1.1104094982147217, -1.8636914491653442, 9.510078430175781, -3.0882568359375, -0.6613851189613342, -0.6142292618751526, -0.214111328125, 0.372314453125, -0.89892578125, 
141, 3081761282, 0.9662609100341797, -0.11236894130706787, -0.032908350229263306, -0.2294463813304901, 1.1097054481506348, -1.9036736488342285, 9.510826110839844, -3.543447971343994, -0.4022971987724304, -0.7105132937431335, -0.209716796875, 0.3720703125, -0.8984375, 
142, 3081769615, 0.9662193655967712, -0.11256655305624008, -0.03282216563820839, -0.22953665256500244, 1.1081026792526245, -1.9127150774002075, 9.481176376342773, -3.4535162448883057, -0.10040781646966934, -0.8827434182167053, -0.21484375, 0.373291015625, -0.8984375, 
143, 3081777948, 0.966187596321106, -0.1127004474401474, -0.03273884952068329, -0.2296164333820343, 1.0972700119018555, -2.007802963256836, 9.451391220092773, -2.6182103157043457, 0.09435003250837326, -1.1008741855621338, -0.214111328125, 0.372802734375, -0.89892578125, 
144, 3081786281, 0.9661573171615601, -0.11278266459703445, -0.032670050859451294, -0.22971314191818237, 1.086159586906433, -2.0734760761260986, 9.480486869812012, -1.8509998321533203, 0.049512315541505814, -1.0141059160232544, -0.2119140625, 0.375, -0.8994140625, 
145, 3081794614, 0.9661383032798767, -0.11282064020633698, -0.03262659162282944, -0.2297806739807129, 1.0931546688079834, -2.0553908348083496, 9.452138900756836, -1.1920607089996338, -0.14466920495033264, -1.0044877529144287, -0.21435546875, 0.376220703125, -0.8984375, 
146, 3081802947, 0.9661117792129517, -0.11284644156694412, -0.03258907049894333, -0.22988465428352356, 1.0916736125946045, -2.0437822341918945, 9.406390190124512, -0.9578443169593811, -0.2554507553577423, -0.8067202568054199, -0.211669921875, 0.3740234375, -0.8984375, 
147, 3081811280, 0.9661004543304443, -0.11286967247724533, -0.0325656533241272, -0.22992417216300964, 1.091659426689148, -2.089782238006592, 9.401583671569824, -0.9086393713951111, -0.40511471033096313, -0.642712414264679, -0.212890625, 0.374755859375, -0.8974609375, 
148, 3081819613, 0.9660959839820862, -0.11286534368991852, -0.03257331997156143, -0.22994452714920044, 1.0864311456680298, -2.0980215072631836, 9.418434143066406, -0.4239155650138855, -0.7273417711257935, -0.4163593649864197, -0.214111328125, 0.373779296875, -0.89599609375, 
149, 3081827946, 0.9660938382148743, -0.11285194009542465, -0.032597944140434265, -0.2299564778804779, 1.1046708822250366, -2.0814132690429688, 9.462976455688477, -0.24453911185264587, -0.9651443958282471, -0.3404131531715393, -0.212158203125, 0.37353515625, -0.90087890625, 
150, 3081836279, 0.9660985469818115, -0.11283190548419952, -0.03262469917535782, -0.22994279861450195, 1.137158989906311, -2.023167371749878, 9.456193923950195, -0.14976643025875092, -0.9327679872512817, -0.1889818161725998, -0.21337890625, 0.37548828125, -0.8994140625, 
151, 3081844612, 0.966103196144104, -0.11279800534248352, -0.03264157846570015, -0.22993764281272888, 1.121243953704834, -2.0051636695861816, 9.427725791931152, 0.022860702127218246, -0.8205263614654541, -0.08757506310939789, -0.21337890625, 0.375244140625, -0.8955078125, 
152, 3081852945, 0.9661121368408203, -0.1127314493060112, -0.032676469534635544, -0.2299276888370514, 1.1339831352233887, -2.0199127197265625, 9.455699920654297, 0.5148333311080933, -0.9181678295135498, -0.11700582504272461, -0.215576171875, 0.372314453125, -0.8974609375, 
153, 3081861278, 0.9661231637001038, -0.11264212429523468, -0.032719600945711136, -0.2299191951751709, 1.1451129913330078, -2.04386043548584, 9.483990669250488, 0.8530437350273132, -0.9972647428512573, -0.0894705206155777, -0.213623046875, 0.373779296875, -0.8974609375, 
154, 3081869611, 0.9661323428153992, -0.11256349086761475, -0.0327758863568306, -0.22991111874580383, 1.1350202560424805, -1.9741846323013306, 9.475835800170898, 0.755888819694519, -1.1823017597198486, -0.07310302555561066, -0.2158203125, 0.373779296875, -0.8974609375, 
155, 3081877944, 0.9661444425582886, -0.11248642951250076, -0.03282393515110016, -0.22989097237586975, 1.137008786201477, -1.9420254230499268, 9.453547477722168, 0.7132667899131775, -1.118855357170105, 0.06827473640441895, -0.21337890625, 0.373779296875, -0.8994140625, 
156, 3081886277, 0.9661573767662048, -0.11241313815116882, -0.0328659750521183, -0.229866623878479, 1.108096957206726, -1.9259244203567505, 9.408964157104492, 0.6344262361526489, -1.0049488544464111, 0.03530922532081604, -0.213623046875, 0.374267578125, -0.896484375, 
157, 3081894610, 0.966167688369751, -0.1123436838388443, -0.0329122431576252, -0.22985044121742249, 1.114169716835022, -1.9278128147125244, 9.433621406555176, 0.6033816933631897, -1.1133737564086914, 0.01553503330796957, -0.212646484375, 0.373046875, -0.8994140625, 
158, 3081902943, 0.9661766290664673, -0.11227451264858246, -0.032969508320093155, -0.2298383116722107, 1.1168162822723389, -1.941603422164917, 9.47938346862793, 0.6252050399780273, -1.219749927520752, -0.07784166932106018, -0.2138671875, 0.375244140625, -0.8974609375, 
159, 3081911276, 0.9661868810653687, -0.11222301423549652, -0.033005472272634506, -0.2298153042793274, 1.1366511583328247, -1.9242148399353027, 9.499640464782715, 0.3338175117969513, -1.0434726476669312, 0.12874995172023773, -0.21484375, 0.37646484375, -0.90234375, 
160, 3081919609, 0.9661980271339417, -0.11221273243427277, -0.03301531821489334, -0.22977223992347717, 1.1524732112884521, -1.8927066326141357, 9.500398635864258, -0.3139280676841736, -0.7755478620529175, 0.21827171742916107, -0.21337890625, 0.375, -0.900390625, 
161, 3081927942, 0.966198205947876, -0.11223796755075455, -0.033001285046339035, -0.2297610640525818, 1.1499124765396118, -1.8727072477340698, 9.454427719116211, -0.8638144135475159, -0.6072879433631897, 0.05282936245203018, -0.21484375, 0.373291015625, -0.8994140625, 
162, 3081936275, 0.9661979675292969, -0.11228072643280029, -0.0329706184566021, -0.2297458052635193, 1.1635887622833252, -1.8788515329360962, 9.440329551696777, -1.1737210750579834, -0.3743007779121399, -0.06933773308992386, -0.21337890625, 0.374267578125, -0.8994140625, 
163, 3081944608, 0.9661927819252014, -0.1123349666595459, -0.03292914107441902, -0.2297465205192566, 1.1502844095230103, -1.9435416460037231, 9.492286682128906, -1.3500494956970215, -0.32004988193511963, -0.06557244807481766, -0.212158203125, 0.373779296875, -0.8974609375, 
164, 3081952941, 0.9661888480186462, -0.11240427941083908, -0.03288479894399643, -0.2297356128692627, 1.1876795291900635, -1.9395291805267334, 9.522987365722656, -1.5712796449661255, -0.2815772593021393, -0.049794070422649384, -0.21533203125, 0.375, -0.9013671875, 
165, 3081961274, 0.9661821126937866, -0.1124534085392952, -0.03283102810382843, -0.22974750399589539, 1.1456995010375977, -1.9567745923995972, 9.510019302368164, -1.3279955387115479, -0.12353744357824326, -0.20327456295490265, -0.2119140625, 0.375, -0.8994140625, 
166, 3081969607, 0.966171383857727, -0.11250440776348114, -0.032792218029499054, -0.2297734022140503, 1.1256929636001587, -2.0100061893463135, 9.453154563903809, -1.323922872543335, -0.2692824602127075, -0.4623112976551056, -0.212646484375, 0.373779296875, -0.89794921875, 
167, 3081977940, 0.9661608934402466, -0.11254812031984329, -0.03276245668530464, -0.22980087995529175, 1.1065376996994019, -2.015134572982788, 9.428755760192871, -1.1939818859100342, -0.40344980359077454, -0.4626186490058899, -0.211669921875, 0.37353515625, -0.89892578125, 
168, 3081986273, 0.966151237487793, -0.11259119212627411, -0.03275100141763687, -0.22982171177864075, 1.102617859840393, -1.9670103788375854, 9.406789779663086, -1.1251052618026733, -0.6205816864967346, -0.41382354497909546, -0.212890625, 0.374755859375, -0.89794921875, 
169, 3081994606, 0.966140627861023, -0.11264374107122421, -0.03275268152356148, -0.22984057664871216, 1.097517967224121, -1.967689871788025, 9.428183555603027, -1.2084027528762817, -0.8627642393112183, -0.3931272625923157, -0.21484375, 0.374267578125, -0.9013671875, 
170, 3082002939, 0.9661306142807007, -0.11270471662282944, -0.03277350962162018, -0.2298492193222046, 1.0933687686920166, -1.96486496925354, 9.466231346130371, -1.270235538482666, -1.099516749382019, -0.4068053364753723, -0.21435546875, 0.376953125, -0.8984375, 
171, 3082011272, 0.9661197662353516, -0.11275843530893326, -0.03279442712664604, -0.22986570000648499, 1.1125174760818481, -1.9914158582687378, 9.467839241027832, -1.1613492965698242, -1.1246440410614014, -0.39215388894081116, -0.21435546875, 0.37646484375, -0.89892578125, 
172, 3082019605, 0.9661076068878174, -0.11280973255634308, -0.03282453864812851, -0.2298871874809265, 1.1248408555984497, -1.973551630973816, 9.466241836547852, -1.1026160717010498, -1.2114251852035522, -0.43485286831855774, -0.2119140625, 0.3779296875, -0.901123046875, 
173, 3082027938, 0.9660984873771667, -0.11286009848117828, -0.03285219147801399, -0.22989705204963684, 1.1306356191635132, -1.9791558980941772, 9.458504676818848, -1.0900136232376099, -1.213781714439392, -0.30970171093940735, -0.2138671875, 0.37646484375, -0.89892578125, 
174, 3082036271, 0.9660996198654175, -0.11287235468626022, -0.032877545803785324, -0.22988268733024597, 1.1488896608352661, -2.0046558380126953, 9.454648971557617, -0.587436854839325, -1.0238265991210938, -0.1588594764471054, -0.212890625, 0.37548828125, -0.8994140625, 
175, 3082044604, 0.9661017656326294, -0.11285597085952759, -0.03290244936943054, -0.2298780381679535, 1.128868818283081, -2.01798152923584, 9.48983383178711, -0.18829022347927094, -0.9827412962913513, -0.10681135207414627, -0.21337890625, 0.374267578125, -0.89794921875, 
176, 3082052937, 0.9661051034927368, -0.11284694075584412, -0.03292134776711464, -0.22986584901809692, 1.1589179039001465, -1.983776569366455, 9.518630981445312, -0.30048060417175293, -0.9076660871505737, 0.008696033619344234, -0.214599609375, 0.373291015625, -0.8984375, 
177, 3082061270, 0.9661091566085815, -0.11286679655313492, -0.03290453925728798, -0.22984129190444946, 1.1721004247665405, -1.9322620630264282, 9.501571655273438, -0.7897124290466309, -0.5737332105636597, 0.24470558762550354, -0.213623046875, 0.374267578125, -0.89599609375, 
178, 3082069603, 0.9661092162132263, -0.11292662471532822, -0.03285856544971466, -0.22981837391853333, 1.139984369277954, -1.934128761291504, 9.473897933959961, -1.4259699583053589, -0.2720744013786316, 0.2346135824918747, -0.21337890625, 0.375244140625, -0.89794921875, 
179, 3082077936, 0.9661067724227905, -0.11298893392086029, -0.03280257061123848, -0.22980591654777527, 1.140721082687378, -1.9940481185913086, 9.447016716003418, -1.49323308467865, -0.171205535531044, 0.14258162677288055, -0.21435546875, 0.376953125, -0.89990234375, 
180, 3082086269, 0.9661026000976562, -0.11303871870040894, -0.03274331986904144, -0.22980770468711853, 1.1441043615341187, -2.022451877593994, 9.470019340515137, -1.3369349241256714, -0.05637693032622337, 0.03277341276407242, -0.213134765625, 0.374267578125, -0.8974609375, 
181, 3082094602, 0.9661021828651428, -0.11307954788208008, -0.03267543017864227, -0.22979924082756042, 1.145763874053955, -2.0239756107330322, 9.506929397583008, -1.2435197830200195, 0.0619480162858963, 0.10531292110681534, -0.21337890625, 0.375244140625, -0.89794921875, 
182, 3082102935, 0.9661028385162354, -0.1131112352013588, -0.032597560435533524, -0.2297917604446411, 1.1437324285507202, -2.006565570831299, 9.451123237609863, -1.1548689603805542, 0.25559163093566895, 0.10216236859560013, -0.21484375, 0.375244140625, -0.8984375, 
183, 3082111268, 0.966105043888092, -0.11312124878168106, -0.03251579403877258, -0.22978928685188293, 1.125900387763977, -2.0022594928741455, 9.392928123474121, -0.8779022693634033, 0.3545137941837311, 0.04199453815817833, -0.2119140625, 0.376953125, -0.898193359375, 
184, 3082119601, 0.9661055207252502, -0.11310440301895142, -0.03243989497423172, -0.22980576753616333, 1.1214513778686523, -2.017566680908203, 9.38044548034668, -0.49292030930519104, 0.380614697933197, -0.058912742882966995, -0.21240234375, 0.37744140625, -0.899169921875, 
185, 3082127934, 0.9661121368408203, -0.11305417120456696, -0.032369308173656464, -0.22981280088424683, 1.131687045097351, -2.026829481124878, 9.42957878112793, -0.03906170651316643, 0.4129398763179779, -0.11564826965332031, -0.21240234375, 0.37890625, -0.901611328125, 
186, 3082136267, 0.9661213159561157, -0.11298610270023346, -0.03231676295399666, -0.22981509566307068, 1.123697280883789, -2.058016061782837, 9.501028060913086, 0.2585885226726532, 0.25851163268089294, -0.10414747893810272, -0.2138671875, 0.37548828125, -0.89892578125, 
187, 3082144600, 0.9661356210708618, -0.11291419714689255, -0.03227396309375763, -0.22979620099067688, 1.1301778554916382, -2.0550761222839355, 9.525999069213867, 0.35971352458000183, 0.07431971281766891, 0.2006234973669052, -0.210693359375, 0.37548828125, -0.897705078125, 
188, 3082152933, 0.9661542177200317, -0.11284168809652328, -0.03222857415676117, -0.2297596037387848, 1.1110010147094727, -1.9796780347824097, 9.47631549835205, 0.3713935911655426, 0.12285866588354111, 0.42208415269851685, -0.21240234375, 0.37451171875, -0.89892578125, 
189, 3082161266, 0.9661704301834106, -0.11276775598526001, -0.0321822315454483, -0.22973480820655823, 1.1005364656448364, -1.946467399597168, 9.436710357666016, 0.38128066062927246, 0.11911899596452713, 0.28940245509147644, -0.21240234375, 0.37548828125, -0.89892578125, 
190, 3082169599, 0.9661823511123657, -0.11270773410797119, -0.03214184567332268, -0.229719340801239, 1.0836483240127563, -1.9584699869155884, 9.426495552062988, 0.21571028232574463, 0.019146639853715897, 0.24870140850543976, -0.21337890625, 0.37744140625, -0.90185546875, 
191, 3082177932, 0.9661949872970581, -0.11265388876199722, -0.03210936486721039, -0.22969728708267212, 1.0788275003433228, -1.9465818405151367, 9.442839622497559, 0.15200768411159515, -0.1258939653635025, 0.23036161065101624, -0.213134765625, 0.373779296875, -0.8984375, 
192, 3082186265, 0.9662089347839355, -0.11260762065649033, -0.032090503722429276, -0.22966402769088745, 1.0874824523925781, -1.9360389709472656, 9.443482398986816, 0.07634321600198746, -0.2700764834880829, 0.15531189739704132, -0.210693359375, 0.37451171875, -0.898681640625, 
193, 3082194598, 0.966217577457428, -0.11257097125053406, -0.032066795974969864, -0.22964903712272644, 1.0856581926345825, -1.917455792427063, 9.450227737426758, -0.057299043983221054, -0.28659766912460327, 0.11663443595170975, -0.21337890625, 0.3759765625, -0.90185546875, 
194, 3082202931, 0.9662208557128906, -0.1125427857041359, -0.03205393999814987, -0.22965097427368164, 1.084192156791687, -1.9020696878433228, 9.42208194732666, -0.1419028490781784, -0.42701488733291626, -0.030813921242952347, -0.211669921875, 0.37451171875, -0.897705078125, 
195, 3082211264, 0.9662212133407593, -0.11252550035715103, -0.03206668049097061, -0.229655921459198, 1.0403022766113281, -1.8931858539581299, 9.429178237915039, -0.2217424511909485, -0.8055421113967896, -0.222895085811615, -0.211181640625, 0.37255859375, -0.89794921875, 
196, 3082219597, 0.9662107825279236, -0.11257960647344589, -0.03208957612514496, -0.22967004776000977, 1.0351380109786987, -1.8566348552703857, 9.494354248046875, -1.1472615003585815, -1.1507195234298706, -0.25035354495048523, -0.2119140625, 0.37646484375, -0.89990234375, 
197, 3082227930, 0.9661870002746582, -0.11273077875375748, -0.03210785612463951, -0.22969317436218262, 1.0468170642852783, -1.8772181272506714, 9.496931076049805, -2.4885506629943848, -1.3932349681854248, -0.4736071825027466, -0.212890625, 0.37548828125, -0.90283203125, 
198, 3082236263, 0.9661588072776794, -0.11293823271989822, -0.03215356543660164, -0.22970369458198547, 1.0433660745620728, -1.948392629623413, 9.453144073486328, -3.1626150608062744, -1.9044439792633057, -0.43546754121780396, -0.21142578125, 0.37646484375, -0.898681640625, 
199, 3082244596, 0.9661210775375366, -0.11315938830375671, -0.03223082050681114, -0.22974306344985962, 1.0146632194519043, -1.977423071861267, 9.419930458068848, -3.2610249519348145, -2.3789219856262207, -0.7951170802116394, -0.21240234375, 0.37646484375, -0.89990234375, 
200, 3082252929, 0.9660781025886536, -0.11341225355863571, -0.03236478194594383, -0.2297801375389099, 0.9991944432258606, -1.9764679670333862, 9.5502290725708, -3.5133767127990723, -3.204084634780884, -0.8805150389671326, -0.21484375, 0.375732421875, -0.89892578125, 
201, 3082261262, 0.9660242795944214, -0.11379195749759674, -0.03249785304069519, -0.22979995608329773, 1.0635956525802612, -1.9342212677001953, 9.861889839172363, -5.207220077514648, -3.6575334072113037, -0.6003720164299011, -0.21240234375, 0.37890625, -0.899658203125, 
202, 3082269595, 0.9659578800201416, -0.11438830196857452, -0.03260405361652374, -0.22976768016815186, 1.0977089405059814, -1.9979044198989868, 10.148458480834961, -8.162361145019531, -4.056168556213379, 0.2364065945148468, -0.2138671875, 0.3779296875, -0.89892578125, 
203, 3082277928, 0.9658851623535156, -0.11521787196397781, -0.03265706077218056, -0.2296518087387085, 1.1450979709625244, -2.220667839050293, 10.222926139831543, -11.403457641601562, -4.237926483154297, 1.4683233499526978, -0.21728515625, 0.380126953125, -0.895263671875, 
204, 3082286261, 0.9657869338989258, -0.11623934656381607, -0.032692473381757736, -0.22954460978507996, 1.121838092803955, -2.3242766857147217, 9.906468391418457, -13.900002479553223, -4.879128932952881, 2.727186679840088, -0.2158203125, 0.379150390625, -0.89697265625, 
205, 3082294594, 0.9657056927680969, -0.11731968820095062, -0.03296179324388504, -0.22929790616035461, 0.9415024518966675, -2.374743700027466, 9.921055793762207, -14.005661964416504, -8.11605167388916, 2.946777582168579, -0.2138671875, 0.38134765625, -0.893798828125, 
206, 3082302927, 0.9656270146369934, -0.1185012087225914, -0.03358212858438492, -0.22893166542053223, 0.7738566398620605, -2.4959638118743896, 10.20048713684082, -14.22422981262207, -13.188364028930664, 3.702730894088745, -0.216552734375, 0.384765625, -0.893310546875, 
207, 3082311260, 0.9655497074127197, -0.11966363340616226, -0.03458908572793007, -0.2285027801990509, 0.9429408311843872, -2.511561393737793, 10.400280952453613, -12.683942794799805, -18.46285057067871, 4.21768045425415, -0.218505859375, 0.384521484375, -0.891357421875, 
208, 3082319593, 0.9655222296714783, -0.12050893157720566, -0.036227598786354065, -0.22792008519172668, 0.7928698062896729, -2.9257075786590576, 10.274675369262695, -6.324337959289551, -26.07489585876465, 5.305184841156006, -0.219482421875, 0.388427734375, -0.888916015625, 
209, 3082327926, 0.9653530120849609, -0.12155202031135559, -0.03841685503721237, -0.22772452235221863, 0.8123125433921814, -2.6782021522521973, 10.0209379196167, -7.660994529724121, -33.442623138427734, -1.1720317602157593, -0.22509765625, 0.3896484375, -0.888427734375, 
210, 3082336259, 0.9651213884353638, -0.12290117889642715, -0.04087849333882332, -0.2275535762310028, 0.8561815023422241, -1.0023874044418335, 8.618550300598145, -11.012189865112305, -37.938575744628906, -2.1816186904907227, -0.2255859375, 0.38818359375, -0.886962890625, 
211, 3082344592, 0.9647185206413269, -0.12467698752880096, -0.04350051283836365, -0.22780954837799072, 0.4336136281490326, -0.6380057334899902, 6.954658031463623, -16.67873764038086, -40.84770965576172, -8.219955444335938, -0.23388671875, 0.3974609375, -0.885986328125, 
212, 3082352925, 0.9641969799995422, -0.1266501247882843, -0.04633879289031029, -0.22836849093437195, 0.06638909131288528, -0.6236004829406738, 5.861879825592041, -18.862594604492188, -44.095252990722656, -11.889283180236816, -0.237060546875, 0.394775390625, -0.88232421875, 
213, 3082361258, 0.9636576175689697, -0.12845735251903534, -0.04961502552032471, -0.2289465069770813, -0.06659898906946182, -0.9000157713890076, 5.720998287200928, -15.471549987792969, -49.15043640136719, -14.04304027557373, -0.24560546875, 0.394775390625, -0.87841796875, 
214, 3082369591, 0.9630496501922607, -0.12997861206531525, -0.05369570106267929, -0.22972428798675537, 0.0696180909872055, -1.7683666944503784, 6.416990280151367, -9.464107513427734, -58.500701904296875, -18.86376953125, -0.25146484375, 0.39501953125, -0.87255859375, 
215, 3082377924, 0.9623842239379883, -0.13111764192581177, -0.05848192423582077, -0.23069503903388977, 0.5404475927352905, -2.3422858715057373, 7.587193965911865, -2.3620524406433105, -66.43728637695312, -22.80245590209961, -0.260986328125, 0.396728515625, -0.870361328125, 
216, 3082386257, 0.9616469144821167, -0.13219383358955383, -0.06375623494386673, -0.23175600171089172, 0.9240170121192932, -2.639394760131836, 8.954710960388184, -0.545355498790741, -72.09503173828125, -27.12476921081543, -0.269775390625, 0.395263671875, -0.8671875, 
217, 3082394590, 0.9607231020927429, -0.13358725607395172, -0.06926020979881287, -0.23320415616035461, 1.3179086446762085, -2.8945565223693848, 10.012846946716309, -4.326372146606445, -76.10137939453125, -31.00959587097168, -0.27783203125, 0.39501953125, -0.86474609375, 
218, 3082402923, 0.9596742391586304, -0.1354476809501648, -0.07474689930677414, -0.2347506880760193, 1.830159306526184, -2.96218204498291, 10.432491302490234, -10.872133255004883, -77.29277038574219, -32.23246383666992, -0.290283203125, 0.3935546875, -0.858642578125, 
219, 3082411256, 0.9584144353866577, -0.13795851171016693, -0.07992476969957352, -0.2367211878299713, 2.105041027069092, -2.1155741214752197, 10.444419860839844, -21.283672332763672, -74.75923919677734, -37.26523971557617, -0.300048828125, 0.39306640625, -0.85498046875, 
220, 3082419589, 0.9568709135055542, -0.14150889217853546, -0.08463677763938904, -0.23921868205070496, 2.306872606277466, -0.7899770140647888, 10.318592071533203, -37.61698913574219, -71.30252075195312, -43.106773376464844, -0.310546875, 0.396484375, -0.848388671875, 
221, 3082427922, 0.9550325274467468, -0.14635805785655975, -0.08877364546060562, -0.24213019013404846, 2.732633590698242, -0.30998164415359497, 9.79942512512207, -57.653743743896484, -67.55791473388672, -46.894161224365234, -0.321533203125, 0.399658203125, -0.842529296875, 
222, 3082436255, 0.9529048204421997, -0.1524522751569748, -0.09249353408813477, -0.24533891677856445, 3.3432955741882324, -0.3075125217437744, 9.537792205810547, -76.34668731689453, -65.96671295166016, -49.401084899902344, -0.33203125, 0.405517578125, -0.831298828125, 
223, 3082444588, 0.9505211114883423, -0.15956906974315643, -0.0957808643579483, -0.24877530336380005, 3.697152853012085, -0.34857597947120667, 9.611198425292969, -92.02448272705078, -63.61431121826172, -51.04075622558594, -0.34130859375, 0.41162109375, -0.823974609375, 
224, 3082452921, 0.9479445219039917, -0.1676502823829651, -0.09870093315839767, -0.2521275579929352, 4.125174522399902, -0.3869839608669281, 9.70753002166748, -106.21320343017578, -62.53404235839844, -48.52130889892578, -0.3505859375, 0.424072265625, -0.81494140625, 
225, 3082461254, 0.9452317953109741, -0.17636209726333618, -0.1012093722820282, -0.255354106426239, 4.680222511291504, -0.5547512173652649, 9.606285095214844, -115.99116516113281, -59.84431457519531, -45.55405044555664, -0.3583984375, 0.430419921875, -0.79931640625, 
226, 3082469587, 0.9426282644271851, -0.1851256936788559, -0.10319702327251434, -0.25796589255332947, 4.45626974105835, -1.9426270723342896, 9.424850463867188, -117.3909683227539, -54.57649612426758, -35.83802795410156, -0.36865234375, 0.439453125, -0.79052734375, 
227, 3082477920, 0.9401524066925049, -0.19361764192581177, -0.10471445322036743, -0.2601461708545685, 4.609755039215088, -3.1031851768493652, 9.375375747680664, -114.5821304321289, -48.454322814941406, -28.98714828491211, -0.37744140625, 0.45166015625, -0.776611328125, 
228, 3082486253, 0.9379742741584778, -0.20118507742881775, -0.10582233965396881, -0.26181283593177795, 4.329029560089111, -4.2773213386535645, 9.300517082214355, -102.58235931396484, -40.768123626708984, -21.512662887573242, -0.383056640625, 0.459228515625, -0.7646484375, 
229, 3082494586, 0.9362258911132812, -0.20757518708705902, -0.10650096833705902, -0.2628054618835449, 4.07490873336792, -5.295772075653076, 9.311528205871582, -86.75104522705078, -32.25596618652344, -11.806099891662598, -0.3876953125, 0.468994140625, -0.755615234375, 
230, 3082502919, 0.9348812103271484, -0.21294471621513367, -0.10668978840112686, -0.2632197439670563, 3.5557596683502197, -5.595611572265625, 9.248736381530762, -73.39885711669922, -23.292633056640625, -2.9896836280822754, -0.392333984375, 0.4775390625, -0.7470703125, 
231, 3082511252, 0.9339192509651184, -0.21741269528865814, -0.10663489997386932, -0.2630041837692261, 2.794628143310547, -5.947736740112305, 8.595771789550781, -60.62969970703125, -18.207508087158203, 5.875555038452148, -0.3935546875, 0.484375, -0.740234375, 
232, 3082519585, 0.9332658052444458, -0.22097419202327728, -0.10652361810207367, -0.2623993158340454, 2.3145601749420166, -5.992015361785889, 8.018585205078125, -47.70903015136719, -14.889689445495605, 10.838881492614746, -0.394775390625, 0.48974609375, -0.736083984375, 
233, 3082527918, 0.9329038858413696, -0.22366301715373993, -0.10636614263057709, -0.2614709436893463, 2.2503206729888916, -5.31536865234375, 7.895300388336182, -35.30591583251953, -11.729696273803711, 14.895915031433105, -0.395751953125, 0.494140625, -0.733642578125, 
234, 3082536251, 0.9327397346496582, -0.22566071152687073, -0.10616914182901382, -0.2604186534881592, 2.0766220092773438, -4.800506591796875, 8.106364250183105, -25.79698944091797, -8.805105209350586, 16.311378479003906, -0.39599609375, 0.49755859375, -0.72802734375, 
235, 3082544584, 0.9326221942901611, -0.2273571491241455, -0.10594088584184647, -0.25945496559143066, 2.08206844329834, -3.8219451904296875, 8.105415344238281, -22.024616241455078, -7.007110595703125, 14.995821952819824, -0.393310546875, 0.4990234375, -0.7265625, 
236, 3082552917, 0.9324468970298767, -0.22915337979793549, -0.10572079569101334, -0.2585925757884979, 2.192270040512085, -3.402923583984375, 7.793953895568848, -23.60366439819336, -7.212307453155518, 13.614757537841797, -0.392578125, 0.504150390625, -0.722412109375, 
237, 3082561250, 0.9321930408477783, -0.2310311198234558, -0.1056177094578743, -0.25787827372550964, 2.4681358337402344, -3.105429172515869, 7.411766052246094, -24.696136474609375, -8.673677444458008, 11.182196617126465, -0.394775390625, 0.514404296875, -0.7236328125, 
238, 3082569583, 0.9318126440048218, -0.2331385463476181, -0.10561595112085342, -0.25735682249069214, 2.7902071475982666, -2.76794695854187, 7.353511333465576, -27.96270179748535, -10.334198951721191, 8.276107788085938, -0.394287109375, 0.510986328125, -0.7177734375, 
239, 3082577916, 0.931377112865448, -0.2353968471288681, -0.10587497055530548, -0.25677043199539185, 3.043476104736328, -3.1431241035461426, 7.42078161239624, -29.05538558959961, -14.522594451904297, 8.292323112487793, -0.392333984375, 0.513427734375, -0.712890625, 
240, 3082586249, 0.9309924840927124, -0.23740506172180176, -0.10636873543262482, -0.25611093640327454, 3.676938772201538, -4.000693321228027, 7.793962478637695, -24.753307342529297, -16.784330368041992, 8.287505149841309, -0.394287109375, 0.515625, -0.710205078125, 
241, 3082594582, 0.9307056665420532, -0.23907150328159332, -0.10691843181848526, -0.25537359714508057, 3.947740077972412, -4.0112104415893555, 8.548086166381836, -19.747665405273438, -16.431285858154297, 8.942383766174316, -0.3935546875, 0.520263671875, -0.708740234375, 
242, 3082602915, 0.9305787682533264, -0.24039193987846375, -0.10752944648265839, -0.25433778762817383, 3.997267723083496, -4.77119779586792, 8.809974670410156, -14.138246536254883, -16.721416473388672, 12.618718147277832, -0.393798828125, 0.51953125, -0.703369140625, 
243, 3082611248, 0.9306599497795105, -0.24109169840812683, -0.10803700238466263, -0.2531605660915375, 4.386674404144287, -4.986921310424805, 9.06846809387207, -5.660824775695801, -13.41189956665039, 14.574850082397461, -0.39306640625, 0.52294921875, -0.70166015625, 
244, 3082619581, 0.9309099912643433, -0.24141111969947815, -0.10832186043262482, -0.2518118619918823, 4.153226852416992, -4.064720630645752, 9.209681510925293, -0.7518292665481567, -9.527857780456543, 17.53334617614746, -0.39404296875, 0.525390625, -0.701171875, 
245, 3082627914, 0.9312076568603516, -0.241804838180542, -0.108388751745224, -0.2503001391887665, 3.8334550857543945, -3.401003122329712, 8.87597942352295, -2.058898448944092, -7.494035720825195, 20.61876106262207, -0.3916015625, 0.524169921875, -0.7041015625, 
246, 3082636247, 0.9314432144165039, -0.24235345423221588, -0.10838666558265686, -0.24888989329338074, 3.520956039428711, -2.9674479961395264, 8.5488920211792, -4.638586044311523, -6.867819786071777, 19.569602966308594, -0.3896484375, 0.527587890625, -0.699462890625, 
247, 3082644580, 0.9315145015716553, -0.24341851472854614, -0.10832826793193817, -0.24760624766349792, 3.153855800628662, -2.342782974243164, 8.41888427734375, -12.180726051330566, -7.766623497009277, 18.33837890625, -0.3876953125, 0.529296875, -0.700439453125, 
248, 3082652913, 0.9313304424285889, -0.24520117044448853, -0.10829690098762512, -0.24655106663703918, 2.951855182647705, -2.2425670623779297, 8.296069145202637, -22.47955322265625, -10.14493465423584, 15.526628494262695, -0.389892578125, 0.533447265625, -0.697509765625, 
249, 3082661246, 0.9308856725692749, -0.2476499080657959, -0.10831239074468613, -0.245775043964386, 3.0033349990844727, -2.4680216312408447, 8.246284484863281, -32.14275360107422, -12.47722053527832, 11.895380973815918, -0.390380859375, 0.536376953125, -0.694091796875, 
250, 3082669579, 0.9302250146865845, -0.2505985498428345, -0.10839313268661499, -0.24525156617164612, 3.040522813796997, -2.891757011413574, 8.2327241897583, -39.43950653076172, -14.435462951660156, 8.46414852142334, -0.38916015625, 0.54296875, -0.69091796875, 
251, 3082677912, 0.92948317527771, -0.2536315321922302, -0.10855415463447571, -0.244874507188797, 3.2625808715820312, -3.9704813957214355, 8.163041114807129, -40.73976135253906, -15.390362739562988, 6.156506538391113, -0.39013671875, 0.543212890625, -0.684814453125, 
252, 3082686245, 0.9287500381469727, -0.2563985288143158, -0.10878786444664001, -0.24467098712921143, 3.449099063873291, -4.732838153839111, 8.17790412902832, -37.331546783447266, -14.779793739318848, 3.328561782836914, -0.38916015625, 0.55078125, -0.682373046875, 
253, 3082694578, 0.9281204342842102, -0.25868919491767883, -0.10904355347156525, -0.24453547596931458, 3.525479793548584, -5.0023064613342285, 8.201268196105957, -30.90209197998047, -13.090755462646484, 2.0078375339508057, -0.392578125, 0.548583984375, -0.676025390625, 
254, 3082702911, 0.9276540875434875, -0.26036810874938965, -0.10938648134469986, -0.24436968564987183, 3.383734941482544, -5.266898155212402, 8.063090324401855, -22.180505752563477, -11.979476928710938, 1.7244409322738647, -0.39111328125, 0.550048828125, -0.67431640625, 
255, 3082711244, 0.927334189414978, -0.2614051103591919, -0.10977037996053696, -0.24430474638938904, 3.4254276752471924, -5.050704002380371, 7.926003932952881, -13.476908683776855, -9.793835639953613, -0.1912103146314621, -0.392333984375, 0.553955078125, -0.67431640625, 
256, 3082719577, 0.9271333813667297, -0.2619948387145996, -0.1101498007774353, -0.24426430463790894, 3.282135486602783, -4.5085062980651855, 7.9149885177612305, -7.40136194229126, -7.938210487365723, -0.7528792023658752, -0.393798828125, 0.554931640625, -0.671875, 
257, 3082727910, 0.9269827008247375, -0.2624063193798065, -0.110474593937397, -0.2442476451396942, 3.3201565742492676, -4.1023406982421875, 8.031174659729004, -5.162241458892822, -6.508961200714111, -0.9702416062355042, -0.392822265625, 0.5546875, -0.66845703125, 
258, 3082736243, 0.9268027544021606, -0.26290854811668396, -0.1106879785656929, -0.24429377913475037, 3.2594382762908936, -3.6958353519439697, 8.243457794189453, -6.896761417388916, -5.180889129638672, -1.3209261894226074, -0.395263671875, 0.5556640625, -0.66943359375, 
259, 3082744576, 0.9265456199645996, -0.26368117332458496, -0.1108161062002182, -0.24437811970710754, 3.2778210639953613, -3.65590500831604, 8.261240005493164, -10.966402053833008, -5.012423992156982, -1.3562992811203003, -0.395263671875, 0.5556640625, -0.66748046875, 
260, 3082752909, 0.9262282848358154, -0.26470664143562317, -0.11082267761230469, -0.24446934461593628, 3.4721860885620117, -3.8191115856170654, 8.167086601257324, -14.827493667602539, -4.351808071136475, -0.8104857802391052, -0.397705078125, 0.5576171875, -0.6669921875, 
261, 3082761242, 0.9258644580841064, -0.26597222685813904, -0.11068263649940491, -0.24453771114349365, 3.6436569690704346, -3.8564658164978027, 8.121432304382324, -18.509389877319336, -3.4738290309906006, 0.2147626131772995, -0.3974609375, 0.56298828125, -0.66650390625, 
262, 3082769575, 0.9254622459411621, -0.2674921751022339, -0.11035940796136856, -0.24454891681671143, 3.7477188110351562, -4.112556457519531, 8.147712707519531, -22.421432495117188, -2.23435640335083, 1.8800218105316162, -0.396484375, 0.5615234375, -0.663330078125, 
263, 3082777908, 0.9250290989875793, -0.26918572187423706, -0.10981573909521103, -0.24457359313964844, 3.8405892848968506, -4.22173547744751, 8.218091011047363, -25.501956939697266, -0.04105963930487633, 2.669017791748047, -0.394775390625, 0.570556640625, -0.6630859375, 
264, 3082786241, 0.9246456027030945, -0.2707858085632324, -0.10910537838935852, -0.24457567930221558, 3.8994743824005127, -4.48153829574585, 8.237552642822266, -24.662296295166016, 2.416102170944214, 3.611954689025879, -0.396240234375, 0.569580078125, -0.659912109375, 
265, 3082794574, 0.9243481159210205, -0.2721292972564697, -0.10823049396276474, -0.24459794163703918, 3.8647966384887695, -4.6825032234191895, 8.204911231994629, -21.656667709350586, 5.545830249786377, 3.859029531478882, -0.3955078125, 0.5673828125, -0.657470703125, 
266, 3082802907, 0.9241687059402466, -0.27309051156044006, -0.10727778822183609, -0.24462395906448364, 3.7266130447387695, -5.061664581298828, 8.01953411102295, -16.62681770324707, 8.042834281921387, 3.942582368850708, -0.393310546875, 0.571533203125, -0.65673828125, 
267, 3082811240, 0.9241220951080322, -0.27352234721183777, -0.10630480945110321, -0.24474236369132996, 3.7038464546203613, -5.129639625549316, 7.82776403427124, -9.602291107177734, 10.59032154083252, 2.498784065246582, -0.39404296875, 0.56884765625, -0.6552734375, 
268, 3082819573, 0.9242101907730103, -0.2734467089176178, -0.10536367446184158, -0.2449016273021698, 3.471147060394287, -4.968079090118408, 7.898443698883057, -2.6021246910095215, 12.278480529785156, 1.5828958749771118, -0.393310546875, 0.572021484375, -0.65673828125, 
269, 3082827906, 0.9243627190589905, -0.2730731666088104, -0.10454189032316208, -0.24509462714195251, 3.1863021850585938, -4.755377769470215, 7.9953179359436035, 1.782404899597168, 11.950743675231934, 0.4799979627132416, -0.39306640625, 0.571044921875, -0.658203125, 
270, 3082836239, 0.9245262742042542, -0.27255576848983765, -0.10389012843370438, -0.24532979726791382, 2.9672138690948486, -4.661451816558838, 7.903196334838867, 4.164477825164795, 10.482357025146484, -0.8532102108001709, -0.3935546875, 0.570556640625, -0.6591796875, 
271, 3082844572, 0.9246702194213867, -0.27199751138687134, -0.10340068489313126, -0.2456144094467163, 2.9867818355560303, -4.402866363525391, 7.846117973327637, 5.088281154632568, 8.680806159973145, -2.2263894081115723, -0.3916015625, 0.570556640625, -0.6591796875, 
272, 3082852905, 0.9247855544090271, -0.27152201533317566, -0.10304050147533417, -0.24585723876953125, 2.999687910079956, -4.083639144897461, 7.883561134338379, 4.424282550811768, 6.595652103424072, -2.1471896171569824, -0.390380859375, 0.57177734375, -0.66162109375, 
273, 3082861238, 0.9248473644256592, -0.27126646041870117, -0.10274437814950943, -0.24603059887886047, 3.118884325027466, -3.96547532081604, 7.989255428314209, 1.7429333925247192, 4.666721343994141, -1.3824002742767334, -0.38916015625, 0.57080078125, -0.66259765625, 
274, 3082869571, 0.9248620271682739, -0.27122899889945984, -0.1024356484413147, -0.24614563584327698, 3.2904038429260254, -4.05826473236084, 8.102585792541504, -1.1690592765808105, 3.8383827209472656, -0.4344686269760132, -0.38916015625, 0.56884765625, -0.6650390625, 
275, 3082877904, 0.924855649471283, -0.27134010195732117, -0.1020476296544075, -0.24620851874351501, 3.3641560077667236, -4.20189094543457, 8.139575004577637, -3.3288259506225586, 4.086302757263184, 0.6523561477661133, -0.388671875, 0.5712890625, -0.66259765625, 
276, 3082886237, 0.924852728843689, -0.2715182602405548, -0.10153841227293015, -0.2462330162525177, 3.4204490184783936, -4.3360748291015625, 8.210103988647461, -4.529416561126709, 5.296575546264648, 1.7095324993133545, -0.386962890625, 0.576416015625, -0.665771484375, 
277, 3082894570, 0.9248818755149841, -0.27171239256858826, -0.10084807127714157, -0.24619317054748535, 3.4071905612945557, -4.377564430236816, 8.347296714782715, -5.134501934051514, 7.315746784210205, 3.323075771331787, -0.390380859375, 0.572265625, -0.66552734375, 
278, 3082902903, 0.9249176979064941, -0.27196231484413147, -0.10002493113279343, -0.24611809849739075, 3.2147774696350098, -4.398249626159668, 8.366829872131348, -6.219546318054199, 8.730395317077637, 4.379560470581055, -0.386474609375, 0.575439453125, -0.66650390625, 
279, 3082911236, 0.9249693155288696, -0.27216121554374695, -0.09918098151683807, -0.24604648351669312, 3.1461892127990723, -4.658218860626221, 8.1552734375, -5.584722995758057, 9.165324211120605, 4.385964393615723, -0.38623046875, 0.573486328125, -0.66455078125, 
280, 3082919569, 0.9250391125679016, -0.27222853899002075, -0.09837986528873444, -0.2460310161113739, 3.063570737838745, -4.6291584968566895, 7.92512845993042, -3.778765916824341, 9.335428237915039, 3.403658390045166, -0.38525390625, 0.573974609375, -0.663818359375, 
281, 3082927902, 0.9251325726509094, -0.2721729576587677, -0.09768306463956833, -0.24601882696151733, 2.9718093872070312, -4.633388519287109, 7.835687160491943, -1.7748106718063354, 8.43554973602295, 2.8742635250091553, -0.3857421875, 0.572021484375, -0.66650390625, 
282, 3082936235, 0.9252395629882812, -0.27202215790748596, -0.0970768928527832, -0.24602317810058594, 3.016995906829834, -4.586653232574463, 7.869657516479492, -0.23029762506484985, 7.717991828918457, 2.2524521350860596, -0.38232421875, 0.574951171875, -0.663330078125, 
283, 3082944568, 0.9253652095794678, -0.27175676822662354, -0.09655101597309113, -0.24605119228363037, 3.0995004177093506, -4.615841865539551, 7.935347080230713, 1.538506269454956, 7.162905693054199, 1.5534393787384033, -0.38330078125, 0.572998046875, -0.667724609375, 
284, 3082952901, 0.9254987239837646, -0.27141067385673523, -0.09606590121984482, -0.24612072110176086, 3.1835529804229736, -4.478481769561768, 8.041010856628418, 2.6770336627960205, 7.118440628051758, 0.8008419871330261, -0.3798828125, 0.5732421875, -0.667236328125, 
285, 3082961234, 0.9256221055984497, -0.27104079723358154, -0.09554807841777802, -0.2462657392024994, 3.3326001167297363, -4.310632228851318, 8.135000228881836, 2.7338197231292725, 7.8479838371276855, -0.11452123522758484, -0.38134765625, 0.57568359375, -0.667236328125, 
286, 3082969567, 0.9257323741912842, -0.27067574858665466, -0.0949556827545166, -0.2464815080165863, 3.400911808013916, -4.192007064819336, 8.142705917358398, 2.2755303382873535, 9.0633544921875, -0.7645337581634521, -0.380859375, 0.57177734375, -0.668701171875, 
287, 3082977900, 0.9258385300636292, -0.270313560962677, -0.09426049143075943, -0.24674713611602783, 3.479755401611328, -4.226722717285156, 8.066431045532227, 1.8116310834884644, 10.507511138916016, -1.0365058183670044, -0.37841796875, 0.57421875, -0.671630859375, 
288, 3082986233, 0.925973653793335, -0.26984265446662903, -0.093462735414505, -0.2470591962337494, 3.586817979812622, -4.403346538543701, 7.891014575958252, 2.893704414367676, 12.427221298217773, -1.2798665761947632, -0.37890625, 0.572265625, -0.672119140625, 
289, 3082994566, 0.9262000322341919, -0.2690604329109192, -0.09255234152078629, -0.2474062740802765, 3.7289531230926514, -4.507359027862549, 7.657855987548828, 6.770113468170166, 15.131370544433594, -1.4062731266021729, -0.379150390625, 0.578857421875, -0.677001953125, 
290, 3083002899, 0.9266085624694824, -0.26772981882095337, -0.09141011536121368, -0.24774405360221863, 4.0757880210876465, -4.197281837463379, 7.762900352478027, 13.650307655334473, 20.1855525970459, -0.4988374710083008, -0.37451171875, 0.57568359375, -0.677490234375, 
291, 3083011232, 0.927166223526001, -0.2661098539829254, -0.08989163488149643, -0.2479592263698578, 3.7669012546539307, -3.4819562435150146, 7.941606044769287, 16.76162338256836, 25.662628173828125, 2.5830821990966797, -0.375, 0.571533203125, -0.680419921875, 
292, 3083019565, 0.9278609752655029, -0.2643345296382904, -0.0881366953253746, -0.24788880348205566, 3.4981749057769775, -4.268566608428955, 7.809515953063965, 18.786407470703125, 28.37333869934082, 7.375638961791992, -0.37255859375, 0.5703125, -0.68359375, 
293, 3083027898, 0.9286741018295288, -0.2621837258338928, -0.0861826092004776, -0.24781498312950134, 3.6054232120513916, -4.648566722869873, 7.869690418243408, 23.33515167236328, 32.28388214111328, 8.080419540405273, -0.367919921875, 0.566650390625, -0.68896484375, 
294, 3083036231, 0.9296008348464966, -0.25969743728637695, -0.0840015709400177, -0.2477070689201355, 3.2509567737579346, -4.405121326446533, 8.233469009399414, 27.294540405273438, 36.38113021850586, 9.334959030151367, -0.365478515625, 0.566162109375, -0.6923828125, 
295, 3083044564, 0.9305416941642761, -0.257214218378067, -0.08171995729207993, -0.24752897024154663, 2.6117541790008545, -4.520882606506348, 8.892012596130371, 27.047908782958984, 37.3779411315918, 10.632349014282227, -0.3642578125, 0.5625, -0.697265625, 
296, 3083052897, 0.9313497543334961, -0.2551489472389221, -0.07954556494951248, -0.24733543395996094, 2.188746929168701, -4.423557758331299, 9.509169578552246, 21.60788345336914, 34.42298889160156, 10.479761123657227, -0.35888671875, 0.560546875, -0.701171875, 
297, 3083061230, 0.9320250153541565, -0.2535327970981598, -0.07742027193307877, -0.24712812900543213, 2.3597729206085205, -4.304274082183838, 9.462348937988281, 15.576228141784668, 32.03029251098633, 10.510468482971191, -0.353515625, 0.56005859375, -0.70751953125, 
298, 3083069563, 0.9325789213180542, -0.2523442506790161, -0.0752919390797615, -0.24691203236579895, 2.478172779083252, -4.115767002105713, 8.803065299987793, 9.667064666748047, 30.49517250061035, 10.688843727111816, -0.3515625, 0.560546875, -0.70849609375, 
299, 3083077896, 0.9330703020095825, -0.2513599395751953, -0.07319215685129166, -0.24669122695922852, 2.4503889083862305, -3.96049427986145, 7.939428806304932, 6.936738014221191, 29.31658363342285, 10.638408660888672, -0.347412109375, 0.558837890625, -0.71142578125, 
300, 3083086229, 0.9335548877716064, -0.25038453936576843, -0.07124423235654831, -0.24641916155815125, 2.475053310394287, -3.8278918266296387, 7.1810302734375, 7.362061977386475, 27.19197654724121, 10.767349243164062, -0.343505859375, 0.55859375, -0.714599609375, 
301, 3083094562, 0.9341809153556824, -0.24902956187725067, -0.06939641386270523, -0.24594759941101074, 2.6293437480926514, -4.1710710525512695, 6.548569202423096, 13.2593355178833, 26.604312896728516, 13.081547737121582, -0.341064453125, 0.55712890625, -0.716064453125, 
302, 3083102895, 0.9350626468658447, -0.24695438146591187, -0.06781769543886185, -0.24512839317321777, 2.641704797744751, -5.212162494659424, 6.4989118576049805, 24.62579917907715, 24.679691314697266, 16.81111717224121, -0.337646484375, 0.559326171875, -0.721435546875, 
303, 3083111228, 0.9362722635269165, -0.24374328553676605, -0.06665724515914917, -0.2440412938594818, 2.716665267944336, -5.932815074920654, 6.815882682800293, 42.00932312011719, 22.484058380126953, 18.87316131591797, -0.3330078125, 0.5546875, -0.725830078125, 
304, 3083119561, 0.9378402233123779, -0.2392178475856781, -0.06601713597774506, -0.24266812205314636, 2.6509687900543213, -6.273327350616455, 7.600076675415039, 62.144779205322266, 19.609172821044922, 20.818580627441406, -0.3271484375, 0.55615234375, -0.737060546875, 
305, 3083127894, 0.9397280812263489, -0.23346172273159027, -0.06573745608329773, -0.24104171991348267, 2.538712978363037, -5.850103855133057, 8.544618606567383, 80.49665069580078, 18.48164939880371, 22.838146209716797, -0.325439453125, 0.545166015625, -0.7392578125, 
306, 3083136227, 0.9417812824249268, -0.22695490717887878, -0.06574050337076187, -0.2392350137233734, 2.376617193222046, -5.020178318023682, 9.632328987121582, 91.83777618408203, 16.93292999267578, 24.137250900268555, -0.3212890625, 0.53857421875, -0.749755859375, 
307, 3083144560, 0.9438367486000061, -0.22025510668754578, -0.06588152050971985, -0.23735037446022034, 2.1833605766296387, -3.784266233444214, 10.114638328552246, 94.86090850830078, 15.494634628295898, 24.54330062866211, -0.316162109375, 0.529052734375, -0.76171875, 
308, 3083152893, 0.9457382559776306, -0.2138810008764267, -0.0660829097032547, -0.23554766178131104, 2.0645592212677, -2.5449633598327637, 9.950798034667969, 90.29768371582031, 13.800121307373047, 23.09088706970215, -0.3154296875, 0.52001953125, -0.768798828125, 
309, 3083161226, 0.9474353790283203, -0.20812226831912994, -0.06619914621114731, -0.23384761810302734, 1.9413927793502808, -1.7983652353286743, 9.47998332977295, 81.31586456298828, 12.986897468566895, 21.901554107666016, -0.310546875, 0.512451171875, -0.777099609375, 
310, 3083169559, 0.9488968849182129, -0.20306110382080078, -0.06612680852413177, -0.23238682746887207, 1.7638497352600098, -1.44691002368927, 9.200234413146973, 70.73429107666016, 13.71340274810791, 19.204917907714844, -0.30712890625, 0.50537109375, -0.78515625, 
311, 3083177892, 0.9501475691795349, -0.1985415667295456, -0.06591055542230606, -0.2312411665916443, 1.624337911605835, -1.4231072664260864, 8.822016716003418, 62.326393127441406, 14.50458812713623, 15.3116455078125, -0.303955078125, 0.49951171875, -0.7900390625, 
312, 3083186225, 0.951262354850769, -0.19428183138370514, -0.06570972502231598, -0.23033088445663452, 1.5530266761779785, -1.7950783967971802, 8.5614652633667, 58.39528274536133, 14.039118766784668, 11.999527931213379, -0.29931640625, 0.493408203125, -0.797607421875, 
313, 3083194558, 0.9522107839584351, -0.19040067493915558, -0.06558036059141159, -0.22968938946723938, 1.6166834831237793, -2.1105287075042725, 8.45815658569336, 52.98271179199219, 12.430532455444336, 8.103943824768066, -0.30224609375, 0.4892578125, -0.802734375, 
314, 3083202891, 0.9530723690986633, -0.18661974370479584, -0.06540852040052414, -0.22926706075668335, 1.712240219116211, -2.8673112392425537, 8.798673629760742, 51.10063934326172, 13.218911170959473, 5.132631301879883, -0.29736328125, 0.481201171875, -0.8076171875, 
315, 3083211224, 0.9539220929145813, -0.18269100785255432, -0.06511608511209488, -0.22898057103157043, 1.8480602502822876, -4.158418655395508, 9.787626266479492, 52.51642608642578, 15.550865173339844, 3.5221588611602783, -0.295654296875, 0.48486328125, -0.81396484375, 
316, 3083219557, 0.9548059701919556, -0.1786331832408905, -0.06437825411558151, -0.2287067472934723, 2.221118211746216, -5.081201076507568, 10.427755355834961, 52.90304183959961, 21.862621307373047, 4.580697059631348, -0.29345703125, 0.47412109375, -0.819580078125, 
317, 3083227890, 0.9557929635047913, -0.1744176596403122, -0.06292321532964706, -0.22824206948280334, 2.5611300468444824, -4.89854097366333, 10.28997802734375, 53.118408203125, 31.396921157836914, 8.917434692382812, -0.2890625, 0.4658203125, -0.821533203125, 
318, 3083236223, 0.9568864107131958, -0.16992856562137604, -0.060800641775131226, -0.22762149572372437, 2.4393036365509033, -4.60570764541626, 9.861337661743164, 54.919002532958984, 40.933475494384766, 12.22847843170166, -0.283447265625, 0.4599609375, -0.828125, 
319, 3083244556, 0.9580172300338745, -0.1651814728975296, -0.058131780475378036, -0.22705620527267456, 2.1606955528259277, -4.164185523986816, 9.398849487304688, 56.735599517822266, 48.90410232543945, 13.115386962890625, -0.27734375, 0.453857421875, -0.8349609375, 
320, 3083252889, 0.9591090679168701, -0.1603493094444275, -0.05528879165649414, -0.22662034630775452, 1.7149533033370972, -3.3289947509765625, 9.204336166381836, 57.181312561035156, 51.675472259521484, 11.910235404968262, -0.271728515625, 0.44677734375, -0.84130859375, 
321, 3083261222, 0.9600983262062073, -0.1558815836906433, -0.052434176206588745, -0.22622621059417725, 1.398587703704834, -2.149257183074951, 9.426782608032227, 52.02005386352539, 50.757808685302734, 11.048918724060059, -0.265625, 0.441650390625, -0.847900390625, 
322, 3083269555, 0.9609587788581848, -0.15227214992046356, -0.04929422587156296, -0.22573646903038025, 1.1995574235916138, -1.387585997581482, 9.7409086227417, 39.644287109375, 51.516475677490234, 13.411676406860352, -0.25732421875, 0.43896484375, -0.8544921875, 
323, 3083277888, 0.9616955518722534, -0.14976216852664948, -0.04583389312028885, -0.22500616312026978, 1.0685322284698486, -1.495213270187378, 9.463834762573242, 23.97342300415039, 51.79110336303711, 17.352405548095703, -0.251220703125, 0.433837890625, -0.859375, 
324, 3083286221, 0.962336003780365, -0.14839690923690796, -0.04192030429840088, -0.22393354773521423, 0.8382309079170227, -2.1563351154327393, 8.94136905670166, 7.280675888061523, 53.83389663696289, 22.134952545166016, -0.244140625, 0.431640625, -0.85986328125, 
325, 3083294554, 0.9629083275794983, -0.1476607471704483, -0.03782464563846588, -0.22268539667129517, 0.510417103767395, -3.324270009994507, 8.473752975463867, -1.4717729091644287, 53.55096435546875, 26.084117889404297, -0.235595703125, 0.430908203125, -0.864013671875, 
326, 3083302887, 0.9635615944862366, -0.14638955891132355, -0.033819977194070816, -0.22133886814117432, 0.3403771221637726, -4.63503360748291, 8.146921157836914, 6.230337619781494, 53.6041259765625, 28.071516036987305, -0.227294921875, 0.4306640625, -0.864501953125, 
327, 3083311220, 0.964279294013977, -0.144522562623024, -0.030180761590600014, -0.21996259689331055, 0.6932211518287659, -4.733277797698975, 8.3178071975708, 15.256638526916504, 50.770267486572266, 26.747913360595703, -0.219970703125, 0.43359375, -0.86767578125, 
328, 3083319553, 0.9651142358779907, -0.14213944971561432, -0.026888199150562286, -0.2182740569114685, 0.7611996531486511, -3.716332197189331, 9.050098419189453, 23.543899536132812, 47.13737106323242, 30.542451858520508, -0.2099609375, 0.432373046875, -0.872802734375, 
329, 3083327886, 0.9659921526908875, -0.13929742574691772, -0.023638490587472916, -0.2165927290916443, 1.0305156707763672, -3.4936299324035645, 10.520596504211426, 29.810556411743164, 47.99982833862305, 30.120697021484375, -0.203369140625, 0.427734375, -0.876220703125, 
330, 3083336219, 0.9668222069740295, -0.1367024928331375, -0.019908182322978973, -0.21491020917892456, 1.8071577548980713, -2.323862075805664, 10.992156028747559, 25.0433292388916, 53.59893798828125, 31.229066848754883, -0.196533203125, 0.4326171875, -0.88037109375, 
331, 3083344552, 0.9675214886665344, -0.1353158950805664, -0.016099827364087105, -0.21295100450515747, 1.664308786392212, -1.2948440313339233, 9.87932014465332, 8.5401611328125, 50.54057693481445, 34.76284408569336, -0.1875, 0.428466796875, -0.88232421875, 
332, 3083352885, 0.9681017398834229, -0.13441333174705505, -0.011391635984182358, -0.21118205785751343, 1.1521717309951782, -1.5343127250671387, 8.091769218444824, -0.7931737303733826, 61.47617721557617, 33.60377502441406, -0.177490234375, 0.42626953125, -0.884033203125, 
333, 3083361218, 0.9687544107437134, -0.13306021690368652, -0.007349297404289246, -0.20921611785888672, 0.20910243690013885, -3.5343575477600098, 8.492280006408691, 7.298482418060303, 53.515567779541016, 35.197044372558594, -0.1650390625, 0.42724609375, -0.8837890625, 
334, 3083369551, 0.9692937731742859, -0.1319429576396942, -0.003030814230442047, -0.20752617716789246, 1.22687566280365, -3.68871808052063, 10.036252975463867, 3.1292896270751953, 57.07941436767578, 31.588010787963867, -0.159912109375, 0.42431640625, -0.88671875, 
335, 3083377884, 0.969737708568573, -0.13130386173725128, 0.0015893392264842987, -0.20586660504341125, 2.0042130947113037, -2.327232599258423, 9.763776779174805, -4.281974792480469, 59.71628952026367, 31.614356994628906, -0.149658203125, 0.42724609375, -0.888916015625, 
336, 3083386217, 0.9701035022735596, -0.13105405867099762, 0.006218623369932175, -0.20420849323272705, 0.9446685910224915, -1.7863832712173462, 9.42933464050293, -9.631656646728516, 58.799495697021484, 31.299274444580078, -0.140380859375, 0.429443359375, -0.888671875, 
337, 3083394550, 0.9703952074050903, -0.13083551824092865, 0.010670594871044159, -0.20277336239814758, 0.3561735153198242, -2.0219287872314453, 9.6434326171875, -9.673633575439453, 56.69522476196289, 27.876495361328125, -0.12841796875, 0.428466796875, -0.888916015625, 
338, 3083402883, 0.9705842733383179, -0.13086630403995514, 0.014879122376441956, -0.20157930254936218, 0.6014284491539001, -1.6678160429000854, 9.754034996032715, -12.457009315490723, 53.205318450927734, 24.020627975463867, -0.122314453125, 0.42919921875, -0.89013671875, 
339, 3083411216, 0.970691442489624, -0.13102181255817413, 0.018535278737545013, -0.20065757632255554, 0.6352425813674927, -1.3576022386550903, 8.764065742492676, -12.696825981140137, 45.98817443847656, 19.01685905456543, -0.114013671875, 0.434814453125, -0.888427734375, 
340, 3083419549, 0.9708113670349121, -0.13078883290290833, 0.02156534045934677, -0.19992482662200928, 0.2061430662870407, -1.723565697669983, 8.63715934753418, -5.702224254608154, 39.068519592285156, 15.540295600891113, -0.108154296875, 0.435546875, -0.890625, 
341, 3083427882, 0.970923900604248, -0.13029392063617706, 0.02411048486828804, -0.19941076636314392, 0.3166723847389221, -1.9992376565933228, 9.195380210876465, -0.8315926790237427, 33.68289566040039, 11.766948699951172, -0.101806640625, 0.436279296875, -0.8916015625, 
342, 3083436215, 0.9709908962249756, -0.1299460381269455, 0.026323989033699036, -0.199031263589859, 0.6973875164985657, -1.584929347038269, 9.223974227905273, -1.9139740467071533, 29.150087356567383, 9.193326950073242, -0.098388671875, 0.43603515625, -0.892333984375, 
343, 3083444548, 0.9710573554039001, -0.1295621544122696, 0.028263278305530548, -0.19869089126586914, 0.7639614343643188, -1.8788073062896729, 9.092982292175293, -0.6770871877670288, 25.61518669128418, 8.200620651245117, -0.093505859375, 0.438720703125, -0.893798828125, 
344, 3083452881, 0.9710562229156494, -0.1290694624185562, 0.029683392494916916, -0.1988098919391632, 0.1365884691476822, -2.218755006790161, 8.91700267791748, 2.257857322692871, 19.860631942749023, 1.0155407190322876, -0.08837890625, 0.437255859375, -0.89453125, 
345, 3083461214, 0.9710360765457153, -0.12850698828697205, 0.03078000620007515, -0.19910618662834167, -0.12765946984291077, -1.917227029800415, 8.90815258026123, 4.106846809387207, 16.018468856811523, -1.9651246070861816, -0.0869140625, 0.4365234375, -0.89599609375, 
346, 3083469547, 0.9709801077842712, -0.12795501947402954, 0.03160085156559944, -0.19960495829582214, 0.12411042302846909, -2.045163869857788, 8.934431076049805, 4.74945592880249, 12.736461639404297, -5.314236640930176, -0.085205078125, 0.432373046875, -0.89404296875, 
347, 3083477880, 0.970891535282135, -0.12743893265724182, 0.03232121095061302, -0.20025008916854858, -0.14438244700431824, -2.0823311805725098, 9.407888412475586, 4.547872066497803, 11.510001182556152, -7.49498176574707, -0.083251953125, 0.43310546875, -0.89697265625, 
348, 3083486213, 0.9707119464874268, -0.1272459328174591, 0.032965585589408875, -0.20113611221313477, -0.14333857595920563, -2.1103739738464355, 9.947057723999023, 0.3933962881565094, 10.1116943359375, -11.239604949951172, -0.083251953125, 0.43212890625, -0.89697265625, 
349, 3083494546, 0.9704821705818176, -0.12753163278102875, 0.0336984321475029, -0.20194116234779358, 0.0705486312508583, -1.7446725368499756, 9.998440742492676, -6.3681864738464355, 9.80716609954834, -10.357348442077637, -0.083740234375, 0.43408203125, -0.8974609375, 
350, 3083502879, 0.9702514410018921, -0.12787184119224548, 0.0345764122903347, -0.20268484950065613, -0.44700905680656433, -2.221688747406006, 9.655759811401367, -7.5289740562438965, 11.520761489868164, -9.291183471679688, -0.081298828125, 0.4345703125, -0.89599609375, 
351, 3083511212, 0.9700191617012024, -0.12815473973751068, 0.03537018597126007, -0.20347991585731506, -0.37010741233825684, -2.39980149269104, 9.48943042755127, -6.508116722106934, 10.613964080810547, -10.1237211227417, -0.081787109375, 0.43408203125, -0.89453125, 
352, 3083519545, 0.9697685241699219, -0.12853556871414185, 0.0362992063164711, -0.20426863431930542, -0.17244671285152435, -1.9132739305496216, 9.569957733154297, -8.2288818359375, 12.177817344665527, -9.886687278747559, -0.082275390625, 0.43603515625, -0.89697265625, 
353, 3083527878, 0.9695358276367188, -0.1291043609380722, 0.03735310584306717, -0.2048238217830658, -0.32516589760780334, -1.8703533411026, 9.548290252685547, -11.170317649841309, 12.855926513671875, -6.609574794769287, -0.078857421875, 0.435791015625, -0.89501953125, 
354, 3083536211, 0.9692842960357666, -0.12968571484088898, 0.03844442591071129, -0.20544415712356567, -0.16942065954208374, -2.5486741065979004, 9.356212615966797, -11.447209358215332, 13.478560447692871, -7.439733505249023, -0.07763671875, 0.440185546875, -0.896240234375, 
355, 3083544544, 0.9690449237823486, -0.13010729849338531, 0.03948202729225159, -0.20610889792442322, 0.059282056987285614, -3.169353485107422, 9.06950569152832, -9.11644172668457, 13.2527437210083, -8.039053916931152, -0.077392578125, 0.438232421875, -0.895263671875, 
356, 3083552877, 0.9688503742218018, -0.13030530512332916, 0.04031740128993988, -0.20673558115959167, -0.4682142734527588, -2.81358003616333, 9.003005981445312, -5.505422115325928, 11.146483421325684, -7.6647796630859375, -0.07666015625, 0.44580078125, -0.897705078125, 
357, 3083561210, 0.9686871767044067, -0.1303122639656067, 0.040981944650411606, -0.20736435055732727, -0.4099375307559967, -2.921504259109497, 8.96212387084961, -2.416447162628174, 9.353819847106934, -7.783448696136475, -0.0771484375, 0.442626953125, -0.894775390625, 
358, 3083569543, 0.968534529209137, -0.1302543431520462, 0.04144249111413956, -0.20802119374275208, -0.46420803666114807, -3.187875747680664, 8.977899551391602, -0.9375065565109253, 6.905227184295654, -8.453670501708984, -0.077392578125, 0.439208984375, -0.894287109375, 
359, 3083577876, 0.9683929085731506, -0.13017912209033966, 0.041979722678661346, -0.20861944556236267, -0.42558273673057556, -2.642732858657837, 9.210153579711914, -0.9372249245643616, 7.825084686279297, -7.498003959655762, -0.076416015625, 0.439697265625, -0.895263671875, 
360, 3083586209, 0.9682730436325073, -0.13020411133766174, 0.04264437407255173, -0.20902445912361145, -0.5021512508392334, -2.4738576412200928, 9.330259323120117, -2.7112412452697754, 8.91438102722168, -4.691324234008789, -0.075439453125, 0.440185546875, -0.894287109375, 
361, 3083594542, 0.9681374430656433, -0.13026103377342224, 0.043388012796640396, -0.20946377515792847, -0.4925370514392853, -3.052086353302002, 9.224093437194824, -3.3724472522735596, 9.90616512298584, -5.071926116943359, -0.074951171875, 0.441162109375, -0.893310546875, 
362, 3083602875, 0.9680317044258118, -0.13019345700740814, 0.044139690697193146, -0.20983722805976868, -0.5582219958305359, -3.236196756362915, 9.292675018310547, -1.7216094732284546, 10.279875755310059, -4.038084506988525, -0.075439453125, 0.438720703125, -0.893798828125, 
363, 3083611208, 0.9679309129714966, -0.13014811277389526, 0.044903744012117386, -0.21016809344291687, -0.37202295660972595, -2.9932563304901123, 9.511110305786133, -2.0707318782806396, 10.258258819580078, -3.4287734031677246, -0.071533203125, 0.439453125, -0.892578125, 
364, 3083619541, 0.9678398370742798, -0.13013602793216705, 0.04566314443945885, -0.2104308009147644, -0.5661992430686951, -3.1270906925201416, 9.615324020385742, -2.522361993789673, 10.011338233947754, -2.5285351276397705, -0.070068359375, 0.439453125, -0.89404296875, 
365, 3083627874, 0.9677889347076416, -0.12992295622825623, 0.0463683158159256, -0.21064230799674988, -0.5453410744667053, -3.0810415744781494, 9.430517196655273, 0.3456256687641144, 9.715004920959473, -1.6962002515792847, -0.070068359375, 0.443115234375, -0.89599609375, 
366, 3083636207, 0.9677470922470093, -0.1295696347951889, 0.04694884270429611, -0.2109231948852539, -0.29518923163414, -2.873945474624634, 9.188352584838867, 2.6369473934173584, 8.616693496704102, -2.7262513637542725, -0.069091796875, 0.43896484375, -0.8955078125, 
367, 3083644540, 0.9677414894104004, -0.1291620135307312, 0.047468386590480804, -0.21108287572860718, -0.6181541681289673, -2.2506117820739746, 9.1456880569458, 3.5203564167022705, 7.687151908874512, -1.08176589012146, -0.065673828125, 0.440185546875, -0.89599609375, 
368, 3083652873, 0.9677645564079285, -0.12874332070350647, 0.04793839901685715, -0.21112704277038574, -0.334225594997406, -2.4774138927459717, 9.09467887878418, 3.789024829864502, 6.869622707366943, 0.4649880826473236, -0.066650390625, 0.440185546875, -0.89453125, 
369, 3083661206, 0.9678205847740173, -0.12826253473758698, 0.04826197028160095, -0.2110888957977295, -0.6104980111122131, -2.770393133163452, 9.162908554077148, 5.042635917663574, 4.900579452514648, 1.4301068782806396, -0.065185546875, 0.442138671875, -0.89794921875, 
370, 3083669539, 0.9678542613983154, -0.12798334658145905, 0.04851048067212105, -0.21104615926742554, -0.3252537250518799, -2.482306718826294, 9.218297958374023, 2.536949396133423, 3.351431131362915, 1.184671401977539, -0.064697265625, 0.440185546875, -0.89892578125, 
371, 3083677872, 0.9678907990455627, -0.12790358066558838, 0.048694271594285965, -0.21088522672653198, -0.4544832110404968, -2.239799737930298, 8.933857917785645, -0.005660745780915022, 1.6723918914794922, 2.4942758083343506, -0.064208984375, 0.44384765625, -0.8994140625, 
372, 3083686205, 0.9679251909255981, -0.1279071420431137, 0.048774342983961105, -0.21070700883865356, -0.5134238600730896, -2.6530802249908447, 8.92874526977539, -0.8265969753265381, 0.06135890632867813, 2.4674580097198486, -0.0634765625, 0.436279296875, -0.89794921875, 
373, 3083694538, 0.9679352045059204, -0.12804658710956573, 0.04875494912266731, -0.2105807662010193, -0.28891682624816895, -2.4741029739379883, 9.260160446166992, -2.3574576377868652, -1.5888510942459106, 1.4510338306427002, -0.06298828125, 0.436767578125, -0.89990234375, 
374, 3083702871, 0.9679512977600098, -0.12816357612609863, 0.04868963733315468, -0.21045029163360596, -0.3790275752544403, -2.5939931869506836, 9.442774772644043, -1.9133319854736328, -2.0990095138549805, 1.4225760698318481, -0.0615234375, 0.439208984375, -0.89794921875, 
375, 3083711204, 0.9679744243621826, -0.12820333242416382, 0.048626113682985306, -0.21033453941345215, -0.38637977838516235, -2.578267812728882, 9.660683631896973, -0.8725232481956482, -1.8769088983535767, 1.3396629095077515, -0.0654296875, 0.437255859375, -0.89599609375, 
376, 3083719537, 0.9679927825927734, -0.12821164727210999, 0.04859448969364166, -0.21025162935256958, -0.3150565028190613, -2.3690457344055176, 9.747550964355469, -0.5332627296447754, -1.2782270908355713, 1.0078048706054688, -0.06396484375, 0.439208984375, -0.89697265625, 
377, 3083727870, 0.9680148363113403, -0.12814882397651672, 0.048589736223220825, -0.21018967032432556, -0.3249896466732025, -2.349515199661255, 9.559073448181152, 0.3582022488117218, -0.7034693360328674, 0.7931318879127502, -0.0654296875, 0.437255859375, -0.896484375, 
378, 3083736203, 0.968039870262146, -0.12804821133613586, 0.04856875166296959, -0.2101404070854187, -0.27492666244506836, -2.373241662979126, 9.449077606201172, 0.9218946695327759, -0.7544416189193726, 0.6298924088478088, -0.0634765625, 0.439208984375, -0.89697265625, 
379, 3083744536, 0.9680644273757935, -0.12792688608169556, 0.048486195504665375, -0.21012023091316223, -0.3163038492202759, -2.392244338989258, 9.206437110900879, 1.39217209815979, -1.4979716539382935, 0.1446307748556137, -0.064208984375, 0.439208984375, -0.89794921875, 
380, 3083752869, 0.968083381652832, -0.12777811288833618, 0.048323750495910645, -0.21016132831573486, -0.3363187909126282, -2.5441782474517822, 8.953132629394531, 2.0212833881378174, -2.3313820362091064, -0.8201678395271301, -0.062255859375, 0.4404296875, -0.8994140625, 
381, 3083761202, 0.9680898189544678, -0.12773630023002625, 0.04810929670929909, -0.2102067470550537, -0.32179397344589233, -2.527411699295044, 9.036979675292969, 0.7279181480407715, -3.355618715286255, -1.064886212348938, -0.063720703125, 0.439208984375, -0.900390625, 
382, 3083769535, 0.9680732488632202, -0.12786677479743958, 0.047887250781059265, -0.21025368571281433, -0.34629589319229126, -2.477921724319458, 9.157185554504395, -1.5840356349945068, -3.9018163681030273, -1.276434302330017, -0.06396484375, 0.437744140625, -0.8974609375, 
383, 3083777868, 0.9680435061454773, -0.12810395658016205, 0.0476592518389225, -0.21029847860336304, -0.2505124807357788, -2.560304880142212, 9.2648344039917, -3.011209487915039, -4.3203020095825195, -1.3692601919174194, -0.064453125, 0.437744140625, -0.89697265625, 
384, 3083786201, 0.9680168032646179, -0.1283239722251892, 0.04733337089419365, -0.2103610336780548, -0.24171538650989532, -2.690154552459717, 9.089839935302734, -2.4820451736450195, -5.508444309234619, -1.7584173679351807, -0.064697265625, 0.438720703125, -0.89697265625, 
385, 3083794534, 0.9679984450340271, -0.12843544781208038, 0.04693640395998955, -0.21046653389930725, -0.2177983820438385, -2.7371785640716553, 9.301002502441406, -0.7899942398071289, -6.106151580810547, -2.3605568408966064, -0.067626953125, 0.440185546875, -0.896484375, 
386, 3083802867, 0.9679930806159973, -0.12848547101020813, 0.046600475907325745, -0.21053454279899597, -0.15377327799797058, -2.4612200260162354, 9.769977569580078, -0.1490236222743988, -5.150356292724609, -1.6891052722930908, -0.067626953125, 0.442626953125, -0.896484375, 
387, 3083811200, 0.9679914712905884, -0.12851321697235107, 0.04639420285820961, -0.21057090163230896, -0.22377760708332062, -2.8360629081726074, 10.082781791687012, -0.242592453956604, -3.4585111141204834, -0.9996981024742126, -0.066162109375, 0.440185546875, -0.8984375, 
388, 3083819533, 0.9680047035217285, -0.1284433901309967, 0.046262744814157486, -0.21058183908462524, -0.24814258515834808, -3.0396504402160645, 9.826498031616211, 0.8481513261795044, -2.2155799865722656, -0.3598543703556061, -0.068115234375, 0.439208984375, -0.89697265625, 
389, 3083827866, 0.9680241942405701, -0.1283160299062729, 0.04616711288690567, -0.210590660572052, -0.21942652761936188, -2.6991446018218994, 9.54053020477295, 1.5226253271102905, -1.599275827407837, -0.277940034866333, -0.067626953125, 0.4384765625, -0.896484375, 
390, 3083836199, 0.9680448174476624, -0.12818267941474915, 0.046097904443740845, -0.2105918824672699, -0.2807554006576538, -2.537559986114502, 9.355142593383789, 1.5220108032226562, -1.2111691236495972, -0.10522329062223434, -0.067626953125, 0.43896484375, -0.89453125, 
391, 3083844532, 0.9680674076080322, -0.12807074189186096, 0.046023961156606674, -0.21057221293449402, -0.2713501751422882, -2.5489745140075684, 9.170126914978027, 1.2417652606964111, -1.407450795173645, 0.1393798589706421, -0.069091796875, 0.43896484375, -0.89599609375, 
392, 3083852865, 0.9680895805358887, -0.12799105048179626, 0.045881129801273346, -0.21055015921592712, -0.2803160846233368, -2.4890918731689453, 9.036437034606934, 1.009060025215149, -2.391908645629883, 0.053828317672014236, -0.069091796875, 0.4375, -0.896728515625, 
393, 3083861198, 0.9681146740913391, -0.1279083788394928, 0.04565369710326195, -0.2105346918106079, -0.3073229491710663, -2.460810899734497, 8.884373664855957, 1.3017282485961914, -3.5283350944519043, -0.19981664419174194, -0.068603515625, 0.440673828125, -0.89892578125, 
394, 3083869531, 0.9681470394134521, -0.12779203057289124, 0.04535441845655441, -0.21052086353302002, -0.35283830761909485, -2.6557681560516357, 9.009061813354492, 1.9746655225753784, -4.355111598968506, -0.2974325120449066, -0.071044921875, 0.43701171875, -0.896728515625, 
395, 3083877864, 0.9681770205497742, -0.1276751458644867, 0.04500822722911835, -0.21052825450897217, -0.34036538004875183, -2.679285764694214, 9.318547248840332, 2.1245343685150146, -4.974079132080078, -0.6763439178466797, -0.067626953125, 0.441162109375, -0.900390625, 
396, 3083886197, 0.9681968092918396, -0.12762649357318878, 0.044666554778814316, -0.21053946018218994, -0.3499370515346527, -2.624284505844116, 9.475942611694336, 1.1911003589630127, -5.048872947692871, -0.832129716873169, -0.071533203125, 0.4384765625, -0.896240234375, 
397, 3083894530, 0.9682055711746216, -0.12758076190948486, 0.044328730553388596, -0.21059846878051758, -0.2976473867893219, -2.5940918922424316, 9.359298706054688, 1.1476843357086182, -4.964807033538818, -1.4536848068237305, -0.07080078125, 0.443115234375, -0.89990234375, 
398, 3083902863, 0.9682167768478394, -0.1275159865617752, 0.04397793486714363, -0.210658997297287, -0.3040078580379486, -2.6872451305389404, 9.20089054107666, 1.4495737552642822, -5.027587890625, -1.5393130779266357, -0.0712890625, 0.445068359375, -0.90185546875, 
399, 3083911196, 0.9682334065437317, -0.12739922106266022, 0.04363596439361572, -0.21072468161582947, -0.22506526112556458, -2.697234630584717, 9.492227554321289, 2.1227924823760986, -4.807151794433594, -1.4847034215927124, -0.070556640625, 0.4365234375, -0.898681640625, 
400, 3083919529, 0.968245804309845, -0.12734100222587585, 0.04335550218820572, -0.2107609212398529, -0.26845067739486694, -2.6163811683654785, 9.849762916564941, 1.1402816772460938, -4.183804035186768, -0.989785373210907, -0.073486328125, 0.435546875, -0.898681640625, 
401, 3083927862, 0.9682602286338806, -0.1272859275341034, 0.04314609616994858, -0.2107710838317871, -0.25776827335357666, -2.5186331272125244, 9.682854652404785, 0.8816548585891724, -3.315737247467041, -0.5571095943450928, -0.074462890625, 0.435302734375, -0.896728515625, 
402, 3083936195, 0.9682769775390625, -0.12720994651317596, 0.04299381375312805, -0.21077099442481995, -0.22799386084079742, -2.5503530502319336, 9.505380630493164, 0.991744875907898, -2.4880645275115967, -0.26933372020721436, -0.073486328125, 0.43603515625, -0.899169921875, 
403, 3083944528, 0.9683040976524353, -0.12710651755332947, 0.042840298265218735, -0.210740327835083, -0.24952031672000885, -2.442631959915161, 9.411222457885742, 1.3609484434127808, -2.511936902999878, 0.15029151737689972, -0.072998046875, 0.43505859375, -0.899169921875, 
404, 3083952861, 0.968339741230011, -0.1269690990447998, 0.042682383209466934, -0.21069160103797913, -0.2993355691432953, -2.462932586669922, 9.3408842086792, 1.8302266597747803, -2.4764864444732666, 0.45095139741897583, -0.072021484375, 0.43408203125, -0.899658203125, 
405, 3083961194, 0.9683804512023926, -0.12678517401218414, 0.042493514716625214, -0.2106536328792572, -0.3049553632736206, -2.4677255153656006, 9.263404846191406, 2.555058002471924, -2.771613597869873, 0.27193349599838257, -0.073974609375, 0.4345703125, -0.900146484375, 
406, 3083969527, 0.9684317708015442, -0.1265127807855606, 0.04223672300577164, -0.21063265204429626, -0.32658398151397705, -2.3723578453063965, 9.119105339050293, 3.958385705947876, -3.3603317737579346, 0.020324893295764923, -0.072998046875, 0.4365234375, -0.900634765625, 
407, 3083977860, 0.9684970378875732, -0.12601253390312195, 0.041919026523828506, -0.21069559454917908, -0.32987192273139954, -2.222747325897217, 9.033590316772461, 7.2414655685424805, -3.408153772354126, -1.040783405303955, -0.073486328125, 0.43505859375, -0.899169921875, 
408, 3083986193, 0.9685848355293274, -0.12517103552818298, 0.041588012129068375, -0.21085885167121887, -0.3276871144771576, -2.128889560699463, 9.261180877685547, 11.921927452087402, -2.4040496349334717, -2.1178362369537354, -0.074462890625, 0.439453125, -0.903076171875, 
409, 3083994526, 0.9686934351921082, -0.12404351681470871, 0.041165415197610855, -0.21110984683036804, -0.33734020590782166, -1.921614170074463, 9.59192943572998, 16.083093643188477, -2.687523126602173, -3.2406628131866455, -0.074462890625, 0.43701171875, -0.902587890625, 
410, 3084002859, 0.9688255786895752, -0.12286297976970673, 0.04044782370328903, -0.2113327980041504, 0.03332739695906639, -1.9706510305404663, 9.691150665283203, 17.667434692382812, -6.504429340362549, -3.2061855792999268, -0.07666015625, 0.427001953125, -0.90185546875, 
411, 3084011192, 0.9689216613769531, -0.12223395705223083, 0.0391223207116127, -0.21150624752044678, -0.29353195428848267, -2.200632333755493, 9.152327537536621, 12.000594139099121, -16.28909683227539, -4.050943851470947, -0.078125, 0.427001953125, -0.904541015625, 
412, 3084019525, 0.969036340713501, -0.12155306339263916, 0.037124089896678925, -0.21173322200775146, -0.5060641169548035, -2.342525005340576, 7.585515975952148, 14.705283164978027, -24.994131088256836, -5.781572341918945, -0.0791015625, 0.4248046875, -0.902099609375, 
413, 3084027858, 0.9692559838294983, -0.12056486308574677, 0.03441841900348663, -0.21174970269203186, -0.567699670791626, -1.9819189310073853, 7.365947246551514, 20.930509567260742, -33.959659576416016, -3.727337598800659, -0.086669921875, 0.423828125, -0.90673828125, 
414, 3084036191, 0.969497799873352, -0.11961541324853897, 0.03137227147817612, -0.2116541564464569, -0.6044304370880127, -1.8118971586227417, 8.732751846313477, 21.387781143188477, -38.7674674987793, -2.7706453800201416, -0.087646484375, 0.423583984375, -0.9052734375, 
415, 3084044524, 0.9697081446647644, -0.11902251839637756, 0.02831917256116867, -0.21145537495613098, -0.1710941642522812, -2.422910213470459, 10.712815284729004, 16.561357498168945, -40.09267044067383, -1.6331661939620972, -0.0927734375, 0.41552734375, -0.906982421875, 
416, 3084052857, 0.9699553847312927, -0.11866572499275208, 0.02544856071472168, -0.2108856737613678, 0.20753338932991028, -3.0167453289031982, 11.76757526397705, 12.794058799743652, -38.93940353393555, 3.6440014839172363, -0.09619140625, 0.416015625, -0.907470703125, 
417, 3084061190, 0.970281183719635, -0.11807745695114136, 0.022671829909086227, -0.21003210544586182, 0.5706772804260254, -3.042003870010376, 11.67575454711914, 15.64118766784668, -37.53395080566406, 7.874351978302002, -0.099609375, 0.415283203125, -0.90625, 
418, 3084069523, 0.9705737233161926, -0.11725560575723648, 0.019506845623254776, -0.2094583511352539, 0.6540572643280029, -2.247793674468994, 10.57798957824707, 19.910022735595703, -41.49260711669922, 3.29160213470459, -0.105712890625, 0.4150390625, -0.9072265625, 
419, 3084077856, 0.9708095788955688, -0.11660515516996384, 0.016247887164354324, -0.20900598168373108, 0.5784751772880554, -0.6697149276733398, 9.192209243774414, 17.83580207824707, -43.112911224365234, 1.5064400434494019, -0.113037109375, 0.41357421875, -0.910888671875, 
420, 3084086189, 0.9709475040435791, -0.11685249209403992, 0.012866869568824768, -0.2084619104862213, -0.330209881067276, -0.06240823492407799, 8.020840644836426, 6.019497871398926, -47.410736083984375, 2.049283981323242, -0.114990234375, 0.410400390625, -0.91064453125, 
421, 3084094522, 0.9707871675491333, -0.11844681203365326, 0.00961826741695404, -0.20848461985588074, -0.9364727735519409, -0.8881809115409851, 6.792929649353027, -12.718442916870117, -48.57770919799805, -6.394940376281738, -0.12451171875, 0.41259765625, -0.909423828125, 
422, 3084102855, 0.9705147743225098, -0.12010356038808823, 0.005795430392026901, -0.20894601941108704, -1.2087552547454834, -2.139312267303467, 4.4822163581848145, -12.039827346801758, -55.65743637084961, -13.5222806930542, -0.12890625, 0.411865234375, -0.904052734375, 
423, 3084111188, 0.970374345779419, -0.1199924498796463, 0.0008652172982692719, -0.20973891019821167, -0.8682835698127747, -4.304678440093994, 5.395803928375244, 14.990677833557129, -64.85639190673828, -19.248870849609375, -0.140380859375, 0.410888671875, -0.904296875, 
424, 3084119521, 0.9703453779220581, -0.11835234612226486, -0.004782717674970627, -0.21074962615966797, -0.3481059968471527, -5.2334303855896, 9.304244995117188, 37.64606857299805, -69.64039611816406, -22.981945037841797, -0.145751953125, 0.408203125, -0.906005859375, 
425, 3084127854, 0.9702732563018799, -0.1165878102183342, -0.010088283568620682, -0.21187517046928406, 0.9336124658584595, -3.7549049854278564, 13.550915718078613, 38.240631103515625, -64.55200958251953, -24.107248306274414, -0.156982421875, 0.3994140625, -0.905029296875, 
426, 3084136187, 0.9702522158622742, -0.11588101089000702, -0.014027303084731102, -0.21213477849960327, 2.223059892654419, -2.1502833366394043, 14.4346284866333, 20.33613395690918, -50.714351654052734, -10.230916976928711, -0.164794921875, 0.3974609375, -0.903564453125, 
427, 3084144520, 0.9702540636062622, -0.11607518792152405, -0.0168015006929636, -0.21181821823120117, 2.342400074005127, -1.4175105094909668, 12.493739128112793, 5.077017307281494, -38.78261184692383, -0.28278154134750366, -0.169677734375, 0.3974609375, -0.9033203125, 
428, 3084152853, 0.9701964855194092, -0.11695392429828644, -0.018660996109247208, -0.21144232153892517, 1.7929391860961914, -0.5569363236427307, 11.225550651550293, -6.799432277679443, -28.66731834411621, 2.0358080863952637, -0.17724609375, 0.395751953125, -0.902587890625, 
429, 3084161186, 0.9700980186462402, -0.11830463260412216, -0.019912615418434143, -0.21102842688560486, 1.3491148948669434, -0.4430296719074249, 10.87058162689209, -14.92445182800293, -22.014427185058594, 3.4392385482788086, -0.1787109375, 0.397216796875, -0.902099609375, 
430, 3084169519, 0.9699350595474243, -0.11968773603439331, -0.02083336003124714, -0.2109089195728302, 1.426697015762329, -1.7828699350357056, 10.522868156433105, -16.499828338623047, -17.221099853515625, -0.0363210067152977, -0.18115234375, 0.400390625, -0.900634765625, 
431, 3084177852, 0.9698014855384827, -0.12071172147989273, -0.021862193942070007, -0.21083515882492065, 1.3786042928695679, -3.1475868225097656, 9.665380477905273, -11.363784790039062, -17.5499324798584, -0.932102382183075, -0.182861328125, 0.40234375, -0.8974609375, 
432, 3084186185, 0.9696996212005615, -0.12115117162466049, -0.023449061438441277, -0.2108810842037201, 0.9139988422393799, -3.5792789459228516, 7.921981334686279, -1.9384604692459106, -23.058427810668945, -3.5172457695007324, -0.183837890625, 0.405029296875, -0.900390625, 
433, 3084194518, 0.9695066809654236, -0.12152642011642456, -0.0254850834608078, -0.21131518483161926, 0.570123553276062, -2.1812620162963867, 5.865291118621826, -0.05061376467347145, -28.27423858642578, -9.74783706665039, -0.188232421875, 0.403076171875, -0.896728515625, 
434, 3084202851, 0.9692217707633972, -0.12230096012353897, -0.027482856065034866, -0.21192386746406555, 0.41564369201660156, -0.5239874124526978, 4.6161041259765625, -5.715719223022461, -28.60377311706543, -12.24966049194336, -0.1923828125, 0.408447265625, -0.897216796875, 
435, 3084211184, 0.9689472913742065, -0.12287645787000656, -0.030167106539011, -0.21248069405555725, -0.5600732564926147, -2.744943618774414, 7.253848552703857, -1.0112770795822144, -37.31892013549805, -12.647943496704102, -0.19873046875, 0.4033203125, -0.89453125, 
436, 3084219517, 0.9686352014541626, -0.12346716970205307, -0.033758748322725296, -0.2130204737186432, 0.33242636919021606, -4.090699672698975, 11.693242073059082, 1.3807001113891602, -49.463687896728516, -14.054818153381348, -0.201171875, 0.406494140625, -0.889892578125, 
437, 3084227850, 0.968359649181366, -0.12429294735193253, -0.037421636283397675, -0.21318042278289795, 2.4766175746917725, -2.9383552074432373, 13.981873512268066, -1.302640676498413, -51.76352310180664, -8.903144836425781, -0.20947265625, 0.4013671875, -0.890869140625, 
438, 3084236183, 0.9681693911552429, -0.12544788420200348, -0.04033339396119118, -0.21283721923828125, 3.5304880142211914, -2.614396095275879, 13.400638580322266, -7.491612911224365, -43.495609283447266, -0.5541905164718628, -0.2177734375, 0.40869140625, -0.889892578125, 
439, 3084244516, 0.9681007266044617, -0.12665487825870514, -0.04248207062482834, -0.21201547980308533, 2.678219795227051, -3.023463726043701, 11.809675216674805, -9.933313369750977, -34.29278564453125, 7.574328899383545, -0.219970703125, 0.40234375, -0.88720703125, 
440, 3084252849, 0.9681450128555298, -0.12738199532032013, -0.04469968378543854, -0.21091842651367188, 1.1409947872161865, -3.4353933334350586, 10.162741661071777, -2.9809112548828125, -34.20283126831055, 11.2216215133667, -0.2255859375, 0.405029296875, -0.8818359375, 
441, 3084261182, 0.9682320356369019, -0.12725405395030975, -0.04769310727715492, -0.20993810892105103, 0.2444944530725479, -4.215669631958008, 8.1277437210083, 10.6503267288208, -41.84174346923828, 7.852377414703369, -0.2314453125, 0.406005859375, -0.88330078125, 
442, 3084269515, 0.9683879613876343, -0.12667039036750793, -0.05151201784610748, -0.2086661159992218, -0.20219944417476654, -4.468865394592285, 6.81488037109375, 19.305744171142578, -51.774967193603516, 9.469083786010742, -0.233642578125, 0.405517578125, -0.88525390625, 
