sep=,
PacketCounter,SampleTimeFine,Quat_W,Quat_X,Quat_Y,Quat_Z,Acc_X,Acc_Y,Acc_Z,Gyr_X,Gyr_Y,Gyr_Z,Mag_X,Mag_Y,Mag_Z,
0, 2844104122, 0.3559167683124542, -0.6937049031257629, -0.17732009291648865, -0.6005574464797974, 0, 0, 0, 0, 0, 0, -0.896728515625, -0.00341796875, 0.153564453125, 
1, 2844112455, 0.35591936111450195, -0.6937077641487122, -0.17731770873069763, -0.6005532741546631, 9.432875633239746, -2.8605220317840576, -0.32784339785575867, -0.5582877993583679, -0.7062100172042847, -0.09392739832401276, -0.897705078125, -0.00439453125, 0.1513671875, 
2, 2844120788, 0.3559204638004303, -0.6937034726142883, -0.17733007669448853, -0.6005538702011108, 9.428069114685059, -2.827246904373169, -0.31584808230400085, -0.3566782474517822, -0.71494460105896, -0.24894478917121887, -0.897216796875, -0.00244140625, 0.151611328125, 
3, 2844129121, 0.355902761220932, -0.6937066316604614, -0.17733503878116608, -0.6005592346191406, 9.418777465820312, -2.734710693359375, -0.3146893382072449, -0.6842586398124695, -0.7135869860649109, -0.37742576003074646, -0.898193359375, -0.00341796875, 0.15380859375, 
4, 2844137454, 0.355876088142395, -0.6937182545661926, -0.1773446798324585, -0.6005588173866272, 9.384708404541016, -2.7583508491516113, -0.25803881883621216, -0.7185049057006836, -0.9111239910125732, -0.408342182636261, -0.897705078125, -0.00390625, 0.15185546875, 
5, 2844145787, 0.35585132241249084, -0.693723201751709, -0.17737439274787903, -0.600558876991272, 9.411151885986328, -2.816789388656616, -0.22128736972808838, -0.533723771572113, -0.9211903214454651, -0.6424561738967896, -0.898193359375, -0.00341796875, 0.15185546875, 
6, 2844154120, 0.3558441996574402, -0.6937124729156494, -0.17744383215904236, -0.6005550622940063, 9.408227920532227, -2.861974000930786, -0.1883557140827179, 0.07885341346263885, -1.0022337436676025, -0.8536711931228638, -0.898193359375, -0.001953125, 0.153076171875, 
7, 2844162453, 0.3558655381202698, -0.6936936974525452, -0.17753171920776367, -0.6005381941795349, 9.456379890441895, -2.9303700923919678, -0.19358479976654053, 0.5642687678337097, -1.0662437677383423, -0.791761577129364, -0.897216796875, -0.00439453125, 0.15185546875, 
8, 2844170786, 0.3559185266494751, -0.6936503052711487, -0.17764116823673248, -0.6005244851112366, 9.505963325500488, -2.967900514602661, -0.18568065762519836, 1.1670228242874146, -0.8755201101303101, -0.7724739909172058, -0.89990234375, -0.0029296875, 0.15185546875, 
9, 2844179119, 0.35598742961883545, -0.6936015486717224, -0.17774537205696106, -0.6005091071128845, 9.472488403320312, -2.9609620571136475, -0.19774064421653748, 1.299397349357605, -0.7676841616630554, -0.6330557465553284, -0.899169921875, -0.00439453125, 0.14990234375, 
10, 2844187452, 0.35608190298080444, -0.6935534477233887, -0.17785225808620453, -0.6004770398139954, 9.449382781982422, -2.9809072017669678, -0.21782273054122925, 1.608663558959961, -0.8996487259864807, -0.32578742504119873, -0.89794921875, -0.010009765625, 0.15625, 
11, 2844195785, 0.3562113642692566, -0.6934990286827087, -0.17795157432556152, -0.6004337072372437, 9.468724250793457, -2.9550564289093018, -0.26786866784095764, 1.8940317630767822, -0.8038002848625183, 0.0348481684923172, -0.895751953125, -0.00390625, 0.151611328125, 
12, 2844204118, 0.3563500642776489, -0.6934486031532288, -0.17804507911205292, -0.6003819108009338, 9.454399108886719, -2.9139740467071533, -0.2883464992046356, 1.981402039527893, -0.8951663374900818, 0.2562832534313202, -0.898193359375, -0.00439453125, 0.1513671875, 
13, 2844212451, 0.35650569200515747, -0.6934056282043457, -0.17813478410243988, -0.6003124713897705, 9.41636848449707, -2.8345608711242676, -0.32382720708847046, 2.077378511428833, -1.038221836090088, 0.4985939562320709, -0.898193359375, -0.005859375, 0.15185546875, 
14, 2844220784, 0.35667574405670166, -0.693365752696991, -0.17823123931884766, -0.6002289056777954, 9.431593894958496, -2.7879221439361572, -0.28295275568962097, 2.3309338092803955, -1.222464919090271, 0.6695688962936401, -0.898193359375, -0.00390625, 0.1513671875, 
15, 2844229117, 0.35683339834213257, -0.6933283805847168, -0.1783086657524109, -0.6001554131507874, 9.459089279174805, -2.6876397132873535, -0.22013282775878906, 1.964368462562561, -1.0530011653900146, 0.665573000907898, -0.8994140625, -0.001953125, 0.15234375, 
16, 2844237450, 0.35694795846939087, -0.693307101726532, -0.178348109126091, -0.6001002192497253, 9.469369888305664, -2.6437623500823975, -0.18712551891803741, 1.1703271865844727, -0.9624293446540833, 0.660603940486908, -0.900146484375, -0.00341796875, 0.1513671875, 
17, 2844245783, 0.357021689414978, -0.693293035030365, -0.1783428192138672, -0.600074052810669, 9.45761775970459, -2.639263153076172, -0.20364144444465637, 0.2640187442302704, -0.5990657806396484, 0.5872960686683655, -0.89697265625, -0.010498046875, 0.15625, 
18, 2844254116, 0.35704123973846436, -0.6932834982872009, -0.17830199003219604, -0.6000856161117554, 9.481443405151367, -2.6135129928588867, -0.26619306206703186, -0.6203767657279968, -0.2607785165309906, 0.3438839018344879, -0.897216796875, -0.0048828125, 0.15234375, 
19, 2844262449, 0.3570170998573303, -0.6932896971702576, -0.17822730541229248, -0.6001149415969849, 9.463897705078125, -2.606245517730713, -0.30945345759391785, -1.4985095262527466, -0.12968485057353973, 0.21781064569950104, -0.897705078125, -0.00439453125, 0.15380859375, 
20, 2844270782, 0.3569766879081726, -0.6933035850524902, -0.17815203964710236, -0.6001452803611755, 9.438212394714355, -2.6784679889678955, -0.34997430443763733, -1.6380047798156738, -0.253042995929718, 0.14258164167404175, -0.89990234375, -0.0029296875, 0.15185546875, 
21, 2844279115, 0.3569468557834625, -0.6933171153068542, -0.17809215188026428, -0.6001652479171753, 9.4457368850708, -2.764094591140747, -0.34584710001945496, -1.4544529914855957, -0.3625694811344147, 0.09458056092262268, -0.898681640625, -0.00341796875, 0.15185546875, 
22, 2844287448, 0.3569248914718628, -0.6933130025863647, -0.17806276679039001, -0.6001917123794556, 9.477294921875, -2.7757387161254883, -0.34244221448898315, -0.9841757416725159, -0.32025477290153503, -0.16767080128192902, -0.895263671875, -0.00341796875, 0.152587890625, 
23, 2844295781, 0.35692375898361206, -0.6933066248893738, -0.17805218696594238, -0.6002028584480286, 9.467216491699219, -2.7926201820373535, -0.3208121657371521, -0.6049057841300964, -0.4699956178665161, -0.14418253302574158, -0.898193359375, -0.0029296875, 0.153564453125, 
24, 2844304114, 0.35693228244781494, -0.6933022141456604, -0.17806227505207062, -0.6001999378204346, 9.476150512695312, -2.791053533554077, -0.29129236936569214, -0.2934110462665558, -0.718966007232666, -0.1484857201576233, -0.89697265625, -0.009033203125, 0.1572265625, 
25, 2844312447, 0.35695880651474, -0.693296492099762, -0.17808303236961365, -0.6001846790313721, 9.436352729797363, -2.8040075302124023, -0.24905483424663544, -0.04292945936322212, -0.8043382167816162, -0.08427083492279053, -0.8994140625, -0.011474609375, 0.15380859375, 
26, 2844320780, 0.3569716811180115, -0.6932922601699829, -0.1781066656112671, -0.6001747846603394, 9.446839332580566, -2.795438528060913, -0.21393437683582306, -0.12612448632717133, -0.843066930770874, -0.2074240744113922, -0.899658203125, -0.00439453125, 0.154296875, 
27, 2844329113, 0.3569781184196472, -0.6933009028434753, -0.17811524868011475, -0.6001585721969604, 9.438420295715332, -2.7647957801818848, -0.13217739760875702, -0.34650933742523193, -0.9432440996170044, -0.09175018966197968, -0.898681640625, -0.00390625, 0.154296875, 
28, 2844337446, 0.35697025060653687, -0.693313479423523, -0.17811109125614166, -0.600149929523468, 9.41684627532959, -2.763007402420044, -0.06670025736093521, -0.637359082698822, -0.8821797966957092, -0.07766236364841461, -0.899169921875, -0.00732421875, 0.15185546875, 
29, 2844345779, 0.35693472623825073, -0.6933230757713318, -0.17810218036174774, -0.6001626253128052, 9.369730949401855, -2.7568774223327637, -0.0777585580945015, -1.015783667564392, -0.6740385890007019, -0.41254284977912903, -0.899169921875, -0.00439453125, 0.15478515625, 
30, 2844354112, 0.3568745255470276, -0.6933326721191406, -0.17808686196804047, -0.6001919507980347, 9.39508056640625, -2.7630932331085205, -0.16249112784862518, -1.3073506355285645, -0.5705827474594116, -0.5976826548576355, -0.897216796875, -0.005859375, 0.15478515625, 
31, 2844362445, 0.35683339834213257, -0.6933334469795227, -0.1781012862920761, -0.6002111434936523, 9.422490119934082, -2.8291423320770264, -0.2566438615322113, -0.8695264458656311, -0.6619998812675476, -0.7353333830833435, -0.898681640625, -0.0048828125, 0.1513671875, 
32, 2844370778, 0.3568151295185089, -0.693315863609314, -0.17815424501895905, -0.6002265810966492, 9.46109390258789, -2.8895912170410156, -0.34654808044433594, -0.17701996862888336, -0.7093093991279602, -0.9006476402282715, -0.897216796875, -0.00537109375, 0.15380859375, 
33, 2844379111, 0.3568422198295593, -0.6932801008224487, -0.17825327813625336, -0.6002224087715149, 9.508110046386719, -2.8822522163391113, -0.41913485527038574, 0.7376258373260498, -0.8387381434440613, -0.951517641544342, -0.896728515625, -0.001953125, 0.151611328125, 
34, 2844387444, 0.3568946123123169, -0.6932359933853149, -0.17837576568126678, -0.6002058982849121, 9.500920295715332, -2.8258752822875977, -0.42647886276245117, 1.2798024415969849, -0.9653750061988831, -0.8898130059242249, -0.899169921875, -0.00341796875, 0.1533203125, 
35, 2844395777, 0.35694923996925354, -0.6932024955749512, -0.1784926950931549, -0.6001772880554199, 9.501897811889648, -2.791618585586548, -0.35969963669776917, 1.206187129020691, -1.1127591133117676, -0.7700919508934021, -0.89892578125, -0.01513671875, 0.15576171875, 
36, 2844404110, 0.35698044300079346, -0.6931825876235962, -0.17857268452644348, -0.6001579165458679, 9.499626159667969, -2.729854106903076, -0.29019102454185486, 0.6140629649162292, -1.0345078706741333, -0.5859512686729431, -0.897705078125, -0.00537109375, 0.1533203125, 
37, 2844412443, 0.35697025060653687, -0.6931784152984619, -0.1786048263311386, -0.6001591086387634, 9.42146110534668, -2.649949789047241, -0.23408398032188416, -0.3404900133609772, -0.8099989891052246, -0.5720683932304382, -0.898193359375, -0.00341796875, 0.1533203125, 
38, 2844420776, 0.35690614581108093, -0.6932013630867004, -0.17856138944625854, -0.6001837849617004, 9.345040321350098, -2.5729570388793945, -0.20899289846420288, -1.6303718090057373, -0.596734881401062, -0.30498871207237244, -0.897216796875, -0.00439453125, 0.15380859375, 
39, 2844429109, 0.3568118214607239, -0.6932476758956909, -0.17847591638565063, -0.6002118587493896, 9.372146606445312, -2.641339063644409, -0.1687677949666977, -2.4317643642425537, -0.5983229279518127, -0.15271207690238953, -0.895263671875, -0.0068359375, 0.155517578125, 
40, 2844437442, 0.3566872477531433, -0.6932878494262695, -0.1783604919910431, -0.6002739071846008, 9.42193603515625, -2.647928237915039, -0.1880287379026413, -2.9771170616149902, -0.17845438420772552, -0.26034310460090637, -0.896728515625, -0.00634765625, 0.1533203125, 
41, 2844445775, 0.35655373334884644, -0.6933162212371826, -0.17824795842170715, -0.6003537178039551, 9.45423698425293, -2.65498685836792, -0.2102319300174713, -3.0534985065460205, 0.07498567551374435, -0.5146923661231995, -0.898681640625, -0.0068359375, 0.15185546875, 
42, 2844454108, 0.3564160168170929, -0.6933318376541138, -0.1781538873910904, -0.6004453301429749, 9.470956802368164, -2.7198565006256104, -0.2450333684682846, -2.878399610519409, 0.1707829236984253, -0.7771615386009216, -0.899658203125, -0.005859375, 0.15283203125, 
43, 2844462441, 0.3562955856323242, -0.693332850933075, -0.17809787392616272, -0.6005322933197021, 9.489651679992676, -2.7881228923797607, -0.29936927556991577, -2.3529748916625977, 0.12639345228672028, -1.0480320453643799, -0.899169921875, -0.00634765625, 0.15087890625, 
44, 2844470774, 0.35617542266845703, -0.6933244466781616, -0.1780605912208557, -0.6006245017051697, 9.475910186767578, -2.824894428253174, -0.31263166666030884, -2.126263380050659, 0.13832968473434448, -1.2365784645080566, -0.898681640625, -0.006591796875, 0.15380859375, 
45, 2844479107, 0.35606181621551514, -0.6933168768882751, -0.17802031338214874, -0.600712239742279, 9.491930961608887, -2.8519537448883057, -0.3237251937389374, -2.1541574001312256, 0.15690001845359802, -1.166472315788269, -0.899658203125, -0.007568359375, 0.15283203125, 
46, 2844487440, 0.35593682527542114, -0.6933121681213379, -0.1779717653989792, -0.6008062958717346, 9.447546005249023, -2.9170360565185547, -0.28657862544059753, -2.2866339683532715, 0.1680678129196167, -1.1671638488769531, -0.898681640625, -0.009033203125, 0.15673828125, 
47, 2844495773, 0.35581332445144653, -0.6933186054229736, -0.17789927124977112, -0.6008934378623962, 9.41012191772461, -2.94437313079834, -0.2538098692893982, -2.5545847415924072, 0.1598968654870987, -0.905053436756134, -0.897705078125, -0.00537109375, 0.1533203125, 
48, 2844504106, 0.355690598487854, -0.6933373808860779, -0.17780619859695435, -0.6009719967842102, 9.392061233520508, -2.9268414974212646, -0.25021690130233765, -2.7108311653137207, 0.05149741470813751, -0.590664267539978, -0.898681640625, -0.007568359375, 0.1533203125, 
49, 2844512439, 0.35556501150131226, -0.6933664083480835, -0.17770059406757355, -0.6010438799858093, 9.39008903503418, -2.8998842239379883, -0.21615280210971832, -2.916872501373291, -0.017673823982477188, -0.47719326615333557, -0.898193359375, -0.005859375, 0.15380859375, 
50, 2844520772, 0.3554476201534271, -0.6933952569961548, -0.17759470641613007, -0.6011115908622742, 9.418749809265137, -2.873356819152832, -0.19385039806365967, -2.789569616317749, -0.05978362634778023, -0.3477388620376587, -0.900146484375, -0.00537109375, 0.15283203125, 
51, 2844529105, 0.35534560680389404, -0.693423867225647, -0.17751631140708923, -0.6011620163917542, 9.473245620727539, -2.8336005210876465, -0.21063293516635895, -2.439986228942871, -0.28449729084968567, -0.4365946650505066, -0.898193359375, -0.00537109375, 0.15185546875, 
52, 2844537438, 0.35528647899627686, -0.6934306025505066, -0.17748430371284485, -0.6011987328529358, 9.482995986938477, -2.8340208530426025, -0.23582208156585693, -1.4384441375732422, -0.3915135860443115, -0.47360724210739136, -0.899658203125, -0.00732421875, 0.150390625, 
53, 2844545771, 0.35525810718536377, -0.6934205889701843, -0.17750371992588043, -0.6012210249900818, 9.497766494750977, -2.7549960613250732, -0.2525025010108948, -0.6777525544166565, -0.5296255350112915, -0.7185561060905457, -0.8974609375, -0.014404296875, 0.15478515625, 
54, 2844554104, 0.3552413582801819, -0.6934036016464233, -0.17755228281021118, -0.6012362241744995, 9.451566696166992, -2.6929166316986084, -0.26227328181266785, -0.20035456120967865, -0.6912514567375183, -0.843451201915741, -0.898681640625, -0.00634765625, 0.15283203125, 
55, 2844562437, 0.3552030026912689, -0.6933989524841309, -0.17758239805698395, -0.6012553572654724, 9.460779190063477, -2.596210241317749, -0.23989920318126678, -0.6595153212547302, -0.6955033540725708, -0.8728563785552979, -0.899658203125, -0.0068359375, 0.1513671875, 
56, 2844570770, 0.3551194667816162, -0.6934217214584351, -0.17758527398109436, -0.6012774705886841, 9.437786102294922, -2.5946903228759766, -0.23198193311691284, -1.4264823198318481, -0.8930915594100952, -0.8968312740325928, -0.89794921875, -0.013427734375, 0.1552734375, 
57, 2844579103, 0.35498467087745667, -0.6934696435928345, -0.17754745483398438, -0.6013131737709045, 9.433587074279785, -2.6602680683135986, -0.21364133059978485, -2.3960578441619873, -0.889454185962677, -0.9748265147209167, -0.898193359375, -0.0078125, 0.14990234375, 
58, 2844587436, 0.3548295497894287, -0.6935276985168457, -0.17750491201877594, -0.6013504266738892, 9.409079551696777, -2.721472978591919, -0.2200843095779419, -2.6944124698638916, -0.9933199882507324, -1.0429604053497314, -0.897705078125, -0.0087890625, 0.15234375, 
59, 2844595769, 0.35468363761901855, -0.6935786008834839, -0.17746353149414062, -0.6013898849487305, 9.39445972442627, -2.7717807292938232, -0.25067138671875, -2.682194709777832, -0.848035991191864, -1.0452144145965576, -0.897705078125, -0.009521484375, 0.15185546875, 
60, 2844604102, 0.3545319437980652, -0.693632185459137, -0.17741453647613525, -0.6014321446418762, 9.406899452209473, -2.800863742828369, -0.25357094407081604, -2.705811023712158, -0.8695776462554932, -0.9899134039878845, -0.897705078125, -0.0087890625, 0.15185546875, 
61, 2844612435, 0.3544014096260071, -0.6936784386634827, -0.1773609220981598, -0.6014711856842041, 9.346314430236816, -2.885467529296875, -0.2655562162399292, -2.518519639968872, -0.7459121346473694, -0.8094866275787354, -0.897705078125, -0.00927734375, 0.14990234375, 
62, 2844620768, 0.35429301857948303, -0.6937016844749451, -0.1773340106010437, -0.6015163064002991, 9.393912315368652, -2.9255917072296143, -0.30707603693008423, -1.9683514833450317, -0.5935330390930176, -0.9291307330131531, -0.898681640625, -0.008544921875, 0.1533203125, 
63, 2844629101, 0.35422760248184204, -0.6937103867530823, -0.17733414471149445, -0.6015447974205017, 9.39533805847168, -2.908524751663208, -0.2948974072933197, -1.2551229000091553, -0.635899007320404, -0.8248039484024048, -0.897216796875, -0.008056640625, 0.154296875, 
64, 2844637434, 0.3541901111602783, -0.6937079429626465, -0.17734310030937195, -0.6015669703483582, 9.447031021118164, -2.8733112812042236, -0.29664984345436096, -0.8136361837387085, -0.6011660695075989, -0.6350024342536926, -0.899169921875, -0.01806640625, 0.155517578125, 
65, 2844645767, 0.35417667031288147, -0.6936979293823242, -0.17736929655075073, -0.6015787720680237, 9.46821117401123, -2.8770596981048584, -0.2835387587547302, -0.3777587115764618, -0.6514723896980286, -0.6071597933769226, -0.89599609375, -0.0087890625, 0.154296875, 
66, 2844654100, 0.35417500138282776, -0.6936798095703125, -0.17740440368652344, -0.6015902757644653, 9.46325397491455, -2.8811936378479004, -0.24713072180747986, -0.15368540585041046, -0.6128461360931396, -0.5764739513397217, -0.897216796875, -0.00927734375, 0.1513671875, 
67, 2844662433, 0.35418641567230225, -0.693659245967865, -0.1774345338344574, -0.6015983819961548, 9.452210426330566, -2.8273112773895264, -0.21487855911254883, 0.04068820923566818, -0.5850034356117249, -0.44371533393859863, -0.89794921875, -0.009521484375, 0.15283203125, 
68, 2844670766, 0.35419580340385437, -0.6936403512954712, -0.17745335400104523, -0.6016091108322144, 9.44255542755127, -2.842754602432251, -0.20178888738155365, -0.17681507766246796, -0.5092110633850098, -0.3264278173446655, -0.897705078125, -0.00732421875, 0.15234375, 
69, 2844679099, 0.3542186915874481, -0.6936313509941101, -0.1774539053440094, -0.6016058921813965, 9.439886093139648, -2.8295645713806152, -0.25120070576667786, -0.2892102897167206, -0.5643327832221985, 0.01264062337577343, -0.898681640625, -0.009033203125, 0.15478515625, 
70, 2844687432, 0.3542383015155792, -0.6936253309249878, -0.17744533717632294, -0.6016038060188293, 9.432954788208008, -2.836538553237915, -0.3027440905570984, -0.3386457860469818, -0.5768581032752991, 0.11233121156692505, -0.89892578125, -0.012451171875, 0.15576171875, 
71, 2844695765, 0.354286253452301, -0.6936100721359253, -0.1774386465549469, -0.6015951633453369, 9.46662425994873, -2.814443349838257, -0.2789752781391144, -0.058041855692863464, -0.4712506830692291, 0.30036529898643494, -0.8984375, -0.01708984375, 0.156005859375, 
72, 2844704098, 0.35431772470474243, -0.6936033368110657, -0.177413672208786, -0.6015916466712952, 9.456336975097656, -2.71567702293396, -0.2798406779766083, -0.3530665934085846, -0.47808966040611267, 0.37344273924827576, -0.899658203125, -0.009033203125, 0.15283203125, 
73, 2844712431, 0.3543655276298523, -0.693596363067627, -0.17738910019397736, -0.6015787720680237, 9.430707931518555, -2.7290456295013428, -0.2693046033382416, -0.22563575208187103, -0.496250182390213, 0.5096592307090759, -0.900146484375, -0.010986328125, 0.15283203125, 
74, 2844720764, 0.35441485047340393, -0.69358229637146, -0.17736878991127014, -0.6015719771385193, 9.445257186889648, -2.735189914703369, -0.2702844738960266, -0.10040779411792755, -0.4291664958000183, 0.47443968057632446, -0.89794921875, -0.010009765625, 0.15234375, 
75, 2844729097, 0.3544585704803467, -0.6935735940933228, -0.17733293771743774, -0.6015669107437134, 9.440593719482422, -2.723924160003662, -0.24022823572158813, -0.3572673201560974, -0.36484912037849426, 0.5414977073669434, -0.896240234375, -0.0078125, 0.1533203125, 
76, 2844737430, 0.35448241233825684, -0.6935749650001526, -0.17726360261440277, -0.6015717387199402, 9.40925121307373, -2.711642265319824, -0.2294635772705078, -0.8525953888893127, -0.2669515311717987, 0.7125495672225952, -0.8994140625, -0.015625, 0.15625, 
77, 2844745763, 0.35449308156967163, -0.6935820579528809, -0.1771663874387741, -0.6015858054161072, 9.407540321350098, -2.7303974628448486, -0.23462040722370148, -1.2596567869186401, -0.10939840972423553, 0.8002271056175232, -0.8984375, -0.010986328125, 0.15234375, 
78, 2844754096, 0.3544779419898987, -0.6935983300209045, -0.17703060805797577, -0.6016159653663635, 9.441287994384766, -2.724856376647949, -0.2330915927886963, -1.9084398746490479, 0.08000605553388596, 0.9368277788162231, -0.8994140625, -0.010986328125, 0.150390625, 
79, 2844762429, 0.3544366955757141, -0.693626880645752, -0.17686301469802856, -0.6016565561294556, 9.391012191772461, -2.753467082977295, -0.2974744439125061, -2.4959280490875244, 0.18005529046058655, 0.9642093777656555, -0.897216796875, -0.0078125, 0.1513671875, 
80, 2844770762, 0.3543793857097626, -0.6936628818511963, -0.17668162286281586, -0.6017022132873535, 9.38240909576416, -2.7044517993927, -0.3470593988895416, -2.8214850425720215, 0.18238615989685059, 0.9959198236465454, -0.897216796875, -0.0087890625, 0.15087890625, 
81, 2844779095, 0.35431575775146484, -0.6937060952186584, -0.17651565372943878, -0.601738691329956, 9.376185417175293, -2.708498954772949, -0.3487163782119751, -2.811572313308716, -0.026971792802214622, 0.8185156583786011, -0.8994140625, -0.012451171875, 0.15478515625, 
82, 2844787428, 0.35426777601242065, -0.6937389373779297, -0.17638474702835083, -0.6017675399780273, 9.334193229675293, -2.754711151123047, -0.33085936307907104, -2.258253335952759, -0.1738182008266449, 0.6652401089668274, -0.898681640625, -0.01904296875, 0.156494140625, 
83, 2844795761, 0.35424309968948364, -0.6937493681907654, -0.17629750072956085, -0.6017953753471375, 9.369215965270996, -2.762585401535034, -0.285334050655365, -1.6112889051437378, -0.12522798776626587, 0.3524646461009979, -0.898681640625, -0.009521484375, 0.15380859375, 
84, 2844804094, 0.35423070192337036, -0.6937479376792908, -0.1762399673461914, -0.6018210649490356, 9.374544143676758, -2.776948928833008, -0.2131689190864563, -1.1377074718475342, -0.1904674619436264, 0.19165851175785065, -0.899169921875, -0.009521484375, 0.1513671875, 
85, 2844812427, 0.3542346954345703, -0.693732738494873, -0.1761912703514099, -0.6018505692481995, 9.369165420532227, -2.8087782859802246, -0.16689012944698334, -0.8946027159690857, -0.016111353412270546, 0.15272489190101624, -0.899658203125, -0.0078125, 0.14892578125, 
86, 2844820760, 0.35424160957336426, -0.6937185525894165, -0.17614495754241943, -0.6018762588500977, 9.399672508239746, -2.841431140899658, -0.17239782214164734, -0.7981395721435547, -0.09359440952539444, 0.21184252202510834, -0.899658203125, -0.0068359375, 0.15185546875, 
87, 2844829093, 0.3542456328868866, -0.6937087178230286, -0.176099956035614, -0.6018986105918884, 9.43337631225586, -2.8900704383850098, -0.17575250566005707, -0.8572571873664856, -0.15240469574928284, 0.16619795560836792, -0.898681640625, -0.00732421875, 0.15234375, 
88, 2844837426, 0.3542460799217224, -0.6936953067779541, -0.1760435849428177, -0.6019302606582642, 9.495399475097656, -2.8591768741607666, -0.19467905163764954, -0.9621475338935852, -0.00906743947416544, 0.22767211496829987, -0.8974609375, -0.009765625, 0.15185546875, 
89, 2844845759, 0.35422295331954956, -0.6936957836151123, -0.17595404386520386, -0.6019694805145264, 9.532000541687012, -2.8118042945861816, -0.19698914885520935, -1.5234577655792236, 0.05754237622022629, 0.310457319021225, -0.8984375, -0.01611328125, 0.15625, 
90, 2844854092, 0.35419195890426636, -0.693709135055542, -0.175851508975029, -0.6020022630691528, 9.498090744018555, -2.824305772781372, -0.2145552784204483, -1.7765010595321655, -0.07277004420757294, 0.467651903629303, -0.898193359375, -0.0078125, 0.1494140625, 
91, 2844862425, 0.35417065024375916, -0.6937193870544434, -0.17577433586120605, -0.60202556848526, 9.518989562988281, -2.8926596641540527, -0.26303863525390625, -1.474022388458252, -0.2107795625925064, 0.3066152036190033, -0.899658203125, -0.010009765625, 0.14990234375, 
92, 2844870758, 0.3541550934314728, -0.6937241554260254, -0.1757311224937439, -0.6020417809486389, 9.512787818908691, -2.7878341674804688, -0.2991032898426056, -1.0555882453918457, -0.40993016958236694, 0.08909910917282104, -0.89794921875, -0.010498046875, 0.15185546875, 
93, 2844879091, 0.3541640639305115, -0.6937240362167358, -0.1757318526506424, -0.6020363569259644, 9.51231575012207, -2.779938220977783, -0.28456154465675354, -0.4797801971435547, -0.6867944598197937, -0.07146371155977249, -0.898681640625, -0.0087890625, 0.15087890625, 
94, 2844887424, 0.35418185591697693, -0.6937254071235657, -0.17576724290847778, -0.6020140647888184, 9.53418254852295, -2.7942795753479004, -0.3003407120704651, 0.022553332149982452, -1.0529755353927612, -0.20529808104038239, -0.897705078125, -0.00927734375, 0.1513671875, 
95, 2844895757, 0.35421013832092285, -0.6937260031700134, -0.17583820223808289, -0.6019759774208069, 9.526227951049805, -2.765146017074585, -0.2643762230873108, 0.3994668126106262, -1.3109878301620483, -0.420483261346817, -0.90087890625, -0.012451171875, 0.153076171875, 
96, 2844904090, 0.3542453348636627, -0.6937277317047119, -0.17590674757957458, -0.6019333004951477, 9.506657600402832, -2.7676780223846436, -0.24749551713466644, 0.5100946426391602, -1.3701821565628052, -0.2776070535182953, -0.89892578125, -0.011474609375, 0.15185546875, 
97, 2844912423, 0.35426753759384155, -0.6937361359596252, -0.1759641170501709, -0.601893961429596, 9.51274299621582, -2.7438805103302, -0.20449981093406677, 0.2192194163799286, -1.3453364372253418, -0.315823495388031, -0.900390625, -0.012939453125, 0.153076171875, 
98, 2844920756, 0.3542811870574951, -0.6937475800514221, -0.17602908611297607, -0.601853609085083, 9.451659202575684, -2.748079299926758, -0.20489318668842316, 0.22160157561302185, -1.4594992399215698, -0.408521443605423, -0.898681640625, -0.009521484375, 0.15283203125, 
99, 2844929089, 0.3543025553226471, -0.6937599778175354, -0.17609456181526184, -0.6018075346946716, 9.409836769104004, -2.7874486446380615, -0.21442078053951263, 0.2704222798347473, -1.4830129146575928, -0.35742104053497314, -0.899658203125, -0.0078125, 0.15087890625, 
100, 2844937422, 0.35431334376335144, -0.6937732100486755, -0.17615008354187012, -0.601769745349884, 9.377105712890625, -2.7673919200897217, -0.19747568666934967, 0.10231605172157288, -1.4126248359680176, -0.35071006417274475, -0.89892578125, -0.015625, 0.155517578125, 
101, 2844945755, 0.35432708263397217, -0.6937854290008545, -0.17619557678699493, -0.6017342209815979, 9.343179702758789, -2.7735934257507324, -0.17330622673034668, 0.00659566605463624, -1.3021509647369385, -0.28229448199272156, -0.897705078125, -0.0087890625, 0.1513671875, 
102, 2844954088, 0.354329913854599, -0.6937958002090454, -0.1762254685163498, -0.6017118692398071, 9.322872161865234, -2.7923269271850586, -0.13104723393917084, -0.2096269130706787, -1.1355302333831787, -0.2548104226589203, -0.89990234375, -0.015625, 0.153076171875, 
103, 2844962421, 0.35430896282196045, -0.6938096284866333, -0.17621560394763947, -0.6017109751701355, 9.362462997436523, -2.7754461765289307, -0.11985303461551666, -0.9086393117904663, -0.7880476117134094, -0.20555423200130463, -0.896484375, -0.010498046875, 0.1552734375, 
104, 2844970754, 0.354292094707489, -0.6938155293464661, -0.17621716856956482, -0.6017136573791504, 9.394644737243652, -2.84735369682312, -0.26985520124435425, -0.6700683832168579, -0.7704249024391174, -0.27937445044517517, -0.900146484375, -0.010009765625, 0.15234375, 
105, 2844979087, 0.35429370403289795, -0.6938110589981079, -0.17625835537910461, -0.6017059683799744, 9.473475456237793, -2.8673386573791504, -0.3698234260082245, -0.07820025831460953, -0.9233162999153137, -0.5159987807273865, -0.900146484375, -0.009033203125, 0.150390625, 
106, 2844987420, 0.3543460965156555, -0.6937821507453918, -0.17636044323444366, -0.6016784310340881, 9.511085510253906, -2.879448413848877, -0.3726559579372406, 1.0646172761917114, -1.091986060142517, -0.6031128764152527, -0.897216796875, -0.0078125, 0.15234375, 
107, 2844995753, 0.354431688785553, -0.6937299966812134, -0.17647147178649902, -0.6016555428504944, 9.526071548461914, -2.8125147819519043, -0.34225040674209595, 1.5088962316513062, -0.7905321717262268, -0.5305221080780029, -0.897216796875, -0.01708984375, 0.15576171875, 
108, 2845004086, 0.3544832468032837, -0.6936804056167603, -0.17653268575668335, -0.6016644835472107, 9.586090087890625, -2.670649766921997, -0.3384367525577545, 0.7311710715293884, -0.3756839632987976, -0.4474806785583496, -0.8994140625, -0.011962890625, 0.15234375, 
109, 2845012419, 0.3545035123825073, -0.6936584115028381, -0.17654873430728912, -0.6016730666160583, 9.55190658569336, -2.6392130851745605, -0.333372563123703, -0.13211822509765625, -0.43298301100730896, -0.24699808657169342, -0.898681640625, -0.00927734375, 0.150390625, 
110, 2845020752, 0.3544549345970154, -0.6936699151992798, -0.17653369903564453, -0.6016929149627686, 9.50570011138916, -2.635486364364624, -0.35117581486701965, -1.1797914505004883, -0.6496538519859314, -0.4534488022327423, -0.898193359375, -0.00830078125, 0.15087890625, 
111, 2845029085, 0.35438916087150574, -0.6936910152435303, -0.17651823163032532, -0.6017118096351624, 9.447773933410645, -2.662628650665283, -0.31681281328201294, -1.461727499961853, -0.7411478161811829, -0.6006537675857544, -0.8984375, -0.013916015625, 0.154296875, 
112, 2845037418, 0.3543042540550232, -0.6937280297279358, -0.17651447653770447, -0.6017202138900757, 9.417820930480957, -2.6969103813171387, -0.30200985074043274, -1.530450701713562, -1.1121445894241333, -0.7452205419540405, -0.8984375, -0.014892578125, 0.153076171875, 
113, 2845045751, 0.3542079031467438, -0.6937695741653442, -0.17650388181209564, -0.6017324328422546, 9.399100303649902, -2.7701575756073, -0.25188323855400085, -1.7612603902816772, -1.0835076570510864, -0.8192200064659119, -0.8974609375, -0.010498046875, 0.15185546875, 
114, 2845054084, 0.354128360748291, -0.6938045620918274, -0.17650175094604492, -0.6017395257949829, 9.390417098999023, -2.8629908561706543, -0.21374796330928802, -1.4515842199325562, -1.1014376878738403, -0.713484525680542, -0.89794921875, -0.010986328125, 0.15185546875, 
115, 2845062417, 0.3540647625923157, -0.6938311457633972, -0.17649999260902405, -0.601746678352356, 9.387117385864258, -2.906661033630371, -0.19297592341899872, -1.2971304655075073, -0.9702416062355042, -0.6431478261947632, -0.897705078125, -0.02001953125, 0.155029296875, 
116, 2845070750, 0.35403621196746826, -0.6938461661338806, -0.17652562260627747, -0.601738691329956, 9.345847129821777, -2.9108922481536865, -0.1690860539674759, -0.6022674441337585, -1.0924214124679565, -0.5329041481018066, -0.899658203125, -0.010009765625, 0.1513671875, 
117, 2845079083, 0.354059636592865, -0.693845808506012, -0.1765637993812561, -0.601714015007019, 9.326470375061035, -2.911715030670166, -0.20221087336540222, 0.07741902023553848, -1.0356346368789673, -0.21433991193771362, -0.89794921875, -0.010986328125, 0.15380859375, 
118, 2845087416, 0.3540996015071869, -0.6938354969024658, -0.17661406099796295, -0.6016877293586731, 9.367084503173828, -2.855386257171631, -0.230600506067276, 0.42203289270401, -1.0116597414016724, -0.17258869111537933, -0.89990234375, -0.01708984375, 0.155517578125, 
119, 2845095749, 0.35415321588516235, -0.6938272714614868, -0.17666040360927582, -0.6016518473625183, 9.395309448242188, -2.8471462726593018, -0.25226646661758423, 0.5138856172561646, -1.0485700368881226, -0.007504971232265234, -0.8994140625, -0.011474609375, 0.15185546875, 
120, 2845104082, 0.3541973829269409, -0.6938397288322449, -0.17668403685092926, -0.601604700088501, 9.433362007141113, -2.8438987731933594, -0.28052735328674316, 0.18310336768627167, -1.2585041522979736, 0.27224090695381165, -0.89697265625, -0.009765625, 0.1513671875, 
121, 2845112415, 0.3542317748069763, -0.6938663125038147, -0.17669782042503357, -0.6015497446060181, 9.505705833435059, -2.8453149795532227, -0.3241167664527893, -0.042929455637931824, -1.412394404411316, 0.3226240873336792, -0.898681640625, -0.00830078125, 0.150390625, 
122, 2845120748, 0.3542900085449219, -0.6938818097114563, -0.17673413455486298, -0.6014868021011353, 9.511493682861328, -2.8442704677581787, -0.3487226963043213, 0.44408679008483887, -1.4628033638000488, 0.3513120412826538, -0.900146484375, -0.009033203125, 0.15185546875, 
123, 2845129081, 0.35437074303627014, -0.6938823461532593, -0.1768132597208023, -0.6014155149459839, 9.539393424987793, -2.8128368854522705, -0.3506552278995514, 1.049043893814087, -1.5402607917785645, 0.09767989069223404, -0.898193359375, -0.008544921875, 0.1533203125, 
124, 2845137414, 0.3544524312019348, -0.6938822269439697, -0.17690420150756836, -0.6013407111167908, 9.49273681640625, -2.79451060295105, -0.3327195346355438, 1.2269858121871948, -1.656267523765564, 0.04540122672915459, -0.8974609375, -0.010498046875, 0.15380859375, 
125, 2845145747, 0.3545417785644531, -0.6938788890838623, -0.17703451216220856, -0.6012535691261292, 9.455527305603027, -2.797861337661743, -0.27313053607940674, 1.5874295234680176, -1.880340814590454, -0.2528381049633026, -0.897216796875, -0.017578125, 0.15771484375, 
126, 2845154080, 0.3546323776245117, -0.6938595771789551, -0.17719127237796783, -0.6011762619018555, 9.418448448181152, -2.7618017196655273, -0.1871437430381775, 1.955582857131958, -1.820403814315796, -0.5428425073623657, -0.89794921875, -0.0166015625, 0.1572265625, 
127, 2845162413, 0.3547147512435913, -0.6938477754592896, -0.17733728885650635, -0.6010981798171997, 9.343256950378418, -2.7549517154693604, -0.17938868701457977, 1.7105315923690796, -1.830726146697998, -0.52493816614151, -0.8984375, -0.011962890625, 0.15234375, 
128, 2845170746, 0.354792058467865, -0.6938398480415344, -0.17747627198696136, -0.6010208129882812, 9.353876113891602, -2.7948174476623535, -0.12957902252674103, 1.625415325164795, -1.8596704006195068, -0.45580530166625977, -0.896728515625, -0.01806640625, 0.15625, 
129, 2845179079, 0.3548717796802521, -0.6938230395317078, -0.177607461810112, -0.6009543538093567, 9.38676929473877, -2.8170316219329834, -0.13797247409820557, 1.5589463710784912, -1.6141835451126099, -0.47475987672805786, -0.8984375, -0.010009765625, 0.15478515625, 
130, 2845187412, 0.3549434542655945, -0.6938043236732483, -0.1777195930480957, -0.6009005904197693, 9.383478164672852, -2.816279411315918, -0.1337699592113495, 1.3459383249282837, -1.4280191659927368, -0.386570006608963, -0.8984375, -0.011962890625, 0.1533203125, 
131, 2845195745, 0.3550190329551697, -0.6937839388847351, -0.177799254655838, -0.6008557081222534, 9.409028053283691, -2.770024299621582, -0.1802087277173996, 1.0455347299575806, -1.1339422464370728, -0.13119611144065857, -0.89794921875, -0.010986328125, 0.1572265625, 
132, 2845204078, 0.35507798194885254, -0.6937732696533203, -0.17783141136169434, -0.6008237600326538, 9.427525520324707, -2.7273576259613037, -0.2490047663450241, 0.4706999957561493, -0.9270303249359131, 0.1841791570186615, -0.89697265625, -0.010498046875, 0.1533203125, 
133, 2845212411, 0.35513660311698914, -0.6937729120254517, -0.17787015438079834, -0.6007779836654663, 9.397841453552246, -2.7366132736206055, -0.3380791246891022, 0.4577648341655731, -1.1517953872680664, 0.17252469062805176, -0.901123046875, -0.010009765625, 0.15673828125, 
134, 2845220744, 0.35519513487815857, -0.6937689781188965, -0.17791931331157684, -0.6007334589958191, 9.449664115905762, -2.7245535850524902, -0.40061643719673157, 0.6056614518165588, -1.1876296997070312, 0.09642479568719864, -0.896484375, -0.00927734375, 0.1533203125, 
135, 2845229077, 0.35526734590530396, -0.6937564015388489, -0.1779974102973938, -0.6006821393966675, 9.488983154296875, -2.7413055896759033, -0.3548525273799896, 1.0153099298477173, -1.270389199256897, -0.09315897524356842, -0.900634765625, -0.010009765625, 0.154296875, 
136, 2845237410, 0.3553136885166168, -0.693731963634491, -0.1780604124069214, -0.6006643772125244, 9.556964874267578, -2.6791255474090576, -0.3193671405315399, 0.6369620561599731, -0.8605615496635437, -0.31810322403907776, -0.897705078125, -0.01708984375, 0.15576171875, 
137, 2845245743, 0.35534751415252686, -0.6937087774276733, -0.17813318967819214, -0.6006492376327515, 9.524309158325195, -2.715062141418457, -0.22368396818637848, 0.5582494139671326, -0.9012880921363831, -0.5613871812820435, -0.896484375, -0.010009765625, 0.1533203125, 
138, 2845254076, 0.35536181926727295, -0.6936841607093811, -0.17821957170963287, -0.6006438136100769, 9.492072105407715, -2.8085570335388184, -0.24185216426849365, 0.49598127603530884, -0.9355087280273438, -0.8660173416137695, -0.899169921875, -0.009521484375, 0.150390625, 
139, 2845262409, 0.3553938865661621, -0.693644642829895, -0.17834261059761047, -0.6006338000297546, 9.47115421295166, -2.8563389778137207, -0.25890210270881653, 0.8894414901733398, -0.9264668226242065, -1.1233378648757935, -0.89794921875, -0.010986328125, 0.15478515625, 
140, 2845270742, 0.3554299771785736, -0.6936058402061462, -0.17846384644508362, -0.6006213426589966, 9.47974967956543, -2.8567988872528076, -0.2781427502632141, 1.0778086185455322, -1.0003128051757812, -1.0192160606384277, -0.8984375, -0.010009765625, 0.15380859375, 
141, 2845279075, 0.35547375679016113, -0.6935771107673645, -0.1785571426153183, -0.6006008386611938, 9.475549697875977, -2.8395001888275146, -0.2640545964241028, 0.7975375652313232, -0.962992787361145, -0.6623840928077698, -0.8984375, -0.01513671875, 0.1572265625, 
142, 2845287408, 0.35549116134643555, -0.6935718059539795, -0.17860767245292664, -0.600581705570221, 9.486830711364746, -2.8509514331817627, -0.24874718487262726, 0.1690155267715454, -1.041525959968567, -0.3851868510246277, -0.8984375, -0.012451171875, 0.15673828125, 
143, 2845295741, 0.3555164933204651, -0.693585216999054, -0.17864497005939484, -0.6005401611328125, 9.427204132080078, -2.832096576690674, -0.2603420317173004, 0.022117890417575836, -1.29059898853302, -0.07548514753580093, -0.89794921875, -0.01611328125, 0.15771484375, 
144, 2845304074, 0.35556256771087646, -0.6935986280441284, -0.17869076132774353, -0.6004836559295654, 9.368301391601562, -2.7915539741516113, -0.25412628054618835, 0.4029502868652344, -1.4573473930358887, 0.12688010931015015, -0.89794921875, -0.012939453125, 0.15576171875, 
145, 2845312407, 0.35564929246902466, -0.6935938596725464, -0.17876982688903809, -0.6004141569137573, 9.36809253692627, -2.735801935195923, -0.22996383905410767, 1.1562905311584473, -1.472869634628296, 0.1261885166168213, -0.89599609375, -0.009521484375, 0.15478515625, 
146, 2845320740, 0.3557467460632324, -0.6935728192329407, -0.17885218560695648, -0.6003562808036804, 9.358372688293457, -2.646705150604248, -0.16947850584983826, 1.3664296865463257, -1.240907073020935, 0.12467727065086365, -0.9013671875, -0.011474609375, 0.154296875, 
147, 2845329073, 0.3558264970779419, -0.6935628652572632, -0.17892882227897644, -0.6002975702285767, 9.3432035446167, -2.58541202545166, -0.12611421942710876, 1.062568187713623, -1.3316841125488281, 0.02562704309821129, -0.89794921875, -0.012939453125, 0.1552734375, 
148, 2845337406, 0.3558788299560547, -0.6935462951660156, -0.1790028214454651, -0.6002638339996338, 9.36638355255127, -2.656322717666626, -0.12431640923023224, 0.7843462228775024, -1.115679144859314, -0.27630072832107544, -0.898193359375, -0.008056640625, 0.1552734375, 
149, 2845345739, 0.35590237379074097, -0.6935332417488098, -0.17906692624092102, -0.6002459526062012, 9.383907318115234, -2.665914535522461, -0.16217641532421112, 0.3975713551044464, -1.0122745037078857, -0.5231195092201233, -0.8994140625, -0.010986328125, 0.15673828125, 
150, 2845354072, 0.3559150993824005, -0.6935094594955444, -0.17910870909690857, -0.600253164768219, 9.405158996582031, -2.7357335090637207, -0.19789054989814758, 0.07516497373580933, -0.6059303283691406, -0.5147948265075684, -0.89697265625, -0.011474609375, 0.15478515625, 
151, 2845362405, 0.3559127748012543, -0.693480372428894, -0.17911112308502197, -0.6002874970436096, 9.428677558898926, -2.7603464126586914, -0.22708845138549805, -0.49128100275993347, -0.118875652551651, -0.44561082124710083, -0.89892578125, -0.011962890625, 0.154296875, 
152, 2845370738, 0.35586974024772644, -0.6934698224067688, -0.1790759116411209, -0.6003357172012329, 9.420415878295898, -2.783085584640503, -0.33999624848365784, -1.2570953369140625, -0.08375854045152664, -0.40911057591438293, -0.899169921875, -0.009521484375, 0.1533203125, 
153, 2845379071, 0.355843186378479, -0.6934539675712585, -0.17904651165008545, -0.6003785133361816, 9.381711959838867, -2.89310359954834, -0.42274045944213867, -1.0679599046707153, -0.05258602648973465, -0.3499673306941986, -0.8984375, -0.013427734375, 0.15478515625, 
154, 2845387404, 0.3558501601219177, -0.6934258341789246, -0.17904679477214813, -0.6004067063331604, 9.406560897827148, -2.931020975112915, -0.47553551197052, -0.3502234220504761, -0.1812463104724884, -0.2801685035228729, -0.898681640625, -0.017578125, 0.15869140625, 
155, 2845395737, 0.35591956973075867, -0.6933636665344238, -0.1791079342365265, -0.6004191040992737, 9.380696296691895, -2.9073946475982666, -0.476744145154953, 0.9022741913795471, -0.16782446205615997, -0.3866980969905853, -0.896484375, -0.013427734375, 0.1552734375, 
156, 2845404070, 0.3560374975204468, -0.6932849287986755, -0.17921006679534912, -0.600409746170044, 9.383342742919922, -2.855933427810669, -0.38197049498558044, 1.88775634765625, -0.34527987241744995, -0.27622389793395996, -0.89892578125, -0.0146484375, 0.1572265625, 
157, 2845412403, 0.3561858534812927, -0.6931860446929932, -0.1793418526649475, -0.6003966331481934, 9.389799118041992, -2.809136152267456, -0.27523335814476013, 2.502549409866333, -0.2659013867378235, -0.3739422559738159, -0.8984375, -0.013427734375, 0.15576171875, 
158, 2845420736, 0.35634011030197144, -0.6930743455886841, -0.17949993908405304, -0.6003867983818054, 9.368916511535645, -2.7790091037750244, -0.17173220217227936, 2.8596627712249756, -0.2635192275047302, -0.5878210663795471, -0.89794921875, -0.012451171875, 0.15673828125, 
159, 2845429069, 0.35648417472839355, -0.6929547190666199, -0.17965921759605408, -0.600391685962677, 9.377321243286133, -2.7208251953125, -0.11599855870008469, 2.682976245880127, -0.0487695075571537, -0.8124067187309265, -0.89794921875, -0.010498046875, 0.15673828125, 
160, 2845437402, 0.3566056489944458, -0.6928512454032898, -0.1797960251569748, -0.6003980040550232, 9.379115104675293, -2.6855077743530273, -0.11431880295276642, 2.2908475399017334, -0.1533268243074417, -0.7146115899085999, -0.8974609375, -0.010498046875, 0.154296875, 
161, 2845445735, 0.3566926121711731, -0.6927677392959595, -0.17988882958889008, -0.6004148721694946, 9.381640434265137, -2.7014784812927246, -0.15014532208442688, 1.475751280784607, -0.07694515585899353, -0.618506908416748, -0.89892578125, -0.015625, 0.15673828125, 
162, 2845454068, 0.35674089193344116, -0.692712128162384, -0.17994478344917297, -0.6004336476325989, 9.404335975646973, -2.702014923095703, -0.2220747470855713, 0.6602708697319031, -0.2147241234779358, -0.4904101490974426, -0.89501953125, -0.011474609375, 0.15380859375, 
163, 2845462401, 0.35678982734680176, -0.692681074142456, -0.17997564375400543, -0.600430965423584, 9.40841293334961, -2.753129243850708, -0.3251610994338989, 0.3562299907207489, -0.4755539000034332, -0.11764618009328842, -0.900146484375, -0.008056640625, 0.1533203125, 
164, 2845470734, 0.35685861110687256, -0.6926553249359131, -0.18004070222377777, -0.6004003882408142, 9.487524032592773, -2.8116395473480225, -0.3668263852596283, 0.9063469171524048, -0.9258522391319275, -0.0918782576918602, -0.8984375, -0.012451171875, 0.1572265625, 
165, 2845479067, 0.3569515347480774, -0.692636251449585, -0.18011583387851715, -0.6003445982933044, 9.536581039428711, -2.7853100299835205, -0.3137221038341522, 1.2159719467163086, -1.188270092010498, 0.11368880420923233, -0.8984375, -0.012939453125, 0.154296875, 
166, 2845487400, 0.3570566177368164, -0.6926112771034241, -0.18020743131637573, -0.6002835035324097, 9.494285583496094, -2.752870798110962, -0.24920722842216492, 1.5428093671798706, -1.2629354000091553, 0.10551784187555313, -0.89697265625, -0.011474609375, 0.15576171875, 
167, 2845495733, 0.3571653962135315, -0.6925948262214661, -0.18027916550636292, -0.6002162098884583, 9.54086685180664, -2.7351396083831787, -0.2441735863685608, 1.3342583179473877, -1.25840163230896, 0.3413480818271637, -0.89599609375, -0.011962890625, 0.15380859375, 
168, 2845504066, 0.357260137796402, -0.6925864219665527, -0.1803419440984726, -0.6001507639884949, 9.56117057800293, -2.7536442279815674, -0.20565259456634521, 1.1362090110778809, -1.3254598379135132, 0.35763874650001526, -0.9013671875, -0.013671875, 0.156494140625, 
169, 2845512399, 0.35732752084732056, -0.6925863027572632, -0.1803864687681198, -0.6000972390174866, 9.536556243896484, -2.7224936485290527, -0.2235621064901352, 0.5922651886940002, -1.2265632152557373, 0.23113004863262177, -0.89697265625, -0.012939453125, 0.154296875, 
170, 2845520732, 0.3573514521121979, -0.6926138401031494, -0.18039155006408691, -0.6000498533248901, 9.526622772216797, -2.745075225830078, -0.27207276225090027, -0.23426778614521027, -1.3417505025863647, 0.32421213388442993, -0.8984375, -0.011474609375, 0.15478515625, 
171, 2845529065, 0.35736650228500366, -0.6926459074020386, -0.18038564920425415, -0.6000055074691772, 9.520176887512207, -2.7597455978393555, -0.26998406648635864, -0.5058298707008362, -1.2872689962387085, 0.31371036171913147, -0.900390625, -0.010986328125, 0.15625, 
172, 2845537398, 0.35736528038978577, -0.6926852464675903, -0.18038234114646912, -0.5999618768692017, 9.487624168395996, -2.759044647216797, -0.2941034436225891, -0.6122826337814331, -1.4255857467651367, 0.2050035297870636, -0.896728515625, -0.01953125, 0.156494140625, 
173, 2845545731, 0.35738083720207214, -0.6927332282066345, -0.1803831160068512, -0.599897027015686, 9.45456314086914, -2.8089230060577393, -0.2519485354423523, -0.597964346408844, -1.605654001235962, 0.39383167028427124, -0.8974609375, -0.011474609375, 0.1533203125, 
174, 2845554064, 0.35740751028060913, -0.6927629709243774, -0.1804063767194748, -0.5998398065567017, 9.433835983276367, -2.8078627586364746, -0.243790403008461, -0.04559333994984627, -1.5370845794677734, 0.2255205512046814, -0.89794921875, -0.012451171875, 0.15771484375, 
175, 2845562397, 0.3574581742286682, -0.692787230014801, -0.18044990301132202, -0.5997684001922607, 9.39808464050293, -2.817376136779785, -0.22897681593894958, 0.2597155272960663, -1.6084202527999878, 0.2501101791858673, -0.89697265625, -0.011474609375, 0.15625, 
176, 2845570730, 0.3575105667114258, -0.6927998065948486, -0.1804923266172409, -0.5997099280357361, 9.41617488861084, -2.7681643962860107, -0.17020197212696075, 0.4438050091266632, -1.4371378421783447, 0.21898888051509857, -0.8974609375, -0.010009765625, 0.15625, 
177, 2845579063, 0.3575684130191803, -0.6928024888038635, -0.18053984642028809, -0.5996581315994263, 9.399643898010254, -2.774730920791626, -0.15644697844982147, 0.5977209806442261, -1.3015873432159424, 0.12303797155618668, -0.8994140625, -0.011962890625, 0.1572265625, 
178, 2845587396, 0.35762524604797363, -0.6928018927574158, -0.1805867701768875, -0.5996108055114746, 9.424972534179688, -2.8068325519561768, -0.1522340178489685, 0.5605547428131104, -1.2349135875701904, 0.12636782228946686, -0.89794921875, -0.011962890625, 0.15625, 
179, 2845595729, 0.35768914222717285, -0.6928004622459412, -0.18062786757946014, -0.5995616912841797, 9.443877220153809, -2.808650016784668, -0.19300508499145508, 0.5578267574310303, -1.1771149635314941, 0.21047216653823853, -0.89990234375, -0.010498046875, 0.15576171875, 
180, 2845604062, 0.3577476143836975, -0.6927955150604248, -0.1806609332561493, -0.5995225310325623, 9.515254974365234, -2.8005597591400146, -0.23981337249279022, 0.4638865888118744, -1.0466488599777222, 0.21988539397716522, -0.900390625, -0.0146484375, 0.1591796875, 
181, 2845612395, 0.35782259702682495, -0.6927788853645325, -0.18068625032901764, -0.5994894504547119, 9.551198959350586, -2.8345718383789062, -0.311055451631546, 0.641777515411377, -0.8200141191482544, 0.33691683411598206, -0.8984375, -0.01416015625, 0.1572265625, 
182, 2845620728, 0.35790175199508667, -0.6927450895309448, -0.18070939183235168, -0.5994742512702942, 9.594229698181152, -2.7664549350738525, -0.30215755105018616, 0.6618846654891968, -0.48057425022125244, 0.295805960893631, -0.8984375, -0.012451171875, 0.15673828125, 
183, 2845629061, 0.35797086358070374, -0.6927255392074585, -0.18071696162223816, -0.5994533896446228, 9.5423002243042, -2.737020969390869, -0.34942352771759033, 0.39813485741615295, -0.5967348217964172, 0.3899895250797272, -0.8984375, -0.0166015625, 0.158203125, 
184, 2845637394, 0.35803401470184326, -0.6927146315574646, -0.18071982264518738, -0.5994274616241455, 9.488668441772461, -2.73483943939209, -0.3419559597969055, 0.25484880805015564, -0.7120756506919861, 0.4662174582481384, -0.89697265625, -0.011474609375, 0.1552734375, 
185, 2845645727, 0.35808664560317993, -0.6927112340927124, -0.18074414134025574, -0.5993926525115967, 9.477575302124023, -2.7195534706115723, -0.3573632836341858, 0.2710626423358917, -0.9643247723579407, 0.2017761468887329, -0.89697265625, -0.011474609375, 0.1572265625, 
186, 2845654060, 0.3581356406211853, -0.6927083134651184, -0.1807767152786255, -0.5993568897247314, 9.460158348083496, -2.7134735584259033, -0.26477688550949097, 0.35118401050567627, -1.0530012845993042, 0.1369977444410324, -0.89697265625, -0.01513671875, 0.15869140625, 
187, 2845662393, 0.3581797778606415, -0.692699134349823, -0.18080756068229675, -0.5993319153785706, 9.467788696289062, -2.6608004570007324, -0.2142920196056366, 0.28176939487457275, -0.8891212940216064, 0.007901991717517376, -0.89794921875, -0.011474609375, 0.15576171875, 
188, 2845670726, 0.35820984840393066, -0.6926895976066589, -0.1808333694934845, -0.5993171334266663, 9.421710014343262, -2.6383118629455566, -0.1622193306684494, 0.09527213871479034, -0.8130469918251038, -0.07589496672153473, -0.89990234375, -0.00927734375, 0.15966796875, 
189, 2845679059, 0.3582121729850769, -0.6926904916763306, -0.1808399260044098, -0.5993127822875977, 9.454756736755371, -2.650257110595703, -0.1299242377281189, -0.4599803686141968, -0.7441703677177429, -0.18262948095798492, -0.89697265625, -0.012939453125, 0.15576171875, 
190, 2845687392, 0.358194500207901, -0.6926920413970947, -0.1808352917432785, -0.5993229746818542, 9.467144966125488, -2.657216787338257, -0.14644014835357666, -0.7277516722679138, -0.6343622207641602, -0.27466148138046265, -0.897216796875, -0.01611328125, 0.15869140625, 
191, 2845695725, 0.3581545352935791, -0.6926941275596619, -0.180824875831604, -0.5993474721908569, 9.499239921569824, -2.706378221511841, -0.1687355637550354, -1.0854288339614868, -0.5002972483634949, -0.5089036226272583, -0.89892578125, -0.010986328125, 0.15576171875, 
192, 2845704058, 0.3581084609031677, -0.6926969289779663, -0.18080931901931763, -0.5993765592575073, 9.495556831359863, -2.7389235496520996, -0.20236091315746307, -1.1418057680130005, -0.4819061756134033, -0.49407294392585754, -0.8984375, -0.012451171875, 0.1572265625, 
193, 2845712391, 0.3580770194530487, -0.6926978826522827, -0.18079018592834473, -0.5993999242782593, 9.501957893371582, -2.798478364944458, -0.22679519653320312, -1.0563054084777832, -0.4414357841014862, -0.352451890707016, -0.8994140625, -0.01708984375, 0.1591796875, 
194, 2845720724, 0.3580518960952759, -0.6926909685134888, -0.18078884482383728, -0.5994232892990112, 9.459549903869629, -2.827096700668335, -0.24596461653709412, -0.7634322643280029, -0.4752465486526489, -0.4538586437702179, -0.8984375, -0.010986328125, 0.15576171875, 
195, 2845729057, 0.3580610454082489, -0.6926921606063843, -0.18079790472984314, -0.5994136929512024, 9.435007095336914, -2.8874239921569824, -0.2716435194015503, -0.3407461643218994, -0.8015462756156921, -0.12279463559389114, -0.89697265625, -0.010986328125, 0.15576171875, 
196, 2845737390, 0.3581060767173767, -0.6926786303520203, -0.18081147968769073, -0.5993984937667847, 9.436731338500977, -2.898474931716919, -0.2592333257198334, 0.15730983018875122, -0.6865126490592957, 0.15651577711105347, -0.89501953125, -0.011962890625, 0.15576171875, 
197, 2845745723, 0.3581746220588684, -0.692661702632904, -0.18083196878433228, -0.5993708968162537, 9.454734802246094, -2.8477256298065186, -0.26665082573890686, 0.43171510100364685, -0.7237557768821716, 0.30174848437309265, -0.8984375, -0.011474609375, 0.15478515625, 
198, 2845754056, 0.358231782913208, -0.6926431059837341, -0.18083319067955017, -0.5993579030036926, 9.413878440856934, -2.7845802307128906, -0.24765288829803467, 0.19017286598682404, -0.5327760577201843, 0.3493140935897827, -0.8984375, -0.012939453125, 0.15625, 
199, 2845762389, 0.3582821786403656, -0.692642092704773, -0.1808076649904251, -0.5993365049362183, 9.423971176147461, -2.704103708267212, -0.24025684595108032, -0.17363889515399933, -0.6292648911476135, 0.6007434129714966, -0.89697265625, -0.010498046875, 0.15576171875, 
200, 2845770722, 0.35830116271972656, -0.6926509737968445, -0.1807578206062317, -0.599329948425293, 9.437646865844727, -2.6763505935668945, -0.232710599899292, -0.7457840442657471, -0.5405628681182861, 0.5584799647331238, -0.8984375, -0.010009765625, 0.1552734375, 
201, 2845779055, 0.358291894197464, -0.6926718950271606, -0.18067078292369843, -0.5993375778198242, 9.445700645446777, -2.6513657569885254, -0.2430965155363083, -1.4478446245193481, -0.371893048286438, 0.6056101322174072, -0.8974609375, -0.011474609375, 0.15771484375, 
202, 2845787388, 0.3582536578178406, -0.6927065849304199, -0.18056845664978027, -0.5993512272834778, 9.467310905456543, -2.6598587036132812, -0.23907673358917236, -1.9003456830978394, -0.4441252052783966, 0.5514872670173645, -0.89794921875, -0.011474609375, 0.15625, 
203, 2845795721, 0.35820144414901733, -0.6927402019500732, -0.18045732378959656, -0.599376916885376, 9.465039253234863, -2.706779956817627, -0.25506043434143066, -2.2149908542633057, -0.2765825092792511, 0.42208415269851685, -0.8984375, -0.011474609375, 0.15673828125, 
204, 2845804054, 0.3581504821777344, -0.6927600502967834, -0.18034882843494415, -0.5994170904159546, 9.46048355102539, -2.7356278896331787, -0.3196152150630951, -2.064507246017456, -0.07123318314552307, 0.3381975293159485, -0.89990234375, -0.01171875, 0.15673828125, 
205, 2845812387, 0.35810956358909607, -0.6927764415740967, -0.18024727702140808, -0.5994533896446228, 9.483614921569824, -2.790670156478882, -0.3715403974056244, -1.9028815031051636, -0.07289810478687286, 0.3316146433353424, -0.8994140625, -0.012451171875, 0.1552734375, 
206, 2845820720, 0.3580799996852875, -0.6927863955497742, -0.18015652894973755, -0.599486768245697, 9.486108779907227, -2.827986478805542, -0.338076651096344, -1.6491470336914062, -0.08939368277788162, 0.35441136360168457, -0.8994140625, -0.01611328125, 0.158203125, 
207, 2845829053, 0.3580780029296875, -0.6927889585494995, -0.18008728325366974, -0.599505603313446, 9.423133850097656, -2.8904924392700195, -0.35370808839797974, -1.1536649465560913, -0.18872566521167755, 0.39498430490493774, -0.89892578125, -0.010986328125, 0.15625, 
208, 2845837386, 0.3581041097640991, -0.6927810907363892, -0.1800450086593628, -0.5995117425918579, 9.412147521972656, -2.891951560974121, -0.36965176463127136, -0.5648706555366516, -0.30030128359794617, 0.4416790008544922, -0.89892578125, -0.011962890625, 0.1552734375, 
209, 2845845719, 0.35814574360847473, -0.6927654147148132, -0.17999868094921112, -0.599518895149231, 9.430551528930664, -2.8259665966033936, -0.32603374123573303, -0.3498392105102539, -0.17932526767253876, 0.5501553416252136, -0.8974609375, -0.013671875, 0.158203125, 
210, 2845854052, 0.3581992983818054, -0.6927652955055237, -0.17997504770755768, -0.599494218826294, 9.378707885742188, -2.829521894454956, -0.25778141617774963, -0.1100899800658226, -0.6836695075035095, 0.6609880924224854, -0.89794921875, -0.010009765625, 0.154296875, 
211, 2845862385, 0.35827481746673584, -0.6927602291107178, -0.17997592687606812, -0.5994547009468079, 9.381718635559082, -2.840029239654541, -0.2053295075893402, 0.28171810507774353, -0.8138154745101929, 0.634835958480835, -0.89794921875, -0.009033203125, 0.15673828125, 
212, 2845870718, 0.3583449721336365, -0.6927472949028015, -0.1799851357936859, -0.5994248986244202, 9.396782875061035, -2.765281915664673, -0.17089572548866272, 0.39239731431007385, -0.7468599677085876, 0.4775134325027466, -0.89794921875, -0.012939453125, 0.15576171875, 
213, 2845879051, 0.3584076166152954, -0.6927510499954224, -0.17998316884040833, -0.5993837118148804, 9.395180702209473, -2.7146971225738525, -0.1228572279214859, 0.11258736252784729, -0.9267485737800598, 0.5847857594490051, -0.89794921875, -0.01416015625, 0.1572265625, 
214, 2845887384, 0.3584755063056946, -0.6927533149719238, -0.1799830198287964, -0.5993406772613525, 9.365732192993164, -2.7853026390075684, -0.10323698073625565, 0.25308144092559814, -0.9583565592765808, 0.6524329781532288, -0.8984375, -0.011474609375, 0.1572265625, 
215, 2845895717, 0.35855185985565186, -0.6927391886711121, -0.18002252280712128, -0.5992994904518127, 9.45211124420166, -2.8086204528808594, -0.13953784108161926, 0.6614492535591125, -0.9455239176750183, 0.25853729248046875, -0.89794921875, -0.009521484375, 0.15625, 
216, 2845904050, 0.3586145043373108, -0.6927101016044617, -0.180067241191864, -0.5992821455001831, 9.476279258728027, -2.780059814453125, -0.16282016038894653, 0.6638569831848145, -0.687947154045105, -0.023027198389172554, -0.89794921875, -0.009033203125, 0.15576171875, 
217, 2845912383, 0.3586690127849579, -0.6926969885826111, -0.18009500205516815, -0.5992562770843506, 9.458613395690918, -2.725597620010376, -0.1583855152130127, 0.32118964195251465, -0.8077704310417175, 0.11799196153879166, -0.8974609375, -0.011474609375, 0.15478515625, 
218, 2845920716, 0.35870885848999023, -0.6926782131195068, -0.1800897717475891, -0.5992557406425476, 9.403199195861816, -2.7501823902130127, -0.20402057468891144, -0.05760641023516655, -0.4235057532787323, 0.20738564431667328, -0.8984375, -0.010986328125, 0.15576171875, 
219, 2845929049, 0.35873687267303467, -0.6926694512367249, -0.18008500337600708, -0.5992503762245178, 9.366767883300781, -2.757084369659424, -0.2286406308412552, -0.2547079622745514, -0.5576987266540527, 0.11942636966705322, -0.8994140625, -0.015625, 0.15869140625, 
220, 2845937382, 0.3587625324726105, -0.6926677227020264, -0.18007636070251465, -0.599239706993103, 9.343308448791504, -2.7478718757629395, -0.22447766363620758, -0.2802197337150574, -0.6797761917114258, 0.2153773009777069, -0.896484375, -0.010498046875, 0.1552734375, 
221, 2845945715, 0.3588031530380249, -0.6926658153533936, -0.18007835745811462, -0.5992168188095093, 9.33884334564209, -2.7803173065185547, -0.23182354867458344, -0.05778570845723152, -0.7883036732673645, 0.262328177690506, -0.89697265625, -0.010009765625, 0.15576171875, 
222, 2845954048, 0.35886266827583313, -0.692648708820343, -0.18008998036384583, -0.5991976261138916, 9.403715133666992, -2.8383336067199707, -0.24642997980117798, 0.30730679631233215, -0.6500124335289001, 0.30482223629951477, -0.900146484375, -0.009521484375, 0.15576171875, 
223, 2845962381, 0.35893070697784424, -0.6926255822181702, -0.18010780215263367, -0.5991781949996948, 9.46656608581543, -2.815945625305176, -0.2798907458782196, 0.42251959443092346, -0.5876929759979248, 0.26806578040122986, -0.898193359375, -0.009033203125, 0.1552734375, 
224, 2845970714, 0.35900217294692993, -0.6925927400588989, -0.18012863397598267, -0.5991670489311218, 9.495141983032227, -2.8314456939697266, -0.2801625430583954, 0.5533315539360046, -0.45977553725242615, 0.23784098029136658, -0.89892578125, -0.010498046875, 0.154296875, 
225, 2845979047, 0.35907262563705444, -0.6925541758537292, -0.18013830482959747, -0.5991666316986084, 9.522000312805176, -2.8411593437194824, -0.3089384436607361, 0.4619142711162567, -0.25035351514816284, 0.23438304662704468, -0.900390625, -0.01318359375, 0.15771484375, 
226, 2845987380, 0.3591017723083496, -0.6925199627876282, -0.1801297813653946, -0.5991912484169006, 9.585352897644043, -2.8162238597869873, -0.34892991185188293, -0.17174343764781952, -0.06905598193407059, -0.011423949152231216, -0.898681640625, -0.007568359375, 0.15625, 
227, 2845995713, 0.35911422967910767, -0.692500114440918, -0.18010936677455902, -0.5992128849029541, 9.544610977172852, -2.8148293495178223, -0.37576737999916077, -0.6455299258232117, -0.13742037117481232, -0.02369316667318344, -0.8974609375, -0.012451171875, 0.15869140625, 
228, 2846004046, 0.35909581184387207, -0.6924946904182434, -0.18008525669574738, -0.5992373824119568, 9.505391120910645, -2.889498233795166, -0.36995935440063477, -0.8948075771331787, -0.34663742780685425, -0.1835515797138214, -0.8994140625, -0.011474609375, 0.15625, 
229, 2846012379, 0.35907667875289917, -0.6924956440925598, -0.180071622133255, -0.5992518067359924, 9.489461898803711, -2.9046192169189453, -0.33058294653892517, -0.7995226979255676, -0.5452758073806763, -0.2564752995967865, -0.89892578125, -0.010986328125, 0.15478515625, 
230, 2846020712, 0.3590787649154663, -0.6925049424171448, -0.18005463480949402, -0.5992448329925537, 9.44702434539795, -2.922851800918579, -0.27495527267456055, -0.6385884284973145, -0.7526230216026306, 0.10856591910123825, -0.897705078125, -0.008056640625, 0.15576171875, 
231, 2846029045, 0.35910218954086304, -0.6925196051597595, -0.18002593517303467, -0.5992224216461182, 9.382661819458008, -2.960604429244995, -0.18422150611877441, -0.4761430621147156, -0.8343837261199951, 0.4548960328102112, -0.89794921875, -0.009521484375, 0.15478515625, 
232, 2846037378, 0.35914814472198486, -0.6925351619720459, -0.1800021231174469, -0.5991840958595276, 9.384316444396973, -2.9484593868255615, -0.13292132318019867, -0.22904247045516968, -0.9612509608268738, 0.7061203718185425, -0.89892578125, -0.0146484375, 0.15576171875, 
233, 2846045711, 0.3592199981212616, -0.6925496459007263, -0.1799754649400711, -0.5991324186325073, 9.363836288452148, -2.8865156173706055, -0.10095512866973877, 0.02808600477874279, -0.9881202578544617, 0.9745575785636902, -0.8994140625, -0.011962890625, 0.1572265625, 
234, 2846054044, 0.3593190610408783, -0.6925573348999023, -0.17994874715805054, -0.5990722179412842, 9.359129905700684, -2.8333840370178223, -0.05009135976433754, 0.3463428318500519, -0.9566147327423096, 1.2595927715301514, -0.8955078125, -0.00927734375, 0.154296875, 
235, 2846062377, 0.3594163656234741, -0.6925618052482605, -0.17992134392261505, -0.5990167856216431, 9.359895706176758, -2.718123197555542, -0.09187111258506775, 0.38422635197639465, -0.8950638175010681, 1.187847375869751, -0.8974609375, -0.009521484375, 0.15625, 
236, 2846070710, 0.3595229983329773, -0.6925745606422424, -0.17988894879817963, -0.5989477634429932, 9.325469970703125, -2.7197437286376953, -0.13563354313373566, 0.3690883219242096, -1.0361982583999634, 1.4318230152130127, -0.896484375, -0.009521484375, 0.154296875, 
237, 2846079043, 0.35962218046188354, -0.6925880312919617, -0.17986556887626648, -0.5988796353340149, 9.343768119812012, -2.6966447830200195, -0.20353464782238007, 0.32654306292533875, -1.0753368139266968, 1.2489372491836548, -0.89990234375, -0.010986328125, 0.15625, 
238, 2846087376, 0.3596864342689514, -0.6926093101501465, -0.17982593178749084, -0.5988284349441528, 9.367721557617188, -2.687809467315674, -0.22387687861919403, -0.1799912303686142, -1.0067163705825806, 1.085211157798767, -0.89794921875, -0.010498046875, 0.15673828125, 
239, 2846095709, 0.3597312569618225, -0.6926376223564148, -0.1797821819782257, -0.5987818837165833, 9.392841339111328, -2.7203547954559326, -0.25007063150405884, -0.48715710639953613, -1.0237241983413696, 0.9248915910720825, -0.897705078125, -0.007568359375, 0.15625, 
240, 2846104042, 0.3597610592842102, -0.6926639080047607, -0.17975284159183502, -0.5987424254417419, 9.413735389709473, -2.8037571907043457, -0.27942579984664917, -0.4783457815647125, -1.0720325708389282, 0.6575046181678772, -0.898193359375, -0.009033203125, 0.1552734375, 
241, 2846112375, 0.3598230481147766, -0.6926611065864563, -0.17975066602230072, -0.5987090468406677, 9.460893630981445, -2.8479115962982178, -0.31059789657592773, 0.17196115851402283, -0.8171965479850769, 0.5288442373275757, -0.898193359375, -0.008544921875, 0.1552734375, 
242, 2846120708, 0.35987305641174316, -0.692650556564331, -0.17976731061935425, -0.5986860990524292, 9.533294677734375, -2.8478615283966064, -0.33455991744995117, 0.23412691056728363, -0.7884061336517334, 0.21281586587429047, -0.89697265625, -0.012451171875, 0.15576171875, 
243, 2846129041, 0.3599301874637604, -0.692628026008606, -0.17979927361011505, -0.5986682772636414, 9.533845901489258, -2.8236992359161377, -0.3486367166042328, 0.3912702202796936, -0.6639721989631653, 0.03564220666885376, -0.899658203125, -0.009033203125, 0.1572265625, 
244, 2846137374, 0.35997194051742554, -0.6926039457321167, -0.17984019219875336, -0.5986586809158325, 9.486663818359375, -2.8481979370117188, -0.3401821553707123, 0.38942602276802063, -0.6900987029075623, -0.18578004837036133, -0.900634765625, -0.009521484375, 0.1552734375, 
245, 2846145707, 0.360031396150589, -0.692564070224762, -0.17988061904907227, -0.5986568927764893, 9.500606536865234, -2.851566791534424, -0.3206261992454529, 0.603304922580719, -0.42701494693756104, -0.14466920495033264, -0.9013671875, -0.01513671875, 0.156982421875, 
246, 2846154040, 0.3600740432739258, -0.6925159096717834, -0.17992143332958221, -0.5986747741699219, 9.5051908493042, -2.79056715965271, -0.2966431677341461, 0.44713491201400757, -0.2271982729434967, -0.3734811842441559, -0.897705078125, -0.008544921875, 0.15576171875, 
247, 2846162373, 0.3600980043411255, -0.6924779415130615, -0.17995604872703552, -0.5986937880516052, 9.44871997833252, -2.742027997970581, -0.26805993914604187, 0.09988270699977875, -0.2858804762363434, -0.4819318652153015, -0.8974609375, -0.009033203125, 0.1572265625, 
248, 2846170706, 0.3600958585739136, -0.6924594044685364, -0.17998526990413666, -0.5987077951431274, 9.363492965698242, -2.725254535675049, -0.1838638037443161, -0.21016477048397064, -0.5629496574401855, -0.538564920425415, -0.899658203125, -0.009521484375, 0.15625, 
249, 2846179039, 0.36009007692337036, -0.6924433708190918, -0.1800248622894287, -0.5987180471420288, 9.357270240783691, -2.715097665786743, -0.15591050684452057, -0.21298235654830933, -0.65236896276474, -0.6760877370834351, -0.896728515625, -0.008056640625, 0.154296875, 
250, 2846187372, 0.3600754737854004, -0.692436933517456, -0.18006640672683716, -0.5987216830253601, 9.349580764770508, -2.7334446907043457, -0.11370158940553665, -0.2619311809539795, -0.851954996585846, -0.6767280697822571, -0.898681640625, -0.008544921875, 0.1552734375, 
251, 2846195705, 0.3600703477859497, -0.6924281120300293, -0.18009409308433533, -0.5987265706062317, 9.370417594909668, -2.7582149505615234, -0.11791461706161499, -0.29830336570739746, -0.7133052349090576, -0.5126944780349731, -0.8994140625, -0.010498046875, 0.15625, 
252, 2846204038, 0.36008355021476746, -0.6924234628677368, -0.18012431263923645, -0.5987150073051453, 9.355496406555176, -2.788464307785034, -0.11283610016107559, -0.06144854426383972, -0.8865598440170288, -0.26072728633880615, -0.89892578125, -0.011474609375, 0.15625, 
253, 2846212371, 0.3601333200931549, -0.6924099326133728, -0.18018387258052826, -0.5986828207969666, 9.375868797302246, -2.8208518028259277, -0.15531672537326813, 0.6152923107147217, -1.0528987646102905, -0.19059552252292633, -0.898681640625, -0.008056640625, 0.15673828125, 
254, 2846220704, 0.36020582914352417, -0.6923911571502686, -0.1802680492401123, -0.5986354947090149, 9.414064407348633, -2.8367388248443604, -0.22005006670951843, 1.1052669286727905, -1.2324546575546265, -0.14502780139446259, -0.8984375, -0.010986328125, 0.15625, 
255, 2846229037, 0.36030977964401245, -0.6923555731773376, -0.18039169907569885, -0.5985770225524902, 9.489082336425781, -2.8087878227233887, -0.2801451086997986, 1.8046380281448364, -1.2955679893493652, -0.2807832360267639, -0.89794921875, -0.009521484375, 0.15625, 
256, 2846237370, 0.36042577028274536, -0.6923190355300903, -0.18052984774112701, -0.5985076427459717, 9.482645034790039, -2.8093371391296387, -0.2954215109348297, 2.106220006942749, -1.4539920091629028, -0.23434464633464813, -0.898193359375, -0.008056640625, 0.15478515625, 
257, 2846245703, 0.3605564534664154, -0.692277193069458, -0.1806909441947937, -0.5984289050102234, 9.51736068725586, -2.8020706176757812, -0.3338412940502167, 2.3121845722198486, -1.5117777585983276, -0.3343426585197449, -0.89892578125, -0.010009765625, 0.1572265625, 
258, 2846254036, 0.3606584072113037, -0.6922507882118225, -0.18084126710891724, -0.5983525514602661, 9.508995056152344, -2.816650867462158, -0.3272407054901123, 2.0400075912475586, -1.700477957725525, -0.4074200689792633, -0.900390625, -0.01171875, 0.15673828125, 
259, 2846262369, 0.36073416471481323, -0.6922378540039062, -0.1809765100479126, -0.5982807278633118, 9.493025779724121, -2.812505006790161, -0.3584824204444885, 1.506488561630249, -1.7211742401123047, -0.500630259513855, -0.89697265625, -0.012451171875, 0.15869140625, 
260, 2846270702, 0.36077097058296204, -0.6922302842140198, -0.18107202649116516, -0.5982385277748108, 9.506450653076172, -2.781071901321411, -0.3316590487957001, 0.7907497882843018, -1.4210008382797241, -0.5434059500694275, -0.897705078125, -0.008056640625, 0.15625, 
261, 2846279035, 0.36078983545303345, -0.6922402381896973, -0.18114963173866272, -0.5981919765472412, 9.449907302856445, -2.785996675491333, -0.3500601351261139, 0.3222911059856415, -1.5283244848251343, -0.4895648658275604, -0.8974609375, -0.008544921875, 0.15771484375, 
262, 2846287368, 0.36076676845550537, -0.6922602653503418, -0.1811954379081726, -0.5981689691543579, 9.446101188659668, -2.8102662563323975, -0.3373638391494751, -0.37145763635635376, -1.365751028060913, -0.5884101390838623, -0.8994140625, -0.009521484375, 0.1572265625, 
263, 2846295701, 0.3607458472251892, -0.6922842264175415, -0.18125483393669128, -0.5981359481811523, 9.397464752197266, -2.830794095993042, -0.3136245608329773, -0.25319668650627136, -1.5401840209960938, -0.67373126745224, -0.89892578125, -0.010986328125, 0.15576171875, 
264, 2846304034, 0.3607548475265503, -0.6922942996025085, -0.1813429743051529, -0.5980919599533081, 9.333613395690918, -2.844374895095825, -0.2692135274410248, 0.3822796940803528, -1.61543869972229, -0.6493721604347229, -0.899169921875, -0.009033203125, 0.1591796875, 
265, 2846312367, 0.3607727289199829, -0.6922934651374817, -0.18145322799682617, -0.598048746585846, 9.320626258850098, -2.825054407119751, -0.21016862988471985, 0.7248443961143494, -1.603604793548584, -0.8495985269546509, -0.89794921875, -0.010009765625, 0.15771484375, 
266, 2846320700, 0.3608242869377136, -0.6922722458839417, -0.18160897493362427, -0.5979949831962585, 9.304512977600098, -2.8824005126953125, -0.13276252150535583, 1.5228047370910645, -1.679397463798523, -0.9724699854850769, -0.89892578125, -0.011962890625, 0.1572265625, 
267, 2846329033, 0.36089032888412476, -0.6922383308410645, -0.18177661299705505, -0.5979434251785278, 9.337498664855957, -2.910341501235962, -0.059552114456892014, 1.8089927434921265, -1.5644406080245972, -1.0420639514923096, -0.8974609375, -0.011474609375, 0.15771484375, 
268, 2846337366, 0.3609667420387268, -0.6921888589859009, -0.18193885684013367, -0.5979053974151611, 9.344196319580078, -2.9302008152008057, -0.023035164922475815, 1.9145231246948242, -1.2685449123382568, -0.9774391651153564, -0.8984375, -0.011962890625, 0.15771484375, 
269, 2846345699, 0.36103031039237976, -0.6921465396881104, -0.18207725882530212, -0.5978738069534302, 9.354809761047363, -2.9834859371185303, -0.08058557659387589, 1.5037734508514404, -1.1573281288146973, -0.9049253463745117, -0.8994140625, -0.010009765625, 0.15869140625, 
270, 2846354032, 0.36109238862991333, -0.6921094059944153, -0.1821669489145279, -0.5978519320487976, 9.37077522277832, -3.0241503715515137, -0.13843612372875214, 1.078576922416687, -0.8915033936500549, -0.45493441820144653, -0.89794921875, -0.010986328125, 0.1572265625, 
271, 2846362365, 0.3611435890197754, -0.6920895576477051, -0.18220704793930054, -0.5978317260742188, 9.410271644592285, -2.988064765930176, -0.19708946347236633, 0.4507465064525604, -0.7795435190200806, -0.07271881401538849, -0.9013671875, -0.01318359375, 0.1591796875, 
272, 2846370698, 0.3611944913864136, -0.6920974850654602, -0.18221355974674225, -0.5977899432182312, 9.38448715209961, -2.9965405464172363, -0.2386474460363388, 0.1158403679728508, -1.0664743185043335, 0.45796969532966614, -0.89892578125, -0.01318359375, 0.158203125, 
273, 2846379031, 0.3612827956676483, -0.6921132802963257, -0.18220771849155426, -0.5977199673652649, 9.43716049194336, -2.998958110809326, -0.2888961732387543, 0.3734939396381378, -1.2263071537017822, 1.0074461698532104, -0.8974609375, -0.009521484375, 0.158203125, 
274, 2846387364, 0.36140790581703186, -0.6921160817146301, -0.1822185069322586, -0.5976377725601196, 9.486124038696289, -2.9286952018737793, -0.31504231691360474, 0.9826261401176453, -1.2435969114303589, 1.212693214416504, -0.89794921875, -0.010009765625, 0.15771484375, 
275, 2846395697, 0.3615621328353882, -0.6921172142028809, -0.18224091827869415, -0.5975363850593567, 9.522780418395996, -2.850585460662842, -0.3213001489639282, 1.381926417350769, -1.3779433965682983, 1.399677038192749, -0.89599609375, -0.010009765625, 0.1572265625, 
276, 2846404030, 0.3617194890975952, -0.6921237707138062, -0.1822410225868225, -0.5974335670471191, 9.521125793457031, -2.761892557144165, -0.24007417261600494, 1.2352336645126343, -1.3373960256576538, 1.69203782081604, -0.89892578125, -0.011474609375, 0.15771484375, 
277, 2846412363, 0.3618469536304474, -0.6921340227127075, -0.1822066754102707, -0.5973550081253052, 9.584869384765625, -2.6832659244537354, -0.2136116772890091, 0.5910868644714355, -1.031075358390808, 1.629257321357727, -0.8984375, -0.009033203125, 0.15771484375, 
278, 2846420696, 0.3619112968444824, -0.6921615600585938, -0.18212366104125977, -0.5973093509674072, 9.551952362060547, -2.5876054763793945, -0.20198148488998413, -0.5802905559539795, -0.7850763201713562, 1.487457036972046, -0.900634765625, -0.007080078125, 0.15625, 
279, 2846429029, 0.36191311478614807, -0.6922276020050049, -0.18200179934501648, -0.5972687602043152, 9.509014129638672, -2.5958304405212402, -0.2268313765525818, -1.6970710754394531, -1.007587194442749, 1.3817726373672485, -0.896484375, -0.010009765625, 0.15771484375, 
280, 2846437362, 0.3618767559528351, -0.6923063397407532, -0.18185758590698242, -0.5972435474395752, 9.469143867492676, -2.6613149642944336, -0.22332091629505157, -2.346545696258545, -0.9599446654319763, 1.2697360515594482, -0.89794921875, -0.008544921875, 0.15869140625, 
281, 2846445695, 0.3618204593658447, -0.6923921704292297, -0.18169578909873962, -0.5972272157669067, 9.470840454101562, -2.7215521335601807, -0.2475145012140274, -2.690775156021118, -0.9001609086990356, 1.2138713598251343, -0.89892578125, -0.010009765625, 0.158203125, 
282, 2846454028, 0.36176472902297974, -0.6924713850021362, -0.1815280020236969, -0.5972203016281128, 9.497203826904297, -2.759674072265625, -0.27298909425735474, -2.7727153301239014, -0.7194526195526123, 1.2446852922439575, -0.89892578125, -0.009033203125, 0.1591796875, 
283, 2846462361, 0.36173075437545776, -0.692537248134613, -0.18137921392917633, -0.5972096920013428, 9.472227096557617, -2.8063135147094727, -0.2973483204841614, -2.345316171646118, -0.673782467842102, 1.194942593574524, -0.897216796875, -0.008056640625, 0.1572265625, 
284, 2846470694, 0.3617173135280609, -0.6925944685935974, -0.18126323819160461, -0.5971866250038147, 9.430445671081543, -2.8384084701538086, -0.27475452423095703, -1.794968605041504, -0.8444756865501404, 1.1239910125732422, -0.8974609375, -0.01171875, 0.162109375, 
285, 2846479027, 0.3617391586303711, -0.6926422715187073, -0.18116700649261475, -0.5971472859382629, 9.383742332458496, -2.779226779937744, -0.29174935817718506, -1.2874994277954102, -0.8987522721290588, 1.2495006322860718, -0.8994140625, -0.010498046875, 0.1572265625, 
286, 2846487360, 0.36175447702407837, -0.6926969885826111, -0.18107086420059204, -0.5971036553382874, 9.374917984008789, -2.6977357864379883, -0.2906055152416229, -1.2946715354919434, -1.0452401638031006, 1.2684040069580078, -0.897216796875, -0.006591796875, 0.157958984375, 
287, 2846495693, 0.36175107955932617, -0.6927615404129028, -0.1809786558151245, -0.597058892250061, 9.394750595092773, -2.672172784805298, -0.28018176555633545, -1.4987657070159912, -1.1926499605178833, 1.07440185546875, -0.896728515625, -0.007568359375, 0.15771484375, 
288, 2846504026, 0.3617219924926758, -0.6928318738937378, -0.18087969720363617, -0.5970247983932495, 9.391608238220215, -2.692889928817749, -0.1936425268650055, -1.8430979251861572, -1.1804832220077515, 0.9205628633499146, -0.899169921875, -0.006591796875, 0.158203125, 
289, 2846512359, 0.36167430877685547, -0.6929064393043518, -0.18076907098293304, -0.5970006585121155, 9.367022514343262, -2.730513334274292, -0.1496250480413437, -2.171677350997925, -1.0976468324661255, 0.8089103698730469, -0.898193359375, -0.008544921875, 0.15771484375, 
290, 2846520692, 0.3616037368774414, -0.6929706335067749, -0.18065249919891357, -0.5970041751861572, 9.37002182006836, -2.7569775581359863, -0.12191486358642578, -2.445570468902588, -0.7869718074798584, 0.5457753539085388, -0.899169921875, -0.008056640625, 0.16015625, 
291, 2846529025, 0.36153703927993774, -0.6930196285247803, -0.1805422008037567, -0.5970211625099182, 9.392313003540039, -2.846569061279297, -0.14191611111164093, -2.273186206817627, -0.5611053705215454, 0.3823820948600769, -0.8984375, -0.009521484375, 0.158203125, 
292, 2846537358, 0.3614831566810608, -0.6930503845214844, -0.18045008182525635, -0.5970459580421448, 9.435297012329102, -2.9303183555603027, -0.16371366381645203, -1.971860647201538, -0.39010483026504517, 0.2607145309448242, -0.899658203125, -0.006591796875, 0.15771484375, 
293, 2846545691, 0.36144691705703735, -0.6930687427520752, -0.18038563430309296, -0.5970659255981445, 9.455764770507812, -3.013378858566284, -0.22821858525276184, -1.538390874862671, -0.4080090820789337, 0.10410905629396439, -0.89697265625, -0.008056640625, 0.15869140625, 
294, 2846554024, 0.3614276051521301, -0.693084716796875, -0.18033021688461304, -0.5970758199691772, 9.478189468383789, -3.034200429916382, -0.2792397737503052, -1.2296112775802612, -0.5078534483909607, 0.2322058379650116, -0.89697265625, -0.008056640625, 0.15869140625, 
295, 2846562357, 0.36145728826522827, -0.6930926442146301, -0.18030443787574768, -0.5970563888549805, 9.468440055847168, -3.071674108505249, -0.34726330637931824, -0.4464561343193054, -0.7269064784049988, 0.4464433491230011, -0.899169921875, -0.007080078125, 0.158203125, 
296, 2846570690, 0.361530601978302, -0.6930895447731018, -0.1802845597267151, -0.5970216393470764, 9.455636024475098, -3.015702962875366, -0.353901207447052, 0.1484985202550888, -0.7216298580169678, 0.8277367353439331, -0.89794921875, -0.008544921875, 0.158203125, 
297, 2846579023, 0.36163246631622314, -0.6930834650993347, -0.18028298020362854, -0.5969674587249756, 9.475042343139648, -2.914583206176758, -0.320797860622406, 0.5987967252731323, -0.8849205374717712, 0.9452292323112488, -0.89892578125, -0.01171875, 0.16064453125, 
298, 2846587356, 0.3617459237575531, -0.6930733323097229, -0.18027915060520172, -0.5969116687774658, 9.429900169372559, -2.826524496078491, -0.2421666532754898, 0.7504585981369019, -0.8452184796333313, 1.0922805070877075, -0.89697265625, -0.010498046875, 0.1611328125, 
299, 2846595689, 0.3618448078632355, -0.6930690407752991, -0.18025042116641998, -0.5968653559684753, 9.430251121520996, -2.71403169631958, -0.22434914112091064, 0.38555824756622314, -0.7171985507011414, 1.146301031112671, -0.89892578125, -0.009033203125, 0.16015625, 
300, 2846604022, 0.3618972897529602, -0.6930679082870483, -0.18019479513168335, -0.5968517661094666, 9.423128128051758, -2.6053662300109863, -0.2106081247329712, -0.4046536684036255, -0.4122866988182068, 0.8992261290550232, -0.896728515625, -0.007080078125, 0.159912109375, 
301, 2846612355, 0.3618946075439453, -0.6930840015411377, -0.18010786175727844, -0.5968607664108276, 9.434056282043457, -2.5837714672088623, -0.2587827146053314, -1.3843213319778442, -0.2906959652900696, 0.6415725350379944, -0.898681640625, -0.007080078125, 0.15869140625, 
302, 2846620688, 0.36183804273605347, -0.6931099891662598, -0.18000444769859314, -0.5968961119651794, 9.479281425476074, -2.646348476409912, -0.3165687322616577, -2.0930416584014893, -0.20078998804092407, 0.28174376487731934, -0.899169921875, -0.007568359375, 0.1591796875, 
303, 2846629021, 0.3617428243160248, -0.6931461095809937, -0.17989102005958557, -0.5969460606575012, 9.494324684143066, -2.6995410919189453, -0.3404300808906555, -2.612370014190674, -0.1862667053937912, -0.01813487708568573, -0.895751953125, -0.005615234375, 0.158447265625, 
304, 2846637354, 0.36162862181663513, -0.6931830048561096, -0.17978976666927338, -0.5970029830932617, 9.453822135925293, -2.7392497062683105, -0.3707054555416107, -2.7316558361053467, -0.2375463992357254, -0.29192543029785156, -0.899169921875, -0.006103515625, 0.160400390625, 
305, 2846645687, 0.3615257143974304, -0.6932176351547241, -0.17971087992191315, -0.597048819065094, 9.462743759155273, -2.788390874862671, -0.38596266508102417, -2.4188034534454346, -0.39312729239463806, -0.39320412278175354, -0.897216796875, -0.006591796875, 0.157470703125, 
306, 2846654020, 0.36144208908081055, -0.6932424902915955, -0.17966164648532867, -0.5970854163169861, 9.41845989227295, -2.7933974266052246, -0.3452094793319702, -1.9038035869598389, -0.5147948861122131, -0.465692400932312, -0.899169921875, -0.007080078125, 0.15966796875, 
307, 2846662353, 0.36138468980789185, -0.6932721138000488, -0.17963260412216187, -0.5970945358276367, 9.35791301727295, -2.7960774898529053, -0.2863349914550781, -1.4989962577819824, -0.8240611553192139, -0.3248141407966614, -0.89697265625, -0.008056640625, 0.15869140625, 
308, 2846670686, 0.3613588809967041, -0.6932913661003113, -0.17963632941246033, -0.5970866084098816, 9.325618743896484, -2.81931471824646, -0.19696074724197388, -0.7803632616996765, -1.014912724494934, -0.28856998682022095, -0.897705078125, -0.007080078125, 0.158935546875, 
309, 2846679019, 0.36136043071746826, -0.6933035850524902, -0.17966380715370178, -0.5970631837844849, 9.27109432220459, -2.813542366027832, -0.10033293068408966, -0.28229448199272156, -1.1341214179992676, -0.2619055509567261, -0.8974609375, -0.009521484375, 0.16064453125, 
310, 2846687352, 0.3613514304161072, -0.6933148503303528, -0.17969679832458496, -0.5970457792282104, 9.30595588684082, -2.786926507949829, -0.015392918139696121, -0.3150038719177246, -1.1437524557113647, -0.40137505531311035, -0.8974609375, -0.01123046875, 0.16064453125, 
311, 2846695685, 0.36131322383880615, -0.6933303475379944, -0.17970186471939087, -0.5970491170883179, 9.299297332763672, -2.8005597591400146, -0.005450360476970673, -0.9250836968421936, -0.8953198790550232, -0.49850425124168396, -0.8984375, -0.009521484375, 0.16064453125, 
312, 2846704018, 0.3612391948699951, -0.693352460861206, -0.17967557907104492, -0.5970762968063354, 9.347227096557617, -2.8747217655181885, -0.03424224629998207, -1.5857003927230835, -0.6732445359230042, -0.5639742016792297, -0.8974609375, -0.009033203125, 0.158203125, 
313, 2846712351, 0.36115580797195435, -0.693375825881958, -0.17964714765548706, -0.5971081852912903, 9.376114845275879, -3.00716233253479, -0.14984887838363647, -1.7418960332870483, -0.6328251957893372, -0.6741921901702881, -0.901611328125, -0.00830078125, 0.16064453125, 
314, 2846720684, 0.3610999584197998, -0.6933773159980774, -0.17965580523014069, -0.5971375703811646, 9.466666221618652, -3.0959434509277344, -0.23662319779396057, -1.0296666622161865, -0.6111813187599182, -0.8106648921966553, -0.89892578125, -0.01220703125, 0.16064453125, 
315, 2846729017, 0.3610791563987732, -0.6933535933494568, -0.17969048023223877, -0.5971671938896179, 9.579395294189453, -3.121286153793335, -0.37601780891418457, -0.33418890833854675, -0.44461187720298767, -0.8656842708587646, -0.8974609375, -0.009033203125, 0.15869140625, 
316, 2846737350, 0.36109083890914917, -0.6933139562606812, -0.17974793910980225, -0.5971890091896057, 9.624414443969727, -3.0843632221221924, -0.48814576864242554, 0.23873747885227203, -0.4205857217311859, -0.7859471440315247, -0.89794921875, -0.009521484375, 0.15771484375, 
317, 2846745683, 0.3611239194869995, -0.6932685375213623, -0.17981019616127014, -0.5972029566764832, 9.59819221496582, -3.016554117202759, -0.5292460322380066, 0.4651673138141632, -0.3900023400783539, -0.6621023416519165, -0.898681640625, -0.008544921875, 0.158203125, 
318, 2846754016, 0.36115795373916626, -0.6932366490364075, -0.17987921833992004, -0.5971986055374146, 9.52145004272461, -2.963744640350342, -0.508374035358429, 0.5712871551513672, -0.735922634601593, -0.5640767812728882, -0.901611328125, -0.00634765625, 0.16064453125, 
319, 2846762349, 0.361192911863327, -0.6932165026664734, -0.17995896935462952, -0.597176730632782, 9.4807710647583, -2.880392551422119, -0.48412588238716125, 0.6646765470504761, -1.0452144145965576, -0.5745785236358643, -0.89794921875, -0.012939453125, 0.158203125, 
320, 2846770682, 0.36122697591781616, -0.6931987404823303, -0.18003666400909424, -0.5971536040306091, 9.436302185058594, -2.7811615467071533, -0.39827761054039, 0.621286153793335, -1.0738255977630615, -0.5152302980422974, -0.89794921875, -0.010009765625, 0.15966796875, 
321, 2846779015, 0.3612569570541382, -0.6931929588317871, -0.180106982588768, -0.5971206426620483, 9.408470153808594, -2.749295234680176, -0.28016969561576843, 0.3751332759857178, -1.196338415145874, -0.43567249178886414, -0.896240234375, -0.007080078125, 0.158447265625, 
322, 2846787348, 0.3612653613090515, -0.6931931972503662, -0.18015462160110474, -0.5971009135246277, 9.38785457611084, -2.7265779972076416, -0.18444328010082245, 0.030519360676407814, -1.1025134325027466, -0.4153348207473755, -0.89697265625, -0.009521484375, 0.15966796875, 
323, 2846795681, 0.3612467646598816, -0.693191647529602, -0.18017926812171936, -0.5971066951751709, 9.341818809509277, -2.745532751083374, -0.07740079611539841, -0.5071874856948853, -0.7787496447563171, -0.579983115196228, -0.900146484375, -0.003662109375, 0.15576171875, 
324, 2846804014, 0.3611932396888733, -0.6931923031806946, -0.18016286194324493, -0.5971433520317078, 9.34398078918457, -2.723137378692627, -0.03323926031589508, -1.227792739868164, -0.40511471033096313, -0.5908434987068176, -0.8984375, -0.009521484375, 0.16064453125, 
325, 2846812347, 0.3611239194869995, -0.6932075023651123, -0.1801234930753708, -0.5971794128417969, 9.289852142333984, -2.81011700630188, -0.095771923661232, -1.7330334186553955, -0.4169997274875641, -0.4959172010421753, -0.900146484375, -0.009521484375, 0.158203125, 
326, 2846820680, 0.36106863617897034, -0.6932223439216614, -0.18009230494499207, -0.5972050428390503, 9.28348159790039, -2.94773006439209, -0.16473014652729034, -1.4085267782211304, -0.5568534135818481, -0.37424957752227783, -0.8984375, -0.010498046875, 0.158203125, 
327, 2846829013, 0.3610559105873108, -0.693220317363739, -0.18009957671165466, -0.5972128510475159, 9.355804443359375, -2.9947242736816406, -0.2875231206417084, -0.7110254764556885, -0.6172005534172058, -0.3785783648490906, -0.8994140625, -0.010498046875, 0.15869140625, 
328, 2846837346, 0.36108481884002686, -0.6932123899459839, -0.18014168739318848, -0.5971918702125549, 9.389150619506836, -2.978522539138794, -0.33042559027671814, 0.22526441514492035, -0.9699854850769043, -0.20650197565555573, -0.89697265625, -0.012939453125, 0.158203125, 
329, 2846845679, 0.3611614406108856, -0.6932041049003601, -0.1802130937576294, -0.5971336364746094, 9.463412284851074, -2.9793803691864014, -0.33474597334861755, 0.8521471619606018, -1.2904963493347168, 0.05464796721935272, -0.8974609375, -0.010986328125, 0.1572265625, 
330, 2846854012, 0.36125999689102173, -0.6931948065757751, -0.18028579652309418, -0.5970630049705505, 9.480949401855469, -2.9619593620300293, -0.2549901306629181, 1.2698897123336792, -1.4111137390136719, 0.3165278732776642, -0.89697265625, -0.009033203125, 0.15869140625, 
331, 2846862345, 0.36136871576309204, -0.693173348903656, -0.18036215007305145, -0.5969988703727722, 9.472264289855957, -2.907724142074585, -0.19265617430210114, 1.284208059310913, -1.1834543943405151, 0.26739978790283203, -0.89794921875, -0.008544921875, 0.15771484375, 
332, 2846870678, 0.36144813895225525, -0.6931595802307129, -0.1804182380437851, -0.5969500541687012, 9.464083671569824, -2.82574462890625, -0.1590721756219864, 0.9193589687347412, -1.1332250833511353, 0.19854874908924103, -0.898193359375, -0.007568359375, 0.15966796875, 
333, 2846879011, 0.361510694026947, -0.6931542754173279, -0.18045634031295776, -0.5969067811965942, 9.44343376159668, -2.8567023277282715, -0.11791461706161499, 0.5104020833969116, -1.0798193216323853, 0.19135114550590515, -0.897216796875, -0.007568359375, 0.158935546875, 
334, 2846887344, 0.3615318536758423, -0.6931505799293518, -0.18045684695243835, -0.5968979001045227, 9.454841613769531, -2.8977952003479004, -0.14617547392845154, -0.24208010733127594, -0.7017019391059875, 0.07711164653301239, -0.896484375, -0.010498046875, 0.1591796875, 
335, 2846895677, 0.36153173446655273, -0.6931527256965637, -0.1804160624742508, -0.5969078540802002, 9.383678436279297, -2.927443504333496, -0.1641649752855301, -0.9928589463233948, -0.36735934019088745, 0.18131035566329956, -0.89892578125, -0.009521484375, 0.15966796875, 
336, 2846904010, 0.3615184426307678, -0.6931725144386292, -0.18034350872039795, -0.5969148278236389, 9.347299575805664, -2.96077561378479, -0.28235146403312683, -1.3273550271987915, -0.4676646590232849, 0.4683946967124939, -0.8974609375, -0.010498046875, 0.16064453125, 
337, 2846912343, 0.36154669523239136, -0.693182110786438, -0.18027716875076294, -0.5969066023826599, 9.397390365600586, -3.023292064666748, -0.3905094563961029, -0.8470627069473267, -0.4295763075351715, 0.7691826224327087, -0.89599609375, -0.009521484375, 0.1591796875, 
338, 2846920676, 0.36162155866622925, -0.6931627988815308, -0.1802443265914917, -0.5968937873840332, 9.448769569396973, -3.0215468406677246, -0.4194212555885315, 0.08379696309566498, -0.3119301497936249, 0.8154931664466858, -0.896484375, -0.008544921875, 0.159912109375, 
339, 2846929009, 0.3617789149284363, -0.693111002445221, -0.18027061223983765, -0.596850574016571, 9.36246109008789, -2.9441475868225098, -0.44269609451293945, 1.5308219194412231, -0.3978402614593506, 0.9667708277702332, -0.89794921875, -0.0087890625, 0.162353515625, 
340, 2846937342, 0.36197710037231445, -0.6930394172668457, -0.1803482472896576, -0.5967898964881897, 9.376564979553223, -2.77685546875, -0.4434119760990143, 2.5439932346343994, -0.5839276909828186, 0.8837807178497314, -0.89697265625, -0.007568359375, 0.160400390625, 
341, 2846945675, 0.362190842628479, -0.6929547190666199, -0.1804627776145935, -0.5967240929603577, 9.467103958129883, -2.6533806324005127, -0.3986668288707733, 3.0398590564727783, -0.6520103216171265, 0.6195186376571655, -0.89697265625, -0.008544921875, 0.158203125, 
342, 2846954008, 0.3623664379119873, -0.6928704977035522, -0.18057313561439514, -0.5966819524765015, 9.528846740722656, -2.56672739982605, -0.3447752594947815, 2.6135101318359375, -0.5220437049865723, 0.26240500807762146, -0.898193359375, -0.008056640625, 0.15966796875, 
343, 2846962341, 0.36247217655181885, -0.6928167343139648, -0.18064846098423004, -0.5966572761535645, 9.537035942077637, -2.5290093421936035, -0.2681672275066376, 1.4216796159744263, -0.5813150405883789, -0.020004717633128166, -0.8984375, -0.009521484375, 0.16064453125, 
344, 2846970674, 0.36248356103897095, -0.6927863359451294, -0.18066751956939697, -0.5966798067092896, 9.535691261291504, -2.5476067066192627, -0.20340539515018463, -0.12748204171657562, -0.30030128359794617, -0.40411576628685, -0.89990234375, -0.00927734375, 0.16015625, 
345, 2846979007, 0.36239656805992126, -0.6927769184112549, -0.18061606585979462, -0.5967592000961304, 9.500497817993164, -2.5664799213409424, -0.14286470413208008, -1.9002177715301514, 0.18884095549583435, -0.8021866083145142, -0.8974609375, -0.008056640625, 0.15869140625, 
346, 2846987340, 0.3621889650821686, -0.6928243041038513, -0.18048439919948578, -0.5968702435493469, 9.437544822692871, -2.581028461456299, -0.16984859108924866, -4.058831214904785, 0.11094805598258972, -1.0118390321731567, -0.8974609375, -0.008544921875, 0.1591796875, 
347, 2846995673, 0.3619208335876465, -0.6929165720939636, -0.18032415211200714, -0.5969738960266113, 9.369240760803223, -2.7488677501678467, -0.25623980164527893, -5.093634128570557, -0.3211641013622284, -1.120046615600586, -0.898681640625, -0.008544921875, 0.15966796875, 
348, 2847004006, 0.3616906404495239, -0.6930040121078491, -0.18019095063209534, -0.597052276134491, 9.346343994140625, -2.9755563735961914, -0.34302932024002075, -4.404034614562988, -0.5773448348045349, -0.9209086298942566, -0.8984375, -0.009521484375, 0.158203125, 
349, 2847012339, 0.3615461587905884, -0.6930522918701172, -0.18011051416397095, -0.5971079468727112, 9.38093090057373, -3.1232564449310303, -0.35302892327308655, -2.9363644123077393, -0.50298672914505, -0.7356663942337036, -0.89697265625, -0.010009765625, 0.15966796875, 
350, 2847020672, 0.36149898171424866, -0.6930645704269409, -0.1800813525915146, -0.597131073474884, 9.374823570251465, -3.092524528503418, -0.2929661273956299, -1.2952861785888672, -0.5510646104812622, -0.3216123580932617, -0.899658203125, -0.009033203125, 0.1591796875, 
351, 2847029005, 0.36154788732528687, -0.6930518746376038, -0.1800854504108429, -0.5971149802207947, 9.329144477844238, -3.0239360332489014, -0.22344759106636047, 0.06438137590885162, -0.621401309967041, 0.25172388553619385, -0.898193359375, -0.007568359375, 0.15869140625, 
352, 2847037338, 0.3616129755973816, -0.6930451989173889, -0.18010994791984558, -0.597075879573822, 9.308338165283203, -2.9515132904052734, -0.16367851197719574, 0.46224725246429443, -0.9766707420349121, 0.3514145016670227, -0.8994140625, -0.010009765625, 0.158203125, 
353, 2847045671, 0.3616771101951599, -0.6930370330810547, -0.1801268458366394, -0.5970414876937866, 9.388557434082031, -2.9029312133789062, -0.13533179461956024, 0.37592729926109314, -0.8717036247253418, 0.356767863035202, -0.8974609375, -0.009033203125, 0.1572265625, 
354, 2847054004, 0.3617277145385742, -0.6930422186851501, -0.18010564148426056, -0.5970112681388855, 9.408056259155273, -2.8651785850524902, -0.11333683878183365, -0.13140101730823517, -0.7990360260009766, 0.652868390083313, -0.900390625, -0.009765625, 0.16015625, 
355, 2847062337, 0.3617587685585022, -0.693058967590332, -0.1800806224346161, -0.5969803333282471, 9.400967597961426, -2.8498857021331787, -0.16712617874145508, -0.4597243070602417, -0.9015699625015259, 0.5282552242279053, -0.89794921875, -0.010009765625, 0.1591796875, 
356, 2847070670, 0.3617628812789917, -0.6930765509605408, -0.18005162477493286, -0.5969662070274353, 9.356470108032227, -2.8443920612335205, -0.19969314336776733, -0.7397646903991699, -0.8229085206985474, 0.2969842255115509, -0.898681640625, -0.006591796875, 0.1591796875, 
357, 2847079003, 0.36176785826683044, -0.6930974721908569, -0.18003341555595398, -0.5969445705413818, 9.324202537536621, -2.879305362701416, -0.2277107536792755, -0.753032922744751, -0.9290026426315308, 0.21299515664577484, -0.8994140625, -0.009521484375, 0.15771484375, 
358, 2847087336, 0.36176902055740356, -0.6931167244911194, -0.18002118170261383, -0.5969251394271851, 9.360245704650879, -2.8848559856414795, -0.26236626505851746, -0.6240909099578857, -0.9764659404754639, 0.14345252513885498, -0.898193359375, -0.008056640625, 0.1611328125, 
359, 2847095669, 0.3618009686470032, -0.6931215524673462, -0.18004004657268524, -0.5968943238258362, 9.402741432189941, -2.928924560546875, -0.29955390095710754, 0.047911424189805984, -1.0476478338241577, 0.08802331984043121, -0.89697265625, -0.009033203125, 0.1591796875, 
360, 2847104002, 0.36187008023262024, -0.6930946707725525, -0.18011260032653809, -0.5968618392944336, 9.420473098754883, -2.938552141189575, -0.29213637113571167, 0.9805257320404053, -0.976363480091095, -0.15722016990184784, -0.896484375, -0.010498046875, 0.161376953125, 
361, 2847112335, 0.3619661033153534, -0.6930532455444336, -0.1802160143852234, -0.5968204736709595, 9.438324928283691, -2.8848092555999756, -0.2356325089931488, 1.5940120220184326, -1.0244413614273071, -0.25265881419181824, -0.896484375, -0.008056640625, 0.158935546875, 
362, 2847120668, 0.3620583713054657, -0.6930018067359924, -0.18031808733940125, -0.5967934131622314, 9.46535587310791, -2.821451187133789, -0.2163856476545334, 1.5516974925994873, -0.8125603199005127, -0.33639171719551086, -0.899169921875, -0.007568359375, 0.15966796875, 
363, 2847129001, 0.36212143301963806, -0.6929635405540466, -0.18037477135658264, -0.5967824459075928, 9.492201805114746, -2.7014856338500977, -0.2311655730009079, 0.8027886152267456, -0.6099517345428467, -0.22084595263004303, -0.89892578125, -0.009521484375, 0.16015625, 
364, 2847137334, 0.3621276021003723, -0.6929537653923035, -0.18039114773273468, -0.5967851281166077, 9.508188247680664, -2.687380313873291, -0.292980432510376, -0.2515829801559448, -0.6581321358680725, -0.27138277888298035, -0.898193359375, -0.008056640625, 0.15869140625, 
365, 2847145667, 0.3620947599411011, -0.692965567111969, -0.18037544190883636, -0.5967960953712463, 9.568565368652344, -2.687795400619507, -0.30499017238616943, -1.0948293209075928, -0.661462128162384, -0.30573150515556335, -0.89794921875, -0.010498046875, 0.15966796875, 
366, 2847154000, 0.362016499042511, -0.6929998397827148, -0.18035128712654114, -0.596811056137085, 9.532681465148926, -2.7279140949249268, -0.3274103105068207, -1.6397207975387573, -0.9112263321876526, -0.5295230746269226, -0.89892578125, -0.009033203125, 0.15966796875, 
367, 2847162333, 0.3619544804096222, -0.6930322051048279, -0.18033409118652344, -0.59681636095047, 9.497660636901855, -2.755579948425293, -0.3304665684700012, -1.4912865161895752, -0.9416306018829346, -0.4505288302898407, -0.896484375, -0.010986328125, 0.16015625, 
368, 2847170666, 0.3619021773338318, -0.6930553913116455, -0.180326908826828, -0.5968232154846191, 9.472267150878906, -2.7632362842559814, -0.3177650570869446, -1.1785621643066406, -0.9169639945030212, -0.4655899405479431, -0.901123046875, -0.0087890625, 0.15869140625, 
369, 2847178999, 0.3618786334991455, -0.6930713653564453, -0.18032962083816528, -0.5968182682991028, 9.412018775939941, -2.8221399784088135, -0.2539330720901489, -0.7782372832298279, -0.9337925314903259, -0.3127754032611847, -0.8984375, -0.01220703125, 0.16064453125, 
370, 2847187332, 0.36185771226882935, -0.6930782198905945, -0.1803441196680069, -0.5968186855316162, 9.375844955444336, -2.8024978637695312, -0.1797293722629547, -0.6045984029769897, -0.873394250869751, -0.42283982038497925, -0.8974609375, -0.010009765625, 0.1611328125, 
371, 2847195665, 0.3618319034576416, -0.6930932402610779, -0.1803477704524994, -0.5968156456947327, 9.353787422180176, -2.8374111652374268, -0.12689858675003052, -0.7094886302947998, -0.9442943930625916, -0.3507869243621826, -0.89794921875, -0.011962890625, 0.15869140625, 
372, 2847203998, 0.3617866039276123, -0.6931058168411255, -0.18031379580497742, -0.5968387126922607, 9.355103492736816, -2.849292039871216, -0.06959716230630875, -1.3187488317489624, -0.5260908007621765, -0.25970274209976196, -0.89892578125, -0.009765625, 0.1611328125, 
373, 2847212331, 0.36172759532928467, -0.6931213736534119, -0.18026378750801086, -0.5968716144561768, 9.34632682800293, -2.885122060775757, -0.13213948905467987, -1.6704323291778564, -0.38639071583747864, -0.29233527183532715, -0.8974609375, -0.009033203125, 0.16015625, 
374, 2847220664, 0.36166393756866455, -0.693133533000946, -0.1802074909210205, -0.5969130992889404, 9.375661849975586, -3.010150909423828, -0.1660689264535904, -1.7194324731826782, -0.27924638986587524, -0.29013246297836304, -0.897705078125, -0.006103515625, 0.160400390625, 
375, 2847228997, 0.3616259694099426, -0.6931284666061401, -0.1801648586988449, -0.5969547033309937, 9.405122756958008, -3.0487992763519287, -0.20637382566928864, -1.32896888256073, -0.11969532072544098, -0.2822432518005371, -0.8974609375, -0.010498046875, 0.16015625, 
376, 2847237330, 0.3616254925727844, -0.6931050419807434, -0.18014967441558838, -0.5969868302345276, 9.377727508544922, -3.079906940460205, -0.25742366909980774, -0.5800087451934814, -0.12517675757408142, -0.20517000555992126, -0.89697265625, -0.010009765625, 0.1591796875, 
377, 2847245663, 0.36167263984680176, -0.6930568814277649, -0.18018284440040588, -0.597004234790802, 9.408163070678711, -3.1032967567443848, -0.26153653860092163, 0.39816048741340637, -0.16759392619132996, -0.2950247526168823, -0.89794921875, -0.010986328125, 0.15771484375, 
378, 2847253996, 0.36174535751342773, -0.692996084690094, -0.18024492263793945, -0.597011923789978, 9.414443016052246, -3.0312891006469727, -0.2782597243785858, 0.9988910555839539, -0.2549896836280823, -0.3113154172897339, -0.895751953125, -0.007080078125, 0.157470703125, 
379, 2847262329, 0.361856073141098, -0.6929255127906799, -0.18033526837825775, -0.5969995260238647, 9.362139701843262, -3.012035846710205, -0.24507291615009308, 1.6830216646194458, -0.40127256512641907, -0.22389402985572815, -0.897705078125, -0.008056640625, 0.15771484375, 
380, 2847270662, 0.3620036840438843, -0.6928394436836243, -0.18046504259109497, -0.5969706177711487, 9.36021614074707, -2.962351083755493, -0.2038011997938156, 2.483261823654175, -0.5470176339149475, -0.22240842878818512, -0.8974609375, -0.009033203125, 0.1572265625, 
381, 2847278995, 0.3621613383293152, -0.6927422881126404, -0.18061043322086334, -0.5969437956809998, 9.40542984008789, -2.8396830558776855, -0.1700855791568756, 2.728159189224243, -0.47263389825820923, -0.35808703303337097, -0.899658203125, -0.008056640625, 0.15869140625, 
382, 2847287328, 0.36229777336120605, -0.6926519870758057, -0.18076308071613312, -0.5969195365905762, 9.40797233581543, -2.7615137100219727, -0.19253531098365784, 2.5748324394226074, -0.6105921268463135, -0.5661001801490784, -0.8974609375, -0.008544921875, 0.15625, 
383, 2847295661, 0.36242440342903137, -0.6925703287124634, -0.18091800808906555, -0.5968908071517944, 9.41950511932373, -2.7413060665130615, -0.20999681949615479, 2.4353630542755127, -0.7406613230705261, -0.6557500958442688, -0.897216796875, -0.007568359375, 0.159912109375, 
384, 2847303994, 0.36254069209098816, -0.6924870610237122, -0.18107353150844574, -0.5968695282936096, 9.45836353302002, -2.698760747909546, -0.2236572504043579, 2.363464117050171, -0.702598512172699, -0.7553894519805908, -0.89697265625, -0.010498046875, 0.1591796875, 
385, 2847312327, 0.36265289783477783, -0.6924040913581848, -0.18123750388622284, -0.5968477129936218, 9.51203727722168, -2.7665798664093018, -0.22293786704540253, 2.184778928756714, -0.6880239844322205, -0.9021845459938049, -0.899658203125, -0.009033203125, 0.15869140625, 
386, 2847320660, 0.3627464175224304, -0.692324697971344, -0.1813887059688568, -0.596837043762207, 9.506836891174316, -2.7657840251922607, -0.2305196076631546, 2.066697120666504, -0.6696841716766357, -0.9443199634552002, -0.899658203125, -0.008056640625, 0.1591796875, 
387, 2847328993, 0.36283570528030396, -0.6922420263290405, -0.1815306842327118, -0.5968356132507324, 9.489498138427734, -2.739959239959717, -0.2345079481601715, 1.919517993927002, -0.502781867980957, -0.975979208946228, -0.899658203125, -0.008544921875, 0.16015625, 
388, 2847337326, 0.3629165589809418, -0.6921620965003967, -0.18168003857135773, -0.5968335866928101, 9.471030235290527, -2.7448883056640625, -0.2201598435640335, 1.9112701416015625, -0.6049313545227051, -1.0760796070098877, -0.89697265625, -0.009521484375, 0.158203125, 
389, 2847345659, 0.36297672986984253, -0.6920958757400513, -0.1818172186613083, -0.5968320369720459, 9.42465877532959, -2.6991119384765625, -0.16371086239814758, 1.5260576009750366, -0.6901499032974243, -1.127769112586975, -0.8984375, -0.010986328125, 0.158203125, 
390, 2847353992, 0.36301958560943604, -0.6920456290245056, -0.1819296032190323, -0.5968301296234131, 9.398714065551758, -2.701500177383423, -0.12503129243850708, 1.0971472263336182, -0.7583606243133545, -0.9631209373474121, -0.89892578125, -0.01123046875, 0.1611328125, 
391, 2847362325, 0.36304378509521484, -0.6920133829116821, -0.18202385306358337, -0.5968239307403564, 9.381217956542969, -2.7041966915130615, -0.10855869948863983, 0.4552801847457886, -0.8188357949256897, -0.9105603694915771, -0.89697265625, -0.009521484375, 0.161376953125, 
392, 2847370658, 0.36304688453674316, -0.6919972896575928, -0.18208691477775574, -0.5968216061592102, 9.35835075378418, -2.7571635246276855, -0.15741977095603943, 0.1457834243774414, -0.8953455090522766, -0.7309533953666687, -0.89794921875, -0.009521484375, 0.158203125, 
393, 2847378991, 0.3630874752998352, -0.6919679045677185, -0.18217733502388, -0.5968032479286194, 9.437990188598633, -2.8243215084075928, -0.23169489204883575, 0.6423153877258301, -0.9147612452507019, -0.6710673570632935, -0.89794921875, -0.010986328125, 0.15771484375, 
394, 2847387324, 0.36314213275909424, -0.6919280290603638, -0.18226952850818634, -0.5967881679534912, 9.503853797912598, -2.8390491008758545, -0.32706373929977417, 1.026195764541626, -0.8374061584472656, -0.5803160667419434, -0.8994140625, -0.0107421875, 0.16064453125, 
395, 2847395657, 0.36316514015197754, -0.6919254660606384, -0.18232735991477966, -0.5967593193054199, 9.455178260803223, -2.8923306465148926, -0.46775302290916443, 0.22544367611408234, -1.1559447050094604, -0.3835475444793701, -0.900390625, -0.0107421875, 0.1591796875, 
396, 2847403990, 0.3631720542907715, -0.6919628381729126, -0.18228940665721893, -0.5967234373092651, 9.442317962646484, -3.11004900932312, -0.37030982971191406, -0.8302084803581238, -1.1396541595458984, 0.5631161332130432, -0.8994140625, -0.009765625, 0.15966796875, 
397, 2847412323, 0.36324232816696167, -0.6919485926628113, -0.1823243796825409, -0.5966863632202148, 9.46597957611084, -3.0761516094207764, -0.397161602973938, 0.5319692492485046, -0.8932451605796814, 0.23338410258293152, -0.89892578125, -0.009521484375, 0.158203125, 
398, 2847420656, 0.36334770917892456, -0.69190514087677, -0.18241479992866516, -0.596645176410675, 9.492877960205078, -2.8868415355682373, -0.3656456470489502, 1.5773887634277344, -0.9209855198860168, -0.026485120877623558, -0.89794921875, -0.009521484375, 0.15966796875, 
399, 2847428989, 0.36349695920944214, -0.6918625831604004, -0.1825127899646759, -0.5965736508369446, 9.453459739685059, -2.885237693786621, -0.289425790309906, 2.0780956745147705, -1.1206485033035278, 0.3841495215892792, -0.8984375, -0.009521484375, 0.16064453125, 
400, 2847437322, 0.3636226952075958, -0.6917936205863953, -0.18259696662425995, -0.5965511202812195, 9.503971099853516, -2.8395423889160156, -0.21280823647975922, 1.8003860712051392, -0.45275717973709106, 0.04140540584921837, -0.896484375, -0.010009765625, 0.15869140625, 
401, 2847445655, 0.3636784553527832, -0.6917393803596497, -0.1826653778553009, -0.5965592265129089, 9.48460578918457, -2.77048921585083, -0.17672529816627502, 0.8476133942604065, -0.3698439300060272, -0.5281655192375183, -0.8984375, -0.010009765625, 0.158203125, 
402, 2847453988, 0.3636883497238159, -0.691702663898468, -0.18269769847393036, -0.5965858697891235, 9.464434623718262, -2.747828960418701, -0.18281951546669006, -0.012166761793196201, -0.27873408794403076, -0.5791890621185303, -0.89697265625, -0.008544921875, 0.15869140625, 
403, 2847462321, 0.3637092709541321, -0.6916657090187073, -0.18272845447063446, -0.596606433391571, 9.44222640991211, -2.8029062747955322, -0.21273262798786163, -0.013345016166567802, -0.2587037980556488, -0.47755178809165955, -0.89697265625, -0.009033203125, 0.15673828125, 
404, 2847470654, 0.3637619614601135, -0.6916109919548035, -0.1827676147222519, -0.5966257452964783, 9.425029754638672, -2.801661252975464, -0.2320382297039032, 0.5597094297409058, -0.12932626903057098, -0.30089041590690613, -0.896484375, -0.008544921875, 0.15869140625, 
405, 2847478987, 0.3638296127319336, -0.6915668249130249, -0.18281032145023346, -0.5966224670410156, 9.400867462158203, -2.73822283744812, -0.23357608914375305, 0.7678250670433044, -0.4144126772880554, -0.10460852831602097, -0.89697265625, -0.011474609375, 0.1591796875, 
406, 2847487320, 0.3638920187950134, -0.691542387008667, -0.18284253776073456, -0.5966030359268188, 9.383435249328613, -2.702887773513794, -0.18272653222084045, 0.5413183569908142, -0.6851295232772827, 0.11391929537057877, -0.899658203125, -0.009033203125, 0.15869140625, 
407, 2847495653, 0.3639301657676697, -0.6915381550788879, -0.18285654485225677, -0.5965802669525146, 9.381475448608398, -2.6520094871520996, -0.06958285719156265, 0.11399615556001663, -0.8629947900772095, 0.12600922584533691, -0.89794921875, -0.009033203125, 0.15869140625, 
408, 2847503986, 0.3639603853225708, -0.6915444135665894, -0.1828659027814865, -0.5965518951416016, 9.37818431854248, -2.6572883129119873, -0.040620964020490646, -0.08304135501384735, -0.989196240901947, 0.1888921856880188, -0.89697265625, -0.008056640625, 0.158935546875, 
409, 2847512319, 0.3639758229255676, -0.6915595531463623, -0.1828649938106537, -0.5965250730514526, 9.38575267791748, -2.6522598266601562, -0.0713639110326767, -0.35744667053222656, -1.026516079902649, 0.15077820420265198, -0.899658203125, -0.009033203125, 0.1591796875, 
410, 2847520652, 0.3639865219593048, -0.6915715336799622, -0.18287277221679688, -0.5965022444725037, 9.389336585998535, -2.617525577545166, -0.07604902982711792, -0.3253519833087921, -1.0257219076156616, 0.029622860252857208, -0.896484375, -0.008056640625, 0.159912109375, 
411, 2847528985, 0.36397916078567505, -0.6915921568870544, -0.182865172624588, -0.5964852571487427, 9.417926788330078, -2.6711575984954834, -0.13230612874031067, -0.6325435042381287, -1.0193184614181519, -0.007633041590452194, -0.89697265625, -0.009033203125, 0.1572265625, 
412, 2847537318, 0.3639441132545471, -0.6916183233261108, -0.18281415104866028, -0.5964920520782471, 9.434892654418945, -2.6749062538146973, -0.17644630372524261, -1.3875486850738525, -0.6801091432571411, 0.10221360623836517, -0.8955078125, -0.008544921875, 0.15576171875, 
413, 2847545651, 0.36386722326278687, -0.6916608810424805, -0.18272078037261963, -0.5965180397033691, 9.460514068603516, -2.695812463760376, -0.24248160421848297, -2.1244189739227295, -0.5640766620635986, 0.07977552711963654, -0.8984375, -0.009521484375, 0.15869140625, 
414, 2847553984, 0.3637595772743225, -0.6917148232460022, -0.18262577056884766, -0.5965503454208374, 9.448548316955566, -2.745978593826294, -0.34353092312812805, -2.6430563926696777, -0.6280866861343384, -0.13293787837028503, -0.897705078125, -0.008544921875, 0.1572265625, 
415, 2847562317, 0.36367541551589966, -0.6917660236358643, -0.1825544536113739, -0.596563994884491, 9.43281078338623, -2.8613758087158203, -0.3922922611236572, -2.2055134773254395, -0.8238561749458313, -0.11016681790351868, -0.89794921875, -0.010986328125, 0.158203125, 
416, 2847570650, 0.36361515522003174, -0.6917955279350281, -0.18250364065170288, -0.5965821743011475, 9.475069999694824, -2.866609811782837, -0.41512197256088257, -1.6716362237930298, -0.6651504635810852, -0.153839111328125, -0.89697265625, -0.008544921875, 0.15869140625, 
417, 2847578983, 0.3635510206222534, -0.6918257474899292, -0.18246188759803772, -0.5965989828109741, 9.465656280517578, -2.8255248069763184, -0.4197673499584198, -1.696379542350769, -0.7127416729927063, -0.29484546184539795, -0.8974609375, -0.010009765625, 0.1611328125, 
418, 2847587316, 0.36348962783813477, -0.6918589472770691, -0.18241554498672485, -0.5966121554374695, 9.423070907592773, -2.8497066497802734, -0.3217526376247406, -1.6506068706512451, -0.7665827870368958, -0.17366452515125275, -0.8974609375, -0.008056640625, 0.158203125, 
419, 2847595649, 0.36342042684555054, -0.691898763179779, -0.18236398696899414, -0.5966237187385559, 9.380260467529297, -2.864424228668213, -0.23384015262126923, -1.8321348428726196, -0.8127140402793884, -0.19164569675922394, -0.899169921875, -0.008544921875, 0.15869140625, 
420, 2847603982, 0.36333969235420227, -0.6919352412223816, -0.18229979276657104, -0.596650242805481, 9.339576721191406, -2.843438148498535, -0.1860651671886444, -2.0328993797302246, -0.6269339919090271, -0.22043609619140625, -0.89697265625, -0.009521484375, 0.15771484375, 
421, 2847612315, 0.3632683753967285, -0.6919721961021423, -0.18223118782043457, -0.5966715812683105, 9.304858207702637, -2.865736246109009, -0.1689503937959671, -1.9887663125991821, -0.6198132634162903, -0.10299484431743622, -0.8974609375, -0.008056640625, 0.158203125, 
422, 2847620648, 0.36320602893829346, -0.6920028924942017, -0.1821722686290741, -0.5966919660568237, 9.375349998474121, -2.951356887817383, -0.1401832103729248, -1.7692519426345825, -0.619096040725708, -0.10404501855373383, -0.899169921875, -0.008056640625, 0.15869140625, 
423, 2847628981, 0.3631681203842163, -0.6920245885848999, -0.18213403224945068, -0.5967017412185669, 9.30483341217041, -2.9521076679229736, -0.11689180880784988, -1.2855015993118286, -0.6837975382804871, -0.09761585295200348, -0.89892578125, -0.009033203125, 0.1591796875, 
424, 2847637314, 0.3631531298160553, -0.6920357346534729, -0.18209883570671082, -0.5967086553573608, 9.311062812805176, -2.914383888244629, -0.07275868952274323, -0.993140697479248, -0.5843375325202942, 0.07685551792383194, -0.8974609375, -0.009521484375, 0.15966796875, 
425, 2847645647, 0.3631584942340851, -0.6920434236526489, -0.18205460906028748, -0.5967098474502563, 9.307343482971191, -2.8841185569763184, -0.06809522211551666, -0.9343047738075256, -0.4814707636833191, 0.3196015954017639, -0.89892578125, -0.009521484375, 0.1591796875, 
426, 2847653980, 0.36318254470825195, -0.6920533180236816, -0.1820228099822998, -0.5966934561729431, 9.334867477416992, -2.9233596324920654, -0.06191510334610939, -0.527397096157074, -0.7156104445457458, 0.4787684679031372, -0.8984375, -0.009521484375, 0.15625, 
427, 2847662313, 0.3632262051105499, -0.6920361518859863, -0.1819959580898285, -0.5966950058937073, 9.433791160583496, -2.865414619445801, -0.09051207453012466, -0.16175387799739838, -0.3094711899757385, 0.407176673412323, -0.89599609375, -0.010009765625, 0.1572265625, 
428, 2847670646, 0.3632781505584717, -0.6920057535171509, -0.1819719821214676, -0.596705973148346, 9.503817558288574, -2.7658612728118896, -0.17422179877758026, -0.06587980687618256, -0.09456774592399597, 0.3958807587623596, -0.89697265625, -0.010009765625, 0.1591796875, 
429, 2847678979, 0.36328819394111633, -0.6919970512390137, -0.18191483616828918, -0.5967273712158203, 9.51637077331543, -2.69533371925354, -0.23258928954601288, -0.758949875831604, -0.1443106085062027, 0.34206533432006836, -0.899658203125, -0.008056640625, 0.15869140625, 
430, 2847687312, 0.36326855421066284, -0.6919978260993958, -0.18183887004852295, -0.5967615246772766, 9.4922513961792, -2.668053388595581, -0.22756770253181458, -1.3877280950546265, -0.04984530434012413, 0.26524820923805237, -0.8974609375, -0.010986328125, 0.15771484375, 
431, 2847695645, 0.36321377754211426, -0.692013680934906, -0.18175184726715088, -0.5968029499053955, 9.481582641601562, -2.701573371887207, -0.2863540053367615, -1.9686331748962402, -0.10929593443870544, 0.05390515550971031, -0.89697265625, -0.009033203125, 0.1572265625, 
432, 2847703978, 0.36314308643341064, -0.6920419931411743, -0.1816653311252594, -0.5968395471572876, 9.490617752075195, -2.7608933448791504, -0.3378264904022217, -2.1036455631256104, -0.3272474408149719, 0.0037524853833019733, -0.8974609375, -0.008056640625, 0.159423828125, 
433, 2847712311, 0.36307263374328613, -0.6920716166496277, -0.1816049963235855, -0.5968664884567261, 9.468645095825195, -2.775541067123413, -0.3216366171836853, -1.8480669260025024, -0.5604394674301147, -0.2215375155210495, -0.898681640625, -0.008056640625, 0.1572265625, 
434, 2847720644, 0.3629908263683319, -0.6921136975288391, -0.18156123161315918, -0.5968807935714722, 9.446394920349121, -2.7838377952575684, -0.29572489857673645, -1.8725541830062866, -0.8927072882652283, -0.34812307357788086, -0.89892578125, -0.01025390625, 0.16015625, 
435, 2847728977, 0.3629283308982849, -0.6921478509902954, -0.1815510094165802, -0.5968822836875916, 9.375280380249023, -2.8149564266204834, -0.2853708565235138, -1.614157795906067, -0.9772598743438721, -0.49888843297958374, -0.89697265625, -0.009033203125, 0.158203125, 
436, 2847737310, 0.3628779351711273, -0.692175567150116, -0.18155744671821594, -0.5968787670135498, 9.400144577026367, -2.874999761581421, -0.2699841856956482, -1.0442668199539185, -1.116652488708496, -0.5157938599586487, -0.898681640625, -0.007568359375, 0.15869140625, 
437, 2847745643, 0.3628525137901306, -0.6921883225440979, -0.1815730184316635, -0.5968745946884155, 9.411087036132812, -2.8903274536132812, -0.2503279149532318, -0.6311859488487244, -0.985302746295929, -0.460671991109848, -0.89892578125, -0.010986328125, 0.15869140625, 
438, 2847753976, 0.36284035444259644, -0.6921835541725159, -0.18158429861068726, -0.5968841314315796, 9.447367668151855, -2.8676462173461914, -0.25109338760375977, -0.5112601518630981, -0.656134307384491, -0.3936651945114136, -0.89990234375, -0.010009765625, 0.15673828125, 
439, 2847762309, 0.36282193660736084, -0.6921837329864502, -0.181575745344162, -0.5968977212905884, 9.524045944213867, -2.837876319885254, -0.3013922870159149, -0.7080798745155334, -0.5877185463905334, -0.2916436791419983, -0.899169921875, -0.007568359375, 0.15869140625, 
440, 2847770642, 0.3627990186214447, -0.6921908259391785, -0.18157780170440674, -0.5969027876853943, 9.564809799194336, -2.829378604888916, -0.3262554705142975, -0.7377156019210815, -0.7764187455177307, -0.34422969818115234, -0.89501953125, -0.008544921875, 0.158447265625, 
441, 2847778975, 0.36278772354125977, -0.692196249961853, -0.18159160017967224, -0.5968992114067078, 9.544902801513672, -2.8580541610717773, -0.31859466433525085, -0.4730437099933624, -0.8771594166755676, -0.34789252281188965, -0.8984375, -0.010009765625, 0.15869140625, 
