sep=,
PacketCounter,SampleTimeFine,Quat_W,Quat_X,Quat_Y,Quat_Z,Acc_X,Acc_Y,Acc_Z,Gyr_X,Gyr_Y,Gyr_Z,Mag_X,Mag_Y,Mag_Z,
0, 3433322219, 0.5789521336555481, -0.6412138342857361, -0.1584164947271347, -0.4781016707420349, 0, 0, 0, 0, 0, 0, -0.8095703125, 0.3955078125, 0.10400390625, 
1, 3433330552, 0.5800576210021973, -0.6415714621543884, -0.1558918058872223, -0.47711074352264404, 7.843339443206787, -6.59410285949707, 1.8799378871917725, -8.028331756591797, 10.737310409545898, 38.05580139160156, -0.81005859375, 0.3974609375, 0.1044921875, 
2, 3433338885, 0.5812427997589111, -0.6418940424919128, -0.15326374769210815, -0.47608482837677, 7.8581342697143555, -6.718825340270996, 2.0068321228027344, -7.665942192077637, 11.657402038574219, 39.701087951660156, -0.80517578125, 0.40283203125, 0.102783203125, 
3, 3433347218, 0.5825156569480896, -0.6421850919723511, -0.15044383704662323, -0.47503507137298584, 7.867763519287109, -6.786282539367676, 1.977529525756836, -7.829029083251953, 13.367053985595703, 42.08744430541992, -0.804443359375, 0.409912109375, 0.10205078125, 
4, 3433355551, 0.5838815569877625, -0.642451822757721, -0.1473657637834549, -0.47396090626716614, 7.895496368408203, -6.865752220153809, 1.9342067241668701, -8.419288635253906, 15.535796165466309, 45.12811279296875, -0.8076171875, 0.412109375, 0.1064453125, 
5, 3433363884, 0.5853346586227417, -0.642724335193634, -0.1439596712589264, -0.472844660282135, 7.9677414894104, -7.039107799530029, 1.8630099296569824, -9.77615737915039, 17.972848892211914, 48.935462951660156, -0.79931640625, 0.41748046875, 0.097900390625, 
6, 3433372217, 0.5868363380432129, -0.6430358290672302, -0.14014571905136108, -0.4717041552066803, 8.000894546508789, -7.177153587341309, 1.6544315814971924, -12.095693588256836, 20.73011016845703, 53.15890884399414, -0.7958984375, 0.422119140625, 0.096923828125, 
7, 3433380550, 0.5884568095207214, -0.6433380246162415, -0.13601647317409515, -0.470480740070343, 7.95197868347168, -7.419346332550049, 1.4084570407867432, -13.024820327758789, 22.98329734802246, 57.33850860595703, -0.795654296875, 0.42919921875, 0.09619140625, 
8, 3433388883, 0.5902114510536194, -0.643608808517456, -0.13160789012908936, -0.46916434168815613, 7.835005760192871, -7.7093825340271, 1.427712082862854, -13.174735069274902, 24.82286834716797, 61.374576568603516, -0.79248046875, 0.4375, 0.093505859375, 
9, 3433397216, 0.5920935273170471, -0.643866240978241, -0.12697015702724457, -0.46771544218063354, 7.740834712982178, -7.860997200012207, 1.652240514755249, -13.220155715942383, 25.878910064697266, 65.27330017089844, -0.7861328125, 0.443603515625, 0.08984375, 
10, 3433405549, 0.5940558314323425, -0.6441318988800049, -0.12207181751728058, -0.46616291999816895, 7.694216251373291, -7.897542476654053, 1.960370659828186, -14.023324966430664, 27.110200881958008, 68.95182800292969, -0.786376953125, 0.451171875, 0.08935546875, 
11, 3433413882, 0.5960289835929871, -0.6444637775421143, -0.11687405407428741, -0.4645150601863861, 7.670783042907715, -7.946115016937256, 2.225614309310913, -16.27568244934082, 28.366090774536133, 72.5657958984375, -0.78125, 0.45703125, 0.084716796875, 
12, 3433422215, 0.597944974899292, -0.6448930501937866, -0.11135777831077576, -0.4628089666366577, 7.69276762008667, -7.944528579711914, 2.3203396797180176, -20.145410537719727, 30.28639030456543, 75.51705932617188, -0.776123046875, 0.46484375, 0.08349609375, 
13, 3433430548, 0.599724292755127, -0.6454329490661621, -0.10545051097869873, -0.461134672164917, 7.601354122161865, -7.765054702758789, 2.303407907485962, -24.180721282958984, 32.329261779785156, 78.16451263427734, -0.7724609375, 0.475830078125, 0.085205078125, 
14, 3433438881, 0.6014018654823303, -0.6460829377174377, -0.09928478300571442, -0.45940521359443665, 7.3196282386779785, -7.620773792266846, 2.180906057357788, -27.549846649169922, 33.1259651184082, 80.42689514160156, -0.7666015625, 0.483154296875, 0.07861328125, 
15, 3433447214, 0.6030110120773315, -0.6468276977539062, -0.09299696236848831, -0.45755982398986816, 6.99725866317749, -7.619446754455566, 2.0197503566741943, -30.101722717285156, 32.91389083862305, 82.03363037109375, -0.762451171875, 0.492431640625, 0.076416015625, 
16, 3433455547, 0.6045976281166077, -0.6475839018821716, -0.0867106020450592, -0.45562660694122314, 6.759151458740234, -7.742788314819336, 1.864714503288269, -30.30440902709961, 32.05680847167969, 82.60873413085938, -0.7548828125, 0.501708984375, 0.07177734375, 
17, 3433463880, 0.6061735153198242, -0.6483157873153687, -0.0804668515920639, -0.453633189201355, 6.608407974243164, -7.8169636726379395, 1.7461189031600952, -29.283340454101562, 30.770193099975586, 82.78018951416016, -0.752685546875, 0.5087890625, 0.072021484375, 
18, 3433472213, 0.6078696846961975, -0.648932933807373, -0.07443831115961075, -0.45150524377822876, 6.497063159942627, -7.903313636779785, 1.7644630670547485, -26.28354835510254, 29.131269454956055, 82.4637222290039, -0.741943359375, 0.515625, 0.06982421875, 
19, 3433480546, 0.6097111701965332, -0.6493657231330872, -0.06865061819553375, -0.4493121802806854, 6.4027099609375, -8.03960132598877, 1.760941743850708, -21.364057540893555, 27.321983337402344, 81.71602630615234, -0.73974609375, 0.525390625, 0.068115234375, 
20, 3433488879, 0.6117927432060242, -0.6495727300643921, -0.06318803131580353, -0.44697827100753784, 6.3610334396362305, -8.151076316833496, 1.7423056364059448, -15.711236953735352, 25.49928092956543, 81.11125946044922, -0.732421875, 0.533203125, 0.066650390625, 
21, 3433497212, 0.6140775084495544, -0.6495225429534912, -0.05801309645175934, -0.44461384415626526, 6.321800231933594, -8.023999214172363, 1.6758050918579102, -9.409421920776367, 24.0278263092041, 79.97537994384766, -0.727783203125, 0.541259765625, 0.0673828125, 
22, 3433505545, 0.6165836453437805, -0.6492371559143066, -0.053186532109975815, -0.44215938448905945, 6.223143100738525, -7.718387603759766, 1.5866637229919434, -3.7873690128326416, 22.476919174194336, 78.62455749511719, -0.7236328125, 0.55126953125, 0.068115234375, 
23, 3433513878, 0.6191818714141846, -0.6487733125686646, -0.048595793545246124, -0.4397309422492981, 6.125078201293945, -7.547186851501465, 1.4330915212631226, 0.5040269494056702, 21.2811279296875, 76.89350891113281, -0.718505859375, 0.560302734375, 0.0625, 
24, 3433522211, 0.6219052672386169, -0.6481486558914185, -0.044313713908195496, -0.4372538924217224, 6.066195487976074, -7.535091400146484, 1.286238193511963, 4.378840923309326, 19.851125717163086, 75.03693389892578, -0.707275390625, 0.567138671875, 0.057373046875, 
25, 3433530544, 0.6246684789657593, -0.6473755240440369, -0.04026828706264496, -0.4348452091217041, 6.019984722137451, -7.6442694664001465, 1.18436598777771, 7.894001483917236, 18.77690315246582, 72.65796661376953, -0.702880859375, 0.5751953125, 0.061279296875, 
26, 3433538877, 0.6275599002838135, -0.6464282870292664, -0.03658317029476166, -0.4324098825454712, 6.009618282318115, -7.4899797439575195, 1.152991533279419, 12.272079467773438, 17.059736251831055, 70.19783782958984, -0.7001953125, 0.58154296875, 0.052001953125, 
27, 3433547210, 0.6305099129676819, -0.6453288197517395, -0.033236414194107056, -0.4300246238708496, 5.988558292388916, -7.187524795532227, 1.140281319618225, 16.52088165283203, 15.018038749694824, 67.1800765991211, -0.691162109375, 0.58935546875, 0.05078125, 
28, 3433555543, 0.6334745287895203, -0.6441263556480408, -0.03024619072675705, -0.4276847243309021, 5.994338035583496, -6.7313947677612305, 1.1666338443756104, 19.22134780883789, 13.450667381286621, 63.509334564208984, -0.685302734375, 0.595703125, 0.044677734375, 
29, 3433563876, 0.6363193392753601, -0.6429193615913391, -0.027508020401000977, -0.4254568815231323, 5.9343366622924805, -6.384896278381348, 1.1994019746780396, 20.046194076538086, 11.71679973602295, 59.748931884765625, -0.6796875, 0.603515625, 0.04150390625, 
30, 3433572209, 0.6390402317047119, -0.6417582631111145, -0.02505326271057129, -0.4232777953147888, 5.873893737792969, -6.225679874420166, 1.2386133670806885, 19.759000778198242, 9.907041549682617, 55.9471435546875, -0.677734375, 0.607666015625, 0.04052734375, 
31, 3433580542, 0.6415683031082153, -0.6406815052032471, -0.02279159426689148, -0.42120733857154846, 5.814746856689453, -6.17316198348999, 1.2466717958450317, 18.8331356048584, 8.05806827545166, 52.35718536376953, -0.672119140625, 0.614990234375, 0.036865234375, 
32, 3433588875, 0.6439210176467896, -0.6396802663803101, -0.02071940153837204, -0.41924160718917847, 5.819921016693115, -6.143969535827637, 1.2646324634552002, 17.685762405395508, 6.816079616546631, 48.770145416259766, -0.670654296875, 0.618896484375, 0.03857421875, 
33, 3433597208, 0.6461141109466553, -0.6387629508972168, -0.01889248937368393, -0.41734811663627625, 5.7736124992370605, -6.069884777069092, 1.2423173189163208, 16.493410110473633, 5.346969127655029, 44.91220474243164, -0.663330078125, 0.622802734375, 0.0302734375, 
34, 3433605541, 0.6481084227561951, -0.6379463076591492, -0.017270587384700775, -0.41557127237319946, 5.777127742767334, -5.95305061340332, 1.180833101272583, 14.989309310913086, 3.947582960128784, 40.960243225097656, -0.66064453125, 0.627685546875, 0.034423828125, 
35, 3433613874, 0.6498835682868958, -0.6372320652008057, -0.015812359750270844, -0.4139498174190521, 5.7319841384887695, -5.8743391036987305, 1.091415286064148, 13.50047492980957, 2.592791795730591, 37.07569885253906, -0.65673828125, 0.630615234375, 0.0322265625, 
36, 3433622207, 0.6515054106712341, -0.6366005539894104, -0.014600485563278198, -0.4124133884906769, 5.701868057250977, -5.844613075256348, 0.9744069576263428, 12.42508316040039, 1.1656155586242676, 33.16743850708008, -0.65576171875, 0.636962890625, 0.035400390625, 
37, 3433630540, 0.652958869934082, -0.6360321640968323, -0.013591967523097992, -0.4110237956047058, 5.652212142944336, -5.769717216491699, 0.8958292603492737, 11.887639999389648, -0.2974839508533478, 29.266246795654297, -0.6484375, 0.637939453125, 0.025634765625, 
38, 3433638873, 0.6542907953262329, -0.6355124115943909, -0.01287958025932312, -0.40973103046417236, 5.655770778656006, -5.691110134124756, 0.8262283802032471, 11.733543395996094, -1.9581838846206665, 25.023344039916992, -0.645751953125, 0.6416015625, 0.022216796875, 
39, 3433647206, 0.6554844975471497, -0.6350187659263611, -0.01241794228553772, -0.4086011052131653, 5.650434970855713, -5.656293869018555, 0.7997125387191772, 11.983457565307617, -3.411407709121704, 20.697397232055664, -0.645751953125, 0.64453125, 0.021240234375, 
40, 3433655539, 0.6565732359886169, -0.6345512270927429, -0.012273140251636505, -0.40758249163627625, 5.63551664352417, -5.561499118804932, 0.8324404358863831, 12.254559516906738, -4.948902606964111, 16.233245849609375, -0.645263671875, 0.64404296875, 0.02734375, 
41, 3433663872, 0.6575065851211548, -0.6341070532798767, -0.012384377419948578, -0.4067649841308594, 5.66787576675415, -5.49106502532959, 0.8774136900901794, 12.427352905273438, -6.175414562225342, 11.42593765258789, -0.64013671875, 0.643798828125, 0.021484375, 
42, 3433672205, 0.6583141088485718, -0.6336799263954163, -0.012783393263816833, -0.4061116576194763, 5.662342071533203, -5.432928562164307, 0.9413049817085266, 12.434700965881348, -6.9625396728515625, 6.635560512542725, -0.638916015625, 0.64794921875, 0.01904296875, 
43, 3433680538, 0.658933162689209, -0.6332945823669434, -0.013393431901931763, -0.40568894147872925, 5.665327072143555, -5.399957656860352, 0.943539023399353, 11.873621940612793, -7.629739761352539, 1.7592756748199463, -0.639892578125, 0.647216796875, 0.021484375, 
44, 3433688871, 0.6593853831291199, -0.6329573392868042, -0.01425907015800476, -0.4054507613182068, 5.714152812957764, -5.3287482261657715, 0.9772548079490662, 11.043951988220215, -8.117588996887207, -3.14758038520813, -0.640380859375, 0.6484375, 0.0185546875, 
45, 3433697204, 0.6596162915229797, -0.6326764822006226, -0.015304721891880035, -0.40547555685043335, 5.706398010253906, -5.201152801513672, 0.9727383852005005, 9.893436431884766, -8.335948944091797, -8.236002922058105, -0.640380859375, 0.64794921875, 0.01806640625, 
46, 3433705537, 0.6596393585205078, -0.6324498057365417, -0.01658235490322113, -0.40574121475219727, 5.680826187133789, -5.132308006286621, 0.9470367431640625, 8.569948196411133, -8.2735013961792, -13.63755989074707, -0.640380859375, 0.64892578125, 0.01904296875, 
47, 3433713870, 0.6593943238258362, -0.6323087811470032, -0.018039576709270477, -0.40629687905311584, 5.657154083251953, -5.097919940948486, 0.9177849292755127, 6.662790298461914, -8.338563919067383, -19.253692626953125, -0.644287109375, 0.64697265625, 0.0263671875, 
48, 3433722203, 0.6588914394378662, -0.6322758793830872, -0.019711285829544067, -0.40708544850349426, 5.648865699768066, -5.046014308929443, 0.9140195250511169, 4.459223747253418, -8.720808982849121, -24.62992286682129, -0.642333984375, 0.644775390625, 0.02001953125, 
49, 3433730536, 0.6581143140792847, -0.6323480010032654, -0.02156159281730652, -0.4081353545188904, 5.672951698303223, -5.01365852355957, 0.926439642906189, 2.173945903778076, -8.934919357299805, -30.072237014770508, -0.64794921875, 0.640869140625, 0.027587890625, 
50, 3433738869, 0.6570637822151184, -0.6325143575668335, -0.02364024519920349, -0.4094526171684265, 5.723051071166992, -5.0136027336120605, 0.9280924201011658, 0.12252583354711533, -9.22292709350586, -35.91913604736328, -0.651123046875, 0.637939453125, 0.0224609375, 
51, 3433747202, 0.6557520627975464, -0.6327579021453857, -0.02594226598739624, -0.4110370874404907, 5.763455390930176, -5.071152210235596, 0.9842788577079773, -1.6527612209320068, -9.499874114990234, -41.7869987487793, -0.6513671875, 0.63330078125, 0.021484375, 
52, 3433755535, 0.6542115211486816, -0.6330548524856567, -0.02850182354450226, -0.41286101937294006, 5.7817487716674805, -5.178876876831055, 0.973490834236145, -2.7903943061828613, -10.038597106933594, -47.38947677612305, -0.65673828125, 0.627685546875, 0.024169921875, 
53, 3433763868, 0.6524420380592346, -0.6333960890769958, -0.0313086211681366, -0.4149293899536133, 5.851601600646973, -5.265275001525879, 1.0127763748168945, -3.8374321460723877, -10.559033393859863, -53.095523834228516, -0.6611328125, 0.62646484375, 0.025146484375, 
54, 3433772201, 0.6504824757575989, -0.6337723731994629, -0.03443063795566559, -0.4171779751777649, 5.930737018585205, -5.279947280883789, 1.069595217704773, -4.69512939453125, -11.214485168457031, -58.638999938964844, -0.66796875, 0.620361328125, 0.02587890625, 
55, 3433780534, 0.6482754349708557, -0.6341895461082458, -0.03775697201490402, -0.41968393325805664, 6.061603546142578, -5.290162563323975, 1.0982955694198608, -5.558181285858154, -12.034533500671387, -64.00907897949219, -0.672607421875, 0.612060546875, 0.029541015625, 
56, 3433788867, 0.6458681225776672, -0.6346397995948792, -0.04138874262571335, -0.422363817691803, 6.190942287445068, -5.2783942222595215, 1.163326621055603, -6.276770114898682, -13.02789306640625, -69.37118530273438, -0.677978515625, 0.607421875, 0.0283203125, 
57, 3433797200, 0.6432453393936157, -0.6351043581962585, -0.045226067304611206, -0.42526471614837646, 6.333064556121826, -5.304938316345215, 1.3000948429107666, -6.866851329803467, -13.639570236206055, -74.36304473876953, -0.68212890625, 0.59912109375, 0.031494140625, 
58, 3433805533, 0.6404117941856384, -0.635583221912384, -0.049280062317848206, -0.428364098072052, 6.518479347229004, -5.292372703552246, 1.3795164823532104, -7.689540386199951, -13.996543884277344, -79.11524963378906, -0.693115234375, 0.591552734375, 0.04296875, 
59, 3433813866, 0.6373811960220337, -0.6360475420951843, -0.05351615324616432, -0.43167418241500854, 6.702212333679199, -5.32774543762207, 1.3734016418457031, -8.355417251586914, -13.848093032836914, -83.8531494140625, -0.696044921875, 0.584228515625, 0.03466796875, 
60, 3433822199, 0.6341627240180969, -0.6364947557449341, -0.05795508995652199, -0.4351682662963867, 6.842843055725098, -5.398258209228516, 1.3537343740463257, -8.91722297668457, -13.842644691467285, -88.27571868896484, -0.70263671875, 0.57470703125, 0.038330078125, 
61, 3433830532, 0.6307706832885742, -0.6369051337242126, -0.06256422400474548, -0.4388435184955597, 7.005387306213379, -5.464701175689697, 1.3157469034194946, -9.104395866394043, -13.869063377380371, -92.5052490234375, -0.71142578125, 0.56591796875, 0.03857421875, 
62, 3433838865, 0.6272143721580505, -0.6372672319412231, -0.06738640367984772, -0.44268447160720825, 7.151890277862549, -5.492471218109131, 1.3146278858184814, -9.041594505310059, -13.999938011169434, -96.71585083007812, -0.723876953125, 0.55712890625, 0.055419921875, 
63, 3433847198, 0.6235626339912415, -0.637524425983429, -0.07241854071617126, -0.4466606676578522, 7.298008918762207, -5.650746822357178, 1.369991660118103, -7.759468078613281, -14.191004753112793, -100.52520751953125, -0.7265625, 0.546142578125, 0.048095703125, 
64, 3433855531, 0.6198897957801819, -0.637599766254425, -0.07766962051391602, -0.45076417922973633, 7.498716354370117, -6.1299614906311035, 1.3867677450180054, -4.393523693084717, -14.648256301879883, -103.48912811279297, -0.734619140625, 0.533447265625, 0.047119140625, 
65, 3433863864, 0.616348385810852, -0.6374233961105347, -0.08321461081504822, -0.4548618793487549, 7.764214515686035, -6.59733247756958, 1.4218426942825317, -0.03985614702105522, -14.711503982543945, -105.82910919189453, -0.740234375, 0.52392578125, 0.046875, 
66, 3433872197, 0.6129456758499146, -0.6369847655296326, -0.08900812268257141, -0.45895904302597046, 7.9673919677734375, -6.83664083480835, 1.5133177042007446, 4.978472709655762, -15.000618934631348, -107.26756286621094, -0.751220703125, 0.511474609375, 0.05029296875, 
67, 3433880530, 0.6097419857978821, -0.6362766027450562, -0.09501294046640396, -0.46298712491989136, 8.0747709274292, -6.914470195770264, 1.6148159503936768, 10.383928298950195, -15.466423988342285, -107.77948760986328, -0.7568359375, 0.5, 0.053955078125, 
68, 3433888863, 0.606782853603363, -0.635309100151062, -0.10124602913856506, -0.46686622500419617, 8.119751930236816, -7.013997554779053, 1.6130239963531494, 15.946937561035156, -16.27312660217285, -107.24069213867188, -0.762939453125, 0.48681640625, 0.052001953125, 
69, 3433897196, 0.6040553450584412, -0.6340966820716858, -0.10760089755058289, -0.4706152379512787, 8.259600639343262, -7.06776237487793, 1.5798207521438599, 21.37816047668457, -16.969764709472656, -106.14100646972656, -0.771240234375, 0.47802734375, 0.05517578125, 
70, 3433905529, 0.6015769839286804, -0.6326814889907837, -0.11407511681318283, -0.47415605187416077, 8.367077827453613, -7.033313274383545, 1.5597095489501953, 26.077499389648438, -17.827438354492188, -104.02882385253906, -0.779296875, 0.466796875, 0.05712890625, 
71, 3433913862, 0.5993001461029053, -0.6311401128768921, -0.12054078280925751, -0.47748231887817383, 8.442838668823242, -6.869839191436768, 1.5186923742294312, 29.39487075805664, -18.75242042541504, -101.17408752441406, -0.7841796875, 0.453125, 0.054931640625, 
72, 3433922195, 0.5971644520759583, -0.6295687556266785, -0.12692870199680328, -0.480567067861557, 8.467795372009277, -6.748410224914551, 1.5628958940505981, 30.88494873046875, -19.827909469604492, -97.43463134765625, -0.7919921875, 0.44482421875, 0.058837890625, 
73, 3433930528, 0.5951464772224426, -0.6280404329299927, -0.13313961029052734, -0.4833815097808838, 8.474984169006348, -6.713212490081787, 1.6992658376693726, 30.724712371826172, -20.743667602539062, -93.02537536621094, -0.797607421875, 0.43115234375, 0.054931640625, 
74, 3433938861, 0.5931737422943115, -0.6266228556632996, -0.1390884518623352, -0.48596417903900146, 8.522647857666016, -6.70462703704834, 1.8505053520202637, 28.870407104492188, -21.176685333251953, -88.1989974975586, -0.801513671875, 0.41943359375, 0.0595703125, 
75, 3433947194, 0.5911977887153625, -0.6253729462623596, -0.14463649690151215, -0.488356351852417, 8.599772453308105, -6.687302589416504, 2.028212308883667, 25.180309295654297, -20.75110626220703, -83.0570068359375, -0.810302734375, 0.4130859375, 0.066162109375, 
76, 3433955527, 0.5891029238700867, -0.6243347525596619, -0.14969578385353088, -0.4906860589981079, 8.616647720336914, -6.708497047424316, 2.146338701248169, 20.460430145263672, -19.799514770507812, -78.29080200195312, -0.814453125, 0.4013671875, 0.06787109375, 
77, 3433963860, 0.5869675874710083, -0.6235037446022034, -0.15434329211711884, -0.49285683035850525, 8.621760368347168, -6.713933944702148, 2.2577812671661377, 14.800738334655762, -18.484813690185547, -73.74640655517578, -0.815673828125, 0.3935546875, 0.059326171875, 
78, 3433972193, 0.5847088098526001, -0.6229034662246704, -0.15851014852523804, -0.4949738085269928, 8.604687690734863, -6.729743480682373, 2.3363356590270996, 8.920055389404297, -16.963741302490234, -69.332275390625, -0.81884765625, 0.3857421875, 0.064453125, 
79, 3433980526, 0.5823428630828857, -0.6225235462188721, -0.16219712793827057, -0.49704211950302124, 8.562933921813965, -6.696695804595947, 2.379585027694702, 2.8870558738708496, -15.182308197021484, -65.2871322631836, -0.8212890625, 0.377685546875, 0.065185546875, 
80, 3433988859, 0.5798706412315369, -0.6223472356796265, -0.16544796526432037, -0.49907779693603516, 8.516347885131836, -6.700997829437256, 2.3314437866210938, -2.5829226970672607, -13.528666496276855, -61.405094146728516, -0.825439453125, 0.368896484375, 0.06494140625, 
81, 3433997192, 0.5773214101791382, -0.6223552227020264, -0.16826525330543518, -0.50107741355896, 8.45888900756836, -6.7300896644592285, 2.3288588523864746, -7.58388614654541, -11.889728546142578, -57.67431640625, -0.830078125, 0.361328125, 0.067138671875, 
82, 3434005525, 0.5747396945953369, -0.6224957704544067, -0.17072156071662903, -0.5030360221862793, 8.415968894958496, -6.72251033782959, 2.2759206295013428, -11.421290397644043, -10.237499237060547, -54.04518127441406, -0.834228515625, 0.35400390625, 0.070068359375, 
83, 3434013858, 0.5721564888954163, -0.6227363348007202, -0.17284438014030457, -0.5049545168876648, 8.362573623657227, -6.757956504821777, 2.282137155532837, -14.322052955627441, -8.765365600585938, -50.7796516418457, -0.840087890625, 0.349609375, 0.07958984375, 
84, 3434022191, 0.5696768164634705, -0.6230081915855408, -0.17479419708251953, -0.5067481398582458, 8.316280364990234, -6.786043167114258, 2.2878427505493164, -16.220787048339844, -7.350686550140381, -47.69964599609375, -0.842041015625, 0.345947265625, 0.0830078125, 
85, 3434030524, 0.5671929717063904, -0.6233433485031128, -0.1763918697834015, -0.5085653066635132, 8.226181983947754, -6.800240993499756, 2.297208309173584, -17.62877655029297, -5.935829162597656, -44.566890716552734, -0.841796875, 0.338623046875, 0.075439453125, 
86, 3434038857, 0.564796507358551, -0.6236907243728638, -0.17779912054538727, -0.5103135108947754, 8.1956148147583, -6.783020496368408, 2.2574172019958496, -18.297943115234375, -4.777191162109375, -41.64753723144531, -0.843505859375, 0.3291015625, 0.078125, 
87, 3434047190, 0.5624985694885254, -0.624041736125946, -0.17899852991104126, -0.512000560760498, 8.146169662475586, -6.7673821449279785, 2.2238407135009766, -18.631824493408203, -3.6112799644470215, -38.7977409362793, -0.84326171875, 0.327392578125, 0.080078125, 
88, 3434055523, 0.5603256225585938, -0.6243705153465271, -0.18006974458694458, -0.5136043429374695, 8.089380264282227, -6.773889064788818, 2.200784921646118, -18.201679229736328, -2.7628579139709473, -36.122833251953125, -0.85107421875, 0.322021484375, 0.087646484375, 
89, 3434063856, 0.5582863092422485, -0.6246755719184875, -0.18101075291633606, -0.5151211023330688, 8.051097869873047, -6.755113124847412, 2.158379077911377, -17.458171844482422, -2.115994453430176, -33.55432891845703, -0.849365234375, 0.315673828125, 0.083740234375, 
90, 3434072189, 0.5563772916793823, -0.6249544620513916, -0.18184852600097656, -0.5165513157844543, 8.045990943908691, -6.706148147583008, 2.129528284072876, -16.38029670715332, -1.6904902458190918, -30.979557037353516, -0.849365234375, 0.311279296875, 0.08349609375, 
91, 3434080522, 0.5546375513076782, -0.6251957416534424, -0.1825861632823944, -0.5178685188293457, 8.035649299621582, -6.6785383224487305, 2.11189603805542, -15.339686393737793, -1.0717004537582397, -28.311874389648438, -0.854736328125, 0.308349609375, 0.0859375, 
92, 3434088855, 0.5530517101287842, -0.6254011392593384, -0.1832468956708908, -0.5190814733505249, 8.056947708129883, -6.62731409072876, 2.050619602203369, -14.084945678710938, -0.6802121996879578, -25.755029678344727, -0.84912109375, 0.30322265625, 0.08642578125, 
93, 3434097188, 0.5516584515571594, -0.6255558133125305, -0.18382732570171356, -0.5201712846755981, 8.042474746704102, -6.622406482696533, 1.9876519441604614, -12.2505521774292, -0.34033653140068054, -22.975929260253906, -0.85302734375, 0.299560546875, 0.085205078125, 
94, 3434105521, 0.5504564046859741, -0.6256704330444336, -0.18434780836105347, -0.5211217999458313, 8.050564765930176, -6.668546199798584, 1.9411331415176392, -10.3966703414917, -0.2824226915836334, -20.044479370117188, -0.85986328125, 0.298828125, 0.102294921875, 
95, 3434113854, 0.5494707822799683, -0.6257497072219849, -0.18478691577911377, -0.521910548210144, 8.066332817077637, -6.6219563484191895, 1.840532898902893, -8.42275619506836, -0.286111056804657, -16.7528133392334, -0.858642578125, 0.295654296875, 0.092041015625, 
96, 3434122187, 0.5486981868743896, -0.625808596611023, -0.18512842059135437, -0.5225316286087036, 8.100544929504395, -6.535614490509033, 1.7905281782150269, -6.718038082122803, -0.28261467814445496, -13.084610939025879, -0.857666015625, 0.29443359375, 0.08642578125, 
97, 3434130520, 0.5481325387954712, -0.625872015953064, -0.18532949686050415, -0.5229780673980713, 8.127120971679688, -6.4700164794921875, 1.7518059015274048, -5.525400638580322, -0.25381147861480713, -9.143540382385254, -0.856201171875, 0.29248046875, 0.0859375, 
98, 3434138853, 0.5477407574653625, -0.6259577870368958, -0.18538866937160492, -0.5232645869255066, 8.179856300354004, -6.420241355895996, 1.7074267864227295, -4.788530349731445, -0.27686432003974915, -5.332602500915527, -0.859130859375, 0.290283203125, 0.0859375, 
99, 3434147186, 0.5475080013275146, -0.6260737180709839, -0.1852813959121704, -0.5234075784683228, 8.230571746826172, -6.382223606109619, 1.6708372831344604, -4.50070333480835, -0.07179670035839081, -1.67348051071167, -0.857177734375, 0.292236328125, 0.08544921875, 
100, 3434155519, 0.5474023818969727, -0.6262320876121521, -0.1850476711988449, -0.5234113335609436, 8.2498779296875, -6.305607795715332, 1.6397464275360107, -4.275067329406738, -0.29105454683303833, 1.5501351356506348, -0.857177734375, 0.291748046875, 0.0869140625, 
101, 3434163852, 0.5474355816841125, -0.6264283061027527, -0.18468841910362244, -0.5232685208320618, 8.226872444152832, -6.241369247436523, 1.624483346939087, -3.9035842418670654, -0.5369256138801575, 4.765592575073242, -0.855224609375, 0.29052734375, 0.0859375, 
102, 3434172185, 0.5475850105285645, -0.6266570687294006, -0.1842104196548462, -0.5230066180229187, 8.227816581726074, -6.2223219871521, 1.6226392984390259, -3.744288921356201, -0.5665356516838074, 7.6502156257629395, -0.857666015625, 0.290283203125, 0.08642578125, 
103, 3434180518, 0.5478131771087646, -0.6269294023513794, -0.1836034059524536, -0.5226548314094543, 8.233017921447754, -6.127330780029297, 1.6335196495056152, -4.0472798347473145, -0.5241954326629639, 10.06999397277832, -0.8544921875, 0.290283203125, 0.088623046875, 
104, 3434188851, 0.5481069087982178, -0.6272518038749695, -0.18288719654083252, -0.522210955619812, 8.256360054016113, -6.045117378234863, 1.621382474899292, -4.452087879180908, -0.6526252031326294, 12.339238166809082, -0.852294921875, 0.2939453125, 0.087158203125, 
105, 3434197184, 0.5484482049942017, -0.6276300549507141, -0.18204474449157715, -0.521692156791687, 8.198394775390625, -5.954548358917236, 1.6113594770431519, -5.141136169433594, -0.6665593385696411, 14.437708854675293, -0.855712890625, 0.294921875, 0.087646484375, 
106, 3434205517, 0.5488175749778748, -0.6280462145805359, -0.18108849227428436, -0.5211353898048401, 8.205403327941895, -5.88482666015625, 1.6061415672302246, -5.930849075317383, -0.30995795130729675, 16.036090850830078, -0.85693359375, 0.2978515625, 0.089599609375, 
107, 3434213850, 0.5491999387741089, -0.6285055875778198, -0.18000954389572144, -0.5205522179603577, 8.192120552062988, -5.832231044769287, 1.6033166646957397, -6.933454513549805, 0.0817350372672081, 17.462791442871094, -0.8544921875, 0.30029296875, 0.089111328125, 
108, 3434222183, 0.5495700836181641, -0.6290159821510315, -0.17880988121032715, -0.5199582576751709, 8.166062355041504, -5.732670783996582, 1.556185007095337, -8.218304634094238, 0.49365049600601196, 18.663957595825195, -0.85302734375, 0.300537109375, 0.088134765625, 
109, 3434230516, 0.5499314069747925, -0.6295576095581055, -0.17751218378543854, -0.5193648338317871, 8.12429141998291, -5.675991058349609, 1.4618515968322754, -9.276839256286621, 1.0052181482315063, 19.484512329101562, -0.8505859375, 0.305419921875, 0.087890625, 
110, 3434238849, 0.5502744317054749, -0.6301422119140625, -0.17613953351974487, -0.5187598466873169, 8.060388565063477, -5.619801998138428, 1.414029598236084, -10.260555267333984, 1.1302158832550049, 20.220232009887695, -0.8544921875, 0.306396484375, 0.09228515625, 
111, 3434247182, 0.550616979598999, -0.6307502388954163, -0.17472773790359497, -0.5181345343589783, 8.05775260925293, -5.592461585998535, 1.3884637355804443, -10.677963256835938, 1.072609305381775, 20.741863250732422, -0.8486328125, 0.30810546875, 0.088623046875, 
112, 3434255515, 0.5509452819824219, -0.6313775181770325, -0.17327773571014404, -0.5175078511238098, 7.983766078948975, -5.5943732261657715, 1.3408503532409668, -11.246933937072754, 1.2087491750717163, 21.042373657226562, -0.857666015625, 0.311279296875, 0.106201171875, 
113, 3434263848, 0.5512668490409851, -0.6320035457611084, -0.17181752622127533, -0.5168878436088562, 7.957942008972168, -5.547828674316406, 1.3229049444198608, -11.352849006652832, 1.3084909915924072, 21.01447868347168, -0.848876953125, 0.3125, 0.089599609375, 
114, 3434272181, 0.5515989661216736, -0.6326249837875366, -0.1703673154115677, -0.5162531137466431, 7.910326957702637, -5.520848751068115, 1.298089861869812, -11.114509582519531, 1.1684579849243164, 21.122650146484375, -0.846923828125, 0.316162109375, 0.091064453125, 
115, 3434280514, 0.5519485473632812, -0.6332292556762695, -0.16893747448921204, -0.5156083703041077, 7.913995742797852, -5.503095626831055, 1.294732689857483, -10.672587394714355, 1.0818818807601929, 21.085432052612305, -0.847412109375, 0.318115234375, 0.08984375, 
116, 3434288847, 0.5523253679275513, -0.6338091492652893, -0.1675376296043396, -0.5149481296539307, 7.962865829467773, -5.460673809051514, 1.242358684539795, -10.000775337219238, 0.9684874415397644, 21.09278106689453, -0.844970703125, 0.3203125, 0.08837890625, 
117, 3434297180, 0.5527299046516418, -0.6343526244163513, -0.16618801653385162, -0.5142820477485657, 7.940564155578613, -5.431882858276367, 1.2300033569335938, -9.111960411071777, 0.8449755907058716, 20.798625946044922, -0.84765625, 0.325439453125, 0.09228515625, 
118, 3434305513, 0.5531610250473022, -0.6348705887794495, -0.1649007350206375, -0.5135931372642517, 7.945347785949707, -5.403300762176514, 1.1764445304870605, -8.23252010345459, 0.4509771764278412, 20.561847686767578, -0.84423828125, 0.32861328125, 0.089599609375, 
119, 3434313846, 0.5536221861839294, -0.6353559494018555, -0.1636851578950882, -0.5128844380378723, 7.947831153869629, -5.370895862579346, 1.1410255432128906, -7.132927894592285, -0.00691584637388587, 20.220617294311523, -0.8427734375, 0.329345703125, 0.090576171875, 
120, 3434322179, 0.5541117787361145, -0.6358084082603455, -0.16255071759223938, -0.5121554136276245, 7.996170520782471, -5.367321491241455, 1.1413547992706299, -6.06381368637085, -0.45944270491600037, 19.79257583618164, -0.84423828125, 0.3310546875, 0.097900390625, 
121, 3434330512, 0.5546302199363708, -0.6362296342849731, -0.16149742901325226, -0.5114037394523621, 8.009926795959473, -5.350971221923828, 1.138681411743164, -4.903796195983887, -1.0383245944976807, 19.389074325561523, -0.83837890625, 0.332275390625, 0.09130859375, 
122, 3434338845, 0.5551658868789673, -0.6366149187088013, -0.16052907705307007, -0.510647177696228, 8.036075592041016, -5.299344062805176, 1.135678768157959, -3.864215850830078, -1.4243568181991577, 18.73237419128418, -0.843017578125, 0.336669921875, 0.0908203125, 
123, 3434347178, 0.5557096004486084, -0.6369829773902893, -0.1596366912126541, -0.5098760724067688, 8.025347709655762, -5.266103744506836, 1.1552280187606812, -3.10221791267395, -2.0055696964263916, 18.189300537109375, -0.840087890625, 0.33740234375, 0.09228515625, 
124, 3434355511, 0.5562493801116943, -0.6373425722122192, -0.15881513059139252, -0.5090942978858948, 8.034839630126953, -5.251531600952148, 1.1534454822540283, -2.548617124557495, -2.574666738510132, 17.61239242553711, -0.838134765625, 0.3408203125, 0.0908203125, 
125, 3434363844, 0.5567808151245117, -0.637688934803009, -0.15805840492248535, -0.5083145499229431, 8.093957901000977, -5.1944050788879395, 1.1625627279281616, -2.075317144393921, -2.9944839477539062, 16.93269157409668, -0.83935546875, 0.341796875, 0.09228515625, 
126, 3434372177, 0.5573011636734009, -0.6380264759063721, -0.15736901760101318, -0.5075337886810303, 8.090516090393066, -5.206001281738281, 1.159665584564209, -1.6011714935302734, -3.4818456172943115, 16.266845703125, -0.8359375, 0.346435546875, 0.091064453125, 
127, 3434380510, 0.5578047037124634, -0.6383455991744995, -0.15674354135990143, -0.5067722797393799, 8.076494216918945, -5.166909217834473, 1.1549789905548096, -1.2328389883041382, -3.709582567214966, 15.387768745422363, -0.83740234375, 0.347900390625, 0.095458984375, 
128, 3434388843, 0.558282196521759, -0.6386591196060181, -0.1561734527349472, -0.5060269236564636, 8.067222595214844, -5.143320560455322, 1.1536091566085815, -0.8334105014801025, -4.147099018096924, 14.632966995239258, -0.83544921875, 0.348388671875, 0.092529296875, 
129, 3434397176, 0.5587443113327026, -0.6389653086662292, -0.1556754857301712, -0.5052832961082458, 8.068954467773438, -5.1166300773620605, 1.1496044397354126, -0.6506528258323669, -4.529160499572754, 13.814180374145508, -0.8369140625, 0.350341796875, 0.093994140625, 
130, 3434405509, 0.5591758489608765, -0.6392651200294495, -0.15522360801696777, -0.5045650601387024, 8.050573348999023, -5.119258880615234, 1.1561305522918701, -0.5230684876441956, -4.713277339935303, 13.012483596801758, -0.839599609375, 0.353515625, 0.107421875, 
131, 3434413842, 0.5595887899398804, -0.6395533680915833, -0.1548326313495636, -0.5038615465164185, 8.039013862609863, -5.1011810302734375, 1.1908389329910278, -0.28710994124412537, -4.981046676635742, 12.186010360717773, -0.833251953125, 0.353515625, 0.09716796875, 
132, 3434422175, 0.5599750876426697, -0.6398337483406067, -0.1544969528913498, -0.5031791925430298, 8.05173397064209, -5.085722923278809, 1.2280205488204956, -0.10430118441581726, -5.214162826538086, 11.352141380310059, -0.835205078125, 0.353759765625, 0.10205078125, 
133, 3434430508, 0.5603289604187012, -0.6401103734970093, -0.1542135775089264, -0.5025199055671692, 8.083580017089844, -5.052893161773682, 1.2339632511138916, -0.06541876494884491, -5.463235378265381, 10.466118812561035, -0.831298828125, 0.3544921875, 0.095703125, 
134, 3434438841, 0.5606456995010376, -0.6403730511665344, -0.15397177636623383, -0.5019055008888245, 8.105506896972656, -5.070706367492676, 1.2218759059906006, -0.03853662312030792, -5.386763572692871, 9.491125106811523, -0.832275390625, 0.357421875, 0.09619140625, 
135, 3434447174, 0.5609419345855713, -0.6406101584434509, -0.15378202497959137, -0.501329779624939, 8.133302688598633, -5.0720391273498535, 1.2505228519439697, 0.2020835280418396, -5.300276756286621, 8.5160551071167, -0.831787109375, 0.35888671875, 0.097412109375, 
136, 3434455507, 0.5611961483955383, -0.6408344507217407, -0.153641477227211, -0.5008014440536499, 8.161548614501953, -5.068430423736572, 1.2641948461532593, 0.16696640849113464, -5.238956928253174, 7.416435718536377, -0.834228515625, 0.35986328125, 0.099853515625, 
137, 3434463840, 0.5614144802093506, -0.6410421133041382, -0.15354369580745697, -0.5003209710121155, 8.162384986877441, -5.060806751251221, 1.258884310722351, 0.17272959649562836, -5.131863117218018, 6.370349884033203, -0.829833984375, 0.360107421875, 0.098388671875, 
138, 3434472173, 0.5615929365158081, -0.6412368416786194, -0.15348994731903076, -0.4998874068260193, 8.178691864013672, -5.059568881988525, 1.2686728239059448, 0.1453479826450348, -5.043315410614014, 5.344141483306885, -0.828857421875, 0.361572265625, 0.097900390625, 
139, 3434480506, 0.5617357492446899, -0.6414104700088501, -0.1534833014011383, -0.49950602650642395, 8.167045593261719, -5.066844463348389, 1.2807157039642334, 0.18925078213214874, -4.88732385635376, 4.21112060546875, -0.829833984375, 0.359619140625, 0.097412109375, 
140, 3434488839, 0.5618406534194946, -0.6415658593177795, -0.15352661907672882, -0.49917495250701904, 8.149676322937012, -5.046842098236084, 1.3267337083816528, 0.2317960262298584, -4.7630696296691895, 3.10668683052063, -0.830322265625, 0.36083984375, 0.103271484375, 
141, 3434497172, 0.5619164705276489, -0.6417062878608704, -0.15360639989376068, -0.4988846182823181, 8.116649627685547, -5.052053928375244, 1.3282911777496338, 0.25666743516921997, -4.664121627807617, 2.2157206535339355, -0.827392578125, 0.363525390625, 0.10009765625, 
142, 3434505505, 0.5619685649871826, -0.6418328285217285, -0.15373317897319794, -0.49862414598464966, 8.104318618774414, -5.067674160003662, 1.332217812538147, 0.342526376247406, -4.650162220001221, 1.3938370943069458, -0.831787109375, 0.36328125, 0.1083984375, 
143, 3434513838, 0.5619928240776062, -0.6419538855552673, -0.15389299392700195, -0.49839159846305847, 8.078064918518066, -5.062857151031494, 1.33311128616333, 0.37833505868911743, -4.748546600341797, 0.6670843362808228, -0.829345703125, 0.36376953125, 0.10888671875, 
144, 3434522171, 0.5620031356811523, -0.6420547962188721, -0.15409815311431885, -0.4981864392757416, 8.074324607849121, -5.073015213012695, 1.3637897968292236, 0.6355788111686707, -4.711328983306885, -0.05650500953197479, -0.829345703125, 0.363037109375, 0.099365234375, 
145, 3434530504, 0.5619985461235046, -0.6421398520469666, -0.15433113276958466, -0.49800974130630493, 8.085356712341309, -5.082186222076416, 1.4112706184387207, 0.7854733467102051, -4.636535167694092, -0.6830804347991943, -0.830322265625, 0.363525390625, 0.1015625, 
146, 3434538837, 0.5619770288467407, -0.6422086358070374, -0.15460757911205292, -0.4978598356246948, 8.091676712036133, -5.098755836486816, 1.3802076578140259, 0.887161910533905, -4.562304973602295, -1.4094233512878418, -0.828857421875, 0.36376953125, 0.10498046875, 
147, 3434547170, 0.5619509220123291, -0.6422522068023682, -0.1549113541841507, -0.49773842096328735, 8.11440658569336, -5.10678243637085, 1.3988591432571411, 1.2822357416152954, -4.4571332931518555, -1.9706566333770752, -0.827392578125, 0.364013671875, 0.10205078125, 
148, 3434555503, 0.5619120597839355, -0.6422677636146545, -0.15525886416435242, -0.4976540505886078, 8.096220970153809, -5.126131534576416, 1.3785887956619263, 1.6009538173675537, -4.282008647918701, -2.7559890747070312, -0.836181640625, 0.363037109375, 0.12548828125, 
149, 3434563836, 0.5618685483932495, -0.6422586441040039, -0.15564218163490295, -0.4975953698158264, 8.110638618469238, -5.131833076477051, 1.375188946723938, 1.9454654455184937, -4.195944786071777, -3.3898394107818604, -0.832275390625, 0.3623046875, 0.10888671875, 
150, 3434572169, 0.561829686164856, -0.6422064900398254, -0.15607716143131256, -0.49757030606269836, 8.124068260192871, -5.153592586517334, 1.3492131233215332, 2.586230993270874, -3.966057062149048, -4.1301164627075195, -0.829345703125, 0.36083984375, 0.101806640625, 
151, 3434580502, 0.5617914199829102, -0.6421309113502502, -0.15655016899108887, -0.4975622296333313, 8.132088661193848, -5.171355724334717, 1.350979208946228, 3.0115039348602295, -3.973126173019409, -4.681564807891846, -0.829833984375, 0.362548828125, 0.101806640625, 
152, 3434588835, 0.5617443323135376, -0.6420203447341919, -0.15707480907440186, -0.4975930452346802, 8.16470718383789, -5.197701930999756, 1.3904377222061157, 3.5983011722564697, -3.8824784755706787, -5.50993013381958, -0.828857421875, 0.36083984375, 0.10400390625, 
153, 3434597168, 0.5617107152938843, -0.641869068145752, -0.1576472371816635, -0.4976450204849243, 8.18867015838623, -5.200308799743652, 1.3887865543365479, 4.187248229980469, -3.682558536529541, -6.154075622558594, -0.836181640625, 0.363037109375, 0.11279296875, 
154, 3434605501, 0.5616668462753296, -0.6416935920715332, -0.15824846923351288, -0.4977303147315979, 8.191935539245605, -5.203300476074219, 1.4107921123504639, 4.61610746383667, -3.5965206623077393, -6.712338447570801, -0.834716796875, 0.362548828125, 0.11181640625, 
155, 3434613834, 0.5616288781166077, -0.6414896249771118, -0.1588924527168274, -0.4978306293487549, 8.214707374572754, -5.217672348022461, 1.4406911134719849, 4.9403076171875, -3.4602272510528564, -7.301313400268555, -0.830810546875, 0.361328125, 0.105224609375, 
156, 3434622167, 0.5615695714950562, -0.6412709951400757, -0.15954351425170898, -0.49797093868255615, 8.227319717407227, -5.207058906555176, 1.4381569623947144, 4.862644672393799, -3.117790460586548, -7.801480770111084, -0.830322265625, 0.359375, 0.107177734375, 
157, 3434630500, 0.5614878535270691, -0.6410483121871948, -0.16019263863563538, -0.498141348361969, 8.183951377868652, -5.201672077178955, 1.4143708944320679, 4.580452919006348, -2.8475091457366943, -8.229034423828125, -0.831298828125, 0.359375, 0.104248046875, 
158, 3434638833, 0.5613696575164795, -0.6408292651176453, -0.1608310490846634, -0.4983506202697754, 8.196130752563477, -5.198383808135986, 1.4079645872116089, 4.076735973358154, -2.5170981884002686, -8.628782272338867, -0.831787109375, 0.357177734375, 0.105712890625, 
159, 3434647166, 0.5612235069274902, -0.6406189799308777, -0.1614457070827484, -0.49858665466308594, 8.17859935760498, -5.182186126708984, 1.3914791345596313, 3.5366086959838867, -2.230064630508423, -8.846810340881348, -0.83056640625, 0.355712890625, 0.105224609375, 
160, 3434655499, 0.5610445737838745, -0.6404180526733398, -0.1620335876941681, -0.4988554120063782, 8.155506134033203, -5.22500467300415, 1.386734127998352, 2.9634006023406982, -1.8916369676589966, -9.011191368103027, -0.83154296875, 0.355712890625, 0.103271484375, 
161, 3434663832, 0.5608276128768921, -0.6402377486228943, -0.1625944823026657, -0.49914824962615967, 8.134783744812012, -5.195096015930176, 1.3593515157699585, 2.1867003440856934, -1.6777069568634033, -9.229936599731445, -0.83154296875, 0.352783203125, 0.106201171875, 
162, 3434672165, 0.560580849647522, -0.640067994594574, -0.1631269007921219, -0.49946942925453186, 8.113462448120117, -5.196632385253906, 1.3579285144805908, 1.5216010808944702, -1.2993334531784058, -9.336313247680664, -0.83251953125, 0.350830078125, 0.10498046875, 
163, 3434680498, 0.5603001117706299, -0.6399207711219788, -0.16362382471561432, -0.49981027841567993, 8.109585762023926, -5.232136249542236, 1.3381731510162354, 0.8239716291427612, -1.1315090656280518, -9.401041030883789, -0.8330078125, 0.352294921875, 0.106201171875, 
164, 3434688831, 0.5600031018257141, -0.6397740840911865, -0.16410674154758453, -0.50017249584198, 8.099987983703613, -5.263010025024414, 1.3587865829467773, 0.5007455348968506, -0.8480361104011536, -9.507620811462402, -0.833984375, 0.3525390625, 0.106689453125, 
165, 3434697164, 0.5596904754638672, -0.6396344304084778, -0.16458553075790405, -0.5005437135696411, 8.116891860961914, -5.272054195404053, 1.3358855247497559, 0.2925017476081848, -0.8490607142448425, -9.67641830444336, -0.83837890625, 0.35107421875, 0.10888671875, 
166, 3434705497, 0.5593729615211487, -0.639483630657196, -0.1650674194097519, -0.5009323954582214, 8.126195907592773, -5.311049461364746, 1.3488775491714478, 0.35879138112068176, -0.6753961443901062, -9.840168952941895, -0.8447265625, 0.34765625, 0.12890625, 
167, 3434713830, 0.5590502619743347, -0.6393266916275024, -0.16556084156036377, -0.5013300180435181, 8.151962280273438, -5.321042060852051, 1.3068556785583496, 0.3774642050266266, -0.6342085003852844, -10.117598533630371, -0.83642578125, 0.34765625, 0.1044921875, 
168, 3434722163, 0.5587325692176819, -0.6391521096229553, -0.16606898605823517, -0.5017383694648743, 8.171187400817871, -5.331596374511719, 1.317044734954834, 0.6184941530227661, -0.5015780329704285, -10.286678314208984, -0.833251953125, 0.34619140625, 0.10595703125, 
169, 3434730496, 0.558407187461853, -0.6389660239219666, -0.1665876805782318, -0.5021655559539795, 8.154582977294922, -5.35115385055542, 1.2953670024871826, 0.6838105320930481, -0.3736861050128937, -10.65096378326416, -0.836181640625, 0.343994140625, 0.10791015625, 
170, 3434738829, 0.5580798983573914, -0.638767659664154, -0.16712342202663422, -0.5026034712791443, 8.148118019104004, -5.3570027351379395, 1.274405837059021, 0.8135978579521179, -0.2955626845359802, -10.879878044128418, -0.839599609375, 0.343017578125, 0.104248046875, 
171, 3434747162, 0.5577584505081177, -0.6385605335235596, -0.16766776144504547, -0.5030419826507568, 8.152650833129883, -5.341975212097168, 1.2558127641677856, 1.0307809114456177, -0.3164638876914978, -10.98584270477295, -0.836669921875, 0.342041015625, 0.106201171875, 
172, 3434755495, 0.5574278235435486, -0.6383607387542725, -0.16822291910648346, -0.503476619720459, 8.15272331237793, -5.343268871307373, 1.2699298858642578, 0.9853156208992004, -0.5027562379837036, -11.04406452178955, -0.837158203125, 0.342529296875, 0.104736328125, 
173, 3434763828, 0.5570946335792542, -0.6381597518920898, -0.1687719225883484, -0.5039162635803223, 8.123302459716797, -5.353145122528076, 1.2370446920394897, 0.9108806848526001, -0.412952721118927, -11.10172176361084, -0.838623046875, 0.340087890625, 0.106689453125, 
174, 3434772161, 0.5567532777786255, -0.6379764080047607, -0.16931694746017456, -0.5043426156044006, 8.117362976074219, -5.360287189483643, 1.2591196298599243, 0.7257409691810608, -0.6443004608154297, -10.928389549255371, -0.840087890625, 0.337890625, 0.105712890625, 
175, 3434780494, 0.5564060211181641, -0.637803852558136, -0.1698412299156189, -0.504767656326294, 8.147529602050781, -5.3731689453125, 1.2618855237960815, 0.4316895306110382, -0.580213725566864, -10.804367065429688, -0.841064453125, 0.33740234375, 0.105224609375, 
176, 3434788827, 0.5560606718063354, -0.6376425623893738, -0.17034056782722473, -0.5051836371421814, 8.125574111938477, -5.380673408508301, 1.2652511596679688, 0.2173496037721634, -0.5401274561882019, -10.42481517791748, -0.8408203125, 0.33447265625, 0.10693359375, 
177, 3434797160, 0.5557176470756531, -0.6374955177307129, -0.1708097904920578, -0.5055879950523376, 8.137727737426758, -5.388202667236328, 1.266481876373291, -0.059706781059503555, -0.5074435472488403, -10.074718475341797, -0.841064453125, 0.33544921875, 0.10498046875, 
178, 3434805493, 0.5553773641586304, -0.6373614072799683, -0.1712578684091568, -0.5059792995452881, 8.131665229797363, -5.398989677429199, 1.259706974029541, -0.21198339760303497, -0.5635131597518921, -9.683948516845703, -0.83984375, 0.33349609375, 0.10595703125, 
179, 3434813826, 0.5550476312637329, -0.637239396572113, -0.17166978120803833, -0.506355345249176, 8.139603614807129, -5.410238265991211, 1.2335705757141113, -0.465923011302948, -0.46010860800743103, -9.205296516418457, -0.84326171875, 0.332275390625, 0.11279296875, 
180, 3434822159, 0.5547233819961548, -0.637122631072998, -0.1720452904701233, -0.5067295432090759, 8.128142356872559, -5.40548849105835, 1.2148691415786743, -0.4527060091495514, -0.37804052233695984, -8.733916282653809, -0.841796875, 0.331787109375, 0.10595703125, 
181, 3434830492, 0.5544278621673584, -0.6370139122009277, -0.17240554094314575, -0.5070672631263733, 8.149354934692383, -5.4152398109436035, 1.1975641250610352, -0.5377964377403259, -0.4148481488227844, -8.189101219177246, -0.8408203125, 0.33056640625, 0.10400390625, 
182, 3434838825, 0.5541520714759827, -0.6369086503982544, -0.1727406531572342, -0.5073869228363037, 8.150118827819824, -5.419722557067871, 1.2283982038497925, -0.5033966302871704, -0.3613656759262085, -7.637577533721924, -0.84228515625, 0.328369140625, 0.107421875, 
183, 3434847158, 0.5538898706436157, -0.6368098855018616, -0.17303858697414398, -0.507695734500885, 8.126492500305176, -5.422108173370361, 1.225525140762329, -0.6874349117279053, -0.18475550413131714, -7.166684627532959, -0.84375, 0.328857421875, 0.10400390625, 
184, 3434855491, 0.5536379218101501, -0.6367217898368835, -0.17330555617809296, -0.5079896450042725, 8.14318561553955, -5.412229061126709, 1.2156850099563599, -0.7104107737541199, -0.21334096789360046, -6.617642402648926, -0.8505859375, 0.3271484375, 0.12353515625, 
185, 3434863824, 0.5534151196479797, -0.6366390585899353, -0.1735391914844513, -0.5082565546035767, 8.167513847351074, -5.446440696716309, 1.22861647605896, -0.8142509460449219, -0.07630480825901031, -5.974597454071045, -0.841796875, 0.327392578125, 0.1044921875, 
186, 3434872157, 0.5531982779502869, -0.636568009853363, -0.1737542301416397, -0.5085077881813049, 8.192112922668457, -5.427335262298584, 1.2216068506240845, -0.9523371458053589, -0.1286090761423111, -5.5777812004089355, -0.84326171875, 0.325439453125, 0.104736328125, 
187, 3434880490, 0.5529913902282715, -0.6365086436271667, -0.17392955720424652, -0.5087472200393677, 8.163010597229004, -5.448596477508545, 1.2265231609344482, -1.1935465335845947, -0.0018954535480588675, -5.085117340087891, -0.84326171875, 0.325439453125, 0.105224609375, 
188, 3434888823, 0.5527861714363098, -0.636471152305603, -0.17407087981700897, -0.5089684128761292, 8.2058687210083, -5.434915065765381, 1.211684226989746, -1.5312957763671875, -0.04902564734220505, -4.54260778427124, -0.843017578125, 0.3251953125, 0.10791015625, 
189, 3434897156, 0.5525992512702942, -0.6364406943321228, -0.1741829812526703, -0.5091712474822998, 8.20003890991211, -5.431606769561768, 1.2306013107299805, -1.594819188117981, 0.006057766731828451, -4.045358657836914, -0.844482421875, 0.32421875, 0.107177734375, 
190, 3434905489, 0.5524197816848755, -0.6364296078681946, -0.17426395416259766, -0.5093523263931274, 8.21245002746582, -5.448877334594727, 1.2100887298583984, -1.879508376121521, -0.03651309013366699, -3.4752752780914307, -0.8466796875, 0.32470703125, 0.110595703125, 
191, 3434913822, 0.5522498488426208, -0.6364341378211975, -0.17431162297725677, -0.5095146298408508, 8.20062255859375, -5.452767372131348, 1.2081366777420044, -2.065070867538452, -0.06260118633508682, -2.9715330600738525, -0.843994140625, 0.322265625, 0.105712890625, 
192, 3434922155, 0.5520943999290466, -0.6364501714706421, -0.1743347942829132, -0.5096551775932312, 8.204004287719727, -5.444754600524902, 1.2046195268630981, -2.1383020877838135, -0.11185736209154129, -2.4228250980377197, -0.84814453125, 0.32421875, 0.108642578125, 
193, 3434930488, 0.5519601106643677, -0.6364755630493164, -0.17433980107307434, -0.5097672939300537, 8.203367233276367, -5.466664791107178, 1.2055343389511108, -2.089634895324707, -0.24087625741958618, -1.9164059162139893, -0.843017578125, 0.3232421875, 0.108642578125, 
194, 3434938821, 0.5518516302108765, -0.636505663394928, -0.17431966960430145, -0.5098537802696228, 8.185291290283203, -5.469663143157959, 1.227567434310913, -1.9488846063613892, -0.2778119742870331, -1.2626537084579468, -0.846435546875, 0.3212890625, 0.104248046875, 
195, 3434947154, 0.5517700910568237, -0.6365378499031067, -0.1742980033159256, -0.5099092125892639, 8.208057403564453, -5.47003173828125, 1.2171701192855835, -1.7312407493591309, -0.4539867341518402, -0.8675286173820496, -0.844482421875, 0.3212890625, 0.110107421875, 
196, 3434955487, 0.5517095327377319, -0.6365821361541748, -0.17425833642482758, -0.5099326968193054, 8.228215217590332, -5.4727630615234375, 1.2180341482162476, -1.712951898574829, -0.6080306768417358, -0.26103463768959045, -0.845947265625, 0.32275390625, 0.105712890625, 
197, 3434963820, 0.5516775250434875, -0.6366338729858398, -0.17420214414596558, -0.5099220275878906, 8.231528282165527, -5.452315807342529, 1.2143844366073608, -1.5302456617355347, -0.7905065417289734, 0.3322294354438782, -0.847900390625, 0.321533203125, 0.111083984375, 
198, 3434972153, 0.5516690015792847, -0.6366867423057556, -0.1741209626197815, -0.5098931193351746, 8.210220336914062, -5.447647571563721, 1.195947527885437, -1.5157990455627441, -0.6714771389961243, 0.8789652585983276, -0.847900390625, 0.32275390625, 0.106201171875, 
199, 3434980486, 0.5516838431358337, -0.6367502212524414, -0.17402318120002747, -0.5098311901092529, 8.210782051086426, -5.435245037078857, 1.1993035078048706, -1.3773542642593384, -0.8923743963241577, 1.4412490129470825, -0.844970703125, 0.3212890625, 0.108642578125, 
200, 3434988819, 0.5517289638519287, -0.6368138194084167, -0.17392492294311523, -0.5097364187240601, 8.219701766967773, -5.41148567199707, 1.20622980594635, -1.1535882949829102, -1.0241082906723022, 1.9186725616455078, -0.845947265625, 0.3212890625, 0.107177734375, 
201, 3434997152, 0.5517838001251221, -0.6368908286094666, -0.17379295825958252, -0.509626030921936, 8.225091934204102, -5.398947715759277, 1.2319668531417847, -1.2550206184387207, -1.05753493309021, 2.4196102619171143, -0.847900390625, 0.32275390625, 0.106689453125, 
202, 3435005485, 0.5518550276756287, -0.6369767785072327, -0.17363771796226501, -0.5094943046569824, 8.210851669311523, -5.375290870666504, 1.2402613162994385, -1.188141942024231, -1.1410373449325562, 2.9662439823150635, -0.853271484375, 0.322021484375, 0.124267578125, 
203, 3435013818, 0.5519505739212036, -0.6370669007301331, -0.1734793484210968, -0.5093318819999695, 8.220319747924805, -5.348402500152588, 1.239262342453003, -1.058533787727356, -1.3081700801849365, 3.363238573074341, -0.843017578125, 0.3232421875, 0.107177734375, 
204, 3435022151, 0.5520572662353516, -0.6371646523475647, -0.17329542338848114, -0.5091567635536194, 8.208221435546875, -5.354269027709961, 1.2380825281143188, -1.1654988527297974, -1.24124014377594, 3.805929660797119, -0.845947265625, 0.32275390625, 0.106201171875, 
205, 3435030484, 0.5521829724311829, -0.6372676491737366, -0.1730981320142746, -0.5089585781097412, 8.192976951599121, -5.351295471191406, 1.2492846250534058, -1.0779751539230347, -1.3449267148971558, 4.217550277709961, -0.84619140625, 0.32666015625, 0.11328125, 
206, 3435038817, 0.5523163080215454, -0.6373710036277771, -0.17290274798870087, -0.5087505578994751, 8.184889793395996, -5.337308406829834, 1.238481879234314, -0.8797978162765503, -1.479503870010376, 4.370031833648682, -0.84765625, 0.32421875, 0.109130859375, 
207, 3435047150, 0.5524687170982361, -0.6374697685241699, -0.1727055311203003, -0.5085283517837524, 8.222293853759766, -5.331211090087891, 1.2283626794815063, -0.7531096935272217, -1.4617788791656494, 4.577763557434082, -0.845703125, 0.32666015625, 0.108154296875, 
208, 3435055483, 0.5526297688484192, -0.6375689506530762, -0.1724996715784073, -0.5082988142967224, 8.23757553100586, -5.291483402252197, 1.2342519760131836, -0.6293930411338806, -1.4938479661941528, 4.808521747589111, -0.84521484375, 0.32568359375, 0.111328125, 
209, 3435063816, 0.5528064966201782, -0.637673020362854, -0.17228440940380096, -0.5080491900444031, 8.245518684387207, -5.281383037567139, 1.2237733602523804, -0.641841471195221, -1.5437955856323242, 5.125011444091797, -0.84326171875, 0.328369140625, 0.10791015625, 
210, 3435072149, 0.5529817938804626, -0.6377823948860168, -0.17207461595535278, -0.5077919960021973, 8.255011558532715, -5.275859832763672, 1.2448762655258179, -0.6396130919456482, -1.6835724115371704, 5.1608195304870605, -0.84228515625, 0.326904296875, 0.1064453125, 
211, 3435080482, 0.5531643629074097, -0.6378897428512573, -0.17184396088123322, -0.5075365900993347, 8.251025199890137, -5.244634628295898, 1.2444363832473755, -0.7094119787216187, -1.4869575500488281, 5.354438304901123, -0.84326171875, 0.327880859375, 0.10595703125, 
212, 3435088815, 0.5533356070518494, -0.6380043625831604, -0.17160211503505707, -0.5072874426841736, 8.26012134552002, -5.2331156730651855, 1.2853745222091675, -0.9366998672485352, -1.4274941682815552, 5.3688459396362305, -0.84619140625, 0.3291015625, 0.111328125, 
213, 3435097148, 0.5535147190093994, -0.6381168961524963, -0.17134448885917664, -0.5070376396179199, 8.251164436340332, -5.24257755279541, 1.2532912492752075, -0.9805769920349121, -1.2769849300384521, 5.535184860229492, -0.84228515625, 0.328857421875, 0.10791015625, 
214, 3435105481, 0.5536812543869019, -0.6382402181625366, -0.17107859253883362, -0.506790280342102, 8.250893592834473, -5.215917110443115, 1.2495396137237549, -1.238089680671692, -1.2855273485183716, 5.5482869148254395, -0.8427734375, 0.330810546875, 0.107421875, 
215, 3435113814, 0.553843080997467, -0.6383719444274902, -0.17080025374889374, -0.50654137134552, 8.200002670288086, -5.1920294761657715, 1.2427488565444946, -1.4250608682632446, -1.286846399307251, 5.636515140533447, -0.84228515625, 0.330810546875, 0.10693359375, 
216, 3435122147, 0.5540010929107666, -0.6385047435760498, -0.17052116990089417, -0.5062951445579529, 8.215654373168945, -5.2074432373046875, 1.2615054845809937, -1.5208580493927002, -1.2350801229476929, 5.611746311187744, -0.8427734375, 0.330810546875, 0.10791015625, 
217, 3435130480, 0.5541618466377258, -0.6386323571205139, -0.17024585604667664, -0.5060506463050842, 8.186210632324219, -5.173492908477783, 1.2835713624954224, -1.391851782798767, -1.2447493076324463, 5.558122634887695, -0.8408203125, 0.33154296875, 0.10693359375, 
218, 3435138813, 0.5543193817138672, -0.6387602090835571, -0.16998125612735748, -0.505806028842926, 8.183631896972656, -5.194918632507324, 1.2929242849349976, -1.3150861263275146, -1.3463354110717773, 5.471187591552734, -0.845947265625, 0.333984375, 0.1142578125, 
219, 3435147146, 0.5544868111610413, -0.63888019323349, -0.16972646117210388, -0.5055564045906067, 8.203998565673828, -5.193966388702393, 1.2874220609664917, -1.1226208209991455, -1.3784300088882446, 5.445701599121094, -0.8408203125, 0.333740234375, 0.109130859375, 
220, 3435155479, 0.5546571612358093, -0.638979971408844, -0.16948628425598145, -0.5053239464759827, 8.225226402282715, -5.183237552642822, 1.2640522718429565, -0.8471139669418335, -1.202229619026184, 5.1865105628967285, -0.8515625, 0.33251953125, 0.12646484375, 
221, 3435163812, 0.5548341274261475, -0.6390689611434937, -0.16926240921020508, -0.5050921440124512, 8.207267761230469, -5.172459125518799, 1.2629520893096924, -0.6279073357582092, -1.2193399667739868, 5.033081531524658, -0.844970703125, 0.33544921875, 0.115478515625, 
222, 3435172145, 0.5550135374069214, -0.6391366720199585, -0.16906999051570892, -0.5048736929893494, 8.20644474029541, -5.163598537445068, 1.260671615600586, -0.25437498092651367, -1.1790488958358765, 4.645052433013916, -0.8408203125, 0.3359375, 0.110595703125, 
223, 3435180478, 0.5551897883415222, -0.6391907334327698, -0.16889505088329315, -0.5046700239181519, 8.196006774902344, -5.154835224151611, 1.2497007846832275, -0.09454214572906494, -1.1032050848007202, 4.298901557922363, -0.843017578125, 0.336669921875, 0.110107421875, 
224, 3435188811, 0.5553606748580933, -0.6392297148704529, -0.1687481701374054, -0.5044819116592407, 8.216458320617676, -5.157930374145508, 1.2800763845443726, 0.13085031509399414, -1.0807925462722778, 3.888765573501587, -0.842041015625, 0.337158203125, 0.117431640625, 
225, 3435197144, 0.5555275678634644, -0.6392579674720764, -0.16863267123699188, -0.5043008327484131, 8.206830978393555, -5.145124912261963, 1.2959729433059692, 0.3809989094734192, -1.2010002136230469, 3.47924542427063, -0.840087890625, 0.337890625, 0.109130859375, 
226, 3435205477, 0.555675745010376, -0.6392828226089478, -0.16852709650993347, -0.5041412115097046, 8.192072868347168, -5.145493030548096, 1.2811970710754395, 0.2670412063598633, -1.103973627090454, 3.118673801422119, -0.83740234375, 0.337890625, 0.110107421875, 
227, 3435213810, 0.5558030605316162, -0.6393024921417236, -0.16844545304775238, -0.5040031671524048, 8.2167387008667, -5.14185905456543, 1.2751082181930542, 0.2335890233516693, -1.1146291494369507, 2.560206890106201, -0.840576171875, 0.33740234375, 0.105712890625, 
228, 3435222143, 0.5559213161468506, -0.6393049359321594, -0.16838237643241882, -0.5038907527923584, 8.20620059967041, -5.148422718048096, 1.2660151720046997, 0.4187030792236328, -0.96442711353302, 2.133678674697876, -0.839599609375, 0.33740234375, 0.110107421875, 
229, 3435230476, 0.5560329556465149, -0.6392995715141296, -0.16835354268550873, -0.5037842392921448, 8.190165519714355, -5.138647079467773, 1.2759264707565308, 0.5809691548347473, -1.1026159524917603, 1.6878114938735962, -0.842529296875, 0.33935546875, 0.108642578125, 
230, 3435238809, 0.5561408400535583, -0.6392802596092224, -0.1683478057384491, -0.5036913752555847, 8.155393600463867, -5.148988723754883, 1.2774473428726196, 0.7934393286705017, -1.0720325708389282, 1.3509587049484253, -0.838134765625, 0.33837890625, 0.107666015625, 
231, 3435247142, 0.5562208890914917, -0.6392642259597778, -0.16836389899253845, -0.503618061542511, 8.144190788269043, -5.1600751876831055, 1.288141131401062, 0.6196211576461792, -1.1543567180633545, 0.795590877532959, -0.836669921875, 0.338623046875, 0.106689453125, 
232, 3435255475, 0.5562892556190491, -0.639249324798584, -0.1683688908815384, -0.5035597085952759, 8.179912567138672, -5.225831508636475, 1.3348280191421509, 0.4472886025905609, -0.9984429478645325, 0.7362684011459351, -0.840087890625, 0.337890625, 0.109130859375, 
233, 3435263808, 0.5563428997993469, -0.6392491459846497, -0.16833974421024323, -0.5035104155540466, 8.18107795715332, -5.369117259979248, 1.3497203588485718, -0.10299483686685562, -0.7677866816520691, 0.8625721335411072, -0.838623046875, 0.3388671875, 0.110595703125, 
234, 3435272141, 0.5563757419586182, -0.6392641067504883, -0.16825926303863525, -0.5034819841384888, 8.154569625854492, -5.395804405212402, 1.3549559116363525, -0.6539314985275269, -0.43792659044265747, 1.098530650138855, -0.843505859375, 0.338623046875, 0.114990234375, 
235, 3435280474, 0.556352972984314, -0.6393551230430603, -0.16809305548667908, -0.5034469962120056, 8.166840553283691, -5.321500301361084, 1.3603788614273071, -2.455918550491333, -0.4013494849205017, 1.6400153636932373, -0.840087890625, 0.33935546875, 0.111572265625, 
236, 3435288807, 0.5562281012535095, -0.6395639777183533, -0.1677701324224472, -0.5034276843070984, 8.226372718811035, -5.266625881195068, 1.3190219402313232, -5.441821098327637, -0.0686461478471756, 2.4815196990966797, -0.838134765625, 0.3388671875, 0.109619140625, 
237, 3435297140, 0.5560727119445801, -0.6398504972457886, -0.167321115732193, -0.5033847093582153, 8.288003921508789, -5.5013837814331055, 1.155206561088562, -7.054648399353027, 0.029853396117687225, 3.722299814224243, -0.840087890625, 0.33935546875, 0.109619140625, 
238, 3435305473, 0.5560582876205444, -0.6400934457778931, -0.16693423688411713, -0.5032200813293457, 8.192138671875, -6.088430404663086, 1.1368218660354614, -4.762557029724121, -0.8899153470993042, 5.010643482208252, -0.850341796875, 0.33935546875, 0.134521484375, 
239, 3435313806, 0.5562975406646729, -0.6402245759963989, -0.16664913296699524, -0.5028831958770752, 8.186792373657227, -6.468410968780518, 1.2052366733551025, -0.5854646563529968, -1.8265511989593506, 6.900590419769287, -0.838134765625, 0.34033203125, 0.111083984375, 
240, 3435322139, 0.5568166971206665, -0.6401903629302979, -0.1664862185716629, -0.5024057626724243, 8.194573402404785, -6.652536869049072, 1.4243896007537842, 4.316164970397949, -2.209074020385742, 8.48060417175293, -0.837158203125, 0.34130859375, 0.11181640625, 
241, 3435330472, 0.5576415061950684, -0.6399527192115784, -0.16646991670131683, -0.5017988681793213, 8.142380714416504, -6.929971694946289, 1.7514450550079346, 9.86774730682373, -2.370803117752075, 9.8035306930542, -0.8388671875, 0.345458984375, 0.109375, 
242, 3435338805, 0.5587587952613831, -0.6395172476768494, -0.16656595468521118, -0.501078724861145, 8.028217315673828, -7.408697128295898, 2.0588583946228027, 14.988546371459961, -2.184971809387207, 11.262877464294434, -0.83837890625, 0.345947265625, 0.109375, 
243, 3435347138, 0.5601587295532227, -0.6389339566230774, -0.1666535586118698, -0.5002298355102539, 7.954780101776123, -7.9135050773620605, 2.4818384647369385, 18.852201461791992, -1.5958443880081177, 13.921894073486328, -0.83935546875, 0.346923828125, 0.109375, 
244, 3435355471, 0.5617995858192444, -0.6382479071617126, -0.16654378175735474, -0.4993014335632324, 7.911130905151367, -8.250932693481445, 2.985212802886963, 20.552898406982422, 0.5046519637107849, 17.689329147338867, -0.8359375, 0.3486328125, 0.107421875, 
245, 3435363804, 0.5636090636253357, -0.6375768780708313, -0.16593220829963684, -0.4983222186565399, 7.934360504150391, -8.516664505004883, 3.3958382606506348, 18.622188568115234, 4.199110507965088, 23.679183959960938, -0.8359375, 0.3515625, 0.107421875, 
246, 3435372137, 0.5654550790786743, -0.6370983719825745, -0.1645076721906662, -0.4973142445087433, 7.987014293670654, -8.770483016967773, 3.4870097637176514, 11.941536903381348, 8.997945785522461, 31.70990562438965, -0.833984375, 0.354248046875, 0.105712890625, 
247, 3435380470, 0.5671716928482056, -0.6369819641113281, -0.16204220056533813, -0.4963167905807495, 7.990310192108154, -8.785592079162598, 3.3177995681762695, 0.8505733013153076, 14.428624153137207, 40.69055938720703, -0.833740234375, 0.360107421875, 0.109130859375, 
248, 3435388803, 0.5688951015472412, -0.6371791362762451, -0.15853513777256012, -0.49522262811660767, 7.978039264678955, -8.589295387268066, 2.8688113689422607, -8.466936111450195, 19.58207130432129, 51.282005310058594, -0.82861328125, 0.366943359375, 0.10205078125, 
249, 3435397136, 0.5708739757537842, -0.637611985206604, -0.15420489013195038, -0.4937535524368286, 7.8598856925964355, -8.831451416015625, 2.4513344764709473, -12.821897506713867, 21.68639373779297, 63.71393966674805, -0.82958984375, 0.372314453125, 0.10400390625, 
250, 3435405469, 0.5732132196426392, -0.6381656527519226, -0.14919178187847137, -0.49186453223228455, 7.853188514709473, -9.444737434387207, 2.4466304779052734, -14.33165454864502, 23.25838279724121, 75.66545104980469, -0.824462890625, 0.378662109375, 0.094970703125, 
251, 3435413802, 0.5758790969848633, -0.638864278793335, -0.14342902600765228, -0.4895523190498352, 7.962161064147949, -10.226737022399902, 2.6602938175201416, -16.835954666137695, 25.193239212036133, 88.12281799316406, -0.8203125, 0.388916015625, 0.0947265625, 
252, 3435422135, 0.5788936614990234, -0.6396659016609192, -0.1367965042591095, -0.48684099316596985, 8.077411651611328, -10.813965797424316, 3.038588285446167, -19.757997512817383, 28.60978889465332, 101.39781188964844, -0.816650390625, 0.399658203125, 0.093017578125, 
253, 3435430468, 0.5821311473846436, -0.6405580639839172, -0.12921534478664398, -0.48386988043785095, 8.205474853515625, -11.056376457214355, 3.4032657146453857, -24.27689552307129, 33.64994430541992, 113.55018615722656, -0.810546875, 0.411865234375, 0.087646484375, 
254, 3435438801, 0.5855956077575684, -0.6414759159088135, -0.12077727913856506, -0.48064225912094116, 8.264704704284668, -11.229330062866211, 3.73325252532959, -28.245187759399414, 38.856422424316406, 124.53254699707031, -0.803466796875, 0.42431640625, 0.08544921875, 
255, 3435447134, 0.5891978144645691, -0.6424287557601929, -0.11147578060626984, -0.4772023856639862, 8.229301452636719, -11.459417343139648, 3.932184934616089, -32.15076446533203, 43.56105422973633, 135.00160217285156, -0.798095703125, 0.44140625, 0.0830078125, 
256, 3435455467, 0.5929489731788635, -0.6434006094932556, -0.10137622058391571, -0.47348490357398987, 8.225119590759277, -11.599234580993652, 3.9025163650512695, -36.349822998046875, 48.107261657714844, 145.10195922851562, -0.798583984375, 0.45556640625, 0.10009765625, 
257, 3435463800, 0.5968068838119507, -0.6443436145782471, -0.090612031519413, -0.4695211946964264, 8.187278747558594, -11.851356506347656, 3.6117844581604004, -38.60777282714844, 51.2544059753418, 153.8534393310547, -0.78076171875, 0.471435546875, 0.073974609375, 
258, 3435472133, 0.6009477972984314, -0.6451380252838135, -0.0794374942779541, -0.465151846408844, 8.110916137695312, -12.106555938720703, 3.252263069152832, -37.73173141479492, 52.96806716918945, 162.19287109375, -0.768798828125, 0.48974609375, 0.06982421875, 
259, 3435480466, 0.6055013537406921, -0.6456310749053955, -0.06799998879432678, -0.4603503942489624, 8.051078796386719, -12.12899112701416, 2.729950189590454, -32.084808349609375, 53.05741500854492, 170.67555236816406, -0.757080078125, 0.50634765625, 0.06689453125, 
260, 3435488799, 0.6106768846511841, -0.6456748247146606, -0.0564798042178154, -0.45497873425483704, 7.999032974243164, -12.311039924621582, 2.4777863025665283, -23.464832305908203, 52.749820709228516, 179.39059448242188, -0.749755859375, 0.526611328125, 0.068603515625, 
261, 3435497132, 0.6164004802703857, -0.6452726125717163, -0.044716157019138336, -0.4491012990474701, 8.05045223236084, -12.608710289001465, 2.3386805057525635, -15.328773498535156, 52.88096618652344, 189.1663818359375, -0.734375, 0.544677734375, 0.060302734375, 
262, 3435505465, 0.6227519512176514, -0.6443971395492554, -0.0326690599322319, -0.4425866901874542, 8.209260940551758, -12.775708198547363, 2.2428181171417236, -7.80946159362793, 53.72127151489258, 200.3440704345703, -0.71728515625, 0.56640625, 0.0546875, 
263, 3435513798, 0.6296402812004089, -0.6429978609085083, -0.020242854952812195, -0.4355630874633789, 8.330460548400879, -12.636638641357422, 2.4129748344421387, 0.06253977864980698, 55.104339599609375, 211.42315673828125, -0.701904296875, 0.583251953125, 0.046875, 
264, 3435522131, 0.6369990706443787, -0.6411200165748596, -0.007396981120109558, -0.42797261476516724, 8.340007781982422, -12.829317092895508, 2.77907133102417, 5.254402160644531, 57.69935607910156, 222.35049438476562, -0.683837890625, 0.607421875, 0.04150390625, 
265, 3435530464, 0.6445699334144592, -0.6388457417488098, 0.006106093525886536, -0.41998356580734253, 8.355874061584473, -13.442426681518555, 2.814314126968384, 7.52360725402832, 61.32210159301758, 233.22276306152344, -0.66357421875, 0.6318359375, 0.031494140625, 
266, 3435538797, 0.6524174809455872, -0.6361009478569031, 0.020237036049365997, -0.4115038216114044, 8.420309066772461, -14.206294059753418, 2.739611864089966, 10.458255767822266, 65.27023315429688, 244.72653198242188, -0.6435546875, 0.653076171875, 0.025146484375, 
267, 3435547130, 0.6605347990989685, -0.6329116821289062, 0.03493344783782959, -0.4023856222629547, 8.565825462341309, -15.02681827545166, 2.5382277965545654, 12.69411563873291, 68.41578674316406, 256.6107482910156, -0.618896484375, 0.677490234375, 0.019287109375, 
268, 3435555463, 0.6688741445541382, -0.6292734742164612, 0.050259433686733246, -0.3925733268260956, 8.81787395477295, -15.808649063110352, 2.316232919692993, 14.888849258422852, 70.6025390625, 269.8104248046875, -0.59375, 0.69970703125, 0.00732421875, 
269, 3435563796, 0.6773791313171387, -0.6251732110977173, 0.06628260761499405, -0.3820212483406067, 9.127246856689453, -16.300615310668945, 2.0325584411621094, 17.028854370117188, 71.64728546142578, 284.33709716796875, -0.56787109375, 0.72314453125, 0.00244140625, 
270, 3435572129, 0.6861146688461304, -0.6205639839172363, 0.0828152596950531, -0.37054872512817383, 9.467940330505371, -15.993125915527344, 1.9138933420181274, 19.601789474487305, 72.43659973144531, 298.4615173339844, -0.5361328125, 0.744384765625, -0.0087890625, 
271, 3435580462, 0.6951163411140442, -0.6152281761169434, 0.09984781593084335, -0.3582678735256195, 9.400412559509277, -15.557770729064941, 1.7066272497177124, 25.895862579345703, 72.16342163085938, 313.04974365234375, -0.508544921875, 0.767578125, -0.011474609375, 
272, 3435588795, 0.704384446144104, -0.6091015338897705, 0.11716137826442719, -0.34515029191970825, 8.933887481689453, -14.956398963928223, 1.6987444162368774, 32.68849182128906, 72.89613342285156, 325.3005065917969, -0.472412109375, 0.788818359375, -0.01416015625, 
273, 3435597128, 0.7137150764465332, -0.6021324396133423, 0.13477176427841187, -0.33151447772979736, 8.138152122497559, -14.160765647888184, 1.954012155532837, 39.6191291809082, 73.73357391357422, 334.99151611328125, -0.43505859375, 0.811279296875, -0.0283203125, 
274, 3435605461, 0.722967803478241, -0.5944921970367432, 0.15248890221118927, -0.3172720670700073, 7.153539657592773, -13.84468936920166, 2.5201244354248047, 43.60906219482422, 74.7509536743164, 342.1518859863281, -0.401123046875, 0.832275390625, -0.021484375, 
275, 3435613794, 0.7317892909049988, -0.586358368396759, 0.17049327492713928, -0.30268487334251404, 6.4189934730529785, -13.55960750579834, 2.683617353439331, 43.35565185546875, 76.0591812133789, 347.6495056152344, -0.347900390625, 0.848388671875, -0.05712890625, 
276, 3435622127, 0.7402645945549011, -0.57767653465271, 0.1885281354188919, -0.287703275680542, 5.685908794403076, -13.055343627929688, 2.717421054840088, 44.993709564208984, 76.81311798095703, 351.48382568359375, -0.30517578125, 0.864990234375, -0.065673828125, 
277, 3435630460, 0.7484160661697388, -0.5683315396308899, 0.20641237497329712, -0.272551953792572, 4.8103837966918945, -12.271775245666504, 2.834385871887207, 49.36244583129883, 76.85869598388672, 352.6795959472656, -0.26025390625, 0.880126953125, -0.07568359375, 
278, 3435638793, 0.7563039064407349, -0.558295488357544, 0.22390437126159668, -0.25728434324264526, 3.791698932647705, -11.650505065917969, 2.86214542388916, 55.580936431884766, 75.67879486083984, 351.6063232421875, -0.215087890625, 0.890380859375, -0.083740234375, 
279, 3435647126, 0.7639870047569275, -0.547452986240387, 0.2409515678882599, -0.24203160405158997, 2.9965434074401855, -10.748218536376953, 2.7440431118011475, 63.99089050292969, 74.2235336303711, 349.97296142578125, -0.170166015625, 0.89990234375, -0.09375, 
280, 3435655459, 0.7716367244720459, -0.5356082916259766, 0.25733333826065063, -0.2269316017627716, 2.4781947135925293, -9.857086181640625, 2.518420457839966, 77.078125, 72.34413146972656, 346.3760681152344, -0.125732421875, 0.9091796875, -0.10498046875, 
281, 3435663792, 0.7792022228240967, -0.5227786302566528, 0.2731330990791321, -0.2120438665151596, 2.2443270683288574, -9.444487571716309, 2.1707959175109863, 89.3908920288086, 70.58906555175781, 343.2519226074219, -0.07763671875, 0.91259765625, -0.1181640625, 
282, 3435672125, 0.7864198684692383, -0.5092864632606506, 0.28859439492225647, -0.1972365826368332, 2.2570719718933105, -9.063687324523926, 1.9058786630630493, 95.43743896484375, 71.34130859375, 341.2284851074219, -0.033447265625, 0.911865234375, -0.1318359375, 
283, 3435680458, 0.7929180860519409, -0.495614230632782, 0.30397719144821167, -0.18238188326358795, 2.311406373977661, -8.102250099182129, 1.8396276235580444, 92.21238708496094, 72.93989562988281, 340.15679931640625, 0.01318359375, 0.91259765625, -0.14111328125, 
284, 3435688791, 0.7986119985580444, -0.48202288150787354, 0.3191632926464081, -0.16740749776363373, 1.9954925775527954, -6.567595481872559, 1.8111025094985962, 85.84161376953125, 73.138427734375, 337.7634582519531, 0.060302734375, 0.909912109375, -0.156982421875, 
285, 3435697124, 0.8035973906517029, -0.46855199337005615, 0.3339327871799469, -0.1523059457540512, 1.109851360321045, -6.078921318054199, 2.1041338443756104, 80.55987548828125, 71.29202270507812, 333.9656982421875, 0.105224609375, 0.904052734375, -0.167724609375, 
286, 3435705457, 0.8076154589653015, -0.45554015040397644, 0.348500519990921, -0.13713307678699493, 0.609602689743042, -5.900411128997803, 2.4266273975372314, 68.89836883544922, 71.06683349609375, 329.7393798828125, 0.145751953125, 0.89990234375, -0.1669921875, 
287, 3435713790, 0.8110138773918152, -0.4426136612892151, 0.36256319284439087, -0.12212827801704407, 0.2906773090362549, -5.5242509841918945, 2.3442928791046143, 65.93805694580078, 69.59642028808594, 322.9783630371094, 0.194091796875, 0.889892578125, -0.183837890625, 
288, 3435722123, 0.8139601945877075, -0.4296487867832184, 0.3759550154209137, -0.10745401680469513, -0.0747910887002945, -6.099761486053467, 2.241912364959717, 66.14207458496094, 66.02334594726562, 314.8810729980469, 0.237548828125, 0.87939453125, -0.18896484375, 
289, 3435730456, 0.8166365623474121, -0.41648390889167786, 0.3885674476623535, -0.09316247701644897, -0.30793696641921997, -6.533345699310303, 1.9904927015304565, 70.16187286376953, 61.67182922363281, 306.38330078125, 0.27783203125, 0.865234375, -0.195068359375, 
290, 3435738789, 0.8191007971763611, -0.4030568301677704, 0.4004131257534027, -0.07941102981567383, -0.30953526496887207, -6.9076690673828125, 1.599436640739441, 75.7376708984375, 57.57368087768555, 297.15557861328125, 0.3154296875, 0.8515625, -0.201416015625, 
291, 3435747122, 0.8213762640953064, -0.3893544673919678, 0.4115488529205322, -0.06625284254550934, -0.39853817224502563, -6.018800258636475, 1.2048677206039429, 81.85783386230469, 54.25337600708008, 287.7438659667969, 0.353271484375, 0.83642578125, -0.209228515625, 
292, 3435755455, 0.8235129714012146, -0.37542077898979187, 0.42192569375038147, -0.05368398129940033, -1.0038704872131348, -5.174129962921143, 1.0857917070388794, 87.74431610107422, 49.80575942993164, 278.3204345703125, 0.379638671875, 0.820068359375, -0.195068359375, 
293, 3435763788, 0.8253679871559143, -0.3615764081478119, 0.43165379762649536, -0.04150949418544769, -1.44214928150177, -4.970119476318359, 0.9885675311088562, 88.05533599853516, 46.09052658081055, 269.6634521484375, 0.4267578125, 0.8037109375, -0.222900390625, 
294, 3435772121, 0.8268441557884216, -0.34800586104393005, 0.4408664405345917, -0.029585331678390503, -1.6818903684616089, -5.31852912902832, 1.082237720489502, 85.32551574707031, 43.98954391479492, 262.281494140625, 0.45556640625, 0.7822265625, -0.22998046875, 
295, 3435780454, 0.8278403878211975, -0.334881991147995, 0.44970375299453735, -0.01785174012184143, -1.8103153705596924, -4.865530967712402, 0.9914690256118774, 78.77423858642578, 42.948448181152344, 255.5486602783203, 0.487060546875, 0.764892578125, -0.237548828125, 
296, 3435788787, 0.8284869194030762, -0.32211634516716003, 0.45807039737701416, -0.006312310695648193, -2.352569580078125, -3.9787540435791016, 1.099773645401001, 74.59700775146484, 40.689388275146484, 248.9083251953125, 0.517333984375, 0.74658203125, -0.2431640625, 
297, 3435797120, 0.8288252949714661, -0.30974674224853516, 0.46593865752220154, 0.00496673583984375, -2.873976945877075, -3.9930062294006348, 1.108760118484497, 70.20748138427734, 37.94175720214844, 241.1715545654297, 0.54248046875, 0.723388671875, -0.24755859375, 
298, 3435805453, 0.8288415670394897, -0.2978636920452118, 0.47335201501846313, 0.015954986214637756, -3.024874210357666, -3.7255866527557373, 1.0847283601760864, 65.27023315429688, 36.167850494384766, 232.89967346191406, 0.57080078125, 0.703857421875, -0.250732421875, 
299, 3435813786, 0.8286017179489136, -0.28635352849960327, 0.48034197092056274, 0.02665048837661743, -3.2167458534240723, -3.205160617828369, 1.1174976825714111, 61.63433837890625, 34.21562194824219, 225.3794708251953, 0.595703125, 0.683349609375, -0.25537109375, 
300, 3435822119, 0.82818603515625, -0.2751569449901581, 0.4868762195110321, 0.03695552796125412, -3.5548295974731445, -2.852473020553589, 1.2647837400436401, 59.8321647644043, 31.845136642456055, 217.25987243652344, 0.617431640625, 0.662353515625, -0.2568359375, 
301, 3435830452, 0.8275989890098572, -0.2643063962459564, 0.49298515915870667, 0.04696083068847656, -3.9016425609588623, -2.881993055343628, 1.3745042085647583, 56.98348617553711, 29.450830459594727, 209.8733367919922, 0.640869140625, 0.641357421875, -0.259521484375, 
302, 3435838785, 0.8268066644668579, -0.2538904547691345, 0.4987257122993469, 0.05675017088651657, -4.086340427398682, -2.926182985305786, 1.5456335544586182, 52.56886672973633, 27.7206974029541, 203.3994903564453, 0.660888671875, 0.621826171875, -0.260009765625, 
303, 3435847118, 0.8256801962852478, -0.2441944181919098, 0.5041918158531189, 0.06655433028936386, -4.144143104553223, -2.5720160007476807, 1.5305821895599365, 42.847408294677734, 27.394392013549805, 197.79583740234375, 0.680419921875, 0.60205078125, -0.265380859375, 
304, 3435855451, 0.8242294788360596, -0.23522651195526123, 0.5094003081321716, 0.07644365727901459, -4.450970649719238, -1.5980191230773926, 1.5970330238342285, 32.72021484375, 27.105531692504883, 193.28634643554688, 0.699462890625, 0.581298828125, -0.263916015625, 
305, 3435863784, 0.8225552439689636, -0.22676867246627808, 0.514316976070404, 0.08645722270011902, -4.952975273132324, -1.142622470855713, 1.835171103477478, 24.98318099975586, 25.491201400756836, 190.27154541015625, 0.71630859375, 0.560791015625, -0.26318359375, 
306, 3435872117, 0.820637047290802, -0.21885791420936584, 0.5189820528030396, 0.09659888595342636, -5.176574230194092, -1.566904067993164, 2.087568998336792, 16.882417678833008, 24.62308120727539, 187.4965362548828, 0.7353515625, 0.539794921875, -0.263671875, 
307, 3435880450, 0.8185054063796997, -0.21122559905052185, 0.5234872698783875, 0.1068258285522461, -5.300149917602539, -2.7084715366363525, 2.135300397872925, 12.22326374053955, 24.45390510559082, 186.13340759277344, 0.75, 0.5224609375, -0.2568359375, 
308, 3435888783, 0.8162596821784973, -0.2036513388156891, 0.5278176069259644, 0.11692999303340912, -5.467176914215088, -2.900416612625122, 2.3576605319976807, 11.92021656036377, 23.7462100982666, 184.13592529296875, 0.763671875, 0.50048828125, -0.255859375, 
309, 3435897116, 0.8140320777893066, -0.19571290910243988, 0.5319855809211731, 0.12671704590320587, -5.792507648468018, -3.163412570953369, 2.664675712585449, 18.04396629333496, 22.097105026245117, 182.5936737060547, 0.777587890625, 0.48095703125, -0.25537109375, 
310, 3435905449, 0.8118749856948853, -0.18716482818126678, 0.5360643267631531, 0.13594558835029602, -5.782479286193848, -3.5783183574676514, 2.945021390914917, 29.0457820892334, 21.020959854125977, 180.58810424804688, 0.78173828125, 0.46142578125, -0.2314453125, 
311, 3435913782, 0.8097550272941589, -0.1780194342136383, 0.5400819778442383, 0.14468933641910553, -5.722751617431641, -3.359555244445801, 3.1273789405822754, 39.21308517456055, 20.200477600097656, 179.20191955566406, 0.80615234375, 0.439208984375, -0.255126953125, 
312, 3435922115, 0.8075870275497437, -0.168503537774086, 0.544046938419342, 0.15310263633728027, -5.999424457550049, -2.894195318222046, 3.016411542892456, 45.628868103027344, 20.040674209594727, 178.40354919433594, 0.8193359375, 0.416015625, -0.25341796875, 
313, 3435930448, 0.8051732182502747, -0.1590760499238968, 0.5480024814605713, 0.1615615338087082, -6.118559837341309, -1.7871179580688477, 2.718973159790039, 43.65891647338867, 21.856571197509766, 178.5810546875, 0.830078125, 0.3955078125, -0.25537109375, 
314, 3435938781, 0.8023069500923157, -0.15043959021568298, 0.5519109964370728, 0.17053933441638947, -6.379805088043213, -0.37407925724983215, 2.337787389755249, 29.95496940612793, 25.3685302734375, 179.44015502929688, 0.84130859375, 0.371337890625, -0.252685546875, 
315, 3435947114, 0.7989048957824707, -0.1429651528596878, 0.5557010173797607, 0.18035070598125458, -6.798436641693115, 0.3056217432022095, 1.819815754890442, 9.362100601196289, 29.127857208251953, 180.6574249267578, 0.852294921875, 0.34912109375, -0.25146484375, 
316, 3435955447, 0.7949391603469849, -0.13705328106880188, 0.5592831373214722, 0.19107159972190857, -6.820322513580322, 1.655880093574524, 1.601191520690918, -16.32237434387207, 33.235328674316406, 179.8665771484375, 0.861572265625, 0.3291015625, -0.24462890625, 
317, 3435963780, 0.7904869914054871, -0.13264408707618713, 0.5625572204589844, 0.20268987119197845, -7.1483683586120605, 2.741793632507324, 1.5156792402267456, -41.43464279174805, 35.86771774291992, 178.64910888671875, 0.873046875, 0.307373046875, -0.24072265625, 
318, 3435972113, 0.7858240008354187, -0.12934324145317078, 0.5654444694519043, 0.2145719826221466, -7.300047874450684, 3.874312162399292, 1.5572525262832642, -56.93458938598633, 35.89204788208008, 172.98089599609375, 0.88232421875, 0.284912109375, -0.234619140625, 
319, 3435980446, 0.7813411951065063, -0.12651973962783813, 0.567854642868042, 0.22595907747745514, -7.1935038566589355, 5.028085231781006, 1.8746836185455322, -59.38385009765625, 31.63495445251465, 162.3814697265625, 0.887451171875, 0.26708984375, -0.215087890625, 
320, 3435988779, 0.7774208784103394, -0.12339470535516739, 0.5698708295822144, 0.23591437935829163, -6.863179683685303, 5.823102951049805, 2.511575222015381, -45.164573669433594, 24.543533325195312, 147.05419921875, 0.89599609375, 0.24755859375, -0.217529296875, 
321, 3435997112, 0.7743170261383057, -0.11968032270669937, 0.5715616345405579, 0.24381288886070251, -6.520304203033447, 6.745138168334961, 3.0659537315368652, -22.457929611206055, 16.261999130249023, 126.34506225585938, 0.906005859375, 0.231689453125, -0.2158203125, 
322, 3436005445, 0.7720842957496643, -0.11547873169183731, 0.5729934573173523, 0.24949277937412262, -6.186485290527344, 7.881409168243408, 3.57765531539917, 0.7625173926353455, 8.656797409057617, 103.30865478515625, 0.909423828125, 0.21728515625, -0.21337890625, 
323, 3436013778, 0.7706112861633301, -0.11134307831525803, 0.5742104649543762, 0.25310298800468445, -5.989948749542236, 8.414193153381348, 3.6474556922912598, 16.80963897705078, 3.925172805786133, 77.76302337646484, 0.9130859375, 0.206787109375, -0.211181640625, 
324, 3436022111, 0.7697792053222656, -0.10773266106843948, 0.5751702785491943, 0.25501060485839844, -6.076812744140625, 8.302227973937988, 3.4074833393096924, 24.794574737548828, 0.560569167137146, 53.012115478515625, 0.91650390625, 0.19482421875, -0.211669921875, 
325, 3436030444, 0.7694489359855652, -0.1049790307879448, 0.5758189558982849, 0.255691796541214, -6.2952446937561035, 7.712109088897705, 3.0851712226867676, 25.055316925048828, -1.8694703578948975, 30.96919059753418, 0.915771484375, 0.1884765625, -0.212890625, 
326, 3436038777, 0.7694349884986877, -0.10324087738990784, 0.5762318968772888, 0.2555103898048401, -6.594175815582275, 6.906369209289551, 2.72176194190979, 20.7783145904541, -2.0587191581726074, 12.374715805053711, 0.916748046875, 0.185546875, -0.21240234375, 
327, 3436047110, 0.7696281671524048, -0.10238146036863327, 0.5764464735984802, 0.25478965044021606, -7.021847724914551, 5.232375621795654, 2.6197397708892822, 15.3435697555542, -1.9385240077972412, -1.3312616348266602, 0.9150390625, 0.182861328125, -0.21240234375, 
328, 3436055443, 0.769912600517273, -0.1022411584854126, 0.5765241384506226, 0.2538088858127594, -7.380326747894287, 3.418076515197754, 2.60898756980896, 9.4423828125, -1.2315200567245483, -10.29640007019043, 0.906494140625, 0.186767578125, -0.193359375, 
329, 3436063776, 0.7702835202217102, -0.10235048830509186, 0.5765151977539062, 0.25265753269195557, -7.811824321746826, 1.894587516784668, 2.865325689315796, 7.972202777862549, -1.717063546180725, -14.504181861877441, 0.919189453125, 0.1865234375, -0.21435546875, 
330, 3436072109, 0.7707433700561523, -0.10243771225214005, 0.5764145255088806, 0.25144636631011963, -8.222037315368652, 0.27955010533332825, 2.9999234676361084, 8.48282241821289, -3.3880598545074463, -15.409438133239746, 0.915771484375, 0.18701171875, -0.212890625, 
331, 3436080442, 0.7712557315826416, -0.10222367942333221, 0.5762780904769897, 0.25027263164520264, -8.568523406982422, -0.46469631791114807, 3.1742660999298096, 11.332381248474121, -5.278979778289795, -12.848679542541504, 0.91455078125, 0.19287109375, -0.2080078125, 
332, 3436088775, 0.7717263102531433, -0.10181933641433716, 0.5761154294013977, 0.24935920536518097, -8.765542984008789, -0.6154165267944336, 3.175676107406616, 11.138736724853516, -6.244200706481934, -8.473407745361328, 0.916748046875, 0.189208984375, -0.21826171875, 
333, 3436097108, 0.7720702290534973, -0.10133245587348938, 0.5759688019752502, 0.2488311231136322, -8.96424674987793, -0.28206774592399597, 3.150893449783325, 8.841382026672363, -5.893810272216797, -3.2724239826202393, 0.9140625, 0.192626953125, -0.21826171875, 
334, 3436105441, 0.7722854614257812, -0.10075677931308746, 0.5758510828018188, 0.24866953492164612, -9.260017395019531, -0.4781584143638611, 3.7020511627197266, 6.8028340339660645, -5.380949020385742, 1.8089030981063843, 0.9169921875, 0.191650390625, -0.220703125, 
335, 3436113774, 0.7722408771514893, -0.10064343363046646, 0.5757253170013428, 0.24914491176605225, -9.161800384521484, -0.5979701280593872, 3.599808692932129, -3.5413854122161865, -2.711791753768921, 5.783924579620361, 0.916015625, 0.191162109375, -0.220703125, 
336, 3436122107, 0.7719414830207825, -0.10090462118387222, 0.5756333470344543, 0.2501775324344635, -9.712642669677734, 0.36466264724731445, 3.3995890617370605, -12.163472175598145, 0.18104144930839539, 9.672449111938477, 0.918701171875, 0.191162109375, -0.21875, 
337, 3436130440, 0.7714471817016602, -0.10156698524951935, 0.5755341649055481, 0.25165802240371704, -9.957006454467773, 0.8520523309707642, 3.165205240249634, -20.26651954650879, 2.4002342224121094, 11.89415454864502, 0.917724609375, 0.189697265625, -0.21826171875, 
338, 3436138773, 0.7708247900009155, -0.10236582159996033, 0.5755135416984558, 0.25328293442726135, -9.711066246032715, 1.4085346460342407, 2.8890461921691895, -22.7567138671875, 4.522529125213623, 12.921698570251465, 0.916259765625, 0.189453125, -0.216796875, 
339, 3436147106, 0.7702786922454834, -0.10283548384904861, 0.5755710005760193, 0.2546200156211853, -9.623046875, 1.672248363494873, 2.941815137863159, -16.618661880493164, 4.000458240509033, 12.297219276428223, 0.916259765625, 0.18701171875, -0.216796875, 
340, 3436155439, 0.7699226140975952, -0.10275346785783768, 0.5757387280464172, 0.25534966588020325, -9.438042640686035, 1.8895413875579834, 3.288633108139038, -5.305387496948242, 2.594773530960083, 9.740966796875, 0.914306640625, 0.1865234375, -0.212890625, 
341, 3436163772, 0.7697556018829346, -0.10218186676502228, 0.5760181546211243, 0.2554525136947632, -9.102272987365723, 1.9746166467666626, 3.6030399799346924, 5.493895053863525, 1.4453601837158203, 6.45460844039917, 0.91845703125, 0.18505859375, -0.21533203125, 
342, 3436172105, 0.7697926759719849, -0.1011490672826767, 0.5764176845550537, 0.25485023856163025, -8.941431045532227, 2.2226874828338623, 3.5934042930603027, 16.676023483276367, 0.4733511507511139, 2.1128931045532227, 0.915771484375, 0.18505859375, -0.21484375, 
343, 3436180438, 0.7700143456459045, -0.09977585077285767, 0.5768536329269409, 0.2537327706813812, -8.966781616210938, 2.3304712772369385, 3.4395151138305664, 24.74095916748047, -1.0827783346176147, -1.2562637329101562, 0.9169921875, 0.18408203125, -0.21484375, 
344, 3436188771, 0.7703573107719421, -0.09830634295940399, 0.5772702693939209, 0.2523139715194702, -8.803153038024902, 2.7163820266723633, 3.256577491760254, 28.254623413085938, -2.166440725326538, -4.120141983032227, 0.91796875, 0.18017578125, -0.217529296875, 
345, 3436197104, 0.7707396745681763, -0.09700195491313934, 0.5776123404502869, 0.2508639991283417, -8.682987213134766, 2.925680160522461, 3.133419990539551, 26.542560577392578, -2.6603598594665527, -6.010806560516357, 0.917236328125, 0.18408203125, -0.2177734375, 
346, 3436205437, 0.7710821628570557, -0.09611526876688004, 0.5778529047966003, 0.24959629774093628, -8.636141777038574, 3.263166666030884, 2.9449806213378906, 20.26685905456543, -2.2157986164093018, -7.391770839691162, 0.905029296875, 0.18408203125, -0.1943359375, 
347, 3436213770, 0.7713688611984253, -0.09571993350982666, 0.5779779553413391, 0.24857020378112793, -8.805743217468262, 3.1871635913848877, 2.8335349559783936, 12.664166450500488, -1.6354820728302002, -8.69778823852539, 0.91748046875, 0.18310546875, -0.219482421875, 
348, 3436222103, 0.7716524600982666, -0.09578988701105118, 0.5779553651809692, 0.2477135956287384, -8.861298561096191, 2.7648301124572754, 2.6485776901245117, 5.873575210571289, -1.8029992580413818, -10.79003620147705, 0.918212890625, 0.18603515625, -0.2177734375, 
349, 3436230436, 0.771982729434967, -0.09617200493812561, 0.5777900815010071, 0.24692116677761078, -8.894742012023926, 2.5919902324676514, 2.681600570678711, 1.6248904466629028, -2.7177345752716064, -12.92874813079834, 0.914794921875, 0.1865234375, -0.216796875, 
350, 3436238769, 0.7723761200904846, -0.09674587100744247, 0.5775020122528076, 0.24613942205905914, -8.845702171325684, 2.0757012367248535, 2.8949031829833984, -0.8315278887748718, -3.87703537940979, -14.730018615722656, 0.913818359375, 0.1875, -0.221923828125, 
351, 3436247102, 0.7728203535079956, -0.0974469855427742, 0.5771408081054688, 0.24531437456607819, -8.739828109741211, 1.6500706672668457, 2.8703606128692627, -2.0134971141815186, -4.576637268066406, -16.456472396850586, 0.913818359375, 0.189453125, -0.2177734375, 
352, 3436255435, 0.7733460068702698, -0.09815680980682373, 0.5767066478729248, 0.24439355731010437, -8.765047073364258, 1.523121953010559, 2.8272640705108643, -1.4907362461090088, -5.834989070892334, -17.933544158935547, 0.91357421875, 0.191650390625, -0.22119140625, 
353, 3436263768, 0.7739425301551819, -0.09885092079639435, 0.5762092471122742, 0.24339711666107178, -8.730728149414062, 1.4922977685928345, 2.82633113861084, -0.834678590297699, -7.025974750518799, -18.91777229309082, 0.9111328125, 0.193359375, -0.21875, 
354, 3436272101, 0.7746056914329529, -0.09953273087739944, 0.5756550431251526, 0.2423185408115387, -8.684493064880371, 1.6107102632522583, 2.815223217010498, -0.15869303047657013, -8.084175109863281, -20.015365600585938, 0.91357421875, 0.194091796875, -0.22021484375, 
355, 3436280434, 0.7753351330757141, -0.10031116753816605, 0.5750284194946289, 0.24115003645420074, -8.578752517700195, 1.8439418077468872, 2.8218026161193848, -0.6200824975967407, -8.93772029876709, -22.03792381286621, 0.912841796875, 0.2001953125, -0.22705078125, 
356, 3436288767, 0.7761093378067017, -0.1012861356139183, 0.5743417739868164, 0.23988483846187592, -8.528315544128418, 2.2319347858428955, 2.7877891063690186, -2.095463514328003, -9.143481254577637, -24.87680435180664, 0.90966796875, 0.203857421875, -0.2216796875, 
357, 3436297100, 0.7769444584846497, -0.1025104969739914, 0.5735968351364136, 0.23843976855278015, -8.489023208618164, 2.604508399963379, 2.7328784465789795, -3.4372024536132812, -9.179559707641602, -29.025714874267578, 0.91015625, 0.2060546875, -0.22607421875, 
358, 3436305433, 0.7778691649436951, -0.10400840640068054, 0.5727787017822266, 0.23673614859580994, -8.409823417663574, 2.9531123638153076, 2.63108229637146, -4.444509029388428, -9.401867866516113, -34.372901916503906, 0.9091796875, 0.208251953125, -0.22802734375, 
359, 3436313766, 0.7789372205734253, -0.10577867180109024, 0.5718590021133423, 0.23465502262115479, -8.245342254638672, 3.3546268939971924, 2.6078128814697266, -4.499429225921631, -10.192073822021484, -41.13701248168945, 0.907470703125, 0.214599609375, -0.23046875, 
360, 3436322099, 0.7801973819732666, -0.10781854391098022, 0.5708158612251282, 0.23206496238708496, -8.0225191116333, 3.757218599319458, 2.607971429824829, -3.516855001449585, -11.416482925415039, -49.552425384521484, 0.904296875, 0.219970703125, -0.2314453125, 
361, 3436330432, 0.7816634178161621, -0.1101943776011467, 0.569629430770874, 0.22890985012054443, -7.723838806152344, 4.098459720611572, 2.606494665145874, -2.8248109817504883, -12.658635139465332, -59.077388763427734, 0.9033203125, 0.2294921875, -0.230712890625, 
362, 3436338765, 0.7833224534988403, -0.11302623152732849, 0.5682845711708069, 0.2251700609922409, -7.387698650360107, 4.324858665466309, 2.6446361541748047, -3.373934507369995, -13.553510665893555, -69.84257507324219, 0.90087890625, 0.23486328125, -0.230712890625, 
363, 3436347098, 0.7851397395133972, -0.11647885292768478, 0.5667639970779419, 0.22087299823760986, -6.979455471038818, 4.52323579788208, 2.68257474899292, -5.982483386993408, -13.894357681274414, -81.3990249633789, 0.89892578125, 0.24462890625, -0.23583984375, 
364, 3436355431, 0.7871589064598083, -0.120551697909832, 0.5649970173835754, 0.2159723937511444, -6.617727756500244, 4.666560173034668, 2.7556960582733154, -8.427392959594727, -15.27695083618164, -93.83919525146484, 0.88427734375, 0.256103515625, -0.2158203125, 
365, 3436363764, 0.7893819808959961, -0.1252918243408203, 0.562954843044281, 0.21042218804359436, -6.274522304534912, 4.663660049438477, 2.721825361251831, -11.056462287902832, -16.78386688232422, -107.0360107421875, 0.89013671875, 0.270263671875, -0.237548828125, 
366, 3436372097, 0.7918170094490051, -0.13074888288974762, 0.5605889558792114, 0.20417657494544983, -5.844510555267334, 4.522303104400635, 2.5312955379486084, -14.062007904052734, -18.6605167388916, -121.40960693359375, 0.88232421875, 0.28466796875, -0.236083984375, 
367, 3436380430, 0.7944672107696533, -0.13695219159126282, 0.5578224062919617, 0.19727542996406555, -5.451616287231445, 4.366909503936768, 2.285876750946045, -17.83694076538086, -21.412696838378906, -135.52328491210938, 0.872314453125, 0.300537109375, -0.23095703125, 
368, 3436388763, 0.7972913980484009, -0.14398297667503357, 0.5546028017997742, 0.1898127794265747, -5.10137939453125, 4.386141300201416, 1.9823566675186157, -23.51572608947754, -24.390342712402344, -149.45779418945312, 0.86865234375, 0.31787109375, -0.2412109375, 
369, 3436397096, 0.8002711534500122, -0.15177038311958313, 0.5509138703346252, 0.18177847564220428, -4.796814441680908, 4.350394248962402, 1.5605082511901855, -28.323740005493164, -27.6203556060791, -162.70391845703125, 0.859130859375, 0.335693359375, -0.24560546875, 
370, 3436405429, 0.8034136891365051, -0.16011615097522736, 0.5467441082000732, 0.173141211271286, -4.688228607177734, 3.966928482055664, 1.264934778213501, -30.8174991607666, -31.488590240478516, -175.1344757080078, 0.8505859375, 0.359375, -0.247802734375, 
371, 3436413762, 0.8067298531532288, -0.16890832781791687, 0.5420554280281067, 0.1638612300157547, -4.71141242980957, 3.460402250289917, 1.0870232582092285, -31.71731948852539, -36.0499267578125, -186.9947052001953, 0.84130859375, 0.381591796875, -0.25048828125, 
372, 3436422095, 0.8102226853370667, -0.17793747782707214, 0.5368480682373047, 0.15391404926776886, -4.683478355407715, 2.8137574195861816, 1.2432907819747925, -30.19454574584961, -41.04178237915039, -197.94253540039062, 0.828857421875, 0.40380859375, -0.2548828125, 
373, 3436430428, 0.8138108253479004, -0.187308669090271, 0.5311174392700195, 0.14338523149490356, -4.53890323638916, 1.9217851161956787, 1.4892898797988892, -30.522541046142578, -45.42325973510742, -208.2554473876953, 0.810546875, 0.429443359375, -0.257568359375, 
374, 3436438761, 0.8173949122428894, -0.19703757762908936, 0.524925708770752, 0.13233497738838196, -4.3257293701171875, 1.1348742246627808, 1.6180360317230225, -31.707609176635742, -48.516014099121094, -218.0758819580078, 0.7978515625, 0.453125, -0.261962890625, 
375, 3436447094, 0.8209185004234314, -0.2071247100830078, 0.5182743072509766, 0.12083719670772552, -4.304998397827148, 0.5279702544212341, 1.8784247636795044, -33.43323516845703, -51.37498092651367, -226.6371307373047, 0.781494140625, 0.477783203125, -0.263427734375, 
376, 3436455427, 0.8243195414543152, -0.21758289635181427, 0.511168360710144, 0.1089935451745987, -4.305807113647461, -0.058198634535074234, 2.2300479412078857, -36.34079360961914, -54.03864288330078, -234.4779052734375, 0.761474609375, 0.505126953125, -0.267333984375, 
377, 3436463760, 0.8275504112243652, -0.22844068706035614, 0.5036006569862366, 0.09684731066226959, -4.208441734313965, -0.7419241070747375, 2.57778000831604, -39.8654899597168, -56.56571960449219, -241.64505004882812, 0.7373046875, 0.530029296875, -0.267333984375, 
378, 3436472093, 0.8305425047874451, -0.23966383934020996, 0.4956192970275879, 0.08449700474739075, -4.009014129638672, -1.5586891174316406, 2.799952507019043, -43.99448013305664, -58.50203323364258, -247.6833953857422, 0.717041015625, 0.556884765625, -0.271728515625, 
379, 3436480426, 0.8331989049911499, -0.2513403594493866, 0.48727521300315857, 0.07203030586242676, -3.8728649616241455, -2.0564463138580322, 2.740610122680664, -49.82575988769531, -59.436458587646484, -252.70541381835938, 0.69091796875, 0.58154296875, -0.267578125, 
380, 3436488759, 0.8354979753494263, -0.26330775022506714, 0.47863781452178955, 0.05946218967437744, -3.7680649757385254, -2.3018100261688232, 2.7169480323791504, -54.09117126464844, -59.772945404052734, -256.6753845214844, 0.669677734375, 0.608154296875, -0.27783203125, 
381, 3436497092, 0.8374434113502502, -0.2755029797554016, 0.46969902515411377, 0.04676918685436249, -3.7872447967529297, -2.6273951530456543, 2.726623058319092, -57.32579803466797, -60.260719299316406, -260.2157897949219, 0.64599609375, 0.634033203125, -0.28076171875, 
382, 3436505425, 0.8390837907791138, -0.28770723938941956, 0.46046802401542664, 0.033907294273376465, -3.78330659866333, -3.1978180408477783, 2.658186197280884, -57.774009704589844, -61.01868438720703, -263.32196044921875, 0.6064453125, 0.6591796875, -0.257568359375, 
383, 3436513758, 0.8404373526573181, -0.29979613423347473, 0.450967401266098, 0.020814865827560425, -3.504788875579834, -3.955678939819336, 2.596766233444214, -56.15358352661133, -61.44572067260742, -265.9935607910156, 0.59033203125, 0.68115234375, -0.2783203125, 
384, 3436522091, 0.8415957093238831, -0.31153666973114014, 0.4411623477935791, 0.007428392767906189, -3.2629289627075195, -4.332003593444824, 2.585059881210327, -51.284515380859375, -62.651214599609375, -268.6145324707031, 0.560791015625, 0.7041015625, -0.278076171875, 
385, 3436530424, 0.8426070809364319, -0.3228580057621002, 0.43099287152290344, -0.0062421709299087524, -3.2879765033721924, -4.80199670791626, 2.7449734210968018, -45.28813934326172, -64.79398345947266, -270.7211608886719, 0.527099609375, 0.727294921875, -0.279541015625, 
386, 3436538757, 0.8433254957199097, -0.3340361714363098, 0.4205247461795807, -0.019968658685684204, -3.032244920730591, -5.441768646240234, 2.8329572677612305, -44.662044525146484, -66.26470184326172, -272.045166015625, 0.496337890625, 0.74658203125, -0.2763671875, 
387, 3436547090, 0.8435086011886597, -0.34546053409576416, 0.40993303060531616, -0.03351019322872162, -2.51558256149292, -5.62277889251709, 2.8315951824188232, -50.92182159423828, -65.51344299316406, -271.8649597167969, 0.46484375, 0.767578125, -0.277099609375, 
388, 3436555423, 0.8429964184761047, -0.3573734760284424, 0.3993515968322754, -0.04666219651699066, -2.1441586017608643, -5.379451751708984, 2.8372528553009033, -61.191165924072266, -62.60615158081055, -271.1810302734375, 0.427490234375, 0.784912109375, -0.272705078125, 
389, 3436563756, 0.8416855335235596, -0.3698193430900574, 0.38892531394958496, -0.05961522459983826, -1.9994661808013916, -5.380319595336914, 2.970201015472412, -73.38919067382812, -58.6829833984375, -270.7424011230469, 0.39794921875, 0.803466796875, -0.26904296875, 
390, 3436572089, 0.8395550847053528, -0.3828330636024475, 0.37866008281707764, -0.0722525417804718, -1.6422474384307861, -6.149465084075928, 3.252709150314331, -85.110595703125, -53.44294357299805, -270.7855224609375, 0.3583984375, 0.8193359375, -0.25537109375, 
391, 3436580422, 0.8365644812583923, -0.39630961418151855, 0.3686628043651581, -0.08487647771835327, -0.9828689098358154, -7.32802677154541, 3.6594183444976807, -96.15894317626953, -47.46441650390625, -271.6787414550781, 0.33056640625, 0.8349609375, -0.25439453125, 
392, 3436588755, 0.8327918648719788, -0.41012609004974365, 0.35886597633361816, -0.0974012017250061, -0.461497038602829, -8.08105182647705, 3.7713332176208496, -104.4415512084961, -41.13692092895508, -272.7581787109375, 0.290283203125, 0.850341796875, -0.238525390625, 
393, 3436597088, 0.8285518884658813, -0.4236660897731781, 0.34910404682159424, -0.11024081707000732, -0.3779297173023224, -8.84986686706543, 3.8081471920013428, -103.03252410888672, -37.27734375, -274.7529602050781, 0.25830078125, 0.863037109375, -0.232666015625, 
394, 3436605421, 0.8241621255874634, -0.4365115165710449, 0.33911263942718506, -0.12342959642410278, -0.2290722131729126, -9.86400032043457, 3.74125337600708, -93.29327392578125, -34.79157257080078, -277.700439453125, 0.22314453125, 0.87353515625, -0.217041015625, 
395, 3436613754, 0.820171594619751, -0.447745680809021, 0.3285945653915405, -0.1374264359474182, 0.03183966130018234, -11.009098052978516, 3.6662628650665283, -68.64447021484375, -36.331787109375, -281.0904846191406, 0.185546875, 0.88525390625, -0.210693359375, 
396, 3436622087, 0.8168722987174988, -0.4570735991001129, 0.3173387050628662, -0.15204498171806335, 0.182902991771698, -11.98705768585205, 3.5393292903900146, -38.68431854248047, -40.3459358215332, -282.72308349609375, 0.149169921875, 0.891357421875, -0.20458984375, 
397, 3436630420, 0.8143157362937927, -0.4645748734474182, 0.3052714765071869, -0.16699466109275818, 0.4074680209159851, -12.102952003479004, 3.453726291656494, -9.944524765014648, -45.63080978393555, -282.60552978515625, 0.112548828125, 0.897216796875, -0.203857421875, 
398, 3436638753, 0.8123756647109985, -0.4705085754394531, 0.29248467087745667, -0.18203949928283691, 0.5958350896835327, -11.97774887084961, 3.1413378715515137, 13.47624397277832, -52.26728439331055, -280.1461486816406, 0.073486328125, 0.89697265625, -0.203369140625, 
399, 3436647086, 0.8107559680938721, -0.47536158561706543, 0.27925926446914673, -0.19682027399539948, 0.9744867086410522, -12.011799812316895, 2.780587673187256, 27.375097274780273, -58.43232345581055, -274.421630859375, 0.035400390625, 0.8984375, -0.206298828125, 
400, 3436655419, 0.8090742230415344, -0.47981178760528564, 0.2658773362636566, -0.21096603572368622, 1.538766622543335, -11.821798324584961, 2.5194103717803955, 29.385631561279297, -62.98460388183594, -266.9917297363281, -0.001708984375, 0.897216796875, -0.210205078125, 
401, 3436663752, 0.8069799542427063, -0.4844716787338257, 0.25263747572898865, -0.22419369220733643, 1.8246772289276123, -11.181058883666992, 2.2514333724975586, 20.620718002319336, -66.57643127441406, -257.7947692871094, -0.03857421875, 0.89599609375, -0.2080078125, 
402, 3436672085, 0.8041694760322571, -0.4898506999015808, 0.2397310435771942, -0.23644143342971802, 1.8201491832733154, -10.650799751281738, 2.1949265003204346, 3.39005184173584, -69.11553192138672, -249.3817596435547, -0.07275390625, 0.89501953125, -0.2158203125, 
403, 3436680418, 0.8004891872406006, -0.4961930215358734, 0.22731080651283264, -0.24770402908325195, 2.0789101123809814, -11.015704154968262, 2.413477897644043, -17.905275344848633, -70.65760040283203, -241.2395782470703, -0.10888671875, 0.8896484375, -0.205322265625, 
404, 3436688751, 0.7958451509475708, -0.5035690665245056, 0.21546199917793274, -0.2581522464752197, 2.7271323204040527, -11.468997955322266, 2.653002977371216, -40.384727478027344, -70.4104232788086, -234.84176635742188, -0.1396484375, 0.885986328125, -0.2021484375, 
405, 3436697084, 0.7902921438217163, -0.5117672085762024, 0.20420631766319275, -0.26804888248443604, 3.1207923889160156, -11.214699745178223, 2.8674771785736084, -59.38701248168945, -67.9853286743164, -230.406494140625, -0.1748046875, 0.884033203125, -0.189208984375, 
406, 3436705417, 0.7842288017272949, -0.5202098488807678, 0.19320380687713623, -0.2775915265083313, 3.18580961227417, -11.315094947814941, 3.263500928878784, -67.55380249023438, -66.30562591552734, -227.63772583007812, -0.201416015625, 0.876220703125, -0.1845703125, 
407, 3436713750, 0.7780901193618774, -0.528217613697052, 0.18211010098457336, -0.2870815396308899, 3.3122870922088623, -12.315814018249512, 3.5464911460876465, -63.20249938964844, -66.69490814208984, -226.5610809326172, -0.23046875, 0.8720703125, -0.178466796875, 
408, 3436722083, 0.7722904682159424, -0.5352848172187805, 0.17051514983177185, -0.2966141104698181, 3.7084343433380127, -12.824568748474121, 3.5276012420654297, -48.64342498779297, -67.88175201416016, -227.26177978515625, -0.258056640625, 0.866455078125, -0.16796875, 
409, 3436730416, 0.7670846581459045, -0.541022002696991, 0.1582956314086914, -0.3063279390335083, 3.861157178878784, -12.685982704162598, 3.396148681640625, -27.120540618896484, -70.1496353149414, -227.94696044921875, -0.287109375, 0.856201171875, -0.158935546875, 
410, 3436738749, 0.7625210881233215, -0.5455451011657715, 0.14519992470741272, -0.31603285670280457, 3.556478500366211, -12.01513385772705, 2.9661874771118164, -5.864141464233398, -75.70267486572266, -228.9114227294922, -0.316650390625, 0.84765625, -0.15576171875, 
411, 3436747082, 0.7585917711257935, -0.5489766597747803, 0.13142579793930054, -0.3254352807998657, 3.8211252689361572, -11.623281478881836, 2.471341609954834, 12.685060501098633, -81.64755249023438, -226.00355529785156, -0.34814453125, 0.83740234375, -0.1474609375, 
412, 3436755415, 0.7550877928733826, -0.5515515208244324, 0.11729168146848679, -0.3345054090023041, 4.796115875244141, -11.191561698913574, 2.2134549617767334, 25.855501174926758, -84.79532623291016, -221.68099975585938, -0.3759765625, 0.823974609375, -0.147216796875, 
413, 3436763748, 0.7517178654670715, -0.5537243485450745, 0.10316051542758942, -0.3430532217025757, 5.223631858825684, -10.5020751953125, 2.1913185119628906, 30.17987823486328, -87.14608764648438, -215.08981323242188, -0.4013671875, 0.809814453125, -0.145263671875, 
414, 3436772081, 0.7479920983314514, -0.5561419725418091, 0.08937139064073563, -0.35106199979782104, 5.230267524719238, -9.637669563293457, 2.267763614654541, 22.58234977722168, -88.30284118652344, -208.80296325683594, -0.4287109375, 0.796630859375, -0.1416015625, 
415, 3436780414, 0.7434999942779541, -0.5592474937438965, 0.07614938169717789, -0.3587045669555664, 5.389238357543945, -8.963289260864258, 2.4351260662078857, 6.436306953430176, -87.70938873291016, -205.37953186035156, -0.454345703125, 0.78466796875, -0.13720703125, 
416, 3436788747, 0.738070011138916, -0.5632344484329224, 0.06356511265039444, -0.36605602502822876, 5.793613433837891, -8.743599891662598, 2.588996171951294, -13.208074569702148, -86.7242202758789, -202.89483642578125, -0.478515625, 0.769775390625, -0.126220703125, 
417, 3436797080, 0.7317779064178467, -0.5679337978363037, 0.05157044529914856, -0.37324339151382446, 6.330480098724365, -8.864734649658203, 2.714323043823242, -30.259784698486328, -84.91348266601562, -201.778564453125, -0.50048828125, 0.755859375, -0.12158203125, 
418, 3436805413, 0.7247156500816345, -0.5731297731399536, 0.04007536172866821, -0.3804222047328949, 6.869106292724609, -8.946558952331543, 2.829469680786133, -43.80819320678711, -81.8764419555664, -201.9270782470703, -0.53662109375, 0.742919921875, -0.08740234375, 
419, 3436813746, 0.7171436548233032, -0.5784856677055359, 0.028904370963573456, -0.3876100480556488, 7.236194610595703, -8.995073318481445, 2.7921600341796875, -51.14337921142578, -79.20930480957031, -202.3866424560547, -0.545654296875, 0.726806640625, -0.099853515625, 
420, 3436822079, 0.7093876004219055, -0.5836098194122314, 0.017684750258922577, -0.3948087990283966, 7.465822696685791, -9.358805656433105, 2.6946804523468018, -50.02083969116211, -78.20841979980469, -203.58128356933594, -0.566650390625, 0.71240234375, -0.0888671875, 
421, 3436830412, 0.7017230987548828, -0.5882249474525452, 0.006184428930282593, -0.40194010734558105, 7.635773181915283, -9.716443061828613, 2.559821605682373, -42.851375579833984, -78.83258056640625, -204.74462890625, -0.5908203125, 0.69775390625, -0.07666015625, 
422, 3436838745, 0.6942696571350098, -0.5922251343727112, -0.005772396922111511, -0.40895408391952515, 7.870080471038818, -9.540132522583008, 2.3487720489501953, -32.65489959716797, -80.71280670166016, -205.88265991210938, -0.612060546875, 0.67919921875, -0.064697265625, 
423, 3436847078, 0.6871001124382019, -0.5955967903137207, -0.018227815628051758, -0.4157445728778839, 7.9347076416015625, -8.793834686279297, 1.8921844959259033, -21.56183624267578, -83.8284912109375, -206.46778869628906, -0.630859375, 0.659912109375, -0.05517578125, 
424, 3436855411, 0.680290699005127, -0.5983238220214844, -0.03125356137752533, -0.4222019910812378, 8.162877082824707, -8.217047691345215, 1.6841809749603271, -9.128600120544434, -88.06500244140625, -205.87814331054688, -0.652587890625, 0.639892578125, -0.044189453125, 
425, 3436863744, 0.673879861831665, -0.6004124283790588, -0.04471680521965027, -0.4282629191875458, 8.636844635009766, -8.369263648986816, 1.9682859182357788, 2.7865800857543945, -91.64757537841797, -203.94244384765625, -0.668701171875, 0.621337890625, -0.03466796875, 
426, 3436872077, 0.6677210330963135, -0.6020166873931885, -0.0584530234336853, -0.4339648485183716, 9.082597732543945, -8.624750137329102, 2.698134183883667, 11.238058090209961, -94.01724243164062, -201.45481872558594, -0.68896484375, 0.6015625, -0.020263671875, 
427, 3436880410, 0.6616842746734619, -0.6032852530479431, -0.07214383780956268, -0.43935638666152954, 9.692727088928223, -8.794599533081055, 3.311984062194824, 15.254348754882812, -94.1849594116211, -198.00025939941406, -0.711669921875, 0.58203125, -0.0068359375, 
428, 3436888743, 0.6555711030960083, -0.6043245792388916, -0.08551649749279022, -0.4446607530117035, 10.298713684082031, -8.877969741821289, 3.7655858993530273, 14.929574966430664, -90.5784912109375, -195.01600646972656, -0.721435546875, 0.561279296875, -0.0078125, 
429, 3436897076, 0.6492528915405273, -0.6052801012992859, -0.09828116744756699, -0.4499616026878357, 10.577662467956543, -8.71866226196289, 3.9419772624969482, 10.208474159240723, -84.9801254272461, -191.5244140625, -0.736328125, 0.54296875, 0.002197265625, 
430, 3436905409, 0.6425917148590088, -0.6063222289085388, -0.11023242771625519, -0.45531970262527466, 10.582070350646973, -8.291898727416992, 3.820880174636841, 1.519939661026001, -78.11174011230469, -187.01858520507812, -0.75341796875, 0.521240234375, 0.011474609375, 
431, 3436913742, 0.6355399489402771, -0.6075538396835327, -0.12126967310905457, -0.46073758602142334, 10.466856002807617, -7.925848484039307, 3.5581371784210205, -9.273818969726562, -71.44302368164062, -182.3338623046875, -0.76708984375, 0.499267578125, 0.029296875, 
432, 3436922075, 0.628004252910614, -0.6091146469116211, -0.1313726156949997, -0.4662071764469147, 10.282605171203613, -7.707054615020752, 3.341643810272217, -22.155839920043945, -65.60466766357422, -177.2391815185547, -0.779296875, 0.48046875, 0.03125, 
433, 3436930408, 0.619987428188324, -0.6110357642173767, -0.14048226177692413, -0.4717346131801605, 10.212772369384766, -7.617437839508057, 3.289804697036743, -35.81454849243164, -59.8551139831543, -172.1078338623047, -0.789794921875, 0.462890625, 0.03955078125, 
434, 3436938741, 0.6115061640739441, -0.6133344769477844, -0.14857277274131775, -0.4773103892803192, 10.206098556518555, -7.678844451904297, 3.3232643604278564, -49.60263442993164, -53.97482681274414, -165.97637939453125, -0.802490234375, 0.443115234375, 0.0498046875, 
435, 3436947074, 0.602674126625061, -0.6159340739250183, -0.15564684569835663, -0.48290902376174927, 10.20923900604248, -7.920886516571045, 3.482137680053711, -61.84757614135742, -48.059383392333984, -159.54615783691406, -0.80908203125, 0.422607421875, 0.05908203125, 
436, 3436955407, 0.5936715602874756, -0.6186790466308594, -0.1618610918521881, -0.4884764850139618, 10.075514793395996, -8.343809127807617, 3.5591747760772705, -70.10757446289062, -42.40066909790039, -152.5590362548828, -0.818359375, 0.401611328125, 0.06640625, 
437, 3436963740, 0.5847650170326233, -0.6213444471359253, -0.167426198720932, -0.49393048882484436, 9.876063346862793, -8.871138572692871, 3.6424951553344727, -72.78179931640625, -37.44327926635742, -145.90994262695312, -0.82763671875, 0.384521484375, 0.07958984375, 
438, 3436972073, 0.5761594176292419, -0.6237961649894714, -0.1725349873304367, -0.49916765093803406, 9.803414344787598, -9.097350120544434, 3.4991872310638428, -71.06444549560547, -33.370182037353516, -138.45187377929688, -0.838134765625, 0.366455078125, 0.0927734375, 
439, 3436980406, 0.5680556893348694, -0.6258843541145325, -0.1773427426815033, -0.5041319131851196, 9.689554214477539, -9.000014305114746, 3.3764970302581787, -65.32592010498047, -29.753032684326172, -131.38836669921875, -0.84033203125, 0.34765625, 0.093505859375, 
440, 3436988739, 0.5604920387268066, -0.627612292766571, -0.18197956681251526, -0.5087757110595703, 9.445413589477539, -8.835649490356445, 3.285276174545288, -58.24480056762695, -27.26036834716797, -124.29754638671875, -0.849365234375, 0.331787109375, 0.099853515625, 
441, 3436997072, 0.5535289645195007, -0.6290181875228882, -0.18649612367153168, -0.5130095481872559, 9.248610496520996, -8.602603912353516, 3.1746602058410645, -50.41520309448242, -26.214895248413086, -116.95220947265625, -0.855224609375, 0.3154296875, 0.106201171875, 
442, 3437005405, 0.5471298098564148, -0.6301530003547668, -0.19098113477230072, -0.5168175101280212, 9.232185363769531, -8.318666458129883, 3.0374934673309326, -42.58905792236328, -26.21392059326172, -109.92267608642578, -0.859619140625, 0.301513671875, 0.11474609375, 
443, 3437013738, 0.5412958264350891, -0.6310203671455383, -0.19544312357902527, -0.5202229619026184, 9.297451972961426, -8.057127952575684, 2.884868860244751, -34.80036926269531, -26.229907989501953, -103.61247253417969, -0.86279296875, 0.288330078125, 0.118896484375, 
444, 3437022071, 0.5359880924224854, -0.631641149520874, -0.19985386729240417, -0.5232805609703064, 9.401904106140137, -7.907783508300781, 2.765949010848999, -27.816606521606445, -25.610790252685547, -97.26032257080078, -0.86865234375, 0.27587890625, 0.13134765625, 
445, 3437030404, 0.5311940908432007, -0.6320722103118896, -0.20407506823539734, -0.5260123014450073, 9.312592506408691, -7.92556619644165, 2.615225315093994, -22.439428329467773, -24.344837188720703, -90.2534408569336, -0.872802734375, 0.26025390625, 0.131591796875, 
446, 3437038737, 0.5267693400382996, -0.6324177980422974, -0.20798282325267792, -0.5285099744796753, 9.150029182434082, -7.979251384735107, 2.4986562728881836, -20.20564842224121, -22.36768341064453, -83.18977355957031, -0.871337890625, 0.249755859375, 0.1298828125, 
447, 3437047070, 0.5227086544036865, -0.6327074766159058, -0.21153336763381958, -0.5307806730270386, 9.070408821105957, -8.073095321655273, 2.5177643299102783, -18.592199325561523, -20.373809814453125, -76.15078735351562, -0.8720703125, 0.240234375, 0.135009765625, 
448, 3437055403, 0.5189934968948364, -0.6329679489135742, -0.21470820903778076, -0.5328373312950134, 8.921554565429688, -8.130777359008789, 2.5592777729034424, -17.485870361328125, -18.259014129638672, -68.72928619384766, -0.878662109375, 0.229248046875, 0.13818359375, 
449, 3437063736, 0.5155532956123352, -0.6332615613937378, -0.21740984916687012, -0.5347293615341187, 8.741104125976562, -7.957023620605469, 2.682488441467285, -18.320730209350586, -15.805093765258789, -61.499454498291016, -0.87939453125, 0.22021484375, 0.14501953125, 
