sep=,
PacketCounter,SampleTimeFine,Quat_W,Quat_X,Quat_Y,Quat_Z,Acc_X,Acc_Y,Acc_Z,Gyr_X,Gyr_Y,Gyr_Z,Mag_X,Mag_Y,Mag_Z,
0, 3030938315, 0.9419949650764465, -0.17771080136299133, 0.08597369492053986, -0.2714557647705078, 0, 0, 0, 0, 0, 0, -0.08837890625, 0.554443359375, -0.793212890625, 
1, 3030946648, 0.941996693611145, -0.1776547133922577, 0.08598005771636963, -0.2714843451976776, -0.5669629573822021, -3.663729190826416, 8.965824127197266, 0.252402663230896, -0.3430386185646057, -0.413887619972229, -0.08642578125, 0.5546875, -0.791259765625, 
2, 3030954981, 0.9419838190078735, -0.17760784924030304, 0.08599592745304108, -0.271555095911026, -0.5636082887649536, -3.6832644939422607, 8.987554550170898, 0.06120521202683449, -0.34294894337654114, -0.4657692313194275, -0.087890625, 0.55517578125, -0.796142578125, 
3, 3030963314, 0.9419848918914795, -0.17756503820419312, 0.08600781112909317, -0.27157557010650635, -0.593950629234314, -3.654151439666748, 8.981983184814453, 0.04856458678841591, -0.3400929868221283, -0.31232714653015137, -0.0859375, 0.5546875, -0.794189453125, 
4, 3030971647, 0.9419763088226318, -0.17754463851451874, 0.08601748943328857, -0.27161601185798645, -0.5972909927368164, -3.6534433364868164, 8.971482276916504, -0.2625715136528015, -0.4624394178390503, -0.42114922404289246, -0.086669921875, 0.55224609375, -0.793701171875, 
5, 3030979980, 0.9419674873352051, -0.17755287885665894, 0.08602895587682724, -0.2716374695301056, -0.6424325704574585, -3.663256883621216, 8.970781326293945, -0.6341571807861328, -0.5212752223014832, -0.4245559275150299, -0.08642578125, 0.55517578125, -0.794677734375, 
6, 3030988313, 0.941963791847229, -0.17758294939994812, 0.08603215962648392, -0.27162960171699524, -0.6308593153953552, -3.6775197982788086, 8.967569351196289, -0.9005195498466492, -0.6436600089073181, -0.3713807761669159, -0.08837890625, 0.556640625, -0.796142578125, 
7, 3030996646, 0.9419487714767456, -0.17762291431427002, 0.08604379743337631, -0.2716520130634308, -0.6054953336715698, -3.678628444671631, 8.945366859436035, -1.0600450038909912, -0.6284196376800537, -0.49494385719299316, -0.087890625, 0.55517578125, -0.795654296875, 
8, 3031004979, 0.9419321417808533, -0.17765462398529053, 0.08605605363845825, -0.2716848850250244, -0.6187566518783569, -3.7053370475769043, 8.932713508605957, -0.9582798480987549, -0.5296767354011536, -0.6589006185531616, -0.0869140625, 0.55712890625, -0.792724609375, 
9, 3031013312, 0.9419133067131042, -0.1776939332485199, 0.0860661193728447, -0.2717210650444031, -0.6083276271820068, -3.7192564010620117, 8.931426048278809, -1.0376839637756348, -0.6082869172096252, -0.6912001967430115, -0.0888671875, 0.554443359375, -0.792724609375, 
10, 3031021645, 0.9418970346450806, -0.17771516740322113, 0.08606778830289841, -0.27176281809806824, -0.6041074395179749, -3.7346203327178955, 8.967954635620117, -0.7795435190200806, -0.6616668701171875, -0.6523945331573486, -0.087646484375, 0.552734375, -0.793701171875, 
11, 3031029978, 0.9418912529945374, -0.17769208550453186, 0.08606863766908646, -0.27179795503616333, -0.6086140275001526, -3.7674171924591064, 8.985172271728516, -0.1662876009941101, -0.5128481984138489, -0.5791634321212769, -0.08740234375, 0.5556640625, -0.794677734375, 
12, 3031038311, 0.9418911933898926, -0.17764797806739807, 0.08606123179197311, -0.27182909846305847, -0.6059960126876831, -3.76603627204895, 8.966510772705078, 0.1450405865907669, -0.4719679057598114, -0.6565696001052856, -0.08837890625, 0.55517578125, -0.793701171875, 
13, 3031046644, 0.9418959617614746, -0.1775820255279541, 0.08605878800153732, -0.2718563675880432, -0.6125336289405823, -3.761759042739868, 8.992260932922363, 0.4187287390232086, -0.4265538156032562, -0.39456164836883545, -0.0869140625, 0.5546875, -0.793701171875, 
14, 3031054977, 0.9418978095054626, -0.17752674221992493, 0.0860634371638298, -0.2718847692012787, -0.6493350863456726, -3.7478179931640625, 8.99345588684082, 0.21655553579330444, -0.47201910614967346, -0.11662161350250244, -0.087890625, 0.553955078125, -0.791748046875, 
15, 3031063310, 0.9419082999229431, -0.17747826874256134, 0.08607116341590881, -0.2718774080276489, -0.658147394657135, -3.7499351501464844, 8.987168312072754, 0.12615010142326355, -0.45264193415641785, 0.08112028241157532, -0.087890625, 0.5556640625, -0.792236328125, 
16, 3031071643, 0.9419316053390503, -0.17743158340454102, 0.08607980608940125, -0.271824449300766, -0.6508872509002686, -3.7401785850524902, 8.957741737365723, 0.08981631696224213, -0.4149249792098999, 0.39690539240837097, -0.0888671875, 0.554443359375, -0.793701171875, 
17, 3031079976, 0.941949725151062, -0.17739689350128174, 0.08609361201524734, -0.2717798948287964, -0.6947842240333557, -3.7235336303710938, 9.002754211425781, -0.09976744651794434, -0.5249636769294739, 0.5883974432945251, -0.0888671875, 0.554443359375, -0.792236328125, 
18, 3031088309, 0.9419775009155273, -0.17737990617752075, 0.08610136806964874, -0.2716924548149109, -0.6835328340530396, -3.706968069076538, 9.014355659484863, -0.3128010332584381, -0.5701215863227844, 0.6812490224838257, -0.08740234375, 0.556640625, -0.792236328125, 
19, 3031096642, 0.9419963359832764, -0.17736540734767914, 0.08612748235464096, -0.27162835001945496, -0.6703715920448303, -3.67350697517395, 8.992246627807617, -0.4289615750312805, -0.48864272236824036, 0.8501492142677307, -0.0869140625, 0.55517578125, -0.793701171875, 
20, 3031104975, 0.94200599193573, -0.17736943066120148, 0.08616312593221664, -0.2715807855129242, -0.6257020831108093, -3.6937854290008545, 8.980172157287598, -0.7224750518798828, -0.3880044221878052, 0.6671099066734314, -0.08740234375, 0.55322265625, -0.795654296875, 
21, 3031113308, 0.9420106410980225, -0.1773877590894699, 0.08620502054691315, -0.2715395390987396, -0.5904024243354797, -3.6971333026885986, 8.95443058013916, -0.9209854006767273, -0.3340352475643158, 0.5001051425933838, -0.08984375, 0.552978515625, -0.79638671875, 
22, 3031121641, 0.9419810771942139, -0.1774110049009323, 0.08626604080200195, -0.2716076076030731, -0.5641090869903564, -3.6475489139556885, 8.954442977905273, -1.0950596332550049, -0.22642982006072998, 0.06261399388313293, -0.085693359375, 0.55322265625, -0.794189453125, 
23, 3031129974, 0.941964328289032, -0.17746520042419434, 0.08633169531822205, -0.2716093361377716, -0.5354760885238647, -3.6478993892669678, 8.959527969360352, -1.4740351438522339, -0.030135145410895348, -0.1198105737566948, -0.08984375, 0.556640625, -0.793701171875, 
24, 3031138307, 0.9419465661048889, -0.1775110810995102, 0.08640503883361816, -0.27161774039268494, -0.5392170548439026, -3.702418804168701, 8.975522994995117, -1.398780345916748, 0.1634444296360016, -0.2443469762802124, -0.087890625, 0.5546875, -0.792236328125, 
25, 3031146640, 0.941932737827301, -0.17753836512565613, 0.086454838514328, -0.27163219451904297, -0.5432584285736084, -3.761916160583496, 8.942626953125, -1.0436393022537231, -0.10728523135185242, -0.2805399000644684, -0.08935546875, 0.55712890625, -0.793212890625, 
26, 3031154973, 0.9419420957565308, -0.17751340568065643, 0.08648592978715897, -0.2716059386730194, -0.5857961177825928, -3.755213737487793, 8.94495964050293, -0.2617006003856659, -0.030173564329743385, -0.2075008898973465, -0.085693359375, 0.5537109375, -0.793212890625, 
27, 3031163306, 0.9419487714767456, -0.17746609449386597, 0.08651325106620789, -0.27160516381263733, -0.599429726600647, -3.723691463470459, 8.981939315795898, 0.03710222244262695, -0.18186107277870178, 0.027676183730363846, -0.08837890625, 0.553955078125, -0.793212890625, 
28, 3031171639, 0.9419571161270142, -0.17741496860980988, 0.0865287333726883, -0.2716048061847687, -0.6375184059143066, -3.678335428237915, 8.955101013183594, 0.11343264579772949, -0.3670007288455963, 0.15631087124347687, -0.0869140625, 0.5537109375, -0.793701171875, 
29, 3031179972, 0.9419686198234558, -0.17737552523612976, 0.08653633296489716, -0.2715882658958435, -0.6650570034980774, -3.677562713623047, 8.957125663757324, 0.0013703616568818688, -0.5100050568580627, 0.19178658723831177, -0.08642578125, 0.55712890625, -0.792724609375, 
30, 3031188305, 0.9419600367546082, -0.17737159132957458, 0.08654437959194183, -0.271618127822876, -0.7105920314788818, -3.6717689037323, 8.962111473083496, -0.5052791833877563, -0.7202594876289368, 0.04953792691230774, -0.08642578125, 0.5556640625, -0.793212890625, 
31, 3031196638, 0.9419602155685425, -0.17739221453666687, 0.08655260503292084, -0.271601140499115, -0.6857072710990906, -3.663421392440796, 8.94302749633789, -0.8058111071586609, -0.7154696583747864, 0.08606383204460144, -0.086181640625, 0.55322265625, -0.792724609375, 
32, 3031204971, 0.9419530630111694, -0.17744076251983643, 0.08656774461269379, -0.27158913016319275, -0.6854283213615417, -3.6399030685424805, 8.938149452209473, -1.2179183959960938, -0.6894456148147583, -0.018326984718441963, -0.0859375, 0.55517578125, -0.792724609375, 
33, 3031213304, 0.9419443607330322, -0.17749448120594025, 0.0865994244813919, -0.2715744078159332, -0.6763514280319214, -3.6822187900543213, 8.954085350036621, -1.3423523902893066, -0.5177277326583862, 0.03977890685200691, -0.0869140625, 0.5556640625, -0.793701171875, 
34, 3031221637, 0.9419384598731995, -0.17753341794013977, 0.08662112057209015, -0.27156248688697815, -0.6623817682266235, -3.708585023880005, 8.976690292358398, -1.1096086502075195, -0.5429193377494812, -0.05338006466627121, -0.08642578125, 0.55615234375, -0.792724609375, 
35, 3031229970, 0.9419345855712891, -0.1775515377521515, 0.08663368225097656, -0.27156001329421997, -0.661845326423645, -3.716381072998047, 8.973570823669434, -0.782591700553894, -0.6096956729888916, -0.10378888994455338, -0.0869140625, 0.55615234375, -0.793701171875, 
36, 3031238303, 0.9419353604316711, -0.1775583177804947, 0.08664380013942719, -0.2715495824813843, -0.6175477504730225, -3.7287631034851074, 8.993971824645996, -0.6261271238327026, -0.5414721369743347, -0.11066629737615585, -0.08837890625, 0.5556640625, -0.792236328125, 
37, 3031246636, 0.9419339895248413, -0.1775476187467575, 0.08666418492794037, -0.2715547978878021, -0.5877276659011841, -3.7181408405303955, 9.00228214263916, -0.4234033226966858, -0.38400864601135254, -0.14249199628829956, -0.085693359375, 0.55419921875, -0.793701171875, 
38, 3031254969, 0.9419277310371399, -0.17753535509109497, 0.08669296652078629, -0.271575391292572, -0.6178410053253174, -3.6837778091430664, 9.01210880279541, -0.4477880597114563, -0.2536577582359314, -0.22473929822444916, -0.08837890625, 0.5556640625, -0.793701171875, 
39, 3031263302, 0.9419241547584534, -0.1775325983762741, 0.0867341011762619, -0.2715766429901123, -0.6296504735946655, -3.6624057292938232, 8.980758666992188, -0.61325603723526, -0.15314748883247375, -0.05589025840163231, -0.083984375, 0.556640625, -0.793701171875, 
40, 3031271635, 0.9419198632240295, -0.17751789093017578, 0.08677670359611511, -0.2715877592563629, -0.6155879497528076, -3.702690601348877, 8.97771167755127, -0.4736712872982025, -0.0803646668791771, -0.08356644958257675, -0.08740234375, 0.55419921875, -0.793212890625, 
41, 3031279968, 0.9419187307357788, -0.17750027775764465, 0.08682521432638168, -0.2715871334075928, -0.6325259208679199, -3.7008094787597656, 8.97261905670166, -0.4445478916168213, -0.01015604566782713, 0.0134730888530612, -0.08740234375, 0.556640625, -0.792236328125, 
42, 3031288301, 0.9419293403625488, -0.1774834394454956, 0.0868569016456604, -0.2715512216091156, -0.6410018801689148, -3.695380926132202, 8.955625534057617, -0.38368844985961914, -0.11422666907310486, 0.0122179901227355, -0.087890625, 0.55615234375, -0.795654296875, 
43, 3031296634, 0.9419317245483398, -0.17746765911579132, 0.0868910476565361, -0.27154242992401123, -0.6594709157943726, -3.6632213592529297, 8.92452335357666, -0.4169869124889374, -0.2263401746749878, 0.0928259864449501, -0.0888671875, 0.55615234375, -0.792236328125, 
44, 3031304967, 0.9419398307800293, -0.1774507761001587, 0.0869152694940567, -0.27151745557785034, -0.6578112244606018, -3.688656806945801, 8.923086166381836, -0.36114785075187683, -0.2558477520942688, 0.018954534083604813, -0.087890625, 0.55712890625, -0.794677734375, 
45, 3031313300, 0.941941499710083, -0.1774403303861618, 0.0869375467300415, -0.2715112864971161, -0.6535767316818237, -3.73371958732605, 8.941368103027344, -0.4401549994945526, -0.3913854658603668, 0.0202992781996727, -0.0859375, 0.5556640625, -0.793701171875, 
46, 3031321633, 0.9419440031051636, -0.17744435369968414, 0.08695977926254272, -0.27149316668510437, -0.6625320911407471, -3.697247266769409, 8.930024147033691, -0.6469131112098694, -0.43065211176872253, 0.10001078248023987, -0.08447265625, 0.556640625, -0.794189453125, 
47, 3031329966, 0.9419428110122681, -0.1774558126926422, 0.08697313815355301, -0.2714855372905731, -0.6522462964057922, -3.677755832672119, 8.914044380187988, -0.6987306475639343, -0.5890505313873291, -0.018391020596027374, -0.0859375, 0.55517578125, -0.794677734375, 
48, 3031338299, 0.941940188407898, -0.17746111750602722, 0.08697635680437088, -0.27149027585983276, -0.6647494435310364, -3.7055447101593018, 8.93281364440918, -0.5951082706451416, -0.7188250422477722, -0.028982507064938545, -0.087890625, 0.5556640625, -0.792724609375, 
49, 3031346632, 0.9419453144073486, -0.17745190858840942, 0.0869709700345993, -0.27148014307022095, -0.6695489883422852, -3.7112739086151123, 8.93089771270752, -0.34821271896362305, -0.7690801620483398, 0.01790434867143631, -0.0859375, 0.5576171875, -0.794189453125, 
50, 3031354965, 0.941959023475647, -0.17742951214313507, 0.08694363385438919, -0.27145591378211975, -0.6514451503753662, -3.707390069961548, 8.925274848937988, -0.0909305289387703, -0.9516456723213196, 0.015278889797627926, -0.0849609375, 0.55517578125, -0.791748046875, 
51, 3031363298, 0.9419736862182617, -0.17739500105381012, 0.08691804856061935, -0.2714357078075409, -0.6452937126159668, -3.7045788764953613, 8.939866065979004, 0.06509857624769211, -0.9720089435577393, 0.16530145704746246, -0.08642578125, 0.5546875, -0.791748046875, 
52, 3031371631, 0.9419943690299988, -0.17735175788402557, 0.08688154816627502, -0.27140381932258606, -0.6475898027420044, -3.69872784614563, 8.969042778015137, 0.21864309906959534, -1.0439465045928955, 0.19571837782859802, -0.086669921875, 0.5537109375, -0.792724609375, 
53, 3031379964, 0.9420096278190613, -0.177303746342659, 0.08685359358787537, -0.2713911533355713, -0.6586695313453674, -3.7082841396331787, 8.982783317565918, 0.25913920998573303, -0.9337285161018372, 0.07935290038585663, -0.0859375, 0.55517578125, -0.792236328125, 
54, 3031388297, 0.9420186877250671, -0.17728251218795776, 0.08684228360652924, -0.271377295255661, -0.6380550265312195, -3.6949799060821533, 9.004227638244629, -0.17594416439533234, -0.7861776947975159, 0.056850794702768326, -0.08837890625, 0.5537109375, -0.795654296875, 
55, 3031396630, 0.9420260787010193, -0.17726139724254608, 0.08683431893587112, -0.27136802673339844, -0.6259238123893738, -3.7090065479278564, 9.004806518554688, -0.17801891267299652, -0.7588984966278076, 0.021989816799759865, -0.08740234375, 0.5546875, -0.793701171875, 
56, 3031404963, 0.9420341849327087, -0.17722934484481812, 0.08681969344615936, -0.2713659405708313, -0.6594277620315552, -3.7389626502990723, 8.994792938232422, -0.011423948220908642, -0.7588217258453369, -0.09049509465694427, -0.08837890625, 0.556640625, -0.793212890625, 
57, 3031413296, 0.9420453310012817, -0.17717984318733215, 0.08680059760808945, -0.27136561274528503, -0.6487414240837097, -3.7216312885284424, 9.00861930847168, 0.2500333786010742, -0.7795436978340149, -0.07387145608663559, -0.0849609375, 0.5556640625, -0.792724609375, 
58, 3031421629, 0.9420473575592041, -0.17712585628032684, 0.08679178357124329, -0.2713964283466339, -0.6545207500457764, -3.7102224826812744, 9.005471229553223, 0.24416771531105042, -0.6995759606361389, -0.05878467112779617, -0.086181640625, 0.55419921875, -0.793212890625, 
59, 3031429962, 0.9420592784881592, -0.17706075310707092, 0.08678476512432098, -0.2713998854160309, -0.6356803178787231, -3.711087942123413, 8.947298049926758, 0.4137851297855377, -0.5561875104904175, -0.06995247304439545, -0.08544921875, 0.55615234375, -0.796142578125, 
60, 3031438295, 0.9420767426490784, -0.17698708176612854, 0.08677602559328079, -0.27138981223106384, -0.6491991877555847, -3.7187273502349854, 8.946690559387207, 0.5242593288421631, -0.5183553099632263, 0.020119981840252876, -0.08740234375, 0.55615234375, -0.793701171875, 
61, 3031446628, 0.9420903325080872, -0.1769247055053711, 0.0867634266614914, -0.2713872492313385, -0.6508298516273499, -3.6752164363861084, 8.952340126037598, 0.3965211808681488, -0.6555963754653931, -0.0034066932275891304, -0.086669921875, 0.5537109375, -0.793212890625, 
62, 3031454961, 0.9420992136001587, -0.17688606679439545, 0.08676300942897797, -0.2713819146156311, -0.6433481574058533, -3.6666975021362305, 8.980558395385742, 0.010591485537588596, -0.6093114018440247, 0.11056384444236755, -0.085693359375, 0.55322265625, -0.795166015625, 
63, 3031463294, 0.9421072602272034, -0.176869735121727, 0.08676384389400482, -0.2713642418384552, -0.6215535402297974, -3.6540944576263428, 8.979220390319824, -0.28175657987594604, -0.6831828951835632, 0.14821676909923553, -0.08740234375, 0.5537109375, -0.793701171875, 
64, 3031471627, 0.9421166181564331, -0.17687521874904633, 0.08676784485578537, -0.2713269591331482, -0.6547355055809021, -3.6499454975128174, 8.982425689697266, -0.59458327293396, -0.6723993420600891, 0.21084359288215637, -0.08740234375, 0.5576171875, -0.796142578125, 
65, 3031479960, 0.9421185255050659, -0.17689774930477142, 0.0867837518453598, -0.2713007926940918, -0.6504080295562744, -3.620504379272461, 8.990808486938477, -0.8667857050895691, -0.6470667123794556, 0.22651949524879456, -0.0859375, 0.55517578125, -0.794677734375, 
66, 3031488293, 0.942118763923645, -0.17692585289478302, 0.08679840713739395, -0.2712768316268921, -0.6418246030807495, -3.6610610485076904, 8.969843864440918, -0.9397607445716858, -0.6142293810844421, 0.08674260228872299, -0.085693359375, 0.55419921875, -0.793701171875, 
67, 3031496626, 0.9421231150627136, -0.17691725492477417, 0.08679322898387909, -0.2712688148021698, -0.6546424627304077, -3.712604522705078, 8.974644660949707, -0.3574722409248352, -0.7639957666397095, -0.013780457898974419, -0.08642578125, 0.55615234375, -0.795654296875, 
68, 3031504959, 0.9421359300613403, -0.1768786609172821, 0.08677028119564056, -0.2712569534778595, -0.6370179057121277, -3.715150833129883, 8.975737571716309, 0.11686494946479797, -0.7960904240608215, -0.13711299002170563, -0.0869140625, 0.5537109375, -0.795654296875, 
69, 3031513292, 0.9421444535255432, -0.17681598663330078, 0.08675453066825867, -0.27127328515052795, -0.6364599466323853, -3.6805167198181152, 9.00418472290039, 0.421597421169281, -0.6431221961975098, -0.2749687731266022, -0.08740234375, 0.5546875, -0.793212890625, 
70, 3031521625, 0.9421508312225342, -0.17674337327480316, 0.0867389515042305, -0.27130326628685, -0.634864866733551, -3.6541085243225098, 9.001838684082031, 0.537053644657135, -0.6277664303779602, -0.2634296119213104, -0.08837890625, 0.5546875, -0.794677734375, 
71, 3031529958, 0.9421576857566833, -0.1766810566186905, 0.08672502636909485, -0.2713245749473572, -0.6461377739906311, -3.6558468341827393, 8.983113288879395, 0.4126965403556824, -0.6062248945236206, -0.34162986278533936, -0.08642578125, 0.5546875, -0.793212890625, 
72, 3031538291, 0.9421537518501282, -0.17663152515888214, 0.08671347796916962, -0.2713739275932312, -0.6197509765625, -3.6496589183807373, 8.97126579284668, 0.21909135580062866, -0.6126156449317932, -0.5520892143249512, -0.08740234375, 0.554931640625, -0.790771484375, 
73, 3031546624, 0.94214928150177, -0.17660994827747345, 0.08671724796295166, -0.27140241861343384, -0.603013277053833, -3.652756690979004, 8.961467742919922, -0.2004057765007019, -0.49901649355888367, -0.48216232657432556, -0.08740234375, 0.55419921875, -0.793701171875, 
74, 3031554957, 0.9421535730361938, -0.17660406231880188, 0.08671943843364716, -0.2713908553123474, -0.5929562449455261, -3.6630921363830566, 8.951539993286133, -0.4003504514694214, -0.4662815034389496, -0.42470961809158325, -0.0859375, 0.55419921875, -0.796142578125, 
75, 3031563290, 0.9421463012695312, -0.17659851908683777, 0.08673011511564255, -0.27141618728637695, -0.6061176061630249, -3.676196575164795, 8.944365501403809, -0.4445094168186188, -0.4729924201965332, -0.4536280930042267, -0.087646484375, 0.551513671875, -0.793701171875, 
76, 3031571623, 0.9421401619911194, -0.176591157913208, 0.08673837780952454, -0.27143943309783936, -0.6074551939964294, -3.6954662799835205, 8.959029197692871, -0.42344170808792114, -0.49318927526474, -0.40400052070617676, -0.087158203125, 0.55322265625, -0.794677734375, 
77, 3031579956, 0.9421321153640747, -0.17660152912139893, 0.08674991130828857, -0.27145686745643616, -0.616482138633728, -3.6854023933410645, 8.963306427001953, -0.6648815870285034, -0.5396535992622375, -0.37095820903778076, -0.0859375, 0.55615234375, -0.794189453125, 
78, 3031588289, 0.9421380758285522, -0.1766158789396286, 0.08675075322389603, -0.2714267373085022, -0.6397431492805481, -3.6491587162017822, 8.976266860961914, -0.6667129397392273, -0.550629198551178, -0.35657572746276855, -0.0869140625, 0.5546875, -0.796142578125, 
79, 3031596622, 0.9421283602714539, -0.17662952840328217, 0.08677268773317337, -0.2714443504810333, -0.6472609043121338, -3.668485641479492, 8.97123908996582, -0.7499335408210754, -0.4156421720981598, -0.3596750795841217, -0.085693359375, 0.552734375, -0.795654296875, 
80, 3031604955, 0.9421108961105347, -0.1766260415315628, 0.08678436279296875, -0.27150383591651917, -0.6609872579574585, -3.6977198123931885, 8.98814868927002, -0.5028074979782104, -0.5405116081237793, -0.4865168333053589, -0.08544921875, 0.55517578125, -0.795654296875, 
81, 3031613288, 0.9421061277389526, -0.17660512030124664, 0.08678294718265533, -0.27153438329696655, -0.6736976504325867, -3.6989853382110596, 8.935774803161621, -0.1863691806793213, -0.5621556043624878, -0.5220181345939636, -0.08642578125, 0.5537109375, -0.795654296875, 
82, 3031621621, 0.9421074390411377, -0.17657671868801117, 0.08677391707897186, -0.271551251411438, -0.6907142996788025, -3.7185771465301514, 8.950839042663574, -0.067186139523983, -0.6096444129943848, -0.4502725899219513, -0.088134765625, 0.552490234375, -0.793701171875, 
83, 3031629954, 0.9421136379241943, -0.17652489244937897, 0.08674575388431549, -0.2715725302696228, -0.6987111568450928, -3.719120740890503, 8.940881729125977, 0.3276700973510742, -0.829158365726471, -0.3907451629638672, -0.086181640625, 0.55419921875, -0.792724609375, 
84, 3031638287, 0.9421259164810181, -0.1764562427997589, 0.08670775592327118, -0.2715863585472107, -0.687860369682312, -3.7113027572631836, 8.92209243774414, 0.5861945748329163, -0.8544908165931702, -0.38357314467430115, -0.086181640625, 0.552734375, -0.796142578125, 
85, 3031646620, 0.9421375393867493, -0.17638641595840454, 0.086666539311409, -0.2716047763824463, -0.6813011169433594, -3.6776914596557617, 8.951689720153809, 0.6190063953399658, -0.9447554349899292, -0.3432563245296478, -0.0859375, 0.5556640625, -0.794677734375, 
86, 3031654953, 0.9421497583389282, -0.17634722590446472, 0.08662882447242737, -0.27160027623176575, -0.6606867909431458, -3.6404967308044434, 8.922106742858887, 0.1798887550830841, -1.007164478302002, -0.17933806777000427, -0.08740234375, 0.5546875, -0.796630859375, 
87, 3031663286, 0.942157506942749, -0.1763300597667694, 0.0865979865193367, -0.2715940773487091, -0.6568241119384766, -3.6450743675231934, 8.958614349365234, -0.13895723223686218, -1.0626322031021118, -0.07599744945764542, -0.086669921875, 0.55322265625, -0.792724609375, 
88, 3031671619, 0.9421610832214355, -0.1763375997543335, 0.0865679681301117, -0.2715860605239868, -0.6452078819274902, -3.694951295852661, 8.938364028930664, -0.4870034456253052, -1.1272567510604858, -0.08652488142251968, -0.085205078125, 0.5537109375, -0.796142578125, 
89, 3031679952, 0.9421676397323608, -0.17634636163711548, 0.08654367923736572, -0.27156567573547363, -0.6509444713592529, -3.6992857456207275, 8.925753593444824, -0.5206093192100525, -1.1083022356033325, 0.08797208219766617, -0.0869140625, 0.5546875, -0.795166015625, 
90, 3031688285, 0.9421693682670593, -0.17637284100055695, 0.08652035892009735, -0.2715495228767395, -0.6670741438865662, -3.653064250946045, 8.981910705566406, -0.7716799974441528, -1.1319185495376587, 0.010719556361436844, -0.086181640625, 0.5537109375, -0.795166015625, 
91, 3031696618, 0.9421724081039429, -0.1763988584280014, 0.08649072051048279, -0.2715318202972412, -0.655028760433197, -3.6913604736328125, 8.977619171142578, -0.7290835976600647, -1.230712652206421, 0.007184792775660753, -0.0859375, 0.5556640625, -0.794189453125, 
92, 3031704951, 0.9421660900115967, -0.1764010190963745, 0.08646871149539948, -0.2715590000152588, -0.6442994475364685, -3.707690477371216, 9.004042625427246, -0.46927839517593384, -1.1434450149536133, 0.011078154668211937, -0.086181640625, 0.5537109375, -0.794677734375, 
93, 3031713284, 0.9421769380569458, -0.17636606097221375, 0.08642938733100891, -0.2715568244457245, -0.6393282413482666, -3.7044215202331543, 9.018754959106445, 0.13497421145439148, -1.0983127355575562, -0.11674968153238297, -0.08544921875, 0.55517578125, -0.794189453125, 
94, 3031721617, 0.9421911239624023, -0.1762937754392624, 0.08637785911560059, -0.2715708613395691, -0.644707202911377, -3.7230618000030518, 8.991623878479004, 0.6642154455184937, -1.152025818824768, -0.09108421206474304, -0.08837890625, 0.552734375, -0.79541015625, 
95, 3031729950, 0.9422152638435364, -0.17619381844997406, 0.08631093800067902, -0.2715732753276825, -0.6545279622077942, -3.717726230621338, 9.018396377563477, 1.1172288656234741, -1.2202876806259155, -0.11536651104688644, -0.084716796875, 0.5537109375, -0.794677734375, 
96, 3031738283, 0.9422545433044434, -0.17607486248016357, 0.08622988313436508, -0.2715400755405426, -0.62164306640625, -3.6746559143066406, 8.998014450073242, 1.4343585968017578, -1.2205950021743774, -0.07312863320112228, -0.086669921875, 0.552734375, -0.797119140625, 
97, 3031746616, 0.942279577255249, -0.1759698987007141, 0.08616730570793152, -0.2715407609939575, -0.6375615000724792, -3.6132442951202393, 8.987168312072754, 1.1661263704299927, -1.1502840518951416, -0.07323109358549118, -0.0869140625, 0.55419921875, -0.795166015625, 
98, 3031754949, 0.9422962069511414, -0.17589476704597473, 0.08613140881061554, -0.27154332399368286, -0.6087281703948975, -3.5951833724975586, 9.013911247253418, 0.6447358727455139, -0.9175146818161011, -0.014203093014657497, -0.08642578125, 0.5537109375, -0.796142578125, 
99, 3031763282, 0.9423003196716309, -0.1758774071931839, 0.08611130714416504, -0.27154630422592163, -0.5995012521743774, -3.5880234241485596, 8.99161148071289, -0.1754831224679947, -0.8950638175010681, -0.1835516095161438, -0.086669921875, 0.55224609375, -0.796630859375, 
100, 3031771615, 0.9422973394393921, -0.17589636147022247, 0.08611667156219482, -0.271543025970459, -0.5957602858543396, -3.583245277404785, 8.988119125366211, -0.77618807554245, -0.681441068649292, -0.1292494237422943, -0.085693359375, 0.552734375, -0.795654296875, 
101, 3031779948, 0.9422839879989624, -0.17593979835510254, 0.08614308387041092, -0.27155259251594543, -0.603320837020874, -3.6260263919830322, 8.95986557006836, -1.170647382736206, -0.48382729291915894, -0.2922584116458893, -0.08544921875, 0.55419921875, -0.796630859375, 
102, 3031788281, 0.9422695636749268, -0.17597068846225739, 0.08617068082094193, -0.271573930978775, -0.6011320948600769, -3.683835744857788, 8.989728927612305, -1.0228532552719116, -0.42222508788108826, -0.3129035234451294, -0.08740234375, 0.55322265625, -0.794677734375, 
103, 3031796614, 0.9422598481178284, -0.17598667740821838, 0.086192287504673, -0.2715906500816345, -0.6166107058525085, -3.7071969509124756, 8.979607582092285, -0.780440092086792, -0.43047282099723816, -0.34907078742980957, -0.086669921875, 0.552734375, -0.794677734375, 
104, 3031804947, 0.9422562718391418, -0.1759520173072815, 0.0862000584602356, -0.2716229259967804, -0.6149299144744873, -3.733319044113159, 8.996617317199707, -0.06447102874517441, -0.46156856417655945, -0.2855987250804901, -0.08740234375, 0.5546875, -0.796142578125, 
105, 3031813280, 0.9422653913497925, -0.17587456107139587, 0.08619038760662079, -0.2716444432735443, -0.6268322467803955, -3.7198574542999268, 9.0409574508667, 0.597823441028595, -0.49689051508903503, -0.3079855740070343, -0.084716796875, 0.55078125, -0.794189453125, 
106, 3031821613, 0.9422684907913208, -0.17577272653579712, 0.08618225157260895, -0.2717021107673645, -0.6305874586105347, -3.7102158069610596, 9.065357208251953, 0.8819877505302429, -0.5276532173156738, -0.17061641812324524, -0.087158203125, 0.5517578125, -0.795654296875, 
107, 3031829946, 0.9422818422317505, -0.17568375170230865, 0.08617740869522095, -0.27171504497528076, -0.6680827140808105, -3.6702311038970947, 9.029291152954102, 0.7299800515174866, -0.41790902614593506, -0.15464594960212708, -0.086181640625, 0.5498046875, -0.7958984375, 
108, 3031838279, 0.9422874450683594, -0.17561030387878418, 0.08618625998497009, -0.2717399001121521, -0.6462736129760742, -3.6425998210906982, 8.987060546875, 0.44301098585128784, -0.3554743528366089, -0.048487745225429535, -0.086181640625, 0.55126953125, -0.795654296875, 
109, 3031846612, 0.9422961473464966, -0.17554999887943268, 0.08619076013565063, -0.2717476189136505, -0.660629391670227, -3.6429357528686523, 8.972554206848145, 0.30533453822135925, -0.4107755422592163, -0.11687775701284409, -0.086181640625, 0.55322265625, -0.797607421875, 
110, 3031854945, 0.9423010349273682, -0.17551526427268982, 0.08620495349168777, -0.2717486023902893, -0.6519314646720886, -3.649930953979492, 8.970736503601074, -0.08601261675357819, -0.3455360531806946, -0.11083280295133591, -0.0869140625, 0.5537109375, -0.795654296875, 
111, 3031863278, 0.9423008561134338, -0.1755010187625885, 0.0862293392419815, -0.27175071835517883, -0.6562376022338867, -3.642749786376953, 8.977862358093262, -0.392819881439209, -0.3265046179294586, -0.0843476727604866, -0.086181640625, 0.5517578125, -0.797119140625, 
112, 3031871611, 0.9422986507415771, -0.17550128698349, 0.08625711500644684, -0.27174949645996094, -0.6429261565208435, -3.6454248428344727, 8.992353439331055, -0.6132047176361084, -0.3228418231010437, -0.06795455515384674, -0.086181640625, 0.55078125, -0.796630859375, 
113, 3031879944, 0.9422944784164429, -0.17550061643123627, 0.08628679811954498, -0.2717549502849579, -0.6331839561462402, -3.645138740539551, 8.970409393310547, -0.5951980352401733, -0.2973044514656067, -0.14643658697605133, -0.083740234375, 0.5537109375, -0.797607421875, 
114, 3031888277, 0.9422997832298279, -0.17550590634346008, 0.08629661798477173, -0.2717299163341522, -0.6248580813407898, -3.6569766998291016, 8.947234153747559, -0.5894347429275513, -0.45001646876335144, -0.2324235439300537, -0.085693359375, 0.55322265625, -0.796630859375, 
115, 3031896610, 0.9422974586486816, -0.17549003660678864, 0.08630964159965515, -0.2717442214488983, -0.6163962483406067, -3.682884454727173, 8.965251922607422, -0.32048529386520386, -0.4353395104408264, -0.2737649381160736, -0.085205078125, 0.55322265625, -0.794677734375, 
116, 3031904943, 0.9422799348831177, -0.17546527087688446, 0.0863320454955101, -0.2718140780925751, -0.632990837097168, -3.654916763305664, 8.97463607788086, -0.2711266875267029, -0.39750733971595764, -0.34276971220970154, -0.087158203125, 0.550048828125, -0.79443359375, 
117, 3031913276, 0.9422809481620789, -0.17543455958366394, 0.08634206652641296, -0.27182722091674805, -0.646574079990387, -3.6634929180145264, 8.97372817993164, -0.10968015342950821, -0.4270917475223541, -0.23767447471618652, -0.085693359375, 0.5517578125, -0.797119140625, 
118, 3031921609, 0.9422913789749146, -0.17538854479789734, 0.08633185923099518, -0.2718241810798645, -0.6429474353790283, -3.6835780143737793, 8.995141983032227, 0.16873379051685333, -0.5805978775024414, -0.21008796989917755, -0.084228515625, 0.552734375, -0.796630859375, 
119, 3031929942, 0.9423032999038696, -0.17532828450202942, 0.08631394803524017, -0.27182748913764954, -0.6468387246131897, -3.6867969036102295, 8.993705749511719, 0.39165443181991577, -0.7156617045402527, -0.10240570455789566, -0.085693359375, 0.548583984375, -0.7939453125, 
120, 3031938275, 0.9423258304595947, -0.17526942491531372, 0.08629249036312103, -0.27179405093193054, -0.6658295392990112, -3.6749303340911865, 8.970209121704102, 0.3879147469997406, -0.6743715405464172, -0.013370630331337452, -0.085693359375, 0.55078125, -0.796142578125, 
121, 3031946608, 0.9423415660858154, -0.1752035915851593, 0.08626863360404968, -0.27178964018821716, -0.6798061728477478, -3.636512517929077, 8.973341941833496, 0.4857867658138275, -0.7947328686714172, 0.004111084621399641, -0.084716796875, 0.5537109375, -0.797119140625, 
122, 3031954941, 0.9423551559448242, -0.17516952753067017, 0.08623531460762024, -0.27177461981773376, -0.681086540222168, -3.6008198261260986, 8.940881729125977, 0.09887094795703888, -0.9376986622810364, -0.17134644091129303, -0.083740234375, 0.55224609375, -0.793701171875, 
123, 3031963274, 0.9423598647117615, -0.175153911113739, 0.08621759712696075, -0.27177366614341736, -0.6731898188591003, -3.6091814041137695, 8.935367584228516, -0.20969092845916748, -0.8811936378479004, -0.12657272815704346, -0.085693359375, 0.55126953125, -0.796630859375, 
124, 3031971607, 0.9423615336418152, -0.17518028616905212, 0.08620403707027435, -0.2717553973197937, -0.6694631576538086, -3.6109912395477295, 8.931077003479004, -0.800086259841919, -0.9487256407737732, -0.0963863655924797, -0.086669921875, 0.55078125, -0.795654296875, 
125, 3031979940, 0.9423508048057556, -0.17523790895938873, 0.0862138494849205, -0.27175211906433105, -0.6571531295776367, -3.6002047061920166, 8.956639289855957, -1.3012287616729736, -0.785204291343689, -0.17289607226848602, -0.088623046875, 0.55078125, -0.796875, 
126, 3031988273, 0.9423294067382812, -0.1753077358007431, 0.08622583746910095, -0.2717776298522949, -0.6432645916938782, -3.6418933868408203, 8.958525657653809, -1.4944367408752441, -0.8387381434440613, -0.26815542578697205, -0.086181640625, 0.55126953125, -0.796142578125, 
127, 3031996606, 0.9423130750656128, -0.17538662254810333, 0.08623487502336502, -0.2717805802822113, -0.6462287306785583, -3.6610629558563232, 8.969426155090332, -1.5803982019424438, -0.8534919023513794, -0.3012745976448059, -0.086181640625, 0.55078125, -0.795654296875, 
128, 3032004939, 0.9423002004623413, -0.17543579638004303, 0.08622714877128601, -0.2717961072921753, -0.6283844709396362, -3.6971545219421387, 8.983039855957031, -1.1264243125915527, -0.944025456905365, -0.38345786929130554, -0.08544921875, 0.5537109375, -0.798095703125, 
129, 3032013272, 0.9422995448112488, -0.17542241513729095, 0.08620336651802063, -0.2718144953250885, -0.5829496383666992, -3.7292492389678955, 8.980066299438477, -0.20650196075439453, -0.9161186814308167, -0.4146944582462311, -0.085693359375, 0.55029296875, -0.795654296875, 
130, 3032021605, 0.9423121213912964, -0.1753617525100708, 0.08614952117204666, -0.27182722091674805, -0.581282913684845, -3.723512649536133, 8.993741989135742, 0.5262829065322876, -1.1742078065872192, -0.2201799750328064, -0.086181640625, 0.552734375, -0.794189453125, 
131, 3032029938, 0.942329466342926, -0.17528073489665985, 0.08609984815120697, -0.27183520793914795, -0.5888077020645142, -3.6734211444854736, 8.999435424804688, 0.7978193163871765, -1.044113039970398, -0.1930544674396515, -0.087890625, 0.55224609375, -0.7978515625, 
132, 3032038271, 0.9423407316207886, -0.17520156502723694, 0.08606398105621338, -0.2718585133552551, -0.6031275391578674, -3.636634111404419, 9.025062561035156, 0.6996399760246277, -0.9063853025436401, -0.15091906487941742, -0.086669921875, 0.55078125, -0.7978515625, 
133, 3032046604, 0.9423549175262451, -0.17514896392822266, 0.08603852987289429, -0.27185124158859253, -0.6146366000175476, -3.6161916255950928, 9.01103687286377, 0.31276264786720276, -0.8717036247253418, 0.017379259690642357, -0.088134765625, 0.5517578125, -0.7978515625, 
134, 3032054937, 0.9423599243164062, -0.17511597275733948, 0.08603718131780624, -0.2718554139137268, -0.6454367637634277, -3.6169137954711914, 9.010149955749512, -0.054788846522569656, -0.6057510375976562, -0.04861581698060036, -0.086181640625, 0.5517578125, -0.797119140625, 
135, 3032063270, 0.9423617124557495, -0.17512518167495728, 0.08605583012104034, -0.2718375623226166, -0.6773888468742371, -3.608830451965332, 9.008389472961426, -0.6947860717773438, -0.5398967862129211, 0.1406349539756775, -0.087890625, 0.552734375, -0.796142578125, 
136, 3032071603, 0.9423485994338989, -0.1751633882522583, 0.08608900010585785, -0.2718478739261627, -0.6859003901481628, -3.615626096725464, 9.044090270996094, -1.1639364957809448, -0.5013986825942993, 0.07593341171741486, -0.085693359375, 0.55126953125, -0.796630859375, 
137, 3032079936, 0.9423400163650513, -0.1752101480960846, 0.086127370595932, -0.2718355059623718, -0.6821094155311584, -3.6817471981048584, 9.014942169189453, -1.2722078561782837, -0.4000431299209595, 0.03448956832289696, -0.08935546875, 0.552490234375, -0.794921875, 
138, 3032088269, 0.9423409700393677, -0.17524708807468414, 0.08615521341562271, -0.27179932594299316, -0.6939688324928284, -3.685824155807495, 8.995307922363281, -1.108020544052124, -0.46005725860595703, 0.15211012959480286, -0.087158203125, 0.550537109375, -0.79443359375, 
139, 3032096602, 0.9423409700393677, -0.17525652050971985, 0.08618476986885071, -0.2717834711074829, -0.6786403059959412, -3.644845485687256, 9.008833885192871, -0.740046501159668, -0.39404940605163574, 0.13323242962360382, -0.086181640625, 0.5517578125, -0.798095703125, 
140, 3032104935, 0.9423470497131348, -0.17524290084838867, 0.0862058624625206, -0.27176451683044434, -0.6420892477035522, -3.656425952911377, 9.022510528564453, -0.4048585593700409, -0.38224121928215027, 0.12905731797218323, -0.085205078125, 0.5517578125, -0.795654296875, 
141, 3032113268, 0.9423497915267944, -0.1752188354730606, 0.0862283855676651, -0.27176350355148315, -0.6030633449554443, -3.695831060409546, 8.96928596496582, -0.2569747865200043, -0.3263894021511078, -0.02501230128109455, -0.086181640625, 0.550537109375, -0.794189453125, 
142, 3032121601, 0.942354679107666, -0.1751660406589508, 0.08624084293842316, -0.2717766761779785, -0.5684078335762024, -3.6700308322906494, 8.95803451538086, 0.15453070402145386, -0.3582023084163666, -0.04107242822647095, -0.087158203125, 0.55029296875, -0.796875, 
143, 3032129934, 0.9423640370368958, -0.17509488761425018, 0.08624814450740814, -0.2717877924442291, -0.5894586443901062, -3.6861817836761475, 8.948135375976562, 0.4422169625759125, -0.3276316821575165, -0.13657508790493011, -0.08544921875, 0.55419921875, -0.796630859375, 
144, 3032138267, 0.9423609375953674, -0.17502224445343018, 0.08625650405883789, -0.271842896938324, -0.5488948822021484, -3.6613829135894775, 8.94922924041748, 0.44010382890701294, -0.3225216567516327, -0.384994775056839, -0.087646484375, 0.550537109375, -0.7958984375, 
145, 3032146600, 0.9423612356185913, -0.17497216165065765, 0.08627237379550934, -0.2718687057495117, -0.5731215476989746, -3.66463041305542, 8.958206176757812, 0.13287383317947388, -0.24840682744979858, -0.3669750988483429, -0.085205078125, 0.55224609375, -0.795166015625, 
146, 3032154933, 0.9423617124557495, -0.17493396997451782, 0.08628389984369278, -0.27188801765441895, -0.6107740998268127, -3.664215564727783, 8.975029945373535, -0.02059384435415268, -0.3210487961769104, -0.36684706807136536, -0.085693359375, 0.552734375, -0.796142578125, 
147, 3032163266, 0.9423617124557495, -0.17490746080875397, 0.08629339933395386, -0.2719021439552307, -0.6609441637992859, -3.6461331844329834, 8.95287036895752, -0.16385425627231598, -0.4469427764415741, -0.2597027122974396, -0.085693359375, 0.55078125, -0.797119140625, 
148, 3032171599, 0.9423611164093018, -0.1749049723148346, 0.08630156517028809, -0.2719029188156128, -0.674083948135376, -3.6231510639190674, 8.992982864379883, -0.49995145201683044, -0.573284924030304, -0.1094624251127243, -0.086669921875, 0.55078125, -0.795166015625, 
149, 3032179932, 0.9423549771308899, -0.17493611574172974, 0.08631128072738647, -0.2719011902809143, -0.6907570958137512, -3.5879452228546143, 8.969752311706543, -0.9462282657623291, -0.6907006502151489, -0.1460907906293869, -0.085205078125, 0.5537109375, -0.796142578125, 
150, 3032188265, 0.9423362016677856, -0.17498108744621277, 0.0863276943564415, -0.27193206548690796, -0.6984107494354248, -3.6222784519195557, 8.94615364074707, -1.1822121143341064, -0.713574230670929, -0.2080260068178177, -0.0859375, 0.55517578125, -0.797119140625, 
151, 3032196598, 0.9423272609710693, -0.17503663897514343, 0.08632592856884003, -0.2719281017780304, -0.7108924388885498, -3.656912326812744, 8.960394859313965, -1.2285226583480835, -0.9326013922691345, -0.18461458384990692, -0.087158203125, 0.55078125, -0.796875, 
152, 3032204931, 0.9423157572746277, -0.1750708520412445, 0.08632256090641022, -0.2719470262527466, -0.673662006855011, -3.660946846008301, 8.999055862426758, -0.9558208584785461, -0.912916898727417, -0.19185061752796173, -0.086669921875, 0.55322265625, -0.795166015625, 
153, 3032213264, 0.9423158168792725, -0.17508281767368317, 0.0863020271062851, -0.2719453275203705, -0.6642201542854309, -3.6899871826171875, 9.02580738067627, -0.568456768989563, -1.0167315006256104, -0.17307540774345398, -0.087646484375, 0.55126953125, -0.79638671875, 
154, 3032221597, 0.9423137307167053, -0.17504927515983582, 0.0862804427742958, -0.27198147773742676, -0.6438345313072205, -3.7092854976654053, 9.015042304992676, 0.02054261602461338, -0.9371095299720764, -0.1554143726825714, -0.085205078125, 0.55078125, -0.796142578125, 
155, 3032229930, 0.9423307180404663, -0.17497508227825165, 0.08624327182769775, -0.2719820439815521, -0.6399362683296204, -3.674386739730835, 9.035699844360352, 0.653675377368927, -0.9245586395263672, -0.0775471031665802, -0.086669921875, 0.55126953125, -0.795654296875, 
156, 3032238263, 0.942344605922699, -0.17489387094974518, 0.0862138569355011, -0.2719953954219818, -0.6109172105789185, -3.678657054901123, 9.046401023864746, 0.7034053206443787, -0.7945280075073242, -0.11859390884637833, -0.086669921875, 0.552734375, -0.797119140625, 
157, 3032246596, 0.9423578977584839, -0.17482350766658783, 0.08619475364685059, -0.27200064063072205, -0.6081704497337341, -3.6350247859954834, 9.04051399230957, 0.5318667888641357, -0.6897144913673401, -0.11234403401613235, -0.0888671875, 0.552734375, -0.79736328125, 
158, 3032254929, 0.9423622488975525, -0.17477385699748993, 0.08620690554380417, -0.27201351523399353, -0.5835217833518982, -3.6082444190979004, 9.042373657226562, 0.1131252646446228, -0.38034576177597046, -0.03399008885025978, -0.088623046875, 0.549560546875, -0.79443359375, 
159, 3032263262, 0.9423636198043823, -0.17476169764995575, 0.0862368792295456, -0.2720072865486145, -0.6108027100563049, -3.595383644104004, 8.990272521972656, -0.44648176431655884, -0.28521451354026794, 0.04089312255382538, -0.087890625, 0.55322265625, -0.7978515625, 
160, 3032271595, 0.942351222038269, -0.17477495968341827, 0.0862974151968956, -0.2720223665237427, -0.6235061883926392, -3.622600793838501, 8.998112678527832, -0.9255959987640381, 0.014971519820392132, -0.03816521167755127, -0.086181640625, 0.55126953125, -0.796630859375, 
161, 3032279928, 0.9423405528068542, -0.17479732632637024, 0.08636653423309326, -0.27202308177948, -0.6473680138587952, -3.6427063941955566, 8.974635124206543, -1.06173574924469, 0.12436991184949875, -0.040777865797281265, -0.08642578125, 0.5546875, -0.796630859375, 
162, 3032288261, 0.9423334002494812, -0.1748211681842804, 0.08643344044685364, -0.27201107144355774, -0.6416099071502686, -3.6588003635406494, 8.97329044342041, -1.0756185054779053, 0.1588466763496399, -0.07543392479419708, -0.08642578125, 0.55322265625, -0.797607421875, 
163, 3032296594, 0.9423263072967529, -0.17481005191802979, 0.08649402111768723, -0.2720238268375397, -0.6690268516540527, -3.6998653411865234, 8.99429988861084, -0.5745785236358643, 0.16302178800106049, -0.16457144916057587, -0.084716796875, 0.552734375, -0.796630859375, 
164, 3032304927, 0.9423303008079529, -0.17476926743984222, 0.08653363585472107, -0.27202343940734863, -0.6620315909385681, -3.683206558227539, 8.985709190368652, -0.10348150879144669, 0.013204137794673443, -0.05806746706366539, -0.085693359375, 0.55029296875, -0.796142578125, 
165, 3032313260, 0.942340075969696, -0.17469659447669983, 0.08655528724193573, -0.27202966809272766, -0.6462521553039551, -3.694807767868042, 8.950294494628906, 0.40202823281288147, -0.14710254967212677, -0.03655151277780533, -0.085205078125, 0.55078125, -0.797607421875, 
166, 3032321593, 0.9423536062240601, -0.1746157705783844, 0.08656299114227295, -0.27203232049942017, -0.6586909890174866, -3.6576921939849854, 8.947441101074219, 0.5551244616508484, -0.2877759039402008, -0.012371675111353397, -0.087646484375, 0.5517578125, -0.79638671875, 
167, 3032329926, 0.9423661828041077, -0.17454314231872559, 0.0865650624036789, -0.2720346748828888, -0.6278837323188782, -3.6368486881256104, 8.927098274230957, 0.47723162174224854, -0.4125940501689911, -0.02300158329308033, -0.084716796875, 0.55224609375, -0.798583984375, 
168, 3032338259, 0.9423770308494568, -0.1744769662618637, 0.08656004071235657, -0.27204087376594543, -0.6316604018211365, -3.6165921688079834, 8.950860023498535, 0.41069865226745605, -0.49849143624305725, -0.11904215812683105, -0.08837890625, 0.55322265625, -0.79638671875, 
169, 3032346592, 0.9423890113830566, -0.17441870272159576, 0.08655126392841339, -0.2720394730567932, -0.6510088443756104, -3.6164417266845703, 8.961467742919922, 0.3273371160030365, -0.6148184537887573, -0.019185060635209084, -0.086181640625, 0.55126953125, -0.797119140625, 
170, 3032354925, 0.9423989653587341, -0.17436333000659943, 0.08654168248176575, -0.27204328775405884, -0.6557011008262634, -3.623272657394409, 8.957905769348145, 0.2761854827404022, -0.6335936784744263, -0.028303727507591248, -0.085693359375, 0.5517578125, -0.798095703125, 
171, 3032363258, 0.9424100518226624, -0.1743272840976715, 0.08653175830841064, -0.2720314860343933, -0.6754430532455444, -3.6207833290100098, 8.968836784362793, 0.02786828577518463, -0.737062394618988, 0.08196554332971573, -0.084228515625, 0.55078125, -0.797607421875, 
172, 3032371591, 0.9424113035202026, -0.17429125308990479, 0.08653541654348373, -0.27204903960227966, -0.6511447429656982, -3.6142098903656006, 8.975587844848633, -0.05157426372170448, -0.6252819299697876, 0.08703718334436417, -0.084716796875, 0.54931640625, -0.7978515625, 
173, 3032379924, 0.9424176812171936, -0.1742732971906662, 0.08653954416513443, -0.2720371186733246, -0.6602431535720825, -3.603645086288452, 8.98020076751709, -0.2709473669528961, -0.6173542737960815, 0.0776495561003685, -0.086181640625, 0.54931640625, -0.79541015625, 
174, 3032388257, 0.9424110651016235, -0.17426128685474396, 0.0865577906370163, -0.27206167578697205, -0.6641772389411926, -3.607729434967041, 8.989678382873535, -0.42606720328330994, -0.5009632110595703, -0.032299548387527466, -0.086669921875, 0.55078125, -0.79736328125, 
175, 3032396590, 0.9424055218696594, -0.1742662489414215, 0.0865844190120697, -0.2720692753791809, -0.6680254340171814, -3.6254684925079346, 9.008612632751465, -0.6574406027793884, -0.3517346680164337, -0.19133833050727844, -0.084716796875, 0.55126953125, -0.796630859375, 
176, 3032404923, 0.942399263381958, -0.17427188158035278, 0.08660691976547241, -0.27208006381988525, -0.6604934930801392, -3.6640725135803223, 9.028847694396973, -0.6654834151268005, -0.4168204665184021, -0.16864411532878876, -0.084228515625, 0.552734375, -0.795654296875, 
177, 3032413256, 0.9423986673355103, -0.17424893379211426, 0.08662491291761398, -0.2720913290977478, -0.666101336479187, -3.7086057662963867, 9.016773223876953, -0.24694685637950897, -0.3551158010959625, -0.2099342793226242, -0.086181640625, 0.5517578125, -0.796630859375, 
178, 3032421589, 0.9424036741256714, -0.17418643832206726, 0.08662719279527664, -0.27211323380470276, -0.6481047868728638, -3.709557294845581, 9.027094841003418, 0.3338431119918823, -0.40429505705833435, -0.24861176311969757, -0.085205078125, 0.55029296875, -0.797607421875, 
179, 3032429922, 0.9424183964729309, -0.17408405244350433, 0.086623914539814, -0.2721289098262787, -0.6686047911643982, -3.6989715099334717, 8.992498397827148, 0.9046052098274231, -0.3409511148929596, -0.16539113223552704, -0.086181640625, 0.5517578125, -0.79833984375, 
180, 3032438255, 0.9424367547035217, -0.17398393154144287, 0.08662276715040207, -0.27212992310523987, -0.6502721309661865, -3.6718761920928955, 8.978591918945312, 0.8485995531082153, -0.33525189757347107, 0.01887769065797329, -0.084228515625, 0.548828125, -0.795654296875, 
181, 3032446588, 0.9424532651901245, -0.17390328645706177, 0.0866227000951767, -0.27212390303611755, -0.6392282843589783, -3.6207618713378906, 8.972319602966309, 0.5898445844650269, -0.43583905696868896, 0.105069600045681, -0.085693359375, 0.55126953125, -0.797607421875, 
182, 3032454921, 0.9424624443054199, -0.17386960983276367, 0.08663448691368103, -0.2721101939678192, -0.630186915397644, -3.5578670501708984, 8.971367835998535, -0.09538740664720535, -0.41758885979652405, 0.07124599069356918, -0.086181640625, 0.55078125, -0.7978515625, 
183, 3032463254, 0.9424623250961304, -0.17387865483760834, 0.08666536211967468, -0.27209481596946716, -0.6401079297065735, -3.588860273361206, 8.993433952331543, -0.7403026223182678, -0.3722260594367981, 0.12977451086044312, -0.084716796875, 0.54833984375, -0.796875, 
184, 3032471587, 0.9424569606781006, -0.1739032119512558, 0.08670932799577713, -0.27208369970321655, -0.6415884494781494, -3.629181385040283, 8.958836555480957, -1.009866714477539, -0.2379818558692932, 0.08820261806249619, -0.084228515625, 0.5517578125, -0.797119140625, 
185, 3032479920, 0.942459225654602, -0.17390480637550354, 0.0867425799369812, -0.2720641493797302, -0.6506798267364502, -3.66223406791687, 8.987589836120605, -0.6512163281440735, -0.3262741267681122, 0.20828215777873993, -0.087646484375, 0.54833984375, -0.79833984375, 
186, 3032488253, 0.9424613118171692, -0.17387627065181732, 0.08676505833864212, -0.2720679044723511, -0.6492850184440613, -3.6483147144317627, 8.979564666748047, -0.2162865847349167, -0.34527987241744995, 0.06112837418913841, -0.083251953125, 0.552490234375, -0.799560546875, 
187, 3032496586, 0.9424718618392944, -0.17382554709911346, 0.08675983548164368, -0.27206549048423767, -0.672338604927063, -3.651390314102173, 9.00124454498291, 0.21042093634605408, -0.5979258418083191, -0.011257455684244633, -0.082763671875, 0.5498046875, -0.799072265625, 
188, 3032504919, 0.9424824714660645, -0.1737544983625412, 0.08674564212560654, -0.2720786929130554, -0.6738478541374207, -3.645353317260742, 9.00429916381836, 0.5021670460700989, -0.6570178866386414, -0.04137979820370674, -0.084228515625, 0.5498046875, -0.797119140625, 
189, 3032513252, 0.9424983263015747, -0.17368856072425842, 0.08672112226486206, -0.27207398414611816, -0.6876028180122375, -3.5848474502563477, 8.995322227478027, 0.4892062842845917, -0.8031983375549316, 0.009067438542842865, -0.083740234375, 0.55126953125, -0.797607421875, 
190, 3032521585, 0.9425137042999268, -0.17365232110023499, 0.08671419322490692, -0.27204629778862, -0.6836758852005005, -3.5813426971435547, 8.980658531188965, 0.029405144974589348, -0.5598375201225281, -0.09009808301925659, -0.082763671875, 0.5517578125, -0.798095703125, 
191, 3032529918, 0.942510724067688, -0.17364206910133362, 0.08673012256622314, -0.2720576822757721, -0.6644633412361145, -3.608802318572998, 8.993362426757812, -0.40912336111068726, -0.4277705252170563, -0.23919853568077087, -0.085205078125, 0.548828125, -0.7998046875, 
192, 3032538251, 0.9425004720687866, -0.17364363372325897, 0.08674871921539307, -0.272085964679718, -0.6592847108840942, -3.6341092586517334, 8.99514389038086, -0.6020113229751587, -0.4952768087387085, -0.19302888214588165, -0.084228515625, 0.5498046875, -0.797119140625, 
193, 3032546584, 0.9424955248832703, -0.17365123331546783, 0.08677336573600769, -0.27209076285362244, -0.6624176502227783, -3.62785005569458, 8.986981391906738, -0.6857442855834961, -0.3943311274051666, -0.16206124424934387, -0.084716796875, 0.5498046875, -0.796142578125, 
194, 3032554917, 0.9424877166748047, -0.17364829778671265, 0.08680686354637146, -0.2721092998981476, -0.6581760048866272, -3.6598594188690186, 9.002897262573242, -0.5954797267913818, -0.24920089542865753, -0.17471471428871155, -0.084716796875, 0.5498046875, -0.79931640625, 
195, 3032563250, 0.9424911141395569, -0.1736135184764862, 0.08682303130626678, -0.27211445569992065, -0.653340756893158, -3.699951410293579, 8.976726531982422, -0.08433486521244049, -0.3547699451446533, -0.10567152500152588, -0.084716796875, 0.54833984375, -0.7978515625, 
196, 3032571583, 0.9425036311149597, -0.17353668808937073, 0.08681885898113251, -0.272121399641037, -0.650000274181366, -3.6799590587615967, 8.971259117126465, 0.5499375462532043, -0.45650967955589294, -0.06568770110607147, -0.087158203125, 0.5517578125, -0.798828125, 
197, 3032579916, 0.9425165057182312, -0.17345747351646423, 0.08681519329547882, -0.272128701210022, -0.6344643235206604, -3.6540942192077637, 8.976123809814453, 0.5911509394645691, -0.45064404606819153, -0.09163492918014526, -0.081787109375, 0.550537109375, -0.800048828125, 
198, 3032588249, 0.9425382614135742, -0.17337429523468018, 0.08680015057325363, -0.2721107304096222, -0.6319679617881775, -3.6251180171966553, 9.022467613220215, 0.6858083605766296, -0.5215826630592346, -0.041623130440711975, -0.086181640625, 0.55029296875, -0.79833984375, 
199, 3032596582, 0.9425543546676636, -0.17329031229019165, 0.08679203689098358, -0.27211132645606995, -0.6656006574630737, -3.6382863521575928, 8.988999366760254, 0.6688004732131958, -0.5121822357177734, 0.001114219194278121, -0.087158203125, 0.55126953125, -0.798828125, 
200, 3032604915, 0.9425947666168213, -0.17322951555252075, 0.08676046133041382, -0.2720198333263397, -0.6568023562431335, -3.623680353164673, 9.015950202941895, 0.4779488444328308, -0.6636136174201965, 0.06545717269182205, -0.084228515625, 0.55078125, -0.798583984375, 
201, 3032613248, 0.9426073431968689, -0.17317751049995422, 0.0867631733417511, -0.27200841903686523, -0.6615738868713379, -3.5752625465393066, 8.992977142333984, 0.19168414175510406, -0.5140777230262756, 0.13251525163650513, -0.084228515625, 0.548828125, -0.7998046875, 
202, 3032621581, 0.9426143765449524, -0.1731579601764679, 0.086777463555336, -0.2719922661781311, -0.6777390241622925, -3.5965566635131836, 8.97999382019043, -0.29360318183898926, -0.4262080490589142, 0.03949715197086334, -0.084228515625, 0.54833984375, -0.79736328125, 
203, 3032629914, 0.942613959312439, -0.17316226661205292, 0.08679816126823425, -0.2719845175743103, -0.6905998587608337, -3.607436180114746, 8.960102081298828, -0.6325563788414001, -0.4685996472835541, 0.011295878328382969, -0.084716796875, 0.5498046875, -0.7998046875, 
204, 3032638247, 0.9426141381263733, -0.17317058145999908, 0.08681531250476837, -0.2719724178314209, -0.6769807934761047, -3.6013777256011963, 8.958706855773926, -0.6812105774879456, -0.5007070302963257, 0.018122071400284767, -0.084716796875, 0.54931640625, -0.80029296875, 
205, 3032646580, 0.9426159858703613, -0.17317324876785278, 0.08683301508426666, -0.27195873856544495, -0.6989543437957764, -3.642756938934326, 8.98300552368164, -0.6017295718193054, -0.5183808207511902, 0.0925058051943779, -0.083740234375, 0.5498046875, -0.799072265625, 
206, 3032654913, 0.9426203370094299, -0.17316044867038727, 0.08684399724006653, -0.27194827795028687, -0.6937828660011292, -3.6464407444000244, 8.981718063354492, -0.3722516894340515, -0.5013474225997925, 0.007543392013758421, -0.084716796875, 0.54833984375, -0.7978515625, 
207, 3032663246, 0.9426308274269104, -0.17312699556350708, 0.08684730529785156, -0.27193206548690796, -0.7044978141784668, -3.6488726139068604, 9.005400657653809, -0.06183276325464249, -0.5852084159851074, 0.16507093608379364, -0.085205078125, 0.55029296875, -0.7978515625, 
208, 3032671579, 0.942644476890564, -0.17308051884174347, 0.08684473484754562, -0.2719159424304962, -0.6907860040664673, -3.639974355697632, 9.008298873901367, 0.12869872152805328, -0.576653242111206, 0.12634220719337463, -0.083740234375, 0.55126953125, -0.799560546875, 
209, 3032679912, 0.9426590204238892, -0.1730274260044098, 0.08683957159519196, -0.27190056443214417, -0.6766945123672485, -3.615762233734131, 9.009305000305176, 0.23553568124771118, -0.6244238018989563, 0.17557275295257568, -0.084716796875, 0.54833984375, -0.79931640625, 
210, 3032688245, 0.9426724314689636, -0.17298832535743713, 0.08684223890304565, -0.271878182888031, -0.6957498788833618, -3.613201379776001, 8.994063377380371, -0.00040982780046761036, -0.5901007652282715, 0.2980344593524933, -0.084716796875, 0.548828125, -0.798828125, 
211, 3032696578, 0.9426848292350769, -0.1729552447795868, 0.08685202151536942, -0.27185294032096863, -0.6625607013702393, -3.6127865314483643, 9.009814262390137, -0.0976414605975151, -0.5264750123023987, 0.304207444190979, -0.083740234375, 0.5478515625, -0.7998046875, 
212, 3032704911, 0.9426969885826111, -0.17294730246067047, 0.08686648309230804, -0.2718110978603363, -0.6559514403343201, -3.599074602127075, 8.99751091003418, -0.4679849445819855, -0.5631161332130432, 0.4583667516708374, -0.084716796875, 0.54833984375, -0.7998046875, 
213, 3032713244, 0.9426997303962708, -0.17297473549842834, 0.08690622448921204, -0.2717716097831726, -0.6627828478813171, -3.5735957622528076, 9.018324851989746, -1.0331629514694214, -0.38796597719192505, 0.4525522291660309, -0.082763671875, 0.55029296875, -0.797119140625, 
214, 3032721577, 0.9427035450935364, -0.17305047810077667, 0.08695271611213684, -0.2716955244541168, -0.6488174796104431, -3.5474205017089844, 8.973872184753418, -1.705651879310608, -0.37519729137420654, 0.4616069197654724, -0.085205078125, 0.548828125, -0.798828125, 
215, 3032729910, 0.942686140537262, -0.17317098379135132, 0.08702858537435532, -0.27165487408638, -0.6294266581535339, -3.563314914703369, 8.951797485351562, -2.424579620361328, -0.2438347190618515, 0.3659505546092987, -0.083740234375, 0.55029296875, -0.798583984375, 
216, 3032738243, 0.9426600933074951, -0.1733577996492386, 0.0871199518442154, -0.27159684896469116, -0.6510328054428101, -3.5658507347106934, 8.938785552978516, -3.378582000732422, -0.22344577312469482, 0.3146965205669403, -0.084228515625, 0.5498046875, -0.798828125, 
217, 3032746576, 0.942613422870636, -0.17362083494663239, 0.08723220974206924, -0.2715547978878021, -0.6434829831123352, -3.574704647064209, 8.968666076660156, -4.479699611663818, -0.27361127734184265, 0.19048026204109192, -0.083251953125, 0.55078125, -0.796630859375, 
218, 3032754909, 0.9425471425056458, -0.17402537167072296, 0.08738905191421509, -0.2714751064777374, -0.6884129643440247, -3.549522876739502, 9.017596244812012, -6.569615364074707, -0.19671733677387238, 0.3474186658859253, -0.083740234375, 0.5517578125, -0.798095703125, 
219, 3032763242, 0.9424324035644531, -0.17470291256904602, 0.08764059841632843, -0.27135783433914185, -0.6833265423774719, -3.388601303100586, 9.067333221435547, -10.625862121582031, -0.11352230608463287, 0.7477436661720276, -0.081787109375, 0.551513671875, -0.798095703125, 
220, 3032771575, 0.9422364234924316, -0.17577801644802094, 0.08803338557481766, -0.27121642231941223, -0.6712343096733093, -3.2637925148010254, 8.97779655456543, -16.596031188964844, -0.020055953413248062, 1.3472964763641357, -0.083740234375, 0.55224609375, -0.796630859375, 
221, 3032779908, 0.9419122934341431, -0.17779380083084106, 0.08869118243455887, -0.2708139419555664, -0.6394186019897461, -2.8139779567718506, 9.05180549621582, -30.331090927124023, -0.2776329219341278, 3.025209665298462, -0.08251953125, 0.555908203125, -0.795166015625, 
222, 3032788241, 0.9413343071937561, -0.1812244951725006, 0.08991020172834396, -0.27014634013175964, -0.55019611120224, -2.1960182189941406, 8.936464309692383, -51.7087287902832, 1.3881537914276123, 5.180939197540283, -0.08154296875, 0.55810546875, -0.79052734375, 
223, 3032796574, 0.9404001832008362, -0.18640336394309998, 0.09190824627876282, -0.2692022919654846, -0.5327690839767456, -2.0925469398498535, 8.837784767150879, -78.44526672363281, 4.725237846374512, 7.195538520812988, -0.08154296875, 0.564697265625, -0.783935546875, 
224, 3032804907, 0.9390652775764465, -0.19313271343708038, 0.09471407532691956, -0.26814350485801697, -0.44758686423301697, -2.576777935028076, 8.79416561126709, -102.74434661865234, 9.28565788269043, 8.12837028503418, -0.078857421875, 0.57666015625, -0.77880859375, 
225, 3032813240, 0.9374092817306519, -0.201043039560318, 0.09807555377483368, -0.2669127285480499, -0.4849207103252411, -3.181338310241699, 8.938888549804688, -121.03492736816406, 12.426125526428223, 8.28148365020752, -0.078125, 0.587890625, -0.76611328125, 
226, 3032821573, 0.9354529976844788, -0.2095591276884079, 0.10186561197042465, -0.2658036947250366, -0.6569914221763611, -3.762688636779785, 8.970955848693848, -131.37225341796875, 14.957192420959473, 9.05898666381836, -0.076171875, 0.6025390625, -0.7578125, 
227, 3032829906, 0.9334160089492798, -0.2182859480381012, 0.10576697438955307, -0.2644138038158417, -0.6742804050445557, -4.515504837036133, 9.020369529724121, -134.8277587890625, 16.434398651123047, 9.319314002990723, -0.074462890625, 0.615966796875, -0.74658203125, 
228, 3032838239, 0.9313034415245056, -0.22689580917358398, 0.10969933867454529, -0.2630096673965454, -0.6951224207878113, -5.106768608093262, 8.977558135986328, -133.71202087402344, 17.34125518798828, 9.496488571166992, -0.07177734375, 0.632080078125, -0.73095703125, 
229, 3032846572, 0.9291826486587524, -0.23512300848960876, 0.11356008052825928, -0.26164209842681885, -0.7519097924232483, -5.4153523445129395, 8.860023498535156, -128.49720764160156, 17.916797637939453, 9.348348617553711, -0.067626953125, 0.64453125, -0.720703125, 
230, 3032854905, 0.9270780682563782, -0.24302729964256287, 0.11725743114948273, -0.2602505087852478, -0.9175850749015808, -5.452947616577148, 8.378597259521484, -123.79361724853516, 16.90589714050293, 9.693521499633789, -0.064453125, 0.655517578125, -0.7099609375, 
231, 3032863238, 0.9248318672180176, -0.2513914704322815, 0.12097888439893723, -0.2585887312889099, -1.0527137517929077, -4.7405500411987305, 8.267282485961914, -130.626953125, 14.876450538635254, 11.966066360473633, -0.063232421875, 0.668212890625, -0.69873046875, 
232, 3032871571, 0.9222991466522217, -0.2606163024902344, 0.12502627074718475, -0.2565690875053406, -0.8971737623214722, -3.6947736740112305, 8.344525337219238, -144.3416290283203, 15.216206550598145, 15.198301315307617, -0.0615234375, 0.681884765625, -0.68408203125, 
233, 3032879904, 0.9192720055580139, -0.2710367441177368, 0.12962034344673157, -0.2543475329875946, -0.808027982711792, -3.436676025390625, 8.200770378112793, -163.5309295654297, 18.041908264160156, 15.913570404052734, -0.0576171875, 0.69580078125, -0.67041015625, 
234, 3032888237, 0.9155359268188477, -0.2829575538635254, 0.1348966658115387, -0.2520863115787506, -0.8503014445304871, -3.641430139541626, 7.966354846954346, -187.62893676757812, 22.550373077392578, 13.808829307556152, -0.054443359375, 0.71044921875, -0.651123046875, 
235, 3032896570, 0.9109576940536499, -0.2965731620788574, 0.1409086138010025, -0.24972116947174072, -0.8595162034034729, -3.9564783573150635, 7.793647289276123, -214.95718383789062, 27.07881736755371, 11.912457466125488, -0.05029296875, 0.7294921875, -0.62841796875, 
236, 3032904903, 0.9054769277572632, -0.31177160143852234, 0.14774248003959656, -0.24717959761619568, -0.7480370998382568, -4.277871608734131, 7.622471332550049, -241.6720428466797, 32.9877815246582, 11.3123140335083, -0.0478515625, 0.7490234375, -0.603759765625, 
237, 3032913236, 0.899182140827179, -0.32801157236099243, 0.1552002727985382, -0.24455726146697998, -0.7452866435050964, -5.020261287689209, 7.206083297729492, -260.38018798828125, 38.50617599487305, 10.10519027709961, -0.043701171875, 0.77099609375, -0.576904296875, 
238, 3032921569, 0.8922460079193115, -0.3446600139141083, 0.16303464770317078, -0.24195408821105957, -0.854623556137085, -6.094532012939453, 6.942086219787598, -269.5945739746094, 43.26230239868164, 8.5442533493042, -0.0380859375, 0.7880859375, -0.54541015625, 
239, 3032929902, 0.8849362730979919, -0.36107635498046875, 0.17088524997234344, -0.2394273579120636, -1.07660710811615, -7.313068866729736, 6.653675079345703, -268.3580017089844, 45.41736602783203, 6.953207969665527, -0.03369140625, 0.81103515625, -0.5166015625, 
240, 3032938235, 0.877352237701416, -0.3771594762802124, 0.17866775393486023, -0.236847922205925, -1.1969943046569824, -7.966882705688477, 6.547489166259766, -265.60516357421875, 46.084781646728516, 7.146317958831787, -0.032958984375, 0.828125, -0.483154296875, 
241, 3032946568, 0.869414746761322, -0.3930557370185852, 0.18652203679084778, -0.23420146107673645, -1.210254192352295, -7.721346855163574, 6.334682941436768, -265.5411071777344, 48.063194274902344, 7.625092506408691, -0.029296875, 0.845947265625, -0.450439453125, 
242, 3032954901, 0.8608894944190979, -0.40915733575820923, 0.19464334845542908, -0.23149298131465912, -1.1521371603012085, -7.138765811920166, 6.120511054992676, -272.23333740234375, 51.78520584106445, 7.400748252868652, -0.02197265625, 0.862548828125, -0.416259765625, 
243, 3032963234, 0.8516510725021362, -0.42561280727386475, 0.20311187207698822, -0.22870337963104248, -1.0769389867782593, -6.857672214508057, 5.629577159881592, -281.71875, 56.202476501464844, 7.087757110595703, -0.020751953125, 0.879150390625, -0.380615234375, 
244, 3032971567, 0.8416441679000854, -0.4424261152744293, 0.2119634449481964, -0.22578993439674377, -1.124855875968933, -6.894857883453369, 5.110174655914307, -292.00311279296875, 61.00541305541992, 7.375044345855713, -0.0166015625, 0.892333984375, -0.34423828125, 
245, 3032979900, 0.8309143781661987, -0.4594273865222931, 0.22115232050418854, -0.22274427115917206, -1.1639715433120728, -7.172600269317627, 4.628148555755615, -299.9698181152344, 65.61029815673828, 8.153227806091309, -0.01171875, 0.90771484375, -0.30517578125, 
246, 3032988233, 0.8196690678596497, -0.4762517511844635, 0.23049697279930115, -0.21957585215568542, -1.2977335453033447, -7.735090732574463, 4.184584140777588, -302.1003112792969, 68.74369049072266, 9.51121711730957, -0.0087890625, 0.917724609375, -0.264892578125, 
247, 3032996566, 0.807846188545227, -0.49299126863479614, 0.23989549279212952, -0.21635594964027405, -1.509561538696289, -8.401947975158691, 3.7214555740356445, -305.2088623046875, 71.08094787597656, 8.957842826843262, -0.0048828125, 0.929931640625, -0.224365234375, 
248, 3033004899, 0.795434296131134, -0.5095311403274536, 0.2494884729385376, -0.2131509631872177, -1.4571353197097778, -8.393800735473633, 3.44097900390625, -307.5572509765625, 75.89865112304688, 9.029126167297363, -0.001953125, 0.93896484375, -0.18115234375, 
249, 3033013232, 0.7829809188842773, -0.5252661108970642, 0.25874167680740356, -0.21001076698303223, -1.5919666290283203, -8.826942443847656, 2.789853096008301, -297.7808532714844, 75.12006378173828, 8.565818786621094, 0.001708984375, 0.944580078125, -0.13916015625, 
250, 3033021565, 0.7707046866416931, -0.5399933457374573, 0.26751673221588135, -0.20705516636371613, -1.8134158849716187, -9.714437484741211, 2.475229263305664, -283.6534118652344, 73.59536743164062, 7.237452030181885, 0.00244140625, 0.9482421875, -0.09716796875, 
251, 3033029898, 0.7586842775344849, -0.5536766052246094, 0.2758837044239044, -0.20431384444236755, -1.8802318572998047, -10.146710395812988, 2.133274793624878, -268.692626953125, 72.88029479980469, 6.491756916046143, 0.006591796875, 0.951416015625, -0.060791015625, 
252, 3033038231, 0.7472758293151855, -0.5660210847854614, 0.2836778163909912, -0.20184531807899475, -1.9318263530731201, -10.292625427246094, 1.6934268474578857, -247.45660400390625, 70.43324279785156, 6.0949554443359375, 0.00634765625, 0.95361328125, -0.023681640625, 
253, 3033046564, 0.7365313172340393, -0.5770976543426514, 0.29092246294021606, -0.19964872300624847, -1.9588520526885986, -10.426618576049805, 1.3551896810531616, -226.6309814453125, 67.81837463378906, 5.798195838928223, 0.009521484375, 0.951904296875, 0.006591796875, 
254, 3033054897, 0.7260386943817139, -0.5873569846153259, 0.29802584648132324, -0.19767583906650543, -1.7405298948287964, -10.024361610412598, 1.4073811769485474, -215.10784912109375, 69.41353607177734, 6.387632369995117, 0.00927734375, 0.95263671875, 0.036865234375, 
255, 3033063230, 0.715178906917572, -0.5974665880203247, 0.3053155541419983, -0.19583331048488617, -1.4218404293060303, -8.741558074951172, 1.274259090423584, -216.51402282714844, 74.22396087646484, 6.190632343292236, 0.009521484375, 0.951904296875, 0.06689453125, 
256, 3033071563, 0.7039704322814941, -0.6075704097747803, 0.31258469820022583, -0.19388167560100555, -1.5820214748382568, -8.04118824005127, 0.8008233308792114, -219.7624969482422, 74.61909484863281, 6.19745397567749, 0.009765625, 0.9482421875, 0.10009765625, 
257, 3033079896, 0.6923601627349854, -0.6177586913108826, 0.3198014497756958, -0.1917133629322052, -1.8436301946640015, -8.359627723693848, 0.3711475133895874, -224.6922149658203, 73.79056549072266, 6.406743049621582, 0.009521484375, 0.943603515625, 0.128173828125, 
258, 3033088229, 0.6803692579269409, -0.6279364824295044, 0.32705530524253845, -0.1893240362405777, -1.9035817384719849, -8.768081665039062, -0.12086686491966248, -228.9351043701172, 73.9797592163086, 7.8847975730896, 0.008056640625, 0.941162109375, 0.159912109375, 
259, 3033096562, 0.6686922311782837, -0.6375667452812195, 0.3338947892189026, -0.1867859810590744, -2.258216381072998, -9.531017303466797, -0.7643411159515381, -220.65170288085938, 68.82039642333984, 8.960768699645996, 0.00732421875, 0.935791015625, 0.1904296875, 
260, 3033104895, 0.657474935054779, -0.6465741991996765, 0.3400224447250366, -0.1845771223306656, -2.242507219314575, -10.545949935913086, -1.0878740549087524, -207.58921813964844, 64.65794372558594, 3.74973464012146, 0.0078125, 0.92919921875, 0.219482421875, 
261, 3033113228, 0.64647376537323, -0.6549911499023438, 0.3460655212402344, -0.1825176179409027, -1.9918248653411865, -10.377786636352539, -1.470418095588684, -199.37789916992188, 65.69947814941406, 4.940882682800293, 0.005126953125, 0.924072265625, 0.2451171875, 
262, 3033121561, 0.6364632844924927, -0.6623834371566772, 0.3514920473098755, -0.1806420087814331, -2.232469320297241, -10.364275932312012, -1.8732798099517822, -178.956298828125, 59.739566802978516, 5.130960941314697, 0.003662109375, 0.915283203125, 0.272705078125, 
263, 3033129894, 0.6273500323295593, -0.6688880920410156, 0.35630548000335693, -0.17911651730537415, -2.3519537448883057, -10.62388801574707, -2.149834394454956, -159.7633514404297, 55.42221450805664, 2.9871177673339844, 0.0009765625, 0.9111328125, 0.293212890625, 
264, 3033138227, 0.6193515658378601, -0.6743580102920532, 0.3605509400367737, -0.17794226109981537, -2.325922966003418, -10.656927108764648, -2.2461514472961426, -137.4951629638672, 50.84309387207031, 2.56121563911438, 0.002197265625, 0.90185546875, 0.31201171875, 
265, 3033146560, 0.6120365262031555, -0.6791316270828247, 0.3644859790802002, -0.17707937955856323, -2.0725841522216797, -10.185694694519043, -2.2848329544067383, -122.8879165649414, 49.39815902709961, 2.141549587249756, -0.001953125, 0.896240234375, 0.32958984375, 
266, 3033154893, 0.6054956912994385, -0.6832506060600281, 0.36803409457206726, -0.17638054490089417, -2.108189105987549, -9.86241626739502, -2.3780012130737305, -108.4168701171875, 45.390586853027344, 2.3273117542266846, -0.002197265625, 0.892822265625, 0.34619140625, 
267, 3033163226, 0.5991166830062866, -0.6871298551559448, 0.37151336669921875, -0.17579934000968933, -2.0123517513275146, -9.385499954223633, -2.3674094676971436, -104.10462951660156, 45.68156433105469, 2.294062852859497, -0.005859375, 0.886474609375, 0.359375, 
268, 3033171559, 0.5924713611602783, -0.691109836101532, 0.3750753700733185, -0.17515382170677185, -1.848372459411621, -8.520306587219238, -2.5032265186309814, -108.00953674316406, 46.882484436035156, 2.4623522758483887, -0.008544921875, 0.88134765625, 0.373046875, 
269, 3033179892, 0.5856941342353821, -0.6952082514762878, 0.3785572052001953, -0.17423489689826965, -2.0450618267059326, -8.216885566711426, -2.8614706993103027, -111.41537475585938, 44.01515197753906, 2.9824185371398926, -0.01025390625, 0.875, 0.3857421875, 
270, 3033188225, 0.5789862275123596, -0.6993472576141357, 0.3817600607872009, -0.17309901118278503, -2.3586394786834717, -8.592562675476074, -3.2048580646514893, -111.5702896118164, 39.236812591552734, 2.0309906005859375, -0.014404296875, 0.869140625, 0.39892578125, 
271, 3033196558, 0.5726321339607239, -0.7033102512359619, 0.38458526134490967, -0.17192134261131287, -2.5333619117736816, -9.238237380981445, -3.5124077796936035, -106.05596160888672, 34.3896598815918, 0.4843960702419281, -0.0126953125, 0.86376953125, 0.411865234375, 
272, 3033204891, 0.5668965578079224, -0.7068811655044556, 0.3869881331920624, -0.17088857293128967, -2.4144394397735596, -9.869757652282715, -3.7146706581115723, -95.24697875976562, 30.126239776611328, -1.1913411617279053, -0.017333984375, 0.85693359375, 0.42578125, 
273, 3033213224, 0.5620129704475403, -0.7098758220672607, 0.38895994424819946, -0.17012858390808105, -2.3631362915039062, -10.081931114196777, -3.9172544479370117, -79.9831314086914, 26.231931686401367, -2.452130079269409, -0.019287109375, 0.853515625, 0.437744140625, 
274, 3033221557, 0.5580657124519348, -0.7122622132301331, 0.390483021736145, -0.16965799033641815, -2.425868511199951, -10.069894790649414, -4.062600135803223, -63.57224655151367, 21.982839584350586, -3.623340368270874, -0.02197265625, 0.84716796875, 0.443359375, 
275, 3033229890, 0.5543991327285767, -0.7143457531929016, 0.3919956386089325, -0.1694309413433075, -1.9825944900512695, -9.551108360290527, -3.89266037940979, -57.138946533203125, 23.509681701660156, -3.3157997131347656, -0.022216796875, 0.843994140625, 0.45166015625, 
276, 3033238223, 0.5508670806884766, -0.7163276672363281, 0.39347708225250244, -0.16915011405944824, -1.9869261980056763, -8.849139213562012, -3.870926856994629, -55.28112030029297, 22.248197555541992, -2.343940496444702, -0.024169921875, 0.84228515625, 0.45849609375, 
277, 3033246556, 0.5469917058944702, -0.7185072302818298, 0.39508989453315735, -0.16872142255306244, -2.0567467212677, -8.60128116607666, -3.785111904144287, -61.24500274658203, 23.191240310668945, -1.8048241138458252, -0.0263671875, 0.836669921875, 0.46484375, 
278, 3033254889, 0.5426556468009949, -0.7209806442260742, 0.39686232805252075, -0.16801096498966217, -2.0945518016815186, -8.196078300476074, -3.6883740425109863, -69.92765045166016, 23.428836822509766, -0.7653185725212097, -0.027099609375, 0.831298828125, 0.47314453125, 
279, 3033263222, 0.5372780561447144, -0.7240965962409973, 0.3989618420600891, -0.1669178158044815, -1.850177526473999, -7.689081192016602, -3.724517345428467, -87.87223815917969, 26.275222778320312, -0.5874539613723755, -0.030029296875, 0.827392578125, 0.48486328125, 
280, 3033271555, 0.5312672853469849, -0.7276815176010132, 0.40116292238235474, -0.1652834117412567, -2.1289687156677246, -7.706346035003662, -3.9978764057159424, -100.86016845703125, 24.035995483398438, 0.40477272868156433, -0.03125, 0.822265625, 0.4931640625, 
281, 3033279888, 0.5249879360198975, -0.7314938902854919, 0.40328601002693176, -0.16334168612957, -2.3348777294158936, -8.544981002807617, -4.269885063171387, -106.71382141113281, 21.353975296020508, -0.00466183852404356, -0.030517578125, 0.8134765625, 0.50634765625, 
282, 3033288221, 0.5189540386199951, -0.7351749539375305, 0.40519267320632935, -0.16136613488197327, -2.357914686203003, -9.294342041015625, -4.505917072296143, -103.0191879272461, 18.340261459350586, -0.6718677878379822, -0.03466796875, 0.806396484375, 0.51904296875, 
283, 3033296554, 0.5136885046958923, -0.7383694648742676, 0.40680018067359924, -0.15957464277744293, -2.311650276184082, -10.053443908691406, -4.600103855133057, -90.06925964355469, 14.909590721130371, -0.5797823667526245, -0.036865234375, 0.798583984375, 0.52734375, 
284, 3033304887, 0.5095251202583313, -0.7408623099327087, 0.40804433822631836, -0.15818533301353455, -2.3012731075286865, -10.44398021697998, -4.619614124298096, -70.88343811035156, 11.807921409606934, -0.7589531540870667, -0.035888671875, 0.79296875, 0.5390625, 
285, 3033313220, 0.506564199924469, -0.7425662279129028, 0.4089650511741638, -0.15732572972774506, -2.2130236625671387, -10.53310775756836, -4.6366496086120605, -49.4189453125, 9.898822784423828, -0.7285600900650024, -0.036865234375, 0.788330078125, 0.544921875, 
286, 3033321553, 0.5044479966163635, -0.7436575889587402, 0.4097740352153778, -0.15686416625976562, -2.007542371749878, -10.015890121459961, -4.662365913391113, -34.047672271728516, 9.82514476776123, 0.6640498042106628, -0.03662109375, 0.7861328125, 0.5517578125, 
287, 3033329886, 0.5030667781829834, -0.7442916631698608, 0.41041237115859985, -0.15662431716918945, -2.1245229244232178, -9.590897560119629, -4.546225070953369, -21.740388870239258, 7.686631679534912, 1.5063738822937012, -0.03759765625, 0.783935546875, 0.55224609375, 
288, 3033338219, 0.5018880367279053, -0.7447921633720398, 0.41101187467575073, -0.15645359456539154, -2.043498992919922, -8.967073440551758, -4.455319404602051, -18.2849178314209, 7.274035453796387, 1.8259625434875488, -0.0390625, 0.780517578125, 0.553955078125, 
289, 3033346552, 0.5006891489028931, -0.7453550696372986, 0.4115551710128784, -0.1561858355998993, -2.017313003540039, -8.456450462341309, -4.398247718811035, -19.334823608398438, 5.869734287261963, 1.5202052593231201, -0.0400390625, 0.779296875, 0.556884765625, 
290, 3033354885, 0.49926382303237915, -0.7461074590682983, 0.4120939373970032, -0.15573546290397644, -1.9890859127044678, -8.32970142364502, -4.371955871582031, -23.987178802490234, 4.905269622802734, 1.2057009935379028, -0.0400390625, 0.78076171875, 0.55859375, 
291, 3033363218, 0.4975477457046509, -0.7470885515213013, 0.4126241207122803, -0.15511924028396606, -1.926000714302063, -8.294477462768555, -4.496227741241455, -29.45795440673828, 4.238326549530029, 0.3041052520275116, -0.041259765625, 0.775634765625, 0.562744140625, 
292, 3033371551, 0.49562764167785645, -0.7482342720031738, 0.41313737630844116, -0.1543755829334259, -1.9203633069992065, -8.412552833557129, -4.583712100982666, -33.385520935058594, 3.61039400100708, -0.3717653453350067, -0.042724609375, 0.775146484375, 0.564697265625, 
293, 3033379884, 0.493758887052536, -0.7493912577629089, 0.41356444358825684, -0.15360699594020844, -1.9367250204086304, -8.674870491027832, -4.706897735595703, -32.876251220703125, 2.4609925746917725, -1.0386967658996582, -0.04052734375, 0.77099609375, 0.569091796875, 
294, 3033388217, 0.4922155439853668, -0.7503670454025269, 0.4138723611831665, -0.1529652178287506, -1.9338783025741577, -9.034282684326172, -4.808475494384766, -27.332469940185547, 1.4987666606903076, -1.407746434211731, -0.04052734375, 0.76953125, 0.572998046875, 
295, 3033396550, 0.4912487268447876, -0.7510102987289429, 0.4139983654022217, -0.15257513523101807, -1.8968563079833984, -9.201639175415039, -4.907313346862793, -17.302534103393555, 0.27468714118003845, -1.8846063613891602, -0.0419921875, 0.768798828125, 0.575927734375, 
296, 3033404883, 0.4911220371723175, -0.7511475086212158, 0.4139202833175659, -0.15251979231834412, -1.9015275239944458, -9.386496543884277, -5.021624565124512, -2.8909122943878174, -1.370092749595642, -1.6138890981674194, -0.041259765625, 0.765380859375, 0.576416015625, 
297, 3033413216, 0.4917448163032532, -0.7508007287979126, 0.4136869013309479, -0.15285338461399078, -1.7947198152542114, -9.347414016723633, -4.918388843536377, 10.674516677856445, -1.6497875452041626, -1.5146468877792358, -0.0400390625, 0.767333984375, 0.574462890625, 
298, 3033421549, 0.49278518557548523, -0.7501498460769653, 0.4134138226509094, -0.1534351408481598, -1.6524711847305298, -8.682685852050781, -4.744884967803955, 18.521211624145508, -1.0918327569961548, -0.9967525601387024, -0.0419921875, 0.766357421875, 0.574462890625, 
299, 3033429882, 0.49399396777153015, -0.7493897676467896, 0.41312795877456665, -0.1540316641330719, -1.6907274723052979, -8.266444206237793, -4.544464588165283, 21.125782012939453, -1.753922462463379, -0.2501358985900879, -0.04150390625, 0.7705078125, 0.571044921875, 
300, 3033438215, 0.49505335092544556, -0.7487037181854248, 0.4129149913787842, -0.1545373648405075, -1.6764024496078491, -8.029237747192383, -4.402757167816162, 18.39630126953125, -1.5116628408432007, 0.37588897347450256, -0.0419921875, 0.7705078125, 0.570068359375, 
301, 3033446548, 0.4957444965839386, -0.7482637166976929, 0.41276443004608154, -0.1548549085855484, -1.6937342882156372, -7.783365249633789, -4.383521556854248, 11.745281219482422, -1.4466794729232788, 0.12369116395711899, -0.0419921875, 0.7724609375, 0.568603515625, 
302, 3033454881, 0.4960939288139343, -0.7480834722518921, 0.41264837980270386, -0.1549149602651596, -1.8169310092926025, -7.967024803161621, -4.460157871246338, 4.890756607055664, -2.5660979747772217, -0.017865927889943123, -0.042724609375, 0.7724609375, 0.566650390625, 
303, 3033463214, 0.4961718022823334, -0.7481327652931213, 0.41251298785209656, -0.15478838980197906, -1.8871337175369263, -8.325220108032227, -4.538903713226318, -0.4548960030078888, -3.4758903980255127, -0.7757655382156372, -0.0400390625, 0.771240234375, 0.565185546875, 
304, 3033471547, 0.496222585439682, -0.748241662979126, 0.4123268127441406, -0.15459483861923218, -1.9142038822174072, -8.729535102844238, -4.6444010734558105, -1.4221537113189697, -4.477573394775391, -1.233325481414795, -0.04248046875, 0.771484375, 0.565673828125, 
305, 3033479880, 0.49657440185546875, -0.748208224773407, 0.41200384497642517, -0.15448865294456482, -1.985314965248108, -9.156779289245605, -4.740710735321045, 3.4444613456726074, -5.923778533935547, -1.792484164237976, -0.042724609375, 0.77490234375, 0.567626953125, 
306, 3033488213, 0.49757152795791626, -0.7478189468383789, 0.41147321462631226, -0.15457947552204132, -2.0588111877441406, -9.537403106689453, -4.858127593994141, 14.064010620117188, -8.176820755004883, -1.8702363967895508, -0.039306640625, 0.774658203125, 0.56640625, 
307, 3033496546, 0.49955320358276367, -0.7468628287315369, 0.41065794229507446, -0.15497863292694092, -2.1782214641571045, -9.922530174255371, -4.964242935180664, 30.424211502075195, -11.35555648803711, -1.6226248741149902, -0.039794921875, 0.775146484375, 0.562255859375, 
308, 3033504879, 0.502797544002533, -0.7451790571212769, 0.4094291627407074, -0.15584000945091248, -2.2227845191955566, -10.190104484558105, -5.028259754180908, 51.81979751586914, -15.258757591247559, -2.369335174560547, -0.040283203125, 0.77880859375, 0.557373046875, 
309, 3033513212, 0.5075687766075134, -0.7425928711891174, 0.4077112078666687, -0.15721581876277924, -2.3072469234466553, -10.518842697143555, -5.042559623718262, 77.71224975585938, -19.803237915039062, -2.4627845287323, -0.04052734375, 0.784423828125, 0.549072265625, 
310, 3033521545, 0.513779878616333, -0.739087700843811, 0.40555697679519653, -0.15911877155303955, -2.233489513397217, -10.502851486206055, -4.928499698638916, 102.77630615234375, -23.236732482910156, -2.1803178787231445, -0.036865234375, 0.7919921875, 0.54052734375, 
311, 3033529878, 0.5211363434791565, -0.7347696423530579, 0.4030766487121582, -0.16147877275943756, -2.11527156829834, -10.001267433166504, -4.721113204956055, 123.37601470947266, -25.820188522338867, -1.835785150527954, -0.0361328125, 0.798583984375, 0.5283203125, 
312, 3033538211, 0.5292794704437256, -0.7298511862754822, 0.4003387689590454, -0.16408789157867432, -2.083588123321533, -9.48656177520752, -4.439268589019775, 137.60989379882812, -27.952287673950195, -1.0533396005630493, -0.0361328125, 0.810546875, 0.513671875, 
313, 3033546544, 0.5378816723823547, -0.7245320081710815, 0.3974219560623169, -0.16675695776939392, -2.066092014312744, -9.05943775177002, -4.140621185302734, 145.84027099609375, -30.500144958496094, -0.1375127136707306, -0.033203125, 0.820556640625, 0.49560546875, 
314, 3033554877, 0.546640932559967, -0.7190377116203308, 0.3943520188331604, -0.16932331025600433, -2.0672428607940674, -8.756738662719727, -3.9454402923583984, 148.46466064453125, -33.15618896484375, 0.3906250298023224, -0.03125, 0.8310546875, 0.47705078125, 
315, 3033563210, 0.5554048418998718, -0.7134871482849121, 0.39115047454833984, -0.17169331014156342, -2.1372759342193604, -8.692622184753418, -3.783489465713501, 148.2003936767578, -35.93659591674805, 0.9031507968902588, -0.028564453125, 0.840576171875, 0.46044921875, 
316, 3033571543, 0.5640779733657837, -0.7079564929008484, 0.3878170847892761, -0.1738595813512802, -2.177255630493164, -8.727399826049805, -3.6310067176818848, 146.36032104492188, -38.50938034057617, 0.8355275988578796, -0.028076171875, 0.8486328125, 0.440185546875, 
317, 3033579876, 0.5727441906929016, -0.7023882865905762, 0.3843476176261902, -0.17580455541610718, -2.169369697570801, -8.948535919189453, -3.5016026496887207, 145.7412567138672, -41.584171295166016, 1.4204533100128174, -0.02587890625, 0.860107421875, 0.423828125, 
318, 3033588209, 0.5815974473953247, -0.6966862082481384, 0.3805783987045288, -0.1776185780763626, -2.2929885387420654, -9.145397186279297, -3.252703905105591, 148.6162872314453, -45.92845153808594, 0.6951211094856262, -0.02294921875, 0.8671875, 0.40478515625, 
319, 3033596542, 0.5908027291297913, -0.6906245946884155, 0.3765939474105835, -0.1793946921825409, -2.249776840209961, -9.6300630569458, -2.9488413333892822, 155.20944213867188, -48.923545837402344, 1.698135256767273, -0.019775390625, 0.875732421875, 0.38720703125, 
320, 3033604875, 0.6005702614784241, -0.6840262413024902, 0.37223026156425476, -0.18133829534053802, -2.2336368560791016, -10.009954452514648, -2.627549409866333, 166.70071411132812, -52.046138763427734, 0.8830360174179077, -0.0146484375, 0.8837890625, 0.365478515625, 
321, 3033613208, 0.6109914183616638, -0.6766937971115112, 0.3675540089607239, -0.18356135487556458, -2.173149824142456, -10.322077751159668, -2.2879927158355713, 181.1370086669922, -53.47029495239258, 1.0427753925323486, -0.01318359375, 0.890625, 0.342529296875, 
322, 3033621541, 0.6221173405647278, -0.6685019135475159, 0.36254265904426575, -0.18615509569644928, -2.1677839756011963, -10.424899101257324, -2.064397096633911, 197.62672424316406, -54.24766159057617, 0.9203792214393616, -0.0126953125, 0.901611328125, 0.31689453125, 
323, 3033629874, 0.6339453458786011, -0.6593881845474243, 0.3571641445159912, -0.18912972509860992, -2.1378419399261475, -10.39384937286377, -1.7993499040603638, 214.81927490234375, -55.010555267333984, 0.6921778917312622, -0.008056640625, 0.910888671875, 0.29150390625, 
324, 3033638207, 0.6464289426803589, -0.6493680477142334, 0.3513210415840149, -0.19245757162570953, -2.152712106704712, -10.22434139251709, -1.580224633216858, 231.60772705078125, -56.70603561401367, -0.44887351989746094, -0.005126953125, 0.917236328125, 0.260498046875, 
325, 3033646540, 0.6593881845474243, -0.6385040283203125, 0.3451043367385864, -0.19605742394924164, -2.1422131061553955, -9.956806182861328, -1.3166590929031372, 245.66436767578125, -57.67710876464844, -0.8602383136749268, -0.005615234375, 0.927001953125, 0.22705078125, 
326, 3033654873, 0.6726469993591309, -0.6268891096115112, 0.33859747648239136, -0.19980807602405548, -2.0315985679626465, -9.594269752502441, -1.1016321182250977, 256.6007995605469, -58.38037872314453, -0.4134773313999176, -0.001953125, 0.93408203125, 0.194580078125, 
327, 3033663206, 0.6859675645828247, -0.6145855784416199, 0.33206528425216675, -0.20366951823234558, -1.387446403503418, -9.638360023498535, -0.8401637077331543, 264.09088134765625, -56.057743072509766, 1.7274580001831055, -0.00048828125, 0.9423828125, 0.158203125, 
328, 3033671539, 0.6990872025489807, -0.6019433736801147, 0.3253777027130127, -0.2075716257095337, -1.5753802061080933, -9.054224014282227, -0.48308485746383667, 266.2082214355469, -55.315433502197266, 1.0068073272705078, -0.00048828125, 0.9453125, 0.12255859375, 
329, 3033679872, 0.7117178440093994, -0.5893262624740601, 0.31866222620010376, -0.2112400084733963, -1.866539478302002, -8.360490798950195, 0.0020304620265960693, 260.95416259765625, -55.399871826171875, 1.5230921506881714, 0.00146484375, 0.952392578125, 0.082763671875, 
330, 3033688205, 0.7236197590827942, -0.5770270824432373, 0.3120114803314209, -0.21465928852558136, -1.86864173412323, -7.909858703613281, 0.5148795247077942, 250.65907287597656, -54.514163970947266, 0.9686198830604553, 0.00341796875, 0.9521484375, 0.050048828125, 
331, 3033696538, 0.7346583008766174, -0.5652585625648499, 0.3055364489555359, -0.21776871383190155, -1.7758091688156128, -7.677618980407715, 1.044785737991333, 236.6739044189453, -53.08658981323242, 0.626595139503479, 0.00048828125, 0.952392578125, 0.016845703125, 
332, 3033704871, 0.7447803020477295, -0.5541744828224182, 0.29929155111312866, -0.22052954137325287, -1.8252407312393188, -7.640326976776123, 1.5905344486236572, 220.48634338378906, -51.66033172607422, 0.30842211842536926, 0.00439453125, 0.954833984375, -0.017333984375, 
333, 3033713204, 0.7539858818054199, -0.5438238978385925, 0.2933027148246765, -0.2230476289987564, -1.7734932899475098, -7.724920749664307, 2.0590176582336426, 204.20333862304688, -49.34770584106445, -1.042885661125183, 0.002197265625, 0.951904296875, -0.044677734375, 
334, 3033721537, 0.7623806595802307, -0.5341447591781616, 0.28763723373413086, -0.22526738047599792, -1.773666501045227, -7.862110137939453, 2.42874813079834, 188.98765563964844, -47.02028274536133, -0.7344487309455872, 0.00439453125, 0.9501953125, -0.076171875, 
335, 3033729870, 0.7702560424804688, -0.5248890519142151, 0.2820777893066406, -0.22725504636764526, -1.8910648822784424, -8.205731391906738, 2.7010834217071533, 179.48294067382812, -46.866455078125, -0.7987785339355469, 0.00244140625, 0.9462890625, -0.09814453125, 
336, 3033738203, 0.777601957321167, -0.5159952044487, 0.2767552137374878, -0.2291422337293625, -1.8814899921417236, -8.637579917907715, 2.9356634616851807, 170.69720458984375, -44.1657600402832, -1.0905815362930298, 0.002197265625, 0.94580078125, -0.123291015625, 
337, 3033746536, 0.7845975160598755, -0.5072855949401855, 0.27153539657592773, -0.23098070919513702, -1.8705307245254517, -8.848453521728516, 3.1269032955169678, 165.72964477539062, -42.654659271240234, -1.6381878852844238, 0.000732421875, 0.943359375, -0.147216796875, 
338, 3033754869, 0.7915294170379639, -0.4984390139579773, 0.26619479060173035, -0.23280015587806702, -1.9052205085754395, -9.03854751586914, 3.3544819355010986, 167.0783233642578, -43.41872787475586, -1.9749349355697632, -0.0009765625, 0.94091796875, -0.172607421875, 
339, 3033763202, 0.7985796928405762, -0.48925265669822693, 0.2602906823158264, -0.2348765730857849, -2.030333995819092, -9.397534370422363, 3.519575595855713, 174.33265686035156, -47.13316345214844, -7.002800941467285, -0.001953125, 0.935791015625, -0.193115234375, 
340, 3033771535, 0.8055163025856018, -0.4797394275665283, 0.2547436058521271, -0.23688575625419617, -1.8825387954711914, -9.241636276245117, 3.737821578979492, 175.76605224609375, -42.21123504638672, -3.066227436065674, -0.005859375, 0.932373046875, -0.217529296875, 
341, 3033779868, 0.8125247955322266, -0.46984192728996277, 0.24900753796100616, -0.23887866735458374, -1.820530891418457, -9.022656440734863, 3.9430484771728516, 181.05230712890625, -43.403648376464844, -2.546901226043701, -0.00634765625, 0.92529296875, -0.241943359375, 
342, 3033788201, 0.8194894790649414, -0.4596061110496521, 0.2432381808757782, -0.24093569815158844, -1.8025176525115967, -8.750300407409668, 4.152997970581055, 184.87904357910156, -42.129451751708984, -2.4570465087890625, -0.005859375, 0.9189453125, -0.26708984375, 
343, 3033796534, 0.8263895511627197, -0.449097603559494, 0.2374161183834076, -0.24298328161239624, -1.8412295579910278, -8.573763847351074, 4.354259490966797, 187.6868438720703, -41.63624572753906, -1.9923657178878784, -0.00830078125, 0.909423828125, -0.291748046875, 
344, 3033804867, 0.8331095576286316, -0.4385102689266205, 0.23162409663200378, -0.2449551820755005, -1.7901183366775513, -8.344158172607422, 4.553252696990967, 187.1214599609375, -40.94190979003906, -1.2818801403045654, -0.009765625, 0.903564453125, -0.315185546875, 
345, 3033813200, 0.8395454287528992, -0.4280322194099426, 0.2258954495191574, -0.24685731530189514, -1.7534512281417847, -7.970620155334473, 4.82070779800415, 183.72140502929688, -40.068519592285156, -1.4150255918502808, -0.0126953125, 0.89599609375, -0.343994140625, 
346, 3033821533, 0.8456237316131592, -0.4178534746170044, 0.22032932937145233, -0.24857521057128906, -1.724280834197998, -7.559718132019043, 5.099381923675537, 177.04632568359375, -39.174034118652344, -0.49157705903053284, -0.01611328125, 0.888916015625, -0.364013671875, 
347, 3033829866, 0.8512385487556458, -0.4082156717777252, 0.2150019407272339, -0.2500854432582855, -1.675378441810608, -7.260734558105469, 5.414250373840332, 166.63699340820312, -38.041893005371094, 0.08921666443347931, -0.016357421875, 0.87890625, -0.385498046875, 
348, 3033838199, 0.8563284873962402, -0.399262934923172, 0.21000027656555176, -0.25140851736068726, -1.5970919132232666, -6.996575832366943, 5.77759313583374, 154.03408813476562, -35.93403625488281, 0.15727482736110687, -0.018798828125, 0.868896484375, -0.4052734375, 
349, 3033846532, 0.8608872890472412, -0.39107105135917664, 0.20531660318374634, -0.25258129835128784, -1.5529342889785767, -6.792002201080322, 6.055413722991943, 140.5869140625, -34.26177215576172, -0.2402915507555008, -0.021240234375, 0.86181640625, -0.426513671875, 
350, 3033854865, 0.8649798035621643, -0.38361024856567383, 0.20085544884204865, -0.2536253333091736, -1.5820541381835938, -6.7584919929504395, 6.283254146575928, 128.28065490722656, -33.599273681640625, -1.1714853048324585, -0.02001953125, 0.85205078125, -0.442626953125, 
351, 3033863198, 0.8687349557876587, -0.37668243050575256, 0.19655165076255798, -0.25454479455947876, -1.5767109394073486, -6.914148807525635, 6.419240474700928, 119.27510070800781, -33.25437545776367, -1.5395516157150269, -0.02392578125, 0.845458984375, -0.458740234375, 
352, 3033871531, 0.8722670674324036, -0.3699992597103119, 0.1924346685409546, -0.2554119825363159, -1.4631545543670654, -7.213625907897949, 6.475257396697998, 114.36077880859375, -31.773530960083008, -1.2118116617202759, -0.027099609375, 0.838623046875, -0.470703125, 
353, 3033879864, 0.875660240650177, -0.3633463382720947, 0.18846969306468964, -0.25630712509155273, -1.3803305625915527, -7.465707302093506, 6.501412868499756, 112.8719482421875, -29.320234298706055, -1.518084168434143, -0.031005859375, 0.830322265625, -0.48681640625, 
354, 3033888197, 0.8790918588638306, -0.3563806712627411, 0.18438053131103516, -0.25731244683265686, -1.4270492792129517, -7.624034404754639, 6.505942344665527, 117.6015396118164, -29.01833152770996, -2.7595086097717285, -0.03125, 0.82177734375, -0.5029296875, 
355, 3033896530, 0.8825318813323975, -0.34907805919647217, 0.18018808960914612, -0.2585144639015198, -1.4572423696517944, -7.5853271484375, 6.5199174880981445, 122.53288269042969, -28.375823974609375, -4.519848823547363, -0.0341796875, 0.8134765625, -0.513427734375, 
356, 3033904863, 0.8859902024269104, -0.34147927165031433, 0.17597870528697968, -0.2597312927246094, -1.2887327671051025, -7.323599338531494, 6.677948951721191, 126.3105697631836, -27.53103256225586, -3.9717118740081787, -0.035888671875, 0.802734375, -0.530029296875, 
357, 3033913196, 0.8894190788269043, -0.33366870880126953, 0.17171865701675415, -0.2610120475292206, -1.3314775228500366, -6.8470282554626465, 6.770323276519775, 129.08836364746094, -26.99177360534668, -4.5925750732421875, -0.037841796875, 0.79541015625, -0.545654296875, 
358, 3033921529, 0.8927826881408691, -0.3258064389228821, 0.16740024089813232, -0.2622629404067993, -1.3058322668075562, -6.429365634918213, 6.9143595695495605, 129.6053466796875, -27.300588607788086, -4.836913585662842, -0.04052734375, 0.78515625, -0.559814453125, 
359, 3033929862, 0.8959764242172241, -0.31813618540763855, 0.16317030787467957, -0.2634512782096863, -1.3233833312988281, -5.994410037994385, 7.128201484680176, 125.97956085205078, -26.997543334960938, -4.497694969177246, -0.0419921875, 0.776611328125, -0.574462890625, 
360, 3033938195, 0.898811936378479, -0.3110085725784302, 0.1588851362466812, -0.2649184763431549, -1.9232587814331055, -5.067854404449463, 7.381989479064941, 118.53594207763672, -27.737937927246094, -10.577690124511719, -0.043701171875, 0.763427734375, -0.589111328125, 
361, 3033946528, 0.9013360738754272, -0.304630845785141, 0.15473872423171997, -0.266203910112381, -1.346489429473877, -5.094970226287842, 7.760918140411377, 107.04806518554688, -28.735029220581055, -10.623056411743164, -0.04931640625, 0.75439453125, -0.601806640625, 
362, 3033954861, 0.9037795066833496, -0.29855120182037354, 0.15117910504341125, -0.26685261726379395, -0.2312467396259308, -6.376077651977539, 7.72832727432251, 99.6802978515625, -24.12417221069336, -2.348949670791626, -0.05029296875, 0.7490234375, -0.61083984375, 
363, 3033963194, 0.9060283899307251, -0.29246148467063904, 0.14802023768424988, -0.26773953437805176, -0.457028329372406, -6.3662109375, 8.012715339660645, 97.86515045166016, -18.64993667602539, -3.208364486694336, -0.053466796875, 0.73828125, -0.620361328125, 
364, 3033971527, 0.9083001613616943, -0.2860911190509796, 0.14484193921089172, -0.26866164803504944, -1.1673495769500732, -6.326314449310303, 7.888437271118164, 101.5827865600586, -17.833051681518555, -2.996560573577881, -0.0556640625, 0.7275390625, -0.630615234375, 
365, 3033979860, 0.9105966091156006, -0.27944499254226685, 0.14163289964199066, -0.269592821598053, -1.1347455978393555, -6.431356906890869, 7.911489009857178, 105.26930236816406, -17.141014099121094, -2.6654183864593506, -0.056640625, 0.720703125, -0.642578125, 
366, 3033988193, 0.9128905534744263, -0.27250856161117554, 0.13834106922149658, -0.27064236998558044, -0.9765205979347229, -6.117530345916748, 7.896291732788086, 109.40184020996094, -16.82088279724121, -3.6817150115966797, -0.060791015625, 0.710205078125, -0.65478515625, 
367, 3033996526, 0.9151855707168579, -0.26536810398101807, 0.13502126932144165, -0.2716616690158844, -0.9277097582817078, -5.8391594886779785, 8.117870330810547, 112.04448699951172, -16.349531173706055, -3.2422735691070557, -0.0595703125, 0.7021484375, -0.666259765625, 
368, 3034004859, 0.9173940420150757, -0.25822505354881287, 0.13178950548171997, -0.27268126606941223, -0.9237903356552124, -5.548542022705078, 8.149337768554688, 111.4170150756836, -15.176836013793945, -3.1029176712036133, -0.061279296875, 0.689697265625, -0.676025390625, 
369, 3034013192, 0.9194812774658203, -0.25129401683807373, 0.12861526012420654, -0.2736404836177826, -0.9768290519714355, -5.0614495277404785, 8.262998580932617, 108.00276184082031, -15.134968757629395, -3.116029739379883, -0.065185546875, 0.680419921875, -0.689697265625, 
370, 3034021525, 0.9214016199111938, -0.2447686791419983, 0.12560081481933594, -0.2744947373867035, -0.9882893562316895, -4.70765495300293, 8.270610809326172, 101.51152038574219, -14.702796936035156, -2.609410524368286, -0.066650390625, 0.667724609375, -0.698486328125, 
371, 3034029858, 0.9230799078941345, -0.2388908565044403, 0.12286536395549774, -0.27527132630348206, -0.8551766872406006, -4.340120792388916, 8.433417320251465, 91.3018569946289, -13.45896053314209, -2.6922173500061035, -0.066650390625, 0.659423828125, -0.70947265625, 
372, 3034038191, 0.9245626926422119, -0.23353970050811768, 0.12044233083724976, -0.2759566903114319, -0.8243841528892517, -4.328489303588867, 8.44356918334961, 82.65037536621094, -11.395893096923828, -2.259598970413208, -0.06689453125, 0.651611328125, -0.716552734375, 
373, 3034046524, 0.9258837699890137, -0.22853568196296692, 0.11829128861427307, -0.27664661407470703, -0.8708789348602295, -4.534461975097656, 8.428837776184082, 76.68038940429688, -9.03505802154541, -2.5091066360473633, -0.069580078125, 0.6435546875, -0.7236328125, 
374, 3034054857, 0.927111029624939, -0.22374984622001648, 0.11629527807235718, -0.27729418873786926, -0.8722242712974548, -4.626804351806641, 8.563079833984375, 72.9332046508789, -7.9433698654174805, -2.085751533508301, -0.0703125, 0.63330078125, -0.73193359375, 
375, 3034063190, 0.9282611608505249, -0.21917510032653809, 0.11442138254642487, -0.27787917852401733, -0.8752663135528564, -4.5519232749938965, 8.67072868347168, 69.45526885986328, -7.189394950866699, -1.6507290601730347, -0.07177734375, 0.628173828125, -0.7353515625, 
376, 3034071523, 0.9293423891067505, -0.21480701863765717, 0.11267261952161789, -0.27839070558547974, -0.8052438497543335, -4.403515338897705, 8.78336238861084, 66.04743194580078, -6.305083274841309, -1.2973532676696777, -0.074462890625, 0.620849609375, -0.74365234375, 
377, 3034079856, 0.9303635954856873, -0.21056289970874786, 0.1110149547457695, -0.278887540102005, -0.8444662690162659, -4.455007553100586, 8.737188339233398, 63.8820686340332, -5.753656387329102, -0.8913657665252686, -0.074462890625, 0.614501953125, -0.750244140625, 
378, 3034088189, 0.9313335418701172, -0.20648552477359772, 0.109417624771595, -0.2793295383453369, -0.8736181259155273, -4.387561798095703, 8.699174880981445, 61.28901672363281, -5.665976524353027, -0.5592758059501648, -0.07275390625, 0.604248046875, -0.75537109375, 
379, 3034096522, 0.9322314262390137, -0.20267444849014282, 0.10791881382465363, -0.27970874309539795, -0.8426628708839417, -4.088541030883789, 8.710376739501953, 57.19733428955078, -5.53292179107666, -0.06021924316883087, -0.0751953125, 0.603271484375, -0.7587890625, 
380, 3034104855, 0.9330422878265381, -0.19928279519081116, 0.10659680515527725, -0.2799485921859741, -0.7986781597137451, -3.756922483444214, 8.691720962524414, 50.74026107788086, -4.870224475860596, 0.6927769780158997, -0.074462890625, 0.597412109375, -0.765380859375, 
381, 3034113188, 0.9337023496627808, -0.19647087156772614, 0.10554145276546478, -0.2801351547241211, -0.7659540176391602, -3.528139114379883, 8.693241119384766, 41.73551940917969, -3.8740696907043457, 1.2464932203292847, -0.074462890625, 0.591064453125, -0.7705078125, 
382, 3034121521, 0.9342094659805298, -0.19426314532756805, 0.10476205497980118, -0.28027668595314026, -0.7829818725585938, -3.4892964363098145, 8.685576438903809, 32.39974594116211, -2.71016788482666, 1.394529938697815, -0.07568359375, 0.587646484375, -0.7724609375, 
383, 3034129854, 0.9345948696136475, -0.19261828064918518, 0.10419219732284546, -0.2803398072719574, -0.7761905193328857, -3.5238444805145264, 8.65299129486084, 23.958759307861328, -2.0691187381744385, 1.3902260065078735, -0.07470703125, 0.584228515625, -0.775634765625, 
384, 3034138187, 0.9348875880241394, -0.19139352440834045, 0.10378504544496536, -0.2803533673286438, -0.7543585896492004, -3.597064733505249, 8.682815551757812, 17.604656219482422, -1.6151827573776245, 1.5146852731704712, -0.073486328125, 0.581787109375, -0.775634765625, 
385, 3034146520, 0.9351359605789185, -0.19033516943454742, 0.103467658162117, -0.28036296367645264, -0.7675411105155945, -3.8276894092559814, 8.728157043457031, 15.007933616638184, -1.0312293767929077, 1.3784942626953125, -0.073974609375, 0.58056640625, -0.776611328125, 
386, 3034154853, 0.9354217052459717, -0.18900996446609497, 0.10307548195123672, -0.2804507911205292, -0.7605688571929932, -4.307491779327393, 8.826650619506836, 18.913209915161133, -0.8895825147628784, 0.8423115015029907, -0.074462890625, 0.580078125, -0.778076171875, 
387, 3034163186, 0.9358092546463013, -0.18713325262069702, 0.10242421925067902, -0.28065550327301025, -0.8371468782424927, -4.73109245300293, 8.685372352600098, 27.460086822509766, -1.8586595058441162, -0.3033367395401001, -0.071533203125, 0.57568359375, -0.779541015625, 
388, 3034171519, 0.9363484382629395, -0.1846952885389328, 0.1014496237039566, -0.2808257043361664, -0.8413019776344299, -4.585264205932617, 8.787776947021484, 36.375999450683594, -3.627300500869751, -0.5053566694259644, -0.07373046875, 0.5712890625, -0.7841796875, 
389, 3034179852, 0.9369595050811768, -0.18178710341453552, 0.10028275847434998, -0.28110378980636597, -0.8606777787208557, -4.302716255187988, 8.779949188232422, 43.402923583984375, -4.643535614013672, -0.2597031593322754, -0.076171875, 0.5673828125, -0.786376953125, 
390, 3034188185, 0.9375907182693481, -0.17875994741916656, 0.09902259707450867, -0.28138673305511475, -0.8561402559280396, -3.9081954956054688, 8.850309371948242, 45.34641647338867, -5.417600154876709, -0.296562135219574, -0.07763671875, 0.562255859375, -0.791259765625, 
391, 3034196518, 0.9381815195083618, -0.1759415864944458, 0.09778740257024765, -0.28162622451782227, -0.9144122004508972, -3.4682962894439697, 8.86949634552002, 42.40611267089844, -5.937466621398926, -0.13078650832176208, -0.076904296875, 0.557861328125, -0.79443359375, 
392, 3034204851, 0.9386749267578125, -0.17364971339702606, 0.09673576802015305, -0.28176724910736084, -0.8723761439323425, -3.0796451568603516, 8.883443832397461, 34.547122955322266, -5.641566753387451, 0.29721513390541077, -0.07373046875, 0.55224609375, -0.79638671875, 
393, 3034213184, 0.9390392899513245, -0.1719914674758911, 0.09596289694309235, -0.28183484077453613, -0.865340530872345, -2.932067632675171, 8.88025188446045, 24.870092391967773, -4.5760626792907715, 0.7676719427108765, -0.07666015625, 0.549072265625, -0.801513671875, 
394, 3034221517, 0.9392725229263306, -0.17095321416854858, 0.09546957165002823, -0.2818572223186493, -0.8639734983444214, -3.0441782474517822, 8.867759704589844, 15.362715721130371, -3.4946529865264893, 1.1189707517623901, -0.078125, 0.546142578125, -0.800537109375, 
395, 3034229850, 0.9394301176071167, -0.1703595519065857, 0.09517025947570801, -0.28179246187210083, -0.8180562257766724, -3.2112646102905273, 8.858606338500977, 8.625273704528809, -2.6272265911102295, 1.393760323524475, -0.0771484375, 0.545166015625, -0.800537109375, 
396, 3034238183, 0.9395407438278198, -0.16998456418514252, 0.09496037662029266, -0.28172025084495544, -0.7945553660392761, -3.41658353805542, 8.889226913452148, 5.3416056632995605, -2.192399501800537, 1.0062425136566162, -0.07763671875, 0.544189453125, -0.802734375, 
397, 3034246516, 0.9396458864212036, -0.1696033775806427, 0.09476393461227417, -0.2816658318042755, -0.7601848244667053, -3.5623486042022705, 8.944374084472656, 5.3715739250183105, -2.0285451412200928, 1.01812744140625, -0.0791015625, 0.544677734375, -0.8037109375, 
398, 3034254849, 0.9397746324539185, -0.16909924149513245, 0.09453216195106506, -0.2816171944141388, -0.7288998365402222, -3.676741123199463, 9.000767707824707, 7.162252426147461, -1.9664943218231201, 0.9407596588134766, -0.078125, 0.542236328125, -0.80419921875, 
399, 3034263182, 0.939923882484436, -0.16846750676631927, 0.09425054490566254, -0.28159210085868835, -0.7054382562637329, -3.6743862628936768, 9.046022415161133, 9.07978630065918, -2.1474080085754395, 0.9379934072494507, -0.0771484375, 0.543212890625, -0.80615234375, 
400, 3034271515, 0.9400915503501892, -0.167721688747406, 0.09392555058002472, -0.28158634901046753, -0.7109470367431641, -3.615326404571533, 9.063995361328125, 10.793724060058594, -2.186610698699951, 0.6369107961654663, -0.078125, 0.541259765625, -0.8037109375, 
401, 3034279848, 0.9402587413787842, -0.1669292449951172, 0.09356778115034103, -0.2816186547279358, -0.7563048005104065, -3.5617499351501465, 9.020228385925293, 11.567377090454102, -2.400848150253296, 0.29821377992630005, -0.0791015625, 0.541748046875, -0.8046875, 
402, 3034288181, 0.9404135942459106, -0.16620922088623047, 0.09322629123926163, -0.28164029121398926, -0.7582475543022156, -3.4104249477386475, 8.991412162780762, 10.51970386505127, -2.468827962875366, 0.28438204526901245, -0.077880859375, 0.538818359375, -0.806640625, 
403, 3034296514, 0.9405336380004883, -0.16568686068058014, 0.09294551610946655, -0.28164008259773254, -0.7434654831886292, -3.1962199211120605, 9.018789291381836, 7.62785530090332, -2.4651401042938232, 0.3647083342075348, -0.079833984375, 0.53662109375, -0.807373046875, 
404, 3034304847, 0.9406188130378723, -0.1654096096754074, 0.09274844825267792, -0.28158342838287354, -0.7404133677482605, -3.157374382019043, 9.003182411193848, 3.9764692783355713, -2.38614559173584, 0.7420315742492676, -0.078857421875, 0.5380859375, -0.80712890625, 
405, 3034313180, 0.940654993057251, -0.165390744805336, 0.09265065938234329, -0.2815060615539551, -0.7423700094223022, -3.1723101139068604, 8.963784217834473, 0.11865795403718948, -2.1158127784729004, 0.8122146129608154, -0.079345703125, 0.537109375, -0.807861328125, 
406, 3034321513, 0.9406420588493347, -0.1655913144350052, 0.09264560043811798, -0.28143295645713806, -0.7658593058586121, -3.2103633880615234, 8.983176231384277, -3.2191967964172363, -1.7872332334518433, 0.7060948014259338, -0.0791015625, 0.538818359375, -0.809814453125, 
407, 3034329846, 0.9406107068061829, -0.1659155786037445, 0.09270401298999786, -0.28132763504981995, -0.7482989430427551, -3.303287982940674, 9.022601127624512, -5.114804267883301, -1.4009193181991577, 0.8307080268859863, -0.079345703125, 0.53759765625, -0.80712890625, 
408, 3034338179, 0.9405825138092041, -0.1661866009235382, 0.09275038540363312, -0.2812463343143463, -0.7623476386070251, -3.5366578102111816, 9.021252632141113, -4.3656392097473145, -1.3483078479766846, 0.6679808497428894, -0.078369140625, 0.538818359375, -0.80859375, 
409, 3034346512, 0.940578043460846, -0.16632691025733948, 0.092748261988163, -0.28117892146110535, -0.7938839793205261, -3.6440482139587402, 9.118257522583008, -2.391857147216797, -1.4205654859542847, 0.5398840308189392, -0.080078125, 0.53955078125, -0.80615234375, 
410, 3034354845, 0.940597414970398, -0.16631543636322021, 0.0926995724439621, -0.2811368405818939, -0.769209623336792, -3.65187668800354, 9.171183586120605, -0.17107748985290527, -1.388701319694519, 0.31839776039123535, -0.078857421875, 0.537109375, -0.80712890625, 
411, 3034363178, 0.9406366944313049, -0.1661781668663025, 0.09260154515504837, -0.2811190187931061, -0.7809908986091614, -3.6686899662017822, 9.207164764404297, 1.7333792448043823, -1.5298101902008057, 0.20213474333286285, -0.074462890625, 0.535400390625, -0.80908203125, 
412, 3034371511, 0.9407288432121277, -0.1659180223941803, 0.09244729578495026, -0.28101518750190735, -0.8131715059280396, -3.7082951068878174, 9.208534240722656, 3.6573925018310547, -1.4812456369400024, 0.11010278761386871, -0.074951171875, 0.536865234375, -0.8095703125, 
413, 3034379844, 0.9408046007156372, -0.16553018987178802, 0.09226588904857635, -0.28105008602142334, -0.8158513903617859, -3.690645217895508, 9.136838912963867, 5.446879863739014, -1.5665922164916992, -0.21047216653823853, -0.076904296875, 0.535888671875, -0.80908203125, 
414, 3034388177, 0.9408993721008301, -0.16509152948856354, 0.09206120669841766, -0.281057745218277, -0.7852352857589722, -3.5955047607421875, 9.077402114868164, 6.235170364379883, -1.546907663345337, -0.3279774785041809, -0.080322265625, 0.53564453125, -0.809814453125, 
415, 3034396510, 0.940968930721283, -0.16469955444335938, 0.09188801795244217, -0.2811116576194763, -0.7978315949440002, -3.470336437225342, 9.037224769592285, 5.479089736938477, -1.3936065435409546, -0.4567146301269531, -0.078857421875, 0.53662109375, -0.806884765625, 
416, 3034404843, 0.9410125017166138, -0.16444754600524902, 0.09177084267139435, -0.28115156292915344, -0.7863410115242004, -3.3615214824676514, 8.996192932128906, 3.353543996810913, -1.2428923845291138, -0.3621981143951416, -0.078857421875, 0.53515625, -0.810302734375, 
417, 3034413176, 0.9410225749015808, -0.16438919305801392, 0.09172985702753067, -0.28116539120674133, -0.76967453956604, -3.3295912742614746, 8.983484268188477, 0.4648086726665497, -0.9890680909156799, -0.2897482216358185, -0.080322265625, 0.53369140625, -0.811279296875, 
418, 3034421509, 0.9410282373428345, -0.16450253129005432, 0.09173521399497986, -0.2810785472393036, -0.7672979235649109, -3.2936532497406006, 8.97829818725586, -1.9967573881149292, -0.85684734582901, -0.1919018179178238, -0.079833984375, 0.5341796875, -0.809326171875, 
419, 3034429842, 0.9409912824630737, -0.1646912693977356, 0.09181232750415802, -0.28106653690338135, -0.7449176907539368, -3.37447452545166, 9.007698059082031, -3.3285698890686035, -0.4139004647731781, -0.18232212960720062, -0.078857421875, 0.537109375, -0.8076171875, 
420, 3034438175, 0.9409595131874084, -0.164857879281044, 0.09189353883266449, -0.2810482680797577, -0.7540152072906494, -3.5267014503479004, 8.986175537109375, -3.0488367080688477, -0.21287989616394043, -0.2791183292865753, -0.078857421875, 0.53466796875, -0.809814453125, 
421, 3034446508, 0.9409360885620117, -0.16497521102428436, 0.09194017946720123, -0.28104302287101746, -0.778388500213623, -3.59466290473938, 8.997679710388184, -2.2480075359344482, -0.5338518619537354, -0.1977674961090088, -0.0810546875, 0.53857421875, -0.809814453125, 
422, 3034454841, 0.9409214854240417, -0.16504324972629547, 0.09196066856384277, -0.2810448110103607, -0.7623991370201111, -3.580272674560547, 9.041172981262207, -1.505450963973999, -0.7344624996185303, -0.12807117402553558, -0.078857421875, 0.5361328125, -0.809814453125, 
423, 3034463174, 0.9409195780754089, -0.16508090496063232, 0.09197410941123962, -0.2810247838497162, -0.7367213368415833, -3.5415799617767334, 9.096062660217285, -1.0573811531066895, -0.7173522114753723, 0.1038016751408577, -0.079833984375, 0.5361328125, -0.806884765625, 
424, 3034471507, 0.9409289360046387, -0.16506367921829224, 0.09197456389665604, -0.2810034155845642, -0.7819702625274658, -3.58029842376709, 9.073681831359863, -0.2846382260322571, -0.6745380759239197, 0.14249199628829956, -0.076904296875, 0.535400390625, -0.808837890625, 
425, 3034479840, 0.94094318151474, -0.16501593589782715, 0.09193988144397736, -0.2809951603412628, -0.7747315764427185, -3.540907621383667, 9.058789253234863, 0.2861109673976898, -1.0028612613677979, 0.013703613542020321, -0.077880859375, 0.535888671875, -0.808837890625, 
426, 3034488173, 0.9409518837928772, -0.1649569272994995, 0.0918959528207779, -0.28101542592048645, -0.8243651390075684, -3.5184905529022217, 9.04494857788086, 0.4560742676258087, -1.0983383655548096, -0.1814512461423874, -0.077880859375, 0.537353515625, -0.8076171875, 
427, 3034496506, 0.9409580230712891, -0.16494300961494446, 0.09186461567878723, -0.2810133099555969, -0.8058321475982666, -3.460981845855713, 9.029119491577148, -0.1767638474702835, -1.0662437677383423, -0.13411614298820496, -0.079345703125, 0.537109375, -0.806884765625, 
428, 3034504839, 0.9409512281417847, -0.16498199105262756, 0.09184929728507996, -0.2810179591178894, -0.7988867163658142, -3.487912178039551, 9.000923156738281, -0.9623268246650696, -1.057355523109436, -0.2581658661365509, -0.080810546875, 0.53759765625, -0.807373046875, 
429, 3034513172, 0.9409388899803162, -0.1650683879852295, 0.09183669090270996, -0.2810123562812805, -0.8353312015533447, -3.46750807762146, 8.98629379272461, -1.5936150550842285, -1.1967737674713135, -0.24482081830501556, -0.080322265625, 0.53515625, -0.807373046875, 
430, 3034521505, 0.9409139752388, -0.1652471125125885, 0.09183725714683533, -0.2809905409812927, -0.8205361366271973, -3.399881362915039, 8.963924407958984, -2.895958423614502, -1.375292181968689, -0.259408175945282, -0.079345703125, 0.537109375, -0.808349609375, 
431, 3034529838, 0.9408632516860962, -0.16553792357444763, 0.09186390042304993, -0.28098076581954956, -0.7749413847923279, -3.344388484954834, 8.918380737304688, -4.48154354095459, -1.4402629137039185, -0.507264256477356, -0.079833984375, 0.537109375, -0.806396484375, 
432, 3034538171, 0.9407851696014404, -0.16595371067523956, 0.09193965792655945, -0.28097203373908997, -0.7768439650535583, -3.3289897441864014, 8.89306354522705, -6.369466304779053, -1.276126742362976, -0.629777193069458, -0.079345703125, 0.537841796875, -0.810302734375, 
433, 3034546504, 0.940673291683197, -0.1665366291999817, 0.09207521378993988, -0.28095752000808716, -0.7602927684783936, -3.2600443363189697, 8.852310180664062, -8.827792167663574, -1.0931644439697266, -0.8028526306152344, -0.078857421875, 0.537841796875, -0.80859375, 
434, 3034554837, 0.9405258297920227, -0.16732937097549438, 0.09226535260677338, -0.280917763710022, -0.7709366679191589, -3.2345054149627686, 8.829984664916992, -11.860570907592773, -1.114680528640747, -1.0170389413833618, -0.078125, 0.540283203125, -0.80615234375, 
435, 3034563170, 0.9403274655342102, -0.16836735606193542, 0.09254584461450577, -0.28086957335472107, -0.7646633982658386, -3.2189605236053467, 8.847679138183594, -15.515084266662598, -0.9424248337745667, -0.9450118541717529, -0.07958984375, 0.542724609375, -0.8056640625, 
436, 3034571503, 0.9400799870491028, -0.1696617305278778, 0.09291305392980576, -0.28079742193222046, -0.7700629234313965, -3.266282558441162, 8.867265701293945, -19.32579231262207, -0.8096917867660522, -0.9655032753944397, -0.0810546875, 0.54150390625, -0.80615234375, 
437, 3034579836, 0.9397748708724976, -0.17125368118286133, 0.09337271004915237, -0.2807004451751709, -0.7579569220542908, -3.259077548980713, 8.90308666229248, -23.68011474609375, -0.7440938949584961, -1.0166038274765015, -0.0810546875, 0.546630859375, -0.802734375, 
438, 3034588169, 0.9394002556800842, -0.1731550395488739, 0.09397377073764801, -0.28058677911758423, -0.7291010022163391, -3.2066421508789062, 8.84410285949707, -28.429977416992188, -0.08194000273942947, -1.1046658754348755, -0.080322265625, 0.548583984375, -0.800048828125, 
439, 3034596502, 0.9389412999153137, -0.17547085881233215, 0.0947490930557251, -0.2804238796234131, -0.7133387923240662, -3.0979483127593994, 8.862862586975098, -34.69967269897461, 0.5836338400840759, -0.945217490196228, -0.081787109375, 0.55029296875, -0.795654296875, 
440, 3034604835, 0.938347578048706, -0.17845995724201202, 0.09575562179088593, -0.2801825702190399, -0.7081241011619568, -2.880220413208008, 8.784083366394043, -44.74620056152344, 0.886932909488678, -0.6259874105453491, -0.079345703125, 0.554931640625, -0.7939453125, 
441, 3034613168, 0.9375568628311157, -0.18249109387397766, 0.0971582680940628, -0.2797497510910034, -0.6325773000717163, -2.4627647399902344, 8.779842376708984, -60.419227600097656, 1.8455498218536377, 0.5416275262832642, -0.0810546875, 0.560302734375, -0.7900390625, 
442, 3034621501, 0.9365302324295044, -0.18767227232456207, 0.09902931749820709, -0.27910351753234863, -0.6182729005813599, -2.4446170330047607, 8.686627388000488, -77.87035369873047, 3.647934913635254, 1.0892127752304077, -0.079345703125, 0.568603515625, -0.783935546875, 
443, 3034629834, 0.935192346572876, -0.19406667351722717, 0.10138721019029617, -0.27836957573890686, -0.6663132309913635, -2.7177813053131104, 8.558547973632812, -96.34343719482422, 5.050041675567627, 1.5624297857284546, -0.078369140625, 0.57666015625, -0.77783203125, 
