sep=,
PacketCounter,SampleTimeFine,Quat_W,Quat_X,Quat_Y,Quat_Z,Acc_X,Acc_Y,Acc_Z,Gyr_X,Gyr_Y,Gyr_Z,Mag_X,Mag_Y,Mag_Z,
0, 3253554410, -0.7487892508506775, 0.2989254295825958, 0.27272820472717285, 0.524955153465271, 0, 0, 0, 0, 0, 0, -0.716064453125, 0.27978515625, -0.401611328125, 
1, 3253562743, -0.7486324906349182, 0.29905930161476135, 0.2727072238922119, 0.5251133441925049, 7.107949256896973, -1.4353728294372559, 6.543725490570068, -2.8796286582946777, -1.2317116260528564, -2.2865824699401855, -0.714599609375, 0.282470703125, -0.402099609375, 
2, 3253571076, -0.7484654784202576, 0.2992071211338043, 0.2726919949054718, 0.5252751708030701, 7.0963592529296875, -1.4555058479309082, 6.558770656585693, -3.010594606399536, -1.4128812551498413, -2.405637741088867, -0.714599609375, 0.279541015625, -0.398681640625, 
3, 3253579409, -0.7482859492301941, 0.2993696331977844, 0.2726975083351135, 0.5254356861114502, 7.096580505371094, -1.5072288513183594, 6.555827617645264, -3.0829296112060547, -1.7907936573028564, -2.471825122833252, -0.714111328125, 0.281982421875, -0.402099609375, 
4, 3253587742, -0.7480883598327637, 0.2995516359806061, 0.27272048592567444, 0.5256012678146362, 7.083673000335693, -1.5115898847579956, 6.591361045837402, -3.225088596343994, -2.15139102935791, -2.6967179775238037, -0.718017578125, 0.282958984375, -0.3974609375, 
5, 3253596075, -0.7478813529014587, 0.299747496843338, 0.27276843786239624, 0.5257590413093567, 7.099506378173828, -1.538427710533142, 6.620896816253662, -3.2361538410186768, -2.5790717601776123, -2.7011494636535645, -0.717041015625, 0.281494140625, -0.399658203125, 
6, 3253604408, -0.7476693391799927, 0.299960196018219, 0.2728235423564911, 0.5259107351303101, 7.12006950378418, -1.5551403760910034, 6.6383185386657715, -3.3163516521453857, -2.8148505687713623, -2.6742539405822754, -0.715576171875, 0.27880859375, -0.398193359375, 
7, 3253612741, -0.7474513053894043, 0.30016061663627625, 0.27290022373199463, 0.5260666608810425, 7.0705885887146, -1.5980455875396729, 6.680088043212891, -3.0773324966430664, -2.966295003890991, -2.8301806449890137, -0.715087890625, 0.281982421875, -0.399169921875, 
8, 3253621074, -0.747220516204834, 0.3003547787666321, 0.2729872763156891, 0.5262386202812195, 7.083799839019775, -1.630119800567627, 6.702621936798096, -3.047325611114502, -2.996763229370117, -3.220452308654785, -0.718017578125, 0.2802734375, -0.39990234375, 
9, 3253629407, -0.7469882965087891, 0.30053654313087463, 0.2730922996997833, 0.526409924030304, 7.08870792388916, -1.6467158794403076, 6.718698501586914, -2.827427625656128, -3.105008840560913, -3.3081812858581543, -0.719482421875, 0.280517578125, -0.39697265625, 
10, 3253637740, -0.7467634677886963, 0.30070579051971436, 0.2731807827949524, 0.5265864133834839, 7.099628925323486, -1.6827560663223267, 6.735901832580566, -2.7732532024383545, -2.7889034748077393, -3.3228065967559814, -0.714599609375, 0.282470703125, -0.398193359375, 
11, 3253646073, -0.7465645670890808, 0.30085432529449463, 0.2732492685317993, 0.5267478823661804, 7.157293319702148, -1.6379120349884033, 6.729933261871338, -2.5696969032287598, -2.4067647457122803, -2.934187412261963, -0.718505859375, 0.27978515625, -0.3984375, 
12, 3253654406, -0.7463884353637695, 0.3009849190711975, 0.27330082654953003, 0.5268962383270264, 7.098790168762207, -1.6580883264541626, 6.749460697174072, -2.335916042327881, -2.063124179840088, -2.6745615005493164, -0.716552734375, 0.279541015625, -0.391845703125, 
13, 3253662739, -0.7462282776832581, 0.30109280347824097, 0.2733362913131714, 0.527043342590332, 7.073131561279297, -1.6814123392105103, 6.733050346374512, -2.225005865097046, -1.6769381761550903, -2.565828800201416, -0.720458984375, 0.281494140625, -0.3974609375, 
14, 3253671072, -0.7460957765579224, 0.30119258165359497, 0.2733409106731415, 0.5271713137626648, 7.098099708557129, -1.7197234630584717, 6.7319016456604, -2.105003595352173, -1.2795335054397583, -2.0715768337249756, -0.718994140625, 0.280517578125, -0.39697265625, 
15, 3253679405, -0.7459954023361206, 0.3012578785419464, 0.2733338177204132, 0.527279794216156, 7.098273277282715, -1.7103437185287476, 6.704348087310791, -1.6865180730819702, -0.8700643181800842, -1.7078804969787598, -0.718017578125, 0.280517578125, -0.393310546875, 
16, 3253687738, -0.7459166049957275, 0.3013131022453308, 0.27330395579338074, 0.5273752212524414, 7.0659027099609375, -1.6969223022460938, 6.719720840454102, -1.5530166625976562, -0.5368486642837524, -1.3700028657913208, -0.718994140625, 0.280029296875, -0.393798828125, 
17, 3253696071, -0.7458447813987732, 0.3013566732406616, 0.2732774019241333, 0.5274653434753418, 7.059102535247803, -1.686728596687317, 6.705820560455322, -1.38826584815979, -0.48895010352134705, -1.2876787185668945, -0.716552734375, 0.280517578125, -0.396728515625, 
18, 3253704404, -0.7457760572433472, 0.3014025092124939, 0.27325987815856934, 0.5275453329086304, 7.06650972366333, -1.6629934310913086, 6.659101486206055, -1.266623854637146, -0.6202486753463745, -1.2275365591049194, -0.719970703125, 0.27685546875, -0.394287109375, 
19, 3253712737, -0.7457093596458435, 0.3014470636844635, 0.27326416969299316, 0.5276119709014893, 7.1003618240356445, -1.6441508531570435, 6.636900424957275, -1.0815609693527222, -0.8879685997962952, -1.1500279903411865, -0.719482421875, 0.27880859375, -0.396484375, 
20, 3253721070, -0.7456443309783936, 0.30148351192474365, 0.2732721269130707, 0.5276788473129272, 7.123325824737549, -1.6276319026947021, 6.638664245605469, -0.9211134314537048, -0.8550543785095215, -1.2040995359420776, -0.719482421875, 0.277099609375, -0.394287109375, 
21, 3253729403, -0.7455772757530212, 0.30151960253715515, 0.2732997536659241, 0.5277388691902161, 7.130480766296387, -1.6353510618209839, 6.620403289794922, -0.789405107498169, -1.0993629693984985, -1.2032030820846558, -0.715576171875, 0.280517578125, -0.394287109375, 
22, 3253737736, -0.7455148100852966, 0.3015592694282532, 0.27334874868392944, 0.5277791619300842, 7.1409382820129395, -1.6225576400756836, 6.608484268188477, -0.5474017262458801, -1.3984602689743042, -1.0735437870025635, -0.718994140625, 0.278564453125, -0.393310546875, 
23, 3253746069, -0.7454512715339661, 0.3015936017036438, 0.27343130111694336, 0.5278065204620361, 7.161664009094238, -1.683769941329956, 6.601569652557373, -0.2305281162261963, -1.7713267803192139, -1.0726473331451416, -0.719970703125, 0.278564453125, -0.39404296875, 
24, 3253754402, -0.7453818917274475, 0.30163830518722534, 0.2735631763935089, 0.5278106927871704, 7.16663122177124, -1.6912105083465576, 6.571150302886963, 0.11204948276281357, -2.460554838180542, -1.078154444694519, -0.717529296875, 0.280029296875, -0.393310546875, 
25, 3253762735, -0.7453079223632812, 0.30168649554252625, 0.27368825674057007, 0.5278227925300598, 7.223649501800537, -1.699446201324463, 6.637582302093506, -0.05642816051840782, -2.409787178039551, -1.1229794025421143, -0.720947265625, 0.2763671875, -0.39501953125, 
26, 3253771068, -0.7452530860900879, 0.3017253279685974, 0.27379047870635986, 0.5278249979019165, 7.286720275878906, -1.6417717933654785, 6.615483283996582, 0.024243872612714767, -2.068272352218628, -0.849931538105011, -0.719482421875, 0.280029296875, -0.3955078125, 
27, 3253779401, -0.7452260255813599, 0.30173027515411377, 0.27386823296546936, 0.5278199315071106, 7.248083114624023, -1.5961140394210815, 6.629912853240967, 0.30320847034454346, -1.5050411224365234, -0.5747321248054504, -0.720947265625, 0.279296875, -0.396484375, 
28, 3253787734, -0.7452160716056824, 0.30170685052871704, 0.27390873432159424, 0.5278262495994568, 7.258876800537109, -1.5521025657653809, 6.608811855316162, 0.3841494619846344, -0.7977040410041809, -0.5459674000740051, -0.717041015625, 0.278564453125, -0.394287109375, 
29, 3253796067, -0.745209276676178, 0.30166786909103394, 0.27391934394836426, 0.5278525948524475, 7.251480579376221, -1.5122182369232178, 6.604255676269531, 0.2393265962600708, -0.2915668189525604, -0.6277792453765869, -0.721923828125, 0.2783203125, -0.3955078125, 
30, 3253804400, -0.7452160716056824, 0.3016220033168793, 0.2739051580429077, 0.5278764963150024, 7.227496147155762, -1.510880470275879, 6.5823822021484375, 0.22242119908332825, 0.06307505071163177, -0.4620039165019989, -0.720947265625, 0.280029296875, -0.39453125, 
31, 3253812733, -0.745234489440918, 0.3015676736831665, 0.2738759517669678, 0.5278967618942261, 7.247918605804443, -1.500444769859314, 6.552247524261475, 0.243091881275177, 0.2937312126159668, -0.26897507905960083, -0.718994140625, 0.278076171875, -0.394287109375, 
32, 3253821066, -0.7452634572982788, 0.3015126883983612, 0.2738475203514099, 0.5279018878936768, 7.219335556030273, -1.4764683246612549, 6.533742904663086, 0.3735195994377136, 0.2810009717941284, -0.08165818452835083, -0.718505859375, 0.279052734375, -0.392333984375, 
33, 3253829399, -0.7452749013900757, 0.30147257447242737, 0.2738235890865326, 0.5279213190078735, 7.165267467498779, -1.434309482574463, 6.52327823638916, 0.09321019053459167, 0.11198543757200241, -0.2932189404964447, -0.718505859375, 0.277099609375, -0.392822265625, 
34, 3253837732, -0.7452741265296936, 0.3014417588710785, 0.2738263010978699, 0.5279386043548584, 7.139932155609131, -1.3775302171707153, 6.473530292510986, 0.18238615989685059, -0.2774277627468109, -0.46374574303627014, -0.720947265625, 0.27783203125, -0.39501953125, 
35, 3253846065, -0.7452453374862671, 0.3014441728591919, 0.27384504675865173, 0.5279680490493774, 7.122922420501709, -1.3826874494552612, 6.479875087738037, -0.24343767762184143, -0.74127596616745, -0.7093350291252136, -0.719482421875, 0.27783203125, -0.39794921875, 
36, 3253854398, -0.7452037334442139, 0.3014717400074005, 0.27387258410453796, 0.5279966592788696, 7.159859657287598, -1.3928444385528564, 6.4691314697265625, -0.44637924432754517, -1.0611721277236938, -0.7574897408485413, -0.720458984375, 0.277587890625, -0.392822265625, 
37, 3253862731, -0.7451614737510681, 0.3015073835849762, 0.273904025554657, 0.5280196666717529, 7.197070121765137, -1.4075723886489868, 6.464618682861328, -0.5131299495697021, -1.1917792558670044, -0.6577736139297485, -0.718994140625, 0.2763671875, -0.393798828125, 
38, 3253871064, -0.7451156377792358, 0.301553875207901, 0.27392008900642395, 0.5280495285987854, 7.222332000732422, -1.4122140407562256, 6.4652252197265625, -0.7466933727264404, -1.0919476747512817, -0.683400571346283, -0.718017578125, 0.277587890625, -0.394775390625, 
39, 3253879397, -0.7450770139694214, 0.3015977740287781, 0.27394524216651917, 0.5280659198760986, 7.203178405761719, -1.4462549686431885, 6.457651615142822, -0.5871551036834717, -1.2056620121002197, -0.4909992516040802, -0.721923828125, 0.27734375, -0.396484375, 
40, 3253887730, -0.7450276613235474, 0.30165600776672363, 0.27398666739463806, 0.5280808806419373, 7.180895805358887, -1.4952703714370728, 6.451019763946533, -0.6405094861984253, -1.511828899383545, -0.6157917976379395, -0.720947265625, 0.276611328125, -0.392578125, 
41, 3253896063, -0.744968056678772, 0.3017205595970154, 0.2740483582019806, 0.528096079826355, 7.203556060791016, -1.4853591918945312, 6.466315269470215, -0.6123595237731934, -1.8143842220306396, -0.7008566856384277, -0.718505859375, 0.27685546875, -0.395751953125, 
42, 3253904396, -0.7449002265930176, 0.30180686712265015, 0.2740940749645233, 0.5281187295913696, 7.2215094566345215, -1.4755268096923828, 6.446850776672363, -1.0030534267425537, -1.7980167865753174, -0.7414552569389343, -0.718994140625, 0.277587890625, -0.393798828125, 
43, 3253912729, -0.7448362112045288, 0.3018834888935089, 0.2741357982158661, 0.5281437635421753, 7.238147735595703, -1.4684581756591797, 6.467283725738525, -0.935124397277832, -1.671738624572754, -0.7037510275840759, -0.718994140625, 0.277587890625, -0.393310546875, 
44, 3253921062, -0.7447769045829773, 0.30195316672325134, 0.2741624116897583, 0.5281736850738525, 7.203372001647949, -1.4282453060150146, 6.4648919105529785, -0.9633257389068604, -1.4195665121078491, -0.7362299561500549, -0.718505859375, 0.27734375, -0.395263671875, 
45, 3253929395, -0.7447087168693542, 0.3020249605178833, 0.2741888761520386, 0.5282147526741028, 7.183919429779053, -1.3958604335784912, 6.445610046386719, -1.0851984024047852, -1.42509925365448, -0.8619446158409119, -0.719970703125, 0.27587890625, -0.395751953125, 
46, 3253937728, -0.744636595249176, 0.3020969331264496, 0.27421683073043823, 0.5282608866691589, 7.209986686706543, -1.4392200708389282, 6.46403694152832, -1.0907565355300903, -1.4311953783035278, -0.993140697479248, -0.719482421875, 0.276123046875, -0.391845703125, 
47, 3253946061, -0.7445648312568665, 0.3021712303161621, 0.27425476908683777, 0.5282998085021973, 7.208256244659424, -1.4362733364105225, 6.479920864105225, -1.0224177837371826, -1.5870323181152344, -0.8921437859535217, -0.718994140625, 0.27490234375, -0.393798828125, 
48, 3253954394, -0.7444863319396973, 0.30225735902786255, 0.2743130922317505, 0.5283308625221252, 7.1973137855529785, -1.4700658321380615, 6.480679512023926, -0.9854051470756531, -1.9296740293502808, -0.9574601054191589, -0.718994140625, 0.278076171875, -0.389892578125, 
49, 3253962727, -0.7443942427635193, 0.3023523688316345, 0.2744072377681732, 0.5283573865890503, 7.187283515930176, -1.4947795867919922, 6.488672733306885, -0.8973435163497925, -2.4329423904418945, -1.0994397401809692, -0.721435546875, 0.2763671875, -0.3955078125, 
50, 3253971060, -0.7442854046821594, 0.3024561405181885, 0.2745436131954193, 0.5283804535865784, 7.184726715087891, -1.5133453607559204, 6.513382434844971, -0.6942994594573975, -3.006803512573242, -1.3533024787902832, -0.718017578125, 0.27587890625, -0.393798828125, 
51, 3253979393, -0.7441633939743042, 0.3025772273540497, 0.2747111916542053, 0.52839595079422, 7.166506767272949, -1.5617051124572754, 6.549346446990967, -0.7079774737358093, -3.531869888305664, -1.4062727689743042, -0.720458984375, 0.275146484375, -0.390380859375, 
52, 3253987726, -0.7440192103385925, 0.3027201294898987, 0.2749170958995819, 0.5284101366996765, 7.176051139831543, -1.5537909269332886, 6.588912010192871, -0.703827977180481, -4.171355247497559, -1.663490891456604, -0.720458984375, 0.274658203125, -0.390869140625, 
53, 3253996059, -0.7438651919364929, 0.30286872386932373, 0.2751341164112091, 0.528428852558136, 7.180888652801514, -1.5901155471801758, 6.654562473297119, -0.7655070424079895, -4.348631381988525, -1.7623875141143799, -0.720947265625, 0.277099609375, -0.391845703125, 
54, 3254004392, -0.7437105178833008, 0.3030148148536682, 0.2753445506095886, 0.5284534692764282, 7.2118754386901855, -1.6500087976455688, 6.6608805656433105, -0.787381649017334, -4.2395148277282715, -1.8515251874923706, -0.719482421875, 0.277099609375, -0.390869140625, 
55, 3254012725, -0.7435793876647949, 0.30312851071357727, 0.2755332589149475, 0.5284740328788757, 7.230957508087158, -1.6812615394592285, 6.695998668670654, -0.5311111211776733, -3.7092738151550293, -1.6350334882736206, -0.721435546875, 0.279541015625, -0.39453125, 
56, 3254021058, -0.7434857487678528, 0.30321261286735535, 0.2756727635860443, 0.5284847021102905, 7.237812519073486, -1.6887600421905518, 6.706173896789551, -0.36067405343055725, -2.8893625736236572, -1.204176425933838, -0.719970703125, 0.278076171875, -0.389404296875, 
57, 3254029391, -0.74342280626297, 0.3032728433609009, 0.2757762372493744, 0.5284847021102905, 7.203521251678467, -1.765535593032837, 6.702729225158691, -0.23524115979671478, -2.2797181606292725, -0.7727558612823486, -0.721435546875, 0.276123046875, -0.390380859375, 
58, 3254037724, -0.7433975338935852, 0.3033004105091095, 0.27585750818252563, 0.5284620523452759, 7.203873634338379, -1.8093492984771729, 6.677491188049316, 0.20397897064685822, -1.7633353471755981, -0.3388507664203644, -0.724853515625, 0.27587890625, -0.390625, 
59, 3254046057, -0.7434111833572388, 0.3032975196838379, 0.27591708302497864, 0.5284136533737183, 7.2060017585754395, -1.8340394496917725, 6.679803371429443, 0.6082740426063538, -1.2867053747177124, 0.2332560271024704, -0.721923828125, 0.276611328125, -0.39013671875, 
60, 3254054390, -0.7434679269790649, 0.30327481031417847, 0.2759600579738617, 0.5283242464065552, 7.254322052001953, -1.7863293886184692, 6.644743919372559, 1.0380808115005493, -0.9730335474014282, 0.9094974398612976, -0.722900390625, 0.276123046875, -0.38720703125, 
61, 3254062723, -0.7435434460639954, 0.3032382130622864, 0.2759913504123688, 0.5282228589057922, 7.182063102722168, -1.7036476135253906, 6.62587833404541, 1.2163816690444946, -0.7434787750244141, 1.222477674484253, -0.720947265625, 0.275634765625, -0.389404296875, 
62, 3254071056, -0.7436186671257019, 0.30321481823921204, 0.27603477239608765, 0.528107762336731, 7.163199424743652, -1.6005771160125732, 6.617809772491455, 1.21958327293396, -1.009738564491272, 1.3001912832260132, -0.720947265625, 0.275634765625, -0.389404296875, 
63, 3254079389, -0.7436875104904175, 0.30320411920547485, 0.2760952115058899, 0.5279853343963623, 7.162985801696777, -1.5539989471435547, 6.639272212982178, 1.2007312774658203, -1.3374216556549072, 1.3481923341751099, -0.721435546875, 0.275146484375, -0.390869140625, 
64, 3254087722, -0.7437448501586914, 0.3032034933567047, 0.27617353200912476, 0.5278639197349548, 7.182043075561523, -1.496834635734558, 6.606157302856445, 1.1904855966567993, -1.62537682056427, 1.1776529550552368, -0.721923828125, 0.275146484375, -0.389404296875, 
65, 3254096055, -0.7437856793403625, 0.30320098996162415, 0.2762790024280548, 0.5277525186538696, 7.173348903656006, -1.4681158065795898, 6.603158473968506, 1.2746028900146484, -1.916149616241455, 0.8682073950767517, -0.720947265625, 0.276611328125, -0.391845703125, 
66, 3254104388, -0.7438162565231323, 0.30320310592651367, 0.276390016078949, 0.527649998664856, 7.195168972015381, -1.4925432205200195, 6.60992431640625, 1.2174574136734009, -2.0034430027008057, 0.6633703112602234, -0.722412109375, 0.276123046875, -0.3876953125, 
67, 3254112721, -0.743842363357544, 0.3031977415084839, 0.2765224277973175, 0.5275469422340393, 7.207096576690674, -1.5574193000793457, 6.610744953155518, 1.408334732055664, -2.1939873695373535, 0.5569174885749817, -0.724365234375, 0.276611328125, -0.3876953125, 
68, 3254121054, -0.7438743114471436, 0.30318114161491394, 0.27665701508522034, 0.5274408459663391, 7.202779769897461, -1.5930670499801636, 6.5944976806640625, 1.598699688911438, -2.1183743476867676, 0.5403707027435303, -0.720458984375, 0.277099609375, -0.391357421875, 
69, 3254129387, -0.7439082264900208, 0.3031567633152008, 0.27678555250167847, 0.5273396372795105, 7.241310119628906, -1.5792012214660645, 6.627429485321045, 1.6104310750961304, -1.9801597595214844, 0.546364426612854, -0.720947265625, 0.278076171875, -0.389404296875, 
70, 3254137720, -0.7439541220664978, 0.30312544107437134, 0.2769054174423218, 0.527229905128479, 7.242773532867432, -1.5678200721740723, 6.627213478088379, 1.7153211832046509, -1.822222113609314, 0.6843739151954651, -0.725830078125, 0.276123046875, -0.3896484375, 
71, 3254146053, -0.7440183162689209, 0.3030838072299957, 0.27698153257369995, 0.5271232724189758, 7.274612903594971, -1.5106528997421265, 6.635593414306641, 1.5847398042678833, -1.234887719154358, 1.0004279613494873, -0.722900390625, 0.277587890625, -0.38720703125, 
72, 3254154386, -0.7441080212593079, 0.30304449796676636, 0.2770273983478546, 0.5269952416419983, 7.253095626831055, -1.5109448432922363, 6.612900733947754, 1.5117394924163818, -0.9175019860267639, 1.4665815830230713, -0.723876953125, 0.277587890625, -0.3876953125, 
73, 3254162719, -0.7442029118537903, 0.30300524830818176, 0.2770574688911438, 0.5268680453300476, 7.222417831420898, -1.485408902168274, 6.609013080596924, 1.3560560941696167, -0.7323878407478333, 1.5666563510894775, -0.722900390625, 0.273681640625, -0.388916015625, 
74, 3254171052, -0.7443044781684875, 0.3029572069644928, 0.2770725190639496, 0.5267442464828491, 7.193654537200928, -1.505683422088623, 6.610668659210205, 1.4112802743911743, -0.4744524657726288, 1.6034895181655884, -0.722900390625, 0.279052734375, -0.3876953125, 
75, 3254179385, -0.7443975806236267, 0.30290043354034424, 0.27709752321243286, 0.5266319513320923, 7.158583164215088, -1.4901407957077026, 6.5811896324157715, 1.4794907569885254, -0.508980393409729, 1.3971924781799316, -0.719970703125, 0.275146484375, -0.387939453125, 
76, 3254187718, -0.7444819211959839, 0.30284273624420166, 0.27712851762771606, 0.5265297293663025, 7.19050407409668, -1.4249175786972046, 6.54748010635376, 1.471858024597168, -0.5458905100822449, 1.1552146673202515, -0.722900390625, 0.276123046875, -0.3896484375, 
77, 3254196051, -0.7445577383041382, 0.30278995633125305, 0.2771584689617157, 0.526436984539032, 7.220632553100586, -1.3695285320281982, 6.5555620193481445, 1.2986290454864502, -0.5644865036010742, 1.0395921468734741, -0.720947265625, 0.276123046875, -0.389892578125, 
78, 3254204384, -0.7446238398551941, 0.3027501702308655, 0.27720341086387634, 0.5263428092002869, 7.226101398468018, -1.3708977699279785, 6.548362731933594, 1.2824151515960693, -0.8545165657997131, 0.9534258842468262, -0.721435546875, 0.277099609375, -0.390625, 
79, 3254212717, -0.744676947593689, 0.3027130365371704, 0.27726027369499207, 0.5262592434883118, 7.218801975250244, -1.421865701675415, 6.547637939453125, 1.2373340129852295, -1.0127099752426147, 0.7606787085533142, -0.720947265625, 0.276611328125, -0.389404296875, 
80, 3254221050, -0.7447122931480408, 0.30268505215644836, 0.2773387134075165, 0.5261839032173157, 7.24511194229126, -1.4194998741149902, 6.549681186676025, 1.2046246528625488, -1.3193124532699585, 0.44042399525642395, -0.718017578125, 0.276123046875, -0.390869140625, 
81, 3254229383, -0.7447325587272644, 0.3026483356952667, 0.27743345499038696, 0.5261261463165283, 7.256746292114258, -1.4127813577651978, 6.548264503479004, 1.2470417022705078, -1.4150071144104004, 0.0814148485660553, -0.722900390625, 0.2734375, -0.39111328125, 
82, 3254237716, -0.7447423934936523, 0.30262866616249084, 0.2775297164916992, 0.5260728001594543, 7.280562400817871, -1.4391809701919556, 6.551171779632568, 1.0581111907958984, -1.5693840980529785, -0.009810252115130424, -0.722900390625, 0.276123046875, -0.39013671875, 
83, 3254246049, -0.7447474598884583, 0.30258607864379883, 0.27762579917907715, 0.5260394215583801, 7.280181884765625, -1.4867128133773804, 6.555068492889404, 1.1679450273513794, -1.3434921503067017, -0.29820093512535095, -0.721435546875, 0.27587890625, -0.392578125, 
84, 3254254382, -0.7447500824928284, 0.302554190158844, 0.27772483229637146, 0.5260018110275269, 7.25322961807251, -1.4796239137649536, 6.5563578605651855, 1.113796591758728, -1.4704365730285645, -0.28249943256378174, -0.724365234375, 0.275634765625, -0.38720703125, 
85, 3254262715, -0.7447519302368164, 0.3025164008140564, 0.27781715989112854, 0.5259720683097839, 7.271037578582764, -1.447403907775879, 6.566280364990234, 1.0724551677703857, -1.3373960256576538, -0.31882038712501526, -0.721923828125, 0.278076171875, -0.388671875, 
86, 3254271048, -0.744753897190094, 0.30248284339904785, 0.2778964638710022, 0.5259467959403992, 7.264806270599365, -1.4302037954330444, 6.5382490158081055, 0.9376986622810364, -1.2083258628845215, -0.3380054533481598, -0.720947265625, 0.276611328125, -0.389892578125, 
87, 3254279381, -0.7447651624679565, 0.302449494600296, 0.27796924114227295, 0.5259113907814026, 7.249842643737793, -1.4254969358444214, 6.5350236892700195, 0.9191282987594604, -1.1535626649856567, -0.11695459485054016, -0.72314453125, 0.279052734375, -0.3876953125, 
88, 3254287714, -0.7447866201400757, 0.30242782831192017, 0.2780297100543976, 0.5258615016937256, 7.208585262298584, -1.46605384349823, 6.517720699310303, 0.8555538058280945, -1.1274616718292236, 0.1792612224817276, -0.721923828125, 0.275634765625, -0.389404296875, 
89, 3254296047, -0.7448177933692932, 0.30239811539649963, 0.27809959650039673, 0.5257975459098816, 7.172992706298828, -1.4592300653457642, 6.507463455200195, 1.0308831930160522, -1.1862976551055908, 0.3249293565750122, -0.721923828125, 0.275634765625, -0.389404296875, 
90, 3254304380, -0.7448431849479675, 0.30237510800361633, 0.278164803981781, 0.5257403254508972, 7.183900833129883, -1.4477139711380005, 6.496455192565918, 0.9468942284584045, -1.183941125869751, 0.2573077976703644, -0.723876953125, 0.275634765625, -0.3876953125, 
91, 3254312713, -0.7448622584342957, 0.3023553490638733, 0.27823707461357117, 0.5256866216659546, 7.177892208099365, -1.3964567184448242, 6.515009880065918, 0.9266077280044556, -1.3033802509307861, 0.22441910207271576, -0.723388671875, 0.276611328125, -0.3896484375, 
92, 3254321046, -0.7448858618736267, 0.3023396134376526, 0.2782955467700958, 0.5256312489509583, 7.206982612609863, -1.3745760917663574, 6.511118412017822, 0.808013916015625, -1.1668051481246948, 0.28271713852882385, -0.723388671875, 0.278564453125, -0.38818359375, 
93, 3254329379, -0.7449052333831787, 0.3023185431957245, 0.2783486247062683, 0.5255877375602722, 7.193027496337891, -1.3590115308761597, 6.536839962005615, 0.7066583633422852, -1.0383498668670654, 0.14539921283721924, -0.722412109375, 0.275146484375, -0.385986328125, 
94, 3254337712, -0.7449061274528503, 0.30230712890625, 0.27838829159736633, 0.5255720615386963, 7.209808349609375, -1.3505568504333496, 6.519880771636963, 0.38338103890419006, -0.9272864460945129, -0.19192743301391602, -0.724853515625, 0.276611328125, -0.38623046875, 
95, 3254346045, -0.7449109554290771, 0.30228298902511597, 0.2784099876880646, 0.5255677103996277, 7.26090145111084, -1.3579171895980835, 6.516862392425537, 0.18830305337905884, -0.5636924505233765, -0.3422830402851105, -0.720947265625, 0.277099609375, -0.389892578125, 
96, 3254354378, -0.7449109554290771, 0.30224987864494324, 0.2783973217010498, 0.5255932807922363, 7.282624244689941, -1.422142505645752, 6.523049354553223, 0.06543155759572983, -0.06570050865411758, -0.4872339367866516, -0.719970703125, 0.275634765625, -0.387939453125, 
97, 3254362711, -0.7449183464050293, 0.30219733715057373, 0.27837324142456055, 0.5256255865097046, 7.258404731750488, -1.5281763076782227, 6.512863636016846, 0.14708973467350006, 0.2440396249294281, -0.5009631514549255, -0.721435546875, 0.278564453125, -0.3896484375, 
98, 3254371044, -0.744921863079071, 0.3021376430988312, 0.2783653140068054, 0.5256589651107788, 7.21193265914917, -1.5539193153381348, 6.493436813354492, 0.35638368129730225, 0.12408816814422607, -0.6649968028068542, -0.724365234375, 0.274658203125, -0.38916015625, 
99, 3254379377, -0.7449228167533875, 0.3020627796649933, 0.278383731842041, 0.5256911516189575, 7.232668876647949, -1.6018075942993164, 6.47560453414917, 0.6800194382667542, -0.0600653775036335, -0.7842053771018982, -0.721435546875, 0.274169921875, -0.387451171875, 
100, 3254387710, -0.7449156045913696, 0.30200472474098206, 0.278414785861969, 0.5257184505462646, 7.230795383453369, -1.5802563428878784, 6.49611234664917, 0.5999749898910522, -0.3553462624549866, -0.8360230326652527, -0.720947265625, 0.276123046875, -0.390869140625, 
101, 3254396043, -0.7449047565460205, 0.30193978548049927, 0.278462290763855, 0.5257458686828613, 7.262681007385254, -1.5815507173538208, 6.478178977966309, 0.7772767543792725, -0.4979919195175171, -0.8864061832427979, -0.723388671875, 0.278564453125, -0.390625, 
102, 3254404376, -0.744902491569519, 0.30188652873039246, 0.2784925699234009, 0.5257636308670044, 7.299933910369873, -1.550908088684082, 6.4766058921813965, 0.6031000018119812, -0.40160563588142395, -0.6802884936332703, -0.720947265625, 0.275146484375, -0.389892578125, 
103, 3254412709, -0.744911253452301, 0.30183857679367065, 0.2785121202468872, 0.5257684588432312, 7.286872863769531, -1.5742120742797852, 6.4848175048828125, 0.5151663422584534, -0.3412840664386749, -0.38431599736213684, -0.720458984375, 0.277099609375, -0.386962890625, 
104, 3254421042, -0.7449311017990112, 0.301795095205307, 0.27851951122283936, 0.5257614254951477, 7.286322116851807, -1.6043039560317993, 6.473086833953857, 0.5233116149902344, -0.2554763853549957, -0.13511508703231812, -0.721435546875, 0.275146484375, -0.391357421875, 
105, 3254429375, -0.744960606098175, 0.3017415404319763, 0.2785264849662781, 0.5257465243339539, 7.261988162994385, -1.5903559923171997, 6.479960918426514, 0.6311988234519958, -0.17146168649196625, -0.012858346104621887, -0.722900390625, 0.27490234375, -0.390625, 
106, 3254437708, -0.7449942827224731, 0.30169400572776794, 0.2785263657569885, 0.5257261991500854, 7.244485378265381, -1.5920369625091553, 6.462428092956543, 0.6189296245574951, -0.15148259699344635, 0.11852986365556717, -0.720947265625, 0.276611328125, -0.389404296875, 
107, 3254446041, -0.7450238466262817, 0.3016575574874878, 0.2785419225692749, 0.5256967544555664, 7.2572245597839355, -1.5655641555786133, 6.44780158996582, 0.5212624669075012, -0.4292689263820648, 0.1170954704284668, -0.720458984375, 0.278564453125, -0.3916015625, 
108, 3254454374, -0.7450456619262695, 0.3016248643398285, 0.2785523235797882, 0.5256791114807129, 7.244871616363525, -1.531516671180725, 6.450755596160889, 0.48325100541114807, -0.40147754549980164, 0.018916113302111626, -0.721435546875, 0.277587890625, -0.3896484375, 
109, 3254462707, -0.7450584769248962, 0.30158504843711853, 0.27856507897377014, 0.5256770253181458, 7.246845722198486, -1.4945436716079712, 6.456506729125977, 0.4886171221733093, -0.35699838399887085, -0.16870816051959991, -0.723388671875, 0.275146484375, -0.3896484375, 
110, 3254471040, -0.7450646162033081, 0.30155664682388306, 0.278571754693985, 0.5256810784339905, 7.257410526275635, -1.4643442630767822, 6.426364421844482, 0.2653762698173523, -0.36277443170547485, -0.287980854511261, -0.721923828125, 0.274658203125, -0.389404296875, 
111, 3254479373, -0.7450694441795349, 0.301523894071579, 0.2785731256008148, 0.5256925225257874, 7.259549140930176, -1.4595733880996704, 6.421250343322754, 0.15170030295848846, -0.24274609982967377, -0.38001278042793274, -0.719482421875, 0.275634765625, -0.389892578125, 
112, 3254487706, -0.745071291923523, 0.30149605870246887, 0.2785610258579254, 0.5257123708724976, 7.267453193664551, -1.4790147542953491, 6.434933662414551, 0.0445815734565258, -0.12638063728809357, -0.398916095495224, -0.722900390625, 0.275390625, -0.3916015625, 
113, 3254496039, -0.7450680732727051, 0.3014616370201111, 0.27855154871940613, 0.5257412791252136, 7.297995567321777, -1.5061883926391602, 6.408146381378174, 0.04696369916200638, -0.08980350196361542, -0.5240160226821899, -0.721923828125, 0.274169921875, -0.388427734375, 
114, 3254504372, -0.7450670599937439, 0.3014363646507263, 0.27854955196380615, 0.5257583260536194, 7.2923455238342285, -1.5445564985275269, 6.387839317321777, 0.08984192460775375, -0.2713571786880493, -0.42322397232055664, -0.722900390625, 0.275634765625, -0.3876953125, 
115, 3254512705, -0.7450520396232605, 0.30141815543174744, 0.27858448028564453, 0.5257714986801147, 7.22078800201416, -1.5567947626113892, 6.393847465515137, 0.24744628369808197, -0.7774431705474854, -0.54117751121521, -0.723388671875, 0.276123046875, -0.3896484375, 
116, 3254521038, -0.7450181245803833, 0.30143967270851135, 0.27865055203437805, 0.5257723331451416, 7.214064121246338, -1.5370529890060425, 6.404197692871094, 0.02918742038309574, -1.50081467628479, -0.5982460379600525, -0.720947265625, 0.276123046875, -0.390869140625, 
117, 3254529371, -0.7449750900268555, 0.30147585272789, 0.2787530720233917, 0.5257580280303955, 7.213322639465332, -1.5310595035552979, 6.385457515716553, 0.061410125344991684, -2.0604090690612793, -0.6308785676956177, -0.720458984375, 0.275146484375, -0.389404296875, 
118, 3254537704, -0.7449243068695068, 0.3015288710594177, 0.27885934710502625, 0.525743305683136, 7.235358715057373, -1.4920927286148071, 6.39350700378418, -0.013396244496107101, -2.2701637744903564, -0.6066731214523315, -0.720947265625, 0.276611328125, -0.386962890625, 
119, 3254546037, -0.7448775768280029, 0.3015802204608917, 0.2789548933506012, 0.5257294178009033, 7.2638258934021, -1.472751498222351, 6.4021711349487305, -0.08250344544649124, -2.127211093902588, -0.5055737495422363, -0.722412109375, 0.274169921875, -0.388916015625, 
120, 3254554370, -0.7448366284370422, 0.3016349971294403, 0.27902963757514954, 0.5257163643836975, 7.259686470031738, -1.4312050342559814, 6.430144786834717, -0.22471368312835693, -1.9145103693008423, -0.41420778632164, -0.721435546875, 0.276123046875, -0.388916015625, 
121, 3254562703, -0.744802713394165, 0.3016759157180786, 0.27907243371009827, 0.5257183909416199, 7.30512809753418, -1.3997114896774292, 6.418668746948242, -0.4315486252307892, -1.3823491334915161, -0.4567530155181885, -0.721923828125, 0.274169921875, -0.387451171875, 
122, 3254571036, -0.7447672486305237, 0.3017054796218872, 0.2790927588939667, 0.525740921497345, 7.350597381591797, -1.394060492515564, 6.4168009757995605, -0.4737352430820465, -1.006716251373291, -0.6095675826072693, -0.721435546875, 0.278564453125, -0.3896484375, 
123, 3254579369, -0.7447260618209839, 0.30171874165534973, 0.27911219000816345, 0.5257810354232788, 7.358365535736084, -1.4431360960006714, 6.427222728729248, -0.37248218059539795, -0.8391736745834351, -0.7964746356010437, -0.722900390625, 0.278076171875, -0.3876953125, 
124, 3254587702, -0.7446823716163635, 0.30174294114112854, 0.27913758158683777, 0.5258156061172485, 7.3468708992004395, -1.4651955366134644, 6.4537739753723145, -0.46343836188316345, -0.9991599917411804, -0.8362023830413818, -0.720458984375, 0.277587890625, -0.388916015625, 
125, 3254596035, -0.7446272373199463, 0.30177295207977295, 0.27918264269828796, 0.5258525609970093, 7.355554580688477, -1.5424176454544067, 6.433259963989258, -0.4643348455429077, -1.2746410369873047, -0.959534764289856, -0.722412109375, 0.276611328125, -0.3896484375, 
126, 3254604368, -0.7445586323738098, 0.30183741450309753, 0.2792431116104126, 0.5258806943893433, 7.3448166847229, -1.5794459581375122, 6.459009647369385, -0.7009590864181519, -1.7748870849609375, -0.941630482673645, -0.723876953125, 0.273681640625, -0.3876953125, 
127, 3254612701, -0.7444850206375122, 0.3019210994243622, 0.27932262420654297, 0.5258945822715759, 7.311884880065918, -1.6022992134094238, 6.457300186157227, -0.7116915583610535, -2.1901965141296387, -0.7595133781433105, -0.724365234375, 0.274169921875, -0.3876953125, 
128, 3254621034, -0.7444081902503967, 0.3020155131816864, 0.2794094979763031, 0.5259029865264893, 7.3459906578063965, -1.5786197185516357, 6.477165222167969, -0.7735498547554016, -2.373312473297119, -0.7924275398254395, -0.723388671875, 0.276123046875, -0.38525390625, 
129, 3254629367, -0.7443439364433289, 0.3021010756492615, 0.2794875502586365, 0.5259032249450684, 7.318892002105713, -1.5822747945785522, 6.497072696685791, -0.9721626043319702, -2.1382508277893066, -0.8302853107452393, -0.720458984375, 0.276611328125, -0.386474609375, 
130, 3254637700, -0.7442794442176819, 0.30219462513923645, 0.27954262495040894, 0.5259115099906921, 7.307231426239014, -1.572162389755249, 6.50901460647583, -0.9416049718856812, -1.995169758796692, -0.5722988843917847, -0.723388671875, 0.273681640625, -0.38818359375, 
131, 3254646033, -0.744216799736023, 0.302289217710495, 0.27957361936569214, 0.5259291529655457, 7.3227858543396, -1.5771821737289429, 6.516546726226807, -1.1323540210723877, -1.7155646085739136, -0.46487271785736084, -0.722412109375, 0.273681640625, -0.388916015625, 
132, 3254654366, -0.7441792488098145, 0.302376925945282, 0.2795802652835846, 0.5259285569190979, 7.332216739654541, -1.5954701900482178, 6.512231349945068, -1.0868117809295654, -1.3915700912475586, -0.1091422364115715, -0.722900390625, 0.276123046875, -0.38720703125, 
133, 3254662699, -0.7441656589508057, 0.30245187878608704, 0.2795444130897522, 0.5259235501289368, 7.3224873542785645, -1.5712076425552368, 6.506189823150635, -1.1465188264846802, -0.7896100282669067, 0.3019021451473236, -0.722900390625, 0.2734375, -0.388916015625, 
134, 3254671032, -0.7441816329956055, 0.30250734090805054, 0.2794913053512573, 0.5258974432945251, 7.286557674407959, -1.5861283540725708, 6.529929161071777, -0.8702948093414307, -0.4458925724029541, 0.6640106439590454, -0.723388671875, 0.277587890625, -0.38818359375, 
135, 3254679365, -0.7442120909690857, 0.30258288979530334, 0.27941641211509705, 0.525850772857666, 7.1764044761657715, -1.4439586400985718, 6.5921173095703125, -1.1334556341171265, -0.3908476233482361, 1.1707627773284912, -0.721923828125, 0.276611328125, -0.385009765625, 
136, 3254687698, -0.7442468404769897, 0.3026924133300781, 0.27931708097457886, 0.5257912874221802, 7.080759048461914, -1.3439545631408691, 6.700525283813477, -1.5483803749084473, -0.4292433261871338, 1.5426045656204224, -0.7265625, 0.275146484375, -0.38427734375, 
137, 3254696031, -0.7442522048950195, 0.30285578966140747, 0.2792198956012726, 0.5257411599159241, 7.047756671905518, -1.2626718282699585, 6.845911979675293, -2.1920151710510254, -0.9290795922279358, 1.5409907102584839, -0.722900390625, 0.275146484375, -0.384521484375, 
138, 3254704364, -0.7442260980606079, 0.3030939996242523, 0.27913740277290344, 0.5256847739219666, 6.957025527954102, -1.1924751996994019, 7.060257911682129, -3.011516571044922, -1.7541139125823975, 1.4940141439437866, -0.723876953125, 0.275634765625, -0.38623046875, 
139, 3254712697, -0.7441418766975403, 0.3033790588378906, 0.2790631651878357, 0.5256791710853577, 6.932668209075928, -1.156886100769043, 7.277286052703857, -4.029554843902588, -2.159203290939331, 0.617315948009491, -0.724609375, 0.276123046875, -0.38427734375, 
140, 3254721030, -0.7439954280853271, 0.30368727445602417, 0.27897071838378906, 0.5257574915885925, 7.036315441131592, -1.3516273498535156, 7.491062641143799, -4.8192925453186035, -2.0577707290649414, -0.44335681200027466, -0.724853515625, 0.274658203125, -0.38525390625, 
141, 3254729363, -0.7438308000564575, 0.30394721031188965, 0.27884146571159363, 0.5259085297584534, 7.09598970413208, -1.4806618690490723, 7.640827178955078, -4.966676712036133, -1.1040503978729248, -1.3019715547561646, -0.721435546875, 0.276611328125, -0.382568359375, 
142, 3254737696, -0.7436772584915161, 0.3041650354862213, 0.2786017060279846, 0.5261270403862, 7.128273010253906, -1.6403406858444214, 7.826145172119141, -5.5261430740356445, 0.6608088612556458, -1.6609550714492798, -0.72412109375, 0.276611328125, -0.380859375, 
143, 3254746029, -0.7435871362686157, 0.30438658595085144, 0.27818751335144043, 0.5263452529907227, 7.0220746994018555, -1.8185710906982422, 8.088704109191895, -6.633421421051025, 2.6585142612457275, -0.4539867341518402, -0.72021484375, 0.279296875, -0.384521484375, 
144, 3254754362, -0.743613064289093, 0.3046364486217499, 0.27767983078956604, 0.5264320969581604, 6.62208890914917, -1.9654055833816528, 8.394135475158691, -6.537778377532959, 3.3036351203918457, 2.2297067642211914, -0.721435546875, 0.277099609375, -0.385986328125, 
145, 3254762695, -0.7436642050743103, 0.30491676926612854, 0.2771061658859253, 0.5264999270439148, 6.269100189208984, -2.0153911113739014, 8.801355361938477, -7.015099048614502, 3.7157421112060547, 3.18373441696167, -0.72412109375, 0.278564453125, -0.38623046875, 
146, 3254771028, -0.7437838912010193, 0.3051914870738983, 0.27638521790504456, 0.5265507102012634, 6.23467493057251, -1.8230451345443726, 9.119800567626953, -7.804759979248047, 5.513092994689941, 4.263937950134277, -0.720703125, 0.2783203125, -0.383056640625, 
147, 3254779361, -0.7440374493598938, 0.305433452129364, 0.27547508478164673, 0.5265290141105652, 5.912404537200928, -1.648344874382019, 9.689090728759766, -8.0213041305542, 7.847857475280762, 6.692142963409424, -0.72216796875, 0.281005859375, -0.3857421875, 
148, 3254787694, -0.744473397731781, 0.3055943250656128, 0.2744169235229492, 0.5263720750808716, 5.451661109924316, -1.5103002786636353, 10.16084098815918, -6.967508316040039, 10.114691734313965, 9.66541862487793, -0.72119140625, 0.281005859375, -0.3876953125, 
149, 3254796027, -0.7449772953987122, 0.30560365319252014, 0.2732221484184265, 0.5262749195098877, 5.382650375366211, -1.4341044425964355, 10.555455207824707, -6.428291320800781, 13.069616317749023, 9.534517288208008, -0.71875, 0.28515625, -0.386474609375, 
150, 3254804360, -0.7455634474754333, 0.3054159879684448, 0.2718747854232788, 0.5262517929077148, 5.338742256164551, -1.3714637756347656, 11.00367259979248, -5.362520217895508, 16.725830078125, 9.283100128173828, -0.71826171875, 0.28515625, -0.3896484375, 
151, 3254812693, -0.7462185025215149, 0.3049796521663666, 0.2703608274459839, 0.5263561606407166, 5.07556676864624, -1.438069224357605, 11.425240516662598, -4.198558807373047, 20.927488327026367, 8.321876525878906, -0.716552734375, 0.28564453125, -0.393310546875, 
152, 3254821026, -0.7469139695167542, 0.30423176288604736, 0.26884913444519043, 0.5265767574310303, 5.025182723999023, -1.6176979541778564, 11.585575103759766, -1.2542272806167603, 23.897388458251953, 6.178835391998291, -0.717041015625, 0.285888671875, -0.39404296875, 
153, 3254829359, -0.7477013468742371, 0.3031672537326813, 0.26723283529281616, 0.5268961191177368, 5.2500152587890625, -1.8047897815704346, 11.87500286102295, 1.3027793169021606, 27.875951766967773, 5.211001873016357, -0.716064453125, 0.285888671875, -0.396240234375, 
154, 3254837692, -0.7486425042152405, 0.3018281161785126, 0.2654055655002594, 0.5272518992424011, 5.304579734802246, -2.1059072017669678, 11.979061126708984, 3.0610194206237793, 32.891746520996094, 5.705923080444336, -0.709716796875, 0.287841796875, -0.403076171875, 
155, 3254846025, -0.7497381567955017, 0.30019304156303406, 0.26330825686454773, 0.5276797413825989, 5.382547855377197, -2.180353879928589, 12.1056547164917, 4.548851013183594, 38.515445709228516, 6.221513748168945, -0.707275390625, 0.287841796875, -0.40478515625, 
156, 3254854358, -0.7510086894035339, 0.2983132302761078, 0.2608843147754669, 0.5281429886817932, 5.585718631744385, -2.2366442680358887, 12.344571113586426, 5.274198055267334, 44.60310745239258, 7.488348007202148, -0.704833984375, 0.292724609375, -0.410888671875, 
157, 3254862691, -0.7524954080581665, 0.29612818360328674, 0.25813502073287964, 0.5286071300506592, 5.661715030670166, -2.5233163833618164, 12.48859977722168, 6.493518352508545, 50.88355255126953, 8.92359733581543, -0.7041015625, 0.291748046875, -0.412109375, 
158, 3254871024, -0.7542033791542053, 0.29370540380477905, 0.25504276156425476, 0.5290257930755615, 5.658716201782227, -2.8218483924865723, 12.614041328430176, 7.979537487030029, 56.837711334228516, 11.922016143798828, -0.69970703125, 0.2919921875, -0.4228515625, 
159, 3254879357, -0.7561506032943726, 0.29104694724082947, 0.25160884857177734, 0.5293596982955933, 5.533976078033447, -2.9198641777038574, 12.77991008758545, 9.031907081604004, 62.41194152832031, 15.002838134765625, -0.694580078125, 0.2919921875, -0.428466796875, 
160, 3254887690, -0.7582729458808899, 0.2881444990634918, 0.24785594642162323, 0.5296820402145386, 5.534944534301758, -2.7790048122406006, 12.885066032409668, 10.155333518981934, 68.24581146240234, 16.92200469970703, -0.689208984375, 0.29443359375, -0.437255859375, 
161, 3254896023, -0.7604963779449463, 0.28503841161727905, 0.2437107115983963, 0.530098021030426, 5.654849529266357, -2.587470293045044, 12.95267391204834, 9.421207427978516, 74.30204010009766, 17.53097152709961, -0.68505859375, 0.293701171875, -0.4453125, 
162, 3254904356, -0.7628672122955322, 0.28170478343963623, 0.23921431601047516, 0.5305213928222656, 5.628890037536621, -2.5153322219848633, 13.097329139709473, 9.875871658325195, 80.38883209228516, 19.156272888183594, -0.68017578125, 0.294677734375, -0.4541015625, 
163, 3254912689, -0.765324592590332, 0.2781484127044678, 0.2343691885471344, 0.5310208797454834, 5.624724388122559, -2.4434938430786133, 13.060715675354004, 9.573577880859375, 86.01868438720703, 19.48128318786621, -0.671630859375, 0.298828125, -0.466552734375, 
164, 3254921022, -0.7678062319755554, 0.2743896245956421, 0.229256272315979, 0.5316258072853088, 5.803186416625977, -2.3955938816070557, 13.146702766418457, 9.681756973266602, 91.03045654296875, 19.045854568481445, -0.664306640625, 0.298828125, -0.4716796875, 
165, 3254929355, -0.7703372836112976, 0.2704184949398041, 0.22388845682144165, 0.5322862267494202, 5.883307933807373, -2.456684112548828, 13.216480255126953, 9.8411865234375, 95.39437866210938, 18.924814224243164, -0.6572265625, 0.30126953125, -0.484130859375, 
166, 3254937688, -0.7728706002235413, 0.26629194617271423, 0.2183099389076233, 0.5330111384391785, 5.803524971008301, -2.5776078701019287, 13.304915428161621, 9.985658645629883, 99.25480651855469, 18.7518253326416, -0.652099609375, 0.303955078125, -0.497802734375, 
167, 3254946021, -0.7754253149032593, 0.26206621527671814, 0.2124951183795929, 0.5337445139884949, 5.700320243835449, -2.5753870010375977, 13.3572359085083, 9.215872764587402, 102.29823303222656, 19.29291534423828, -0.644287109375, 0.303955078125, -0.5048828125, 
168, 3254954354, -0.7779566645622253, 0.25775307416915894, 0.20655813813209534, 0.5344915390014648, 5.7292799949646, -2.4495859146118164, 13.460726737976074, 9.271920204162598, 104.51374053955078, 19.253808975219727, -0.63525390625, 0.30615234375, -0.515380859375, 
169, 3254962687, -0.7804364562034607, 0.2532891035079956, 0.2004798799753189, 0.5353240370750427, 6.006496906280518, -2.4256293773651123, 13.543746948242188, 9.607397079467773, 106.87094116210938, 18.378826141357422, -0.626953125, 0.31103515625, -0.5283203125, 
170, 3254971020, -0.7828998565673828, 0.2486294060945511, 0.19424745440483093, 0.5362085700035095, 6.325248718261719, -2.591216802597046, 13.634381294250488, 10.18626594543457, 110.52317810058594, 17.351951599121094, -0.617919921875, 0.309326171875, -0.539794921875, 
171, 3254979353, -0.7853195071220398, 0.2437569797039032, 0.18776057660579681, 0.5372172594070435, 6.4196319580078125, -2.6615867614746094, 13.670210838317871, 10.391677856445312, 114.66844177246094, 16.4875545501709, -0.60888671875, 0.310791015625, -0.55078125, 
172, 3254987686, -0.7877536416053772, 0.23860515654087067, 0.18110114336013794, 0.5382516384124756, 6.476964473724365, -2.7742040157318115, 13.635835647583008, 11.843061447143555, 119.1899185180664, 15.679533958435059, -0.594482421875, 0.3125, -0.5654296875, 
173, 3254996019, -0.7903215885162354, 0.23314204812049866, 0.174259752035141, 0.5391387939453125, 6.557722568511963, -2.7104947566986084, 13.568450927734375, 12.765555381774902, 123.59529113769531, 15.230061531066895, -0.58642578125, 0.31396484375, -0.573974609375, 
174, 3255004352, -0.7927323579788208, 0.22753845155239105, 0.1671230047941208, 0.5402518510818481, 6.567454814910889, -2.558209180831909, 13.496742248535156, 12.966231346130371, 127.91364288330078, 15.07697868347168, -0.577880859375, 0.3154296875, -0.58740234375, 
175, 3255012685, -0.7951458096504211, 0.22174963355064392, 0.1596631109714508, 0.5413671731948853, 6.662248611450195, -2.65883731842041, 13.412909507751465, 12.730104446411133, 132.36851501464844, 16.024377822875977, -0.5634765625, 0.316162109375, -0.60009765625, 
176, 3255021018, -0.79759281873703, 0.21577031910419464, 0.15196828544139862, 0.5423974990844727, 6.716389179229736, -2.7612359523773193, 13.370599746704102, 13.210930824279785, 136.62896728515625, 17.13473892211914, -0.554443359375, 0.318603515625, -0.614501953125, 
177, 3255029351, -0.800015926361084, 0.20953956246376038, 0.1440022736787796, 0.5434442758560181, 6.9579176902771, -2.7625644207000732, 13.200878143310547, 13.905476570129395, 141.04083251953125, 17.317354202270508, -0.53955078125, 0.3173828125, -0.625244140625, 
178, 3255037684, -0.8023701310157776, 0.20306716859340668, 0.13581855595111847, 0.5445364117622375, 7.209085464477539, -2.81253981590271, 12.916481018066406, 14.584487915039062, 145.67306518554688, 16.190759658813477, -0.525146484375, 0.3173828125, -0.636474609375, 
179, 3255046017, -0.8046818375587463, 0.19634048640727997, 0.12741537392139435, 0.545621931552887, 7.152533054351807, -2.8585004806518555, 12.571557998657227, 15.585692405700684, 149.5148468017578, 16.124652862548828, -0.5146484375, 0.317626953125, -0.652587890625, 
180, 3255054350, -0.8069316148757935, 0.18946896493434906, 0.11896102875471115, 0.546636700630188, 7.064281463623047, -3.0585620403289795, 12.145050048828125, 16.816001892089844, 151.25439453125, 16.285518646240234, -0.500244140625, 0.318115234375, -0.662841796875, 
181, 3255062683, -0.8090896010398865, 0.18239469826221466, 0.11045455932617188, 0.5476372241973877, 7.0528340339660645, -3.0367581844329834, 11.88718032836914, 18.409940719604492, 152.79107666015625, 15.618979454040527, -0.4853515625, 0.322509765625, -0.677490234375, 
182, 3255071016, -0.811100959777832, 0.1753367930650711, 0.10199141502380371, 0.5486078858375549, 6.886772155761719, -2.761275291442871, 11.394822120666504, 18.27890396118164, 152.26589965820312, 14.702392578125, -0.468505859375, 0.32177734375, -0.690673828125, 
183, 3255079349, -0.8129846453666687, 0.16826318204402924, 0.09366758912801743, 0.5495184063911438, 6.748031139373779, -2.6132025718688965, 10.993764877319336, 19.215139389038086, 150.1517333984375, 14.058427810668945, -0.452392578125, 0.318359375, -0.70166015625, 
184, 3255087682, -0.8147143721580505, 0.1612941026687622, 0.08545862138271332, 0.5503835082054138, 6.640566825866699, -2.484255075454712, 10.72170352935791, 18.685260772705078, 148.1291961669922, 13.266436576843262, -0.43798828125, 0.320068359375, -0.71630859375, 
185, 3255096015, -0.8162626624107361, 0.15438960492610931, 0.07736411690711975, 0.5512663125991821, 6.456650733947754, -2.3432729244232178, 10.429717063903809, 18.33993911743164, 145.846923828125, 11.53228759765625, -0.422607421875, 0.320068359375, -0.72802734375, 
186, 3255104348, -0.817651629447937, 0.14758193492889404, 0.06941026449203491, 0.5521305203437805, 6.446655750274658, -2.155526638031006, 10.2314453125, 18.0645694732666, 143.66180419921875, 10.318604469299316, -0.41015625, 0.318603515625, -0.734375, 
187, 3255112681, -0.8188889622688293, 0.14083321392536163, 0.061529964208602905, 0.5529930591583252, 6.452746868133545, -2.111276865005493, 10.160994529724121, 17.59156036376953, 141.9240264892578, 9.110149383544922, -0.391845703125, 0.319091796875, -0.746826171875, 
188, 3255121014, -0.8199843168258667, 0.13420027494430542, 0.0537288561463356, 0.5538318157196045, 6.310619354248047, -1.9348764419555664, 10.107295989990234, 16.69752311706543, 140.3006134033203, 8.227974891662598, -0.37744140625, 0.316650390625, -0.7548828125, 
189, 3255129347, -0.8209317922592163, 0.12771253287792206, 0.045931365340948105, 0.5546631217002869, 6.081808090209961, -1.9296302795410156, 10.063638687133789, 14.75666618347168, 138.73817443847656, 7.299439430236816, -0.362060546875, 0.3173828125, -0.7666015625, 
190, 3255137680, -0.8217278718948364, 0.12133258581161499, 0.03811309486627579, 0.5555082559585571, 6.021993160247803, -1.890945315361023, 10.135539054870605, 13.171320915222168, 138.37208557128906, 6.079873561859131, -0.3486328125, 0.31640625, -0.7744140625, 
191, 3255146013, -0.822413980960846, 0.1149851605296135, 0.03000710904598236, 0.55633944272995, 6.355724334716797, -1.7762356996536255, 9.75183391571045, 10.365456581115723, 141.02755737304688, 5.907604694366455, -0.334228515625, 0.318359375, -0.78466796875, 
192, 3255154346, -0.8231443762779236, 0.10853345692157745, 0.021737487986683846, 0.5569396018981934, 6.184940814971924, -1.4699485301971436, 9.432580947875977, 10.521522521972656, 143.594970703125, 9.059946060180664, -0.32080078125, 0.3173828125, -0.79443359375, 
193, 3255162679, -0.8238911628723145, 0.10181527584791183, 0.013341685757040977, 0.5573682188987732, 5.799067497253418, -1.4747568368911743, 9.179346084594727, 12.583130836486816, 146.57644653320312, 11.247962951660156, -0.307861328125, 0.31396484375, -0.801513671875, 
194, 3255171012, -0.8245954513549805, 0.09499029815196991, 0.004899955354630947, 0.5576699376106262, 5.447727203369141, -1.5079891681671143, 8.950353622436523, 13.468892097473145, 147.9674530029297, 12.396584510803223, -0.28955078125, 0.318603515625, -0.807861328125, 
195, 3255179345, -0.825262188911438, 0.08814689517021179, -0.0035491238813847303, 0.5578175187110901, 4.987931728363037, -1.431632161140442, 8.796121597290039, 13.519201278686523, 147.77871704101562, 13.872788429260254, -0.269775390625, 0.314697265625, -0.814208984375, 
196, 3255187678, -0.8258750438690186, 0.08150041848421097, -0.011876929551362991, 0.5578060150146484, 4.492184638977051, -1.3931386470794678, 8.630450248718262, 12.205388069152832, 144.91207885742188, 15.09882640838623, -0.2548828125, 0.31591796875, -0.824951171875, 
197, 3255196011, -0.8264048099517822, 0.07502783834934235, -0.020062990486621857, 0.5576950907707214, 4.357137203216553, -1.3778936862945557, 8.621034622192383, 11.143519401550293, 141.6854248046875, 15.409211158752441, -0.239501953125, 0.316650390625, -0.83056640625, 
198, 3255204344, -0.8268622756004333, 0.06874797493219376, -0.02815747633576393, 0.5574765801429749, 4.237290859222412, -1.44514000415802, 8.439494132995605, 9.616262435913086, 139.25833129882812, 15.923521041870117, -0.2216796875, 0.314697265625, -0.836181640625, 
199, 3255212677, -0.8272373080253601, 0.06254570931196213, -0.03607293963432312, 0.5571944713592529, 3.9494247436523438, -1.4790340662002563, 8.356406211853027, 9.938514709472656, 136.4434814453125, 15.821100234985352, -0.208251953125, 0.316162109375, -0.845458984375, 
200, 3255221010, -0.8275658488273621, 0.056393761187791824, -0.04374696686863899, 0.5568133592605591, 3.659058094024658, -1.4670586585998535, 8.28424072265625, 11.192472457885742, 133.40701293945312, 16.352210998535156, -0.19287109375, 0.31591796875, -0.84765625, 
201, 3255229343, -0.8278308510780334, 0.05028815567493439, -0.05123278126120567, 0.5563656687736511, 3.3027806282043457, -1.3959639072418213, 8.096611022949219, 11.951786041259766, 130.7615203857422, 16.452558517456055, -0.177001953125, 0.314453125, -0.853515625, 
202, 3255237676, -0.8280526399612427, 0.04433995112776756, -0.05843978375196457, 0.5558310747146606, 2.733381509780884, -1.3550889492034912, 8.060535430908203, 12.266630172729492, 126.48793029785156, 16.806127548217773, -0.15966796875, 0.31591796875, -0.858642578125, 
203, 3255246009, -0.8282349705696106, 0.03862994164228439, -0.06530891358852386, 0.555220365524292, 2.287254571914673, -1.5165644884109497, 8.100096702575684, 11.989876747131348, 120.69258880615234, 16.973962783813477, -0.146240234375, 0.3125, -0.86474609375, 
204, 3255254342, -0.828359842300415, 0.03327183052897453, -0.07184673100709915, 0.5545734167098999, 1.9895786046981812, -1.589373230934143, 8.154326438903809, 10.509618759155273, 114.3766098022461, 16.453319549560547, -0.135498046875, 0.313232421875, -0.8662109375, 
205, 3255262675, -0.8284531235694885, 0.028144385665655136, -0.07809126377105713, 0.5538733005523682, 1.8361269235610962, -1.5775433778762817, 8.219747543334961, 9.992528915405273, 109.19054412841797, 16.455249786376953, -0.119140625, 0.309326171875, -0.872314453125, 
206, 3255271008, -0.8284870982170105, 0.02316105179488659, -0.08420534431934357, 0.5531570911407471, 1.9855619668960571, -1.6002569198608398, 8.232064247131348, 9.363815307617188, 106.75597381591797, 15.984112739562988, -0.103271484375, 0.313232421875, -0.876708984375, 
207, 3255279341, -0.8284817337989807, 0.018202751874923706, -0.09031062573194504, 0.5523868203163147, 1.971977949142456, -1.6928013563156128, 8.282882690429688, 9.014382362365723, 106.41828155517578, 16.266332626342773, -0.094482421875, 0.31103515625, -0.876708984375, 
208, 3255287674, -0.8284299373626709, 0.013233919627964497, -0.09639859944581985, 0.5515763163566589, 1.6722651720046997, -1.736998200416565, 8.218017578125, 9.259766578674316, 106.42402648925781, 16.384260177612305, -0.08203125, 0.31103515625, -0.880615234375, 
209, 3255296007, -0.8283399343490601, 0.008250132203102112, -0.10242315381765366, 0.5507222414016724, 1.343636155128479, -1.764650821685791, 8.219588279724121, 9.795880317687988, 105.80139923095703, 16.592226028442383, -0.065185546875, 0.311767578125, -0.88525390625, 
210, 3255304340, -0.828250527381897, 0.003289775922894478, -0.10835175216197968, 0.5497732758522034, 1.0180822610855103, -1.6539252996444702, 8.195265769958496, 10.173513412475586, 104.57601165771484, 17.640316009521484, -0.059326171875, 0.311279296875, -0.885009765625, 
211, 3255312673, -0.8281145691871643, -0.001625238684937358, -0.1141967922449112, 0.548801600933075, 0.849875807762146, -1.4170411825180054, 8.147409439086914, 10.20450210571289, 103.30867767333984, 17.468385696411133, -0.0400390625, 0.311279296875, -0.890625, 
212, 3255321006, -0.8279343843460083, -0.006445429753512144, -0.11995724588632584, 0.5478081703186035, 0.7449659109115601, -1.1318886280059814, 8.048237800598145, 9.778327941894531, 101.74158477783203, 17.241025924682617, -0.026123046875, 0.31005859375, -0.892822265625, 
213, 3255329339, -0.8277092576026917, -0.011203261092305183, -0.12566077709197998, 0.546792209148407, 0.5721009373664856, -1.1920645236968994, 7.972171306610107, 9.417313575744629, 100.67200469970703, 17.05570411682129, -0.01416015625, 0.310546875, -0.896240234375, 
214, 3255337672, -0.8274157643318176, -0.015826009213924408, -0.13132911920547485, 0.545789361000061, 0.3835466802120209, -1.2887790203094482, 7.838829517364502, 8.223114967346191, 99.40059661865234, 16.170080184936523, -0.00146484375, 0.308349609375, -0.895751953125, 
215, 3255346005, -0.8270741701126099, -0.02034139633178711, -0.13691051304340363, 0.5447850823402405, 0.10967807471752167, -1.1866505146026611, 7.761754512786865, 7.619559288024902, 97.67764282226562, 15.643288612365723, 0.011962890625, 0.310302734375, -0.896240234375, 
216, 3255354338, -0.8267378807067871, -0.0247194766998291, -0.1422485113143921, 0.543745756149292, -0.28984493017196655, -1.1599323749542236, 7.776754856109619, 7.856895446777344, 93.89527130126953, 15.899674415588379, 0.022705078125, 0.30859375, -0.897216796875, 
217, 3255362671, -0.826383113861084, -0.02890816703438759, -0.147329181432724, 0.5427243709564209, -0.7370789647102356, -0.9299116730690002, 7.912858486175537, 7.6287689208984375, 89.58096313476562, 15.264966011047363, 0.0341796875, 0.306640625, -0.900390625, 
218, 3255371004, -0.8259881734848022, -0.032879702746868134, -0.15221703052520752, 0.5417500138282776, -0.904194712638855, -0.7454584836959839, 8.042381286621094, 6.751471042633057, 85.83367919921875, 14.076168060302734, 0.044921875, 0.308349609375, -0.900634765625, 
219, 3255379337, -0.8255599737167358, -0.03672408685088158, -0.15702283382415771, 0.5407833456993103, -0.8536731004714966, -0.6952675580978394, 8.23604679107666, 5.910497188568115, 84.02716064453125, 13.50117015838623, 0.057373046875, 0.304443359375, -0.9013671875, 
220, 3255387670, -0.8250871896743774, -0.04054803028702736, -0.16187192499637604, 0.5398008823394775, -0.8863025307655334, -0.8446086645126343, 8.382241249084473, 5.38368558883667, 84.46481323242188, 13.292567253112793, 0.068115234375, 0.306640625, -0.89990234375, 
221, 3255396003, -0.8245551586151123, -0.0442139133810997, -0.1669670194387436, 0.5387730598449707, -1.028260350227356, -0.691646933555603, 8.652173042297363, 1.6577388048171997, 86.25613403320312, 12.867063522338867, 0.0791015625, 0.3056640625, -0.900390625, 
222, 3255404336, -0.823901891708374, -0.048060283064842224, -0.17238451540470123, 0.5377360582351685, -0.861871600151062, -1.1468455791473389, 8.51255989074707, 1.4071029424667358, 91.51576232910156, 12.304096221923828, 0.08837890625, 0.3056640625, -0.903076171875, 
223, 3255412669, -0.8232259750366211, -0.052085358649492264, -0.17793157696723938, 0.5365882515907288, -1.3387209177017212, -1.188195824623108, 8.290014266967773, 2.186704397201538, 94.46259307861328, 13.717429161071777, 0.100830078125, 0.305419921875, -0.90234375, 
224, 3255421002, -0.8224868178367615, -0.05634802207350731, -0.18361255526542664, 0.5353761911392212, -1.6499661207199097, -1.747653603553772, 8.332117080688477, 3.814786195755005, 97.90313720703125, 14.476367950439453, 0.112548828125, 0.306640625, -0.9033203125, 
225, 3255429335, -0.8217044472694397, -0.06080241501331329, -0.18921439349651337, 0.5341378450393677, -2.0568835735321045, -1.9328868389129639, 8.26120662689209, 6.499233245849609, 98.5872802734375, 14.985252380371094, 0.12646484375, 0.306396484375, -0.89892578125, 
226, 3255437668, -0.8209133148193359, -0.06537036597728729, -0.19451096653938293, 0.5329108238220215, -2.666900157928467, -1.7059822082519531, 8.092926025390625, 10.096575736999512, 95.94722747802734, 15.358527183532715, 0.139404296875, 0.304443359375, -0.904052734375, 
227, 3255446001, -0.8201247453689575, -0.06993207335472107, -0.19935953617095947, 0.5317527651786804, -2.8950035572052, -1.112233281135559, 7.907895565032959, 13.462406158447266, 90.81922912597656, 14.972273826599121, 0.150634765625, 0.302001953125, -0.901123046875, 
228, 3255454334, -0.8193390369415283, -0.07437777519226074, -0.20389913022518158, 0.530638575553894, -2.9025254249572754, -0.4849824011325836, 8.025897026062012, 14.560691833496094, 86.38995361328125, 14.490352630615234, 0.16259765625, 0.30126953125, -0.902099609375, 
229, 3255462667, -0.8185259103775024, -0.07863319665193558, -0.20829331874847412, 0.529572069644928, -2.8717477321624756, -0.07274626195430756, 8.12126350402832, 13.609597206115723, 83.44164276123047, 13.352631568908691, 0.1748046875, 0.296875, -0.90185546875, 
230, 3255471000, -0.8177202343940735, -0.08267626166343689, -0.21251368522644043, 0.5285230875015259, -2.9631309509277344, 0.025620581582188606, 8.085298538208008, 12.557092666625977, 79.84883880615234, 12.80634593963623, 0.185791015625, 0.295654296875, -0.90283203125, 
231, 3255479333, -0.8169047832489014, -0.08648897707462311, -0.21663790941238403, 0.5274985432624817, -2.9623968601226807, -0.023032139986753464, 8.135953903198242, 10.714364051818848, 77.14726257324219, 11.8794584274292, 0.1982421875, 0.295166015625, -0.90380859375, 
232, 3255487666, -0.8161026835441589, -0.0901588723063469, -0.22072114050388336, 0.5264317393302917, -2.8876521587371826, -0.26858747005462646, 8.16195011138916, 9.299578666687012, 75.60784912109375, 12.088546752929688, 0.20654296875, 0.295166015625, -0.90478515625, 
233, 3255495999, -0.8152658343315125, -0.09379881620407104, -0.22482794523239136, 0.5253534913063049, -2.685575246810913, -0.556158185005188, 7.957759380340576, 8.765978813171387, 75.8352279663086, 11.828946113586426, 0.21435546875, 0.29638671875, -0.900146484375, 
234, 3255504332, -0.8143754601478577, -0.09748249500989914, -0.22902646660804749, 0.524249255657196, -2.6887073516845703, -0.7068876624107361, 7.755743026733398, 8.615778923034668, 77.3187026977539, 11.768498420715332, 0.220947265625, 0.2919921875, -0.903564453125, 
235, 3255512665, -0.8134923577308655, -0.10119719058275223, -0.23324093222618103, 0.52305668592453, -3.0628864765167236, -0.7734743356704712, 7.5958571434021, 8.528512001037598, 77.88274383544922, 12.865026473999023, 0.233642578125, 0.29443359375, -0.896240234375, 
236, 3255520998, -0.8124626278877258, -0.10494475811719894, -0.2376089096069336, 0.5219517350196838, -3.2238121032714844, -0.9809539914131165, 7.363454818725586, 8.308868408203125, 80.1201400756836, 10.74356746673584, 0.24609375, 0.29150390625, -0.897705078125, 
237, 3255529331, -0.8114820122718811, -0.10886791348457336, -0.2417983114719391, 0.5207484364509583, -3.2690186500549316, -0.9987537860870361, 6.736743927001953, 11.130552291870117, 79.4366683959961, 13.003705978393555, 0.25634765625, 0.2900390625, -0.897705078125, 
238, 3255537664, -0.8106086254119873, -0.11297094076871872, -0.24557681381702423, 0.5194647312164307, -3.745556354522705, -0.8943374752998352, 6.545666694641113, 15.682401657104492, 75.83158874511719, 15.905784606933594, 0.26708984375, 0.289306640625, -0.896728515625, 
239, 3255545997, -0.8098171949386597, -0.11704211682081223, -0.2489684373140335, 0.5181818008422852, -4.064720630645752, -1.0135303735733032, 6.527765274047852, 17.938610076904297, 71.08840942382812, 16.954402923583984, 0.274658203125, 0.284423828125, -0.892822265625, 
240, 3255554330, -0.8090965747833252, -0.12101580202579498, -0.2519894540309906, 0.5169330835342407, -4.207236289978027, -0.67009037733078, 6.533811092376709, 19.525562286376953, 65.89398956298828, 17.36079216003418, 0.287353515625, 0.2841796875, -0.89306640625, 
241, 3255562663, -0.8084530830383301, -0.12485373020172119, -0.2546486556529999, 0.5157226920127869, -4.23785400390625, -0.3959210216999054, 6.4146728515625, 20.564594268798828, 60.644989013671875, 17.594615936279297, 0.296875, 0.2783203125, -0.8896484375, 
242, 3255570996, -0.8078667521476746, -0.12850414216518402, -0.2570403814315796, 0.5145570635795593, -4.263326644897461, -0.018313398584723473, 6.455780506134033, 20.46194839477539, 55.99129104614258, 17.323734283447266, 0.29931640625, 0.27880859375, -0.89306640625, 
243, 3255579329, -0.8073388934135437, -0.13194875419139862, -0.25924578309059143, 0.5134058594703674, -4.142918109893799, 0.058358173817396164, 6.522274017333984, 19.416725158691406, 52.306270599365234, 17.15884780883789, 0.308349609375, 0.27392578125, -0.89013671875, 
244, 3255587662, -0.8068154454231262, -0.1352224349975586, -0.2614232003688812, 0.5122714042663574, -3.849179744720459, -0.1832081824541092, 6.444901943206787, 17.792823791503906, 50.67013931274414, 16.465848922729492, 0.317138671875, 0.26953125, -0.88818359375, 
245, 3255595995, -0.8062943816184998, -0.13851530849933624, -0.2635582387447357, 0.5111169219017029, -3.7076117992401123, -0.5320377945899963, 6.376411437988281, 18.200117111206055, 50.43710708618164, 16.829444885253906, 0.3203125, 0.27001953125, -0.890380859375, 
246, 3255604328, -0.8057519793510437, -0.14179417490959167, -0.26578450202941895, 0.5099188685417175, -3.665130615234375, -0.7728451490402222, 6.238176345825195, 17.314834594726562, 51.43716049194336, 16.96320152282715, 0.3271484375, 0.268798828125, -0.88818359375, 
247, 3255612661, -0.805173933506012, -0.1451215296983719, -0.26794981956481934, 0.5087613463401794, -3.9579193592071533, -0.797110915184021, 5.95902681350708, 18.473140716552734, 51.230918884277344, 16.532957077026367, 0.340576171875, 0.263916015625, -0.885009765625, 
248, 3255620994, -0.8045644760131836, -0.14851036667823792, -0.26997867226600647, 0.5076736807823181, -4.219996929168701, -0.964550256729126, 5.767488956451416, 20.452280044555664, 50.046810150146484, 16.063806533813477, 0.345947265625, 0.2626953125, -0.88525390625, 
249, 3255629327, -0.8039429783821106, -0.15187332034111023, -0.27179640531539917, 0.5066925287246704, -4.41323184967041, -0.7765372395515442, 5.539771556854248, 22.04097557067871, 47.435455322265625, 15.115203857421875, 0.348876953125, 0.259521484375, -0.885498046875, 
250, 3255637660, -0.8033437728881836, -0.1551562398672104, -0.2733409106731415, 0.5058168768882751, -4.6174116134643555, -0.46628206968307495, 5.326083183288574, 23.42644691467285, 43.47700881958008, 14.397358894348145, 0.35302734375, 0.255615234375, -0.88623046875, 
251, 3255645993, -0.8027833700180054, -0.15828166902065277, -0.27457672357559204, 0.5050681233406067, -4.7570481300354, -0.1400892585515976, 5.116509914398193, 24.20918846130371, 38.62915802001953, 13.310693740844727, 0.361328125, 0.251220703125, -0.88623046875, 
252, 3255654326, -0.8022714853286743, -0.16121700406074524, -0.2755168080329895, 0.5044409036636353, -4.75582218170166, 0.18763449788093567, 5.010499954223633, 24.53855323791504, 33.521018981933594, 12.253536224365234, 0.3681640625, 0.24951171875, -0.88037109375, 
253, 3255662659, -0.801796555519104, -0.16395092010498047, -0.27623647451400757, 0.5039210319519043, -4.6076860427856445, 0.3387402594089508, 4.816479206085205, 24.149084091186523, 29.38425636291504, 11.028121948242188, 0.372314453125, 0.245849609375, -0.8857421875, 
254, 3255670992, -0.8013728260993958, -0.1664482206106186, -0.27680227160453796, 0.5034657716751099, -4.686028957366943, 0.4006500244140625, 4.737791538238525, 22.75693702697754, 25.638029098510742, 10.141249656677246, 0.373779296875, 0.242431640625, -0.883056640625, 
255, 3255679325, -0.8010436296463013, -0.16869382560253143, -0.27720901370048523, 0.5030182003974915, -4.738921165466309, 0.33408528566360474, 4.694223403930664, 20.875032424926758, 21.828393936157227, 10.093118667602539, 0.38037109375, 0.239990234375, -0.88427734375, 
256, 3255687658, -0.8008003234863281, -0.17071881890296936, -0.2774829864501953, 0.502571165561676, -4.657382488250732, 0.13996170461177826, 4.690474033355713, 19.18730354309082, 18.448820114135742, 10.17380142211914, 0.38232421875, 0.232666015625, -0.885009765625, 
257, 3255695991, -0.8005908131599426, -0.17261043190956116, -0.27766263484954834, 0.5021592378616333, -4.524887561798096, -0.012852711603045464, 4.692313194274902, 18.40184211730957, 16.334335327148438, 9.70705795288086, 0.384765625, 0.233154296875, -0.8857421875, 
258, 3255704324, -0.8003610968589783, -0.1744481772184372, -0.277748703956604, 0.501842737197876, -4.506848335266113, -0.1635492891073227, 4.698475360870361, 18.89097023010254, 14.7260160446167, 8.557541847229004, 0.38330078125, 0.229736328125, -0.88037109375, 
259, 3255712657, -0.800078809261322, -0.17624448239803314, -0.2777639627456665, 0.5016564726829529, -4.473037242889404, -0.14487963914871216, 4.538238048553467, 19.523590087890625, 13.601652145385742, 6.752326011657715, 0.388916015625, 0.227783203125, -0.884521484375, 
260, 3255720990, -0.7997714281082153, -0.1780110001564026, -0.2777025103569031, 0.5015570521354675, -4.492633819580078, -0.05806620046496391, 4.436456203460693, 20.1402530670166, 12.38308048248291, 5.717202663421631, 0.387451171875, 0.226806640625, -0.884521484375, 
261, 3255729323, -0.7994780540466309, -0.1796911209821701, -0.27750709652900696, 0.5015339851379395, -4.563044548034668, 0.004819131456315517, 4.287297248840332, 20.35051727294922, 10.12341594696045, 4.947443008422852, 0.391357421875, 0.22265625, -0.88671875, 
262, 3255737656, -0.7992483377456665, -0.18124043941497803, -0.27724847197532654, 0.5014856457710266, -4.724224090576172, 0.21719244122505188, 4.3272705078125, 19.115196228027344, 8.296173095703125, 5.347896575927734, 0.392578125, 0.2197265625, -0.88525390625, 
263, 3255745989, -0.7991348505020142, -0.18253836035728455, -0.27685511112213135, 0.5014132261276245, -5.047893524169922, 0.3953593373298645, 4.262600421905518, 16.878812789916992, 4.743040561676025, 5.765151500701904, 0.39404296875, 0.216796875, -0.881591796875, 
264, 3255754322, -0.7991048693656921, -0.183440700173378, -0.27629533410072327, 0.5014404058456421, -5.188465118408203, 0.5117030739784241, 4.338466167449951, 13.8695707321167, -0.4254396855831146, 4.182983875274658, 0.3955078125, 0.21728515625, -0.887939453125, 
265, 3255762655, -0.7991726398468018, -0.1838490217924118, -0.2756091058254242, 0.5015604496002197, -5.315864086151123, 0.5035901069641113, 4.478058338165283, 9.395123481750488, -5.793390274047852, 2.254488468170166, 0.392578125, 0.2158203125, -0.88720703125, 
266, 3255770988, -0.7993899583816528, -0.18370047211647034, -0.2748868763446808, 0.5016648173332214, -5.48012113571167, 0.462409645318985, 4.694703578948975, 3.110337018966675, -10.589578628540039, 1.4628289937973022, 0.39404296875, 0.21533203125, -0.886474609375, 
267, 3255779321, -0.7997910380363464, -0.183180034160614, -0.2741438150405884, 0.5016225576400757, -5.455935955047607, 0.257691890001297, 4.9901347160339355, -1.879022240638733, -13.683268547058105, 2.9652323722839355, 0.39013671875, 0.213623046875, -0.888671875, 
268, 3255787654, -0.8002796173095703, -0.18256397545337677, -0.273455411195755, 0.5014436841011047, -5.331202507019043, -0.026000183075666428, 5.196788787841797, -4.01676082611084, -13.753989219665527, 4.596065044403076, 0.392578125, 0.214111328125, -0.88720703125, 
269, 3255795987, -0.8006867170333862, -0.1820499747991562, -0.27296262979507446, 0.5012487769126892, -5.303758144378662, -0.18055374920368195, 5.680467128753662, -4.126081943511963, -10.530332565307617, 4.080885887145996, 0.388671875, 0.216064453125, -0.8876953125, 
270, 3255804320, -0.8009760975837708, -0.18174974620342255, -0.2727091908454895, 0.5010333061218262, -5.242057800292969, -0.2780373692512512, 5.848985195159912, -3.17681884765625, -5.9481000900268555, 3.724464178085327, 0.38720703125, 0.210693359375, -0.88818359375, 
271, 3255812653, -0.8011585474014282, -0.18171873688697815, -0.2725227475166321, 0.5008543729782104, -5.568520545959473, -0.386233925819397, 6.096806526184082, -0.2953193783760071, -3.027333974838257, 3.402672052383423, 0.38623046875, 0.209716796875, -0.888671875, 
272, 3255820986, -0.8012697696685791, -0.18186423182487488, -0.27231425046920776, 0.5007372498512268, -5.754091262817383, -0.26842641830444336, 6.229043960571289, 2.237992525100708, -1.9610387086868286, 2.9701497554779053, 0.39111328125, 0.216552734375, -0.88916015625, 
273, 3255829319, -0.8013584017753601, -0.18202970921993256, -0.2719916105270386, 0.5007101893424988, -5.91733980178833, -0.03455225005745888, 6.276993751525879, 3.614168643951416, -3.2103984355926514, 2.163839101791382, 0.3876953125, 0.212646484375, -0.884765625, 
274, 3255837652, -0.8014741539955139, -0.1820826679468155, -0.2715277671813965, 0.50075763463974, -6.104733467102051, 0.22922879457473755, 6.311995983123779, 3.579845428466797, -5.839187145233154, 1.4814504384994507, 0.3896484375, 0.213134765625, -0.88720703125, 
275, 3255845985, -0.8016950488090515, -0.1819315254688263, -0.2708670198917389, 0.5008168816566467, -6.256077766418457, 0.14534741640090942, 6.332466125488281, 2.444085121154785, -9.830245018005371, 1.7863624095916748, 0.38720703125, 0.212646484375, -0.88818359375, 
276, 3255854318, -0.8019893765449524, -0.18158714473247528, -0.27008166909217834, 0.5008948445320129, -6.226446151733398, -0.07949541509151459, 6.373987674713135, 1.0820223093032837, -12.863048553466797, 1.6982240676879883, 0.3857421875, 0.212158203125, -0.887451171875, 
277, 3255862651, -0.802298903465271, -0.18111038208007812, -0.26920878887176514, 0.5010417699813843, -6.181041240692139, 0.00601400388404727, 6.421286582946777, 0.41848549246788025, -14.967336654663086, 0.7515730857849121, 0.38720703125, 0.213134765625, -0.890869140625, 
278, 3255870984, -0.8026098012924194, -0.18054112792015076, -0.26829615235328674, 0.5012388229370117, -6.087914943695068, 0.1849285215139389, 6.54669713973999, -0.12096323817968369, -16.174558639526367, -0.01922348514199257, 0.380859375, 0.212890625, -0.890625, 
279, 3255879317, -0.8029265999794006, -0.17989444732666016, -0.26738351583480835, 0.5014512538909912, -5.980124473571777, 0.2429661899805069, 6.6851396560668945, -0.9579085111618042, -16.770755767822266, -0.44964519143104553, 0.38330078125, 0.21240234375, -0.891357421875, 
280, 3255887650, -0.8032236695289612, -0.17923985421657562, -0.2664337754249573, 0.5017155408859253, -5.858880996704102, 0.2548932135105133, 6.717883110046387, -0.5269233584403992, -17.286705017089844, -1.079217553138733, 0.37841796875, 0.21142578125, -0.89306640625, 
281, 3255895983, -0.8034905195236206, -0.17860616743564606, -0.2654251456260681, 0.5020487308502197, -5.796113014221191, 0.34925204515457153, 6.716918468475342, 0.4151812195777893, -17.861797332763672, -1.841779351234436, 0.375, 0.2119140625, -0.891845703125, 
282, 3255904316, -0.8037393093109131, -0.17793601751327515, -0.264384925365448, 0.5024371147155762, -5.652526378631592, 0.43948137760162354, 6.661556243896484, 0.4981969892978668, -18.5234375, -2.616302490234375, 0.3720703125, 0.208251953125, -0.897705078125, 
283, 3255912649, -0.8039918541908264, -0.17723140120506287, -0.26333603262901306, 0.5028327703475952, -5.468094825744629, 0.4604101777076721, 6.59501314163208, 0.16918204724788666, -18.89971160888672, -2.7922468185424805, 0.372314453125, 0.2138671875, -0.892333984375, 
284, 3255920982, -0.8042225241661072, -0.1764814555644989, -0.26231205463409424, 0.5032625198364258, -5.276965141296387, 0.3485512137413025, 6.470682144165039, -0.3021584153175354, -18.930448532104492, -3.527862548828125, 0.37109375, 0.209716796875, -0.8974609375, 
285, 3255929315, -0.8044313788414001, -0.17569208145141602, -0.261302649974823, 0.5037298798561096, -5.012689590454102, 0.12662498652935028, 6.247369289398193, -0.6766642928123474, -19.068281173706055, -4.2882981300354, 0.36767578125, 0.207763671875, -0.8974609375, 
286, 3255937648, -0.8046205043792725, -0.17489570379257202, -0.2602469325065613, 0.50425124168396, -4.764476776123047, 0.034793395549058914, 6.019613265991211, -0.1645330935716629, -19.675825119018555, -4.920893669128418, 0.365234375, 0.211181640625, -0.898681640625, 
287, 3255945981, -0.8047853112220764, -0.17407892644405365, -0.2591683268547058, 0.504826009273529, -4.46911096572876, -0.09374864399433136, 5.764194011688232, -0.009438849985599518, -20.127199172973633, -5.7113752365112305, 0.361572265625, 0.2119140625, -0.89892578125, 
288, 3255954314, -0.80491042137146, -0.17319120466709137, -0.2580661475658417, 0.5054962635040283, -4.183108329772949, -0.1193329244852066, 5.341709136962891, -0.16824719309806824, -20.952058792114258, -7.227354526519775, 0.357666015625, 0.2119140625, -0.8994140625, 
289, 3255962647, -0.8049562573432922, -0.17219923436641693, -0.25694459676742554, 0.506332516670227, -3.847158432006836, -0.10190864652395248, 4.770473957061768, -0.43548059463500977, -22.02009391784668, -9.952632904052734, 0.354248046875, 0.21142578125, -0.902099609375, 
290, 3255970980, -0.8049386739730835, -0.17093104124069214, -0.2558678984642029, 0.5073345303535461, -3.504707098007202, 0.19144049286842346, 4.001535892486572, -3.0431907176971436, -23.60039520263672, -13.297394752502441, 0.357177734375, 0.21484375, -0.901611328125, 
291, 3255979313, -0.8048863410949707, -0.16941599547863007, -0.25482797622680664, 0.5084480047225952, -2.973506212234497, 0.1820925772190094, 3.374619722366333, -5.585175514221191, -25.074806213378906, -15.742457389831543, 0.348388671875, 0.213623046875, -0.90380859375, 
292, 3255987646, -0.8048339486122131, -0.16768911480903625, -0.25385892391204834, 0.5095868706703186, -2.400453567504883, 0.27374961972236633, 2.6903574466705322, -8.30848503112793, -25.809967041015625, -16.917564392089844, 0.349853515625, 0.21728515625, -0.8994140625, 
293, 3255995979, -0.8048595786094666, -0.1658548265695572, -0.2528497874736786, 0.5106474161148071, -2.203373432159424, 0.46527814865112305, 2.2154548168182373, -9.698570251464844, -27.12033462524414, -15.80080795288086, 0.34423828125, 0.21630859375, -0.901611328125, 
294, 3256004312, -0.8050107359886169, -0.16385160386562347, -0.25165361166000366, 0.5116457343101501, -2.247509717941284, 0.5727035999298096, 2.020775079727173, -10.72921371459961, -30.65035057067871, -14.378043174743652, 0.33837890625, 0.217529296875, -0.90478515625, 
295, 3256012645, -0.8053598999977112, -0.16159896552562714, -0.25007566809654236, 0.5125852823257446, -2.4936282634735107, 0.7960203886032104, 1.8421876430511475, -11.48511791229248, -37.20791244506836, -12.34977912902832, 0.33642578125, 0.2197265625, -0.902099609375, 
296, 3256020978, -0.8059552311897278, -0.15903827548027039, -0.2478809356689453, 0.5135156512260437, -2.809810161590576, 0.7541569471359253, 1.9086271524429321, -11.096735954284668, -47.01406478881836, -10.186763763427734, 0.33056640625, 0.221923828125, -0.904296875, 
297, 3256029311, -0.8068074584007263, -0.15615521371364594, -0.24491173028945923, 0.5144861936569214, -2.867906093597412, 0.5451505184173584, 2.1680502891540527, -9.65958309173584, -58.867462158203125, -8.23926830291748, 0.322509765625, 0.225341796875, -0.90234375, 
298, 3256037644, -0.8078576326370239, -0.15286991000175476, -0.24134300649166107, 0.5155104398727417, -2.822997808456421, 0.5595752000808716, 2.5259907245635986, -10.09183406829834, -69.11561584472656, -7.486650466918945, 0.317138671875, 0.2236328125, -0.906494140625, 
299, 3256045977, -0.8090516924858093, -0.14915964007377625, -0.23724494874477386, 0.5166256427764893, -2.7277417182922363, 0.6587756872177124, 2.88460636138916, -11.098005294799805, -78.71481323242188, -7.792086601257324, 0.3076171875, 0.228515625, -0.907470703125, 
300, 3256054310, -0.8103234171867371, -0.14506393671035767, -0.2327730506658554, 0.5178315043449402, -2.3879764080047607, 0.5679861903190613, 3.4024205207824707, -12.557784080505371, -86.014404296875, -8.72246265411377, 0.294921875, 0.230712890625, -0.91455078125, 
301, 3256062643, -0.8116660118103027, -0.1407318264245987, -0.22807691991329193, 0.5190126895904541, -2.077646017074585, 0.4821982681751251, 3.994215250015259, -13.854572296142578, -90.41519165039062, -8.267964363098145, 0.28466796875, 0.22998046875, -0.91650390625, 
302, 3256070976, -0.8130154609680176, -0.13629545271396637, -0.2232959270477295, 0.5201624035835266, -1.8536611795425415, 0.46879494190216064, 4.475490570068359, -14.485255241394043, -92.02590942382812, -8.016818046569824, 0.270263671875, 0.23095703125, -0.91552734375, 
303, 3256079309, -0.8143121600151062, -0.13183973729610443, -0.21863451600074768, 0.5212613940238953, -1.6186538934707642, 0.367313414812088, 4.747451305389404, -15.655936241149902, -90.60860443115234, -8.126189231872559, 0.261474609375, 0.234130859375, -0.91845703125, 
304, 3256087642, -0.8155072927474976, -0.12740612030029297, -0.2141360193490982, 0.5223619341850281, -1.6841634511947632, -0.0008276626467704773, 5.034032821655273, -16.343854904174805, -88.2857894897461, -9.082295417785645, 0.2509765625, 0.235595703125, -0.91796875, 
305, 3256095975, -0.8166674375534058, -0.12291319668292999, -0.20969130098819733, 0.5234277844429016, -2.029426097869873, -0.4330581724643707, 5.373610496520996, -17.481853485107422, -87.97513580322266, -9.2327299118042, 0.23291015625, 0.236328125, -0.921875, 
306, 3256104308, -0.8178426623344421, -0.11823724210262299, -0.20509885251522064, 0.5244885683059692, -2.4473628997802734, -0.7233021259307861, 5.832805633544922, -18.469348907470703, -90.95594024658203, -9.326713562011719, 0.230224609375, 0.23876953125, -0.919921875, 
307, 3256112641, -0.8190392255783081, -0.11332516372203827, -0.20020587742328644, 0.5255950689315796, -2.6077919006347656, -0.7042642831802368, 6.427798271179199, -18.90491485595703, -96.19993591308594, -9.881300926208496, 0.216552734375, 0.241455078125, -0.921630859375, 
308, 3256120974, -0.820257306098938, -0.10814376175403595, -0.19493833184242249, 0.5267658233642578, -2.633582830429077, -0.5703376531600952, 7.025020122528076, -19.046403884887695, -102.4999008178711, -10.589962005615234, 0.2021484375, 0.240234375, -0.92333984375, 
309, 3256129307, -0.8214653134346008, -0.10272501409053802, -0.18929314613342285, 0.5280252695083618, -2.5953006744384766, -0.5535560846328735, 7.608943939208984, -18.77309226989746, -108.60479736328125, -11.752642631530762, 0.189697265625, 0.24609375, -0.92333984375, 
310, 3256137640, -0.8226242065429688, -0.09709059447050095, -0.18335528671741486, 0.529380738735199, -2.48460054397583, -0.4629029631614685, 8.166027069091797, -18.7270565032959, -113.46380615234375, -13.329126358032227, 0.176025390625, 0.248046875, -0.925048828125, 
311, 3256145973, -0.8236916065216064, -0.09132521599531174, -0.17727406322956085, 0.5308166742324829, -2.1237106323242188, -0.5148001313209534, 8.625028610229492, -18.876501083374023, -115.93026733398438, -15.05639934539795, 0.1572265625, 0.251220703125, -0.923583984375, 
312, 3256154306, -0.8246506452560425, -0.08557285368442535, -0.17127950489521027, 0.532252311706543, -1.628483772277832, -0.5788212418556213, 8.936711311340332, -19.189407348632812, -114.5739517211914, -15.907645225524902, 0.144775390625, 0.25341796875, -0.925537109375, 
313, 3256162639, -0.8255548477172852, -0.07998280972242355, -0.16540032625198364, 0.533577561378479, -1.5201175212860107, -0.5138533115386963, 9.234785079956055, -18.424854278564453, -111.82418060302734, -14.824295997619629, 0.13427734375, 0.2548828125, -0.925537109375, 
314, 3256170972, -0.8264408707618713, -0.07454243302345276, -0.15963532030582428, 0.5347484350204468, -1.6238542795181274, -0.5535153150558472, 9.580439567565918, -17.857709884643555, -109.21244812011719, -12.976122856140137, 0.116455078125, 0.26123046875, -0.922607421875, 
315, 3256179305, -0.827308714389801, -0.06925433874130249, -0.15401606261730194, 0.5357646346092224, -1.3738548755645752, -0.6184043288230896, 9.773219108581543, -17.554704666137695, -106.23116302490234, -11.181203842163086, 0.103271484375, 0.259521484375, -0.921630859375, 
316, 3256187638, -0.8281992077827454, -0.06419434398412704, -0.14854687452316284, 0.5365626811981201, -1.1555417776107788, -0.6710106730461121, 9.900932312011719, -16.515613555908203, -102.69056701660156, -8.178153038024902, 0.0869140625, 0.2607421875, -0.92138671875, 
317, 3256195971, -0.8291397094726562, -0.05939479544758797, -0.14316591620445251, 0.537125289440155, -1.1961679458618164, -0.854171097278595, 10.048615455627441, -14.757402420043945, -99.63955688476562, -4.685717582702637, 0.076904296875, 0.26220703125, -0.92236328125, 
318, 3256204304, -0.8300926089286804, -0.05477483570575714, -0.13782785832881927, 0.5375406742095947, -1.2115156650543213, -1.0310430526733398, 10.069940567016602, -13.293610572814941, -97.74606323242188, -2.585869312286377, 0.063232421875, 0.26513671875, -0.920166015625, 
319, 3256212637, -0.8310209512710571, -0.05024998262524605, -0.13248276710510254, 0.5378921627998352, -1.1352665424346924, -1.1842912435531616, 10.05562973022461, -12.290107727050781, -96.99911499023438, -1.8645142316818237, 0.0546875, 0.26708984375, -0.91845703125, 
320, 3256220970, -0.8318915367126465, -0.045735448598861694, -0.12709973752498627, 0.5382480621337891, -0.9962194561958313, -1.464476227760315, 9.940733909606934, -11.810579299926758, -97.2826919555664, -2.284437417984009, 0.041015625, 0.265380859375, -0.915283203125, 
321, 3256229303, -0.8327203989028931, -0.041180066764354706, -0.12164825201034546, 0.538594126701355, -0.7919884920120239, -1.5577253103256226, 9.889629364013672, -11.792369842529297, -98.24927520751953, -2.5198347568511963, 0.030517578125, 0.267578125, -0.917724609375, 
322, 3256237636, -0.8335407376289368, -0.036510322242975235, -0.11604923009872437, 0.5388971567153931, -0.7725773453712463, -1.684493899345398, 9.921493530273438, -12.045933723449707, -100.78938293457031, -2.188077688217163, 0.013671875, 0.267578125, -0.91748046875, 
323, 3256245969, -0.8343214392662048, -0.0316094234585762, -0.11025004833936691, 0.5392162203788757, -0.772907555103302, -1.6975221633911133, 10.15761661529541, -13.189681053161621, -104.6886978149414, -2.9422974586486816, 0.00390625, 0.26806640625, -0.912841796875, 
324, 3256254302, -0.83503657579422, -0.026476958766579628, -0.10425931215286255, 0.5395774245262146, -0.6533434987068176, -1.373822569847107, 10.487353324890137, -14.312810897827148, -108.57344818115234, -4.170694828033447, -0.007080078125, 0.27294921875, -0.91064453125, 
325, 3256262635, -0.8356522917747498, -0.021023359149694443, -0.09820140153169632, 0.5400003790855408, -0.47221893072128296, -1.0506622791290283, 10.836122512817383, -17.392221450805664, -111.54861450195312, -6.059307098388672, -0.0234375, 0.2705078125, -0.910400390625, 
326, 3256270968, -0.8360816836357117, -0.015409773215651512, -0.0922846794128418, 0.5405682325363159, -0.015463709831237793, -0.7257315516471863, 10.992433547973633, -20.014659881591797, -110.96391296386719, -9.361531257629395, -0.037353515625, 0.27294921875, -0.905517578125, 
327, 3256279301, -0.8363075852394104, -0.009918038733303547, -0.08662817627191544, 0.5412833094596863, 0.36584919691085815, -0.7403554916381836, 11.194496154785156, -20.3338565826416, -106.76848602294922, -12.472329139709473, -0.049072265625, 0.277099609375, -0.902587890625, 
328, 3256287634, -0.8363680243492126, -0.004659011494368315, -0.08132097870111465, 0.5420832633972168, 0.5495245456695557, -0.725120484828949, 11.21938705444336, -20.11652183532715, -100.90410614013672, -14.444811820983887, -0.060546875, 0.27734375, -0.897705078125, 
329, 3256295967, -0.8363217711448669, 0.0003213046584278345, -0.07619982957839966, 0.5429179668426514, 0.47302111983299255, -1.0223445892333984, 11.086113929748535, -18.270959854125977, -96.48527526855469, -15.34366512298584, -0.073974609375, 0.27880859375, -0.8935546875, 
330, 3256304300, -0.8362104296684265, 0.005109740421175957, -0.07118812203407288, 0.543745219707489, 0.4115355610847473, -1.435516119003296, 10.827441215515137, -16.870609283447266, -93.81015014648438, -15.537707328796387, -0.082763671875, 0.28125, -0.894287109375, 
331, 3256312633, -0.8360806107521057, 0.009811844676733017, -0.06615854054689407, 0.5445149540901184, 0.34772732853889465, -1.6147135496139526, 10.67353630065918, -15.817804336547852, -93.26070404052734, -14.939459800720215, -0.0947265625, 0.28076171875, -0.889892578125, 
332, 3256320966, -0.8359881639480591, 0.01460221316665411, -0.060969237238168716, 0.545154869556427, 0.20200541615486145, -1.4397456645965576, 10.70366096496582, -15.734713554382324, -95.90430450439453, -13.259101867675781, -0.110595703125, 0.28564453125, -0.886962890625, 
333, 3256329299, -0.8359591364860535, 0.01964665949344635, -0.05558256804943085, 0.545616626739502, 0.1170642077922821, -1.3871698379516602, 10.888349533081055, -17.32569122314453, -100.06546783447266, -10.994510650634766, -0.12109375, 0.283447265625, -0.8837890625, 
334, 3256337632, -0.8359901905059814, 0.02493882179260254, -0.05001753196120262, 0.5458914041519165, 0.1815027892589569, -1.307232141494751, 11.222764015197754, -18.948869705200195, -104.1722183227539, -8.625948905944824, -0.134033203125, 0.285888671875, -0.879638671875, 
335, 3256345965, -0.8360166549682617, 0.03038669191300869, -0.04444119706749916, 0.5460572242736816, 0.5094416737556458, -1.0640413761138916, 11.6243314743042, -20.740177154541016, -105.39785766601562, -7.523528575897217, -0.142822265625, 0.288330078125, -0.873046875, 
336, 3256354298, -0.8359470963478088, 0.03582461178302765, -0.03906659409403801, 0.5462448596954346, 1.1124287843704224, -0.7664550542831421, 11.874439239501953, -22.158489227294922, -103.043701171875, -8.401589393615723, -0.15771484375, 0.290771484375, -0.869384765625, 
337, 3256362631, -0.8357484936714172, 0.04101762920618057, -0.03399825096130371, 0.5465224385261536, 1.5969992876052856, -0.759016215801239, 11.915619850158691, -21.670692443847656, -97.45413208007812, -10.121414184570312, -0.168701171875, 0.290771484375, -0.863525390625, 
338, 3256370964, -0.8354142308235168, 0.045815497636795044, -0.02934606559574604, 0.5469218492507935, 2.0661284923553467, -0.9426957368850708, 11.681888580322266, -20.264225006103516, -89.68567657470703, -12.122655868530273, -0.17822265625, 0.292724609375, -0.862060546875, 
339, 3256379297, -0.8349347114562988, 0.05017947405576706, -0.02505669929087162, 0.5474839210510254, 2.3326516151428223, -1.3564231395721436, 11.301315307617188, -18.048738479614258, -81.965087890625, -14.68198013305664, -0.1884765625, 0.293212890625, -0.85693359375, 
340, 3256387630, -0.8343319892883301, 0.05430067703127861, -0.021034300327301025, 0.5481784343719482, 2.188737154006958, -1.4021841287612915, 10.76301097869873, -17.296741485595703, -77.06600952148438, -16.860937118530273, -0.196533203125, 0.296630859375, -0.8525390625, 
341, 3256395963, -0.8336178064346313, 0.05836974084377289, -0.017034459859132767, 0.5489850044250488, 1.8890870809555054, -1.5993776321411133, 10.310670852661133, -16.933549880981445, -76.15824127197266, -18.956907272338867, -0.205810546875, 0.297607421875, -0.851318359375, 
342, 3256404296, -0.8328536748886108, 0.06262535601854324, -0.012810863554477692, 0.5497900247573853, 1.4732258319854736, -1.6675443649291992, 10.260936737060547, -17.408119201660156, -80.26043701171875, -19.53716278076172, -0.2119140625, 0.297607421875, -0.84423828125, 
343, 3256412629, -0.8320779800415039, 0.06732860952615738, -0.008121773600578308, 0.5504974126815796, 1.1001964807510376, -1.4747976064682007, 10.399735450744629, -19.05596923828125, -88.91059875488281, -18.988168716430664, -0.229736328125, 0.298095703125, -0.840576171875, 
344, 3256420962, -0.8313064575195312, 0.07263410091400146, -0.002910098060965538, 0.5510407090187073, 0.9379892349243164, -1.337107539176941, 10.816692352294922, -21.992677688598633, -99.75061798095703, -17.6256160736084, -0.236572265625, 0.298583984375, -0.835693359375, 
345, 3256429295, -0.8306097984313965, 0.07846055924892426, 0.0028418151196092367, 0.5512928366661072, 0.8289374113082886, -0.9002048969268799, 11.435873031616211, -23.803796768188477, -110.0186538696289, -14.290536880493164, -0.24951171875, 0.301513671875, -0.828857421875, 
346, 3256437628, -0.8298966288566589, 0.08451582491397858, 0.00888874102383852, 0.5514073967933655, 1.2095140218734741, -0.548096776008606, 11.970114707946777, -24.181175231933594, -115.42103576660156, -13.155441284179688, -0.261962890625, 0.300537109375, -0.823974609375, 
347, 3256445961, -0.829111635684967, 0.09042751789093018, 0.014909966848790646, 0.5515205264091492, 2.184753656387329, -0.3026927411556244, 12.35091495513916, -22.838808059692383, -113.90154266357422, -13.670774459838867, -0.27294921875, 0.304931640625, -0.817138671875, 
348, 3256454294, -0.8283089995384216, 0.0959412083029747, 0.020583555102348328, 0.5516126751899719, 2.8541486263275146, -0.2936082184314728, 12.708636283874512, -20.936254501342773, -107.09747314453125, -13.213713645935059, -0.285888671875, 0.306396484375, -0.809814453125, 
349, 3256462627, -0.8275193572044373, 0.10091021656990051, 0.02573799341917038, 0.5516944527626038, 3.2990241050720215, -0.7257086038589478, 12.71446418762207, -18.678537368774414, -96.9072036743164, -12.462882995605469, -0.30029296875, 0.307373046875, -0.80712890625, 
350, 3256470960, -0.8268176317214966, 0.105230413377285, 0.03029545210301876, 0.5517081618309021, 3.51460337638855, -1.5467450618743896, 12.456075668334961, -15.64882755279541, -85.40946960449219, -10.428048133850098, -0.30908203125, 0.306396484375, -0.800048828125, 
351, 3256479293, -0.8261886835098267, 0.10900630056858063, 0.034374088048934937, 0.5516783595085144, 3.545383930206299, -2.225639820098877, 11.9649076461792, -13.002405166625977, -75.70551300048828, -8.905258178710938, -0.319580078125, 0.307373046875, -0.795166015625, 
352, 3256487626, -0.8255773782730103, 0.11241225153207779, 0.03817731887102127, 0.551659882068634, 3.4253361225128174, -2.5624923706054688, 11.460108757019043, -10.835626602172852, -69.90705871582031, -8.672136306762695, -0.323974609375, 0.306884765625, -0.791259765625, 
353, 3256495959, -0.824892520904541, 0.11565503478050232, 0.041933685541152954, 0.5517410039901733, 3.4343888759613037, -2.7643134593963623, 10.931191444396973, -9.53313159942627, -67.85270690917969, -10.363088607788086, -0.3359375, 0.309814453125, -0.784912109375, 
354, 3256504292, -0.8241265416145325, 0.11878938972949982, 0.04574397951364517, 0.5519171953201294, 3.6149039268493652, -2.977703332901001, 10.279729843139648, -8.049498558044434, -67.70683288574219, -12.218104362487793, -0.344482421875, 0.306396484375, -0.779541015625, 
355, 3256512625, -0.8233212232589722, 0.12195025384426117, 0.04983317852020264, 0.5520756244659424, 3.302410125732422, -2.9750120639801025, 9.97625732421875, -6.307009220123291, -70.94469451904297, -12.74450969696045, -0.346435546875, 0.306396484375, -0.780029296875, 
356, 3256520958, -0.822424054145813, 0.12536707520484924, 0.054364804178476334, 0.5522199869155884, 2.6811342239379883, -2.4243862628936768, 9.884623527526855, -5.968905925750732, -78.16092681884766, -13.856597900390625, -0.357421875, 0.309326171875, -0.772216796875, 
357, 3256529291, -0.8213457465171814, 0.12921331822872162, 0.05953004211187363, 0.5524054169654846, 2.205554485321045, -1.8059630393981934, 10.032416343688965, -6.372047424316406, -88.47309112548828, -16.46200180053711, -0.365234375, 0.305908203125, -0.76513671875, 
358, 3256537624, -0.8200200796127319, 0.13352863490581512, 0.06520913541316986, 0.5527073740959167, 2.4277853965759277, -1.5381147861480713, 10.225000381469727, -8.287841796875, -98.01457214355469, -20.19111442565918, -0.374267578125, 0.306884765625, -0.762939453125, 
359, 3256545957, -0.8185057044029236, 0.13822543621063232, 0.07117431610822678, 0.5530615448951721, 2.802764892578125, -1.613516926765442, 10.453181266784668, -10.822174072265625, -104.03598022460938, -22.393163681030273, -0.38623046875, 0.306884765625, -0.754150390625, 
360, 3256554290, -0.8169075846672058, 0.14302533864974976, 0.07715190947055817, 0.553402304649353, 3.1297554969787598, -1.838396430015564, 10.676234245300293, -12.02096176147461, -105.24656677246094, -22.80658721923828, -0.3984375, 0.303466796875, -0.745849609375, 
361, 3256562623, -0.8153010606765747, 0.14768561720848083, 0.08295775949954987, 0.5537070035934448, 3.624202013015747, -2.2884011268615723, 10.892619132995605, -11.752065658569336, -102.15589141845703, -22.270267486572266, -0.408447265625, 0.303466796875, -0.740234375, 
362, 3256570956, -0.8138324022293091, 0.1518636792898178, 0.08845072239637375, 0.5538873672485352, 4.105178356170654, -2.874552011489868, 10.954047203063965, -8.290180206298828, -95.24871826171875, -19.747318267822266, -0.42041015625, 0.302978515625, -0.73291015625, 
363, 3256579289, -0.8125322461128235, 0.15541896224021912, 0.09360016882419586, 0.5539638996124268, 4.576681137084961, -3.11169171333313, 10.855030059814453, -3.4710724353790283, -86.49467468261719, -17.33500099182129, -0.43212890625, 0.29931640625, -0.7294921875, 
364, 3256587622, -0.8114476203918457, 0.15839888155460358, 0.09836723655462265, 0.5538836717605591, 4.8896307945251465, -2.9278316497802734, 10.519084930419922, 0.7193028330802917, -78.07550048828125, -13.870938301086426, -0.438232421875, 0.300537109375, -0.720458984375, 
365, 3256595955, -0.810505211353302, 0.16094036400318146, 0.10279984027147293, 0.5537260174751282, 5.085326671600342, -2.761122703552246, 9.906033515930176, 3.473562717437744, -70.79312133789062, -11.787636756896973, -0.449462890625, 0.296630859375, -0.71435546875, 
366, 3256604288, -0.8096530437469482, 0.16319483518600464, 0.10701245069503784, 0.5535145998001099, 5.166445255279541, -2.646970510482788, 9.424224853515625, 5.278166770935059, -66.33445739746094, -10.419590950012207, -0.45458984375, 0.296630859375, -0.710693359375, 
367, 3256612621, -0.8089100122451782, 0.16540107131004333, 0.11120380461215973, 0.5531198382377625, 5.061378002166748, -2.6008732318878174, 9.227933883666992, 6.169006824493408, -65.78720092773438, -7.570892333984375, -0.458984375, 0.297119140625, -0.70751953125, 
368, 3256620954, -0.8082307577133179, 0.167978435754776, 0.11561025679111481, 0.5524321794509888, 4.320719242095947, -2.1702733039855957, 9.457923889160156, 4.269528865814209, -71.76485443115234, -3.7507483959198, -0.468505859375, 0.296142578125, -0.699951171875, 
369, 3256629287, -0.8075301051139832, 0.1712058186531067, 0.12043044716119766, 0.551435112953186, 3.5839219093322754, -1.431605339050293, 9.850631713867188, 0.6344555020332336, -81.85111999511719, -0.40019914507865906, -0.476806640625, 0.296142578125, -0.695556640625, 
370, 3256637620, -0.8066945672035217, 0.17509528994560242, 0.1256036013364792, 0.5502815842628479, 3.645599365234375, -0.8316500782966614, 10.340688705444336, -4.1039557456970215, -91.58190155029297, 0.5850590467453003, -0.4833984375, 0.292724609375, -0.688232421875, 
371, 3256645953, -0.8056901097297668, 0.17939545214176178, 0.13080714643001556, 0.54915452003479, 4.36113166809082, -0.5302153825759888, 10.749305725097656, -8.881255149841309, -95.06233215332031, -0.35538753867149353, -0.4931640625, 0.296142578125, -0.683349609375, 
372, 3256654286, -0.8046047687530518, 0.18361495435237885, 0.13575702905654907, 0.5481492280960083, 5.145564079284668, -0.8145245313644409, 10.973274230957031, -10.32374095916748, -91.67990112304688, -1.833199143409729, -0.498779296875, 0.2939453125, -0.672119140625, 
373, 3256662619, -0.8036032915115356, 0.18736843764781952, 0.1402118057012558, 0.5472255349159241, 5.469658374786377, -1.3444743156433105, 11.298270225524902, -8.843393325805664, -82.1346664428711, -1.7199549674987793, -0.5107421875, 0.2939453125, -0.663818359375, 
374, 3256670952, -0.8027600049972534, 0.19053864479064941, 0.14417245984077454, 0.5463388562202454, 5.433293342590332, -1.8140641450881958, 11.182096481323242, -5.774909019470215, -72.0761489868164, -0.7898697257041931, -0.5166015625, 0.29345703125, -0.65966796875, 
375, 3256679285, -0.8020129799842834, 0.19319643080234528, 0.14777590334415436, 0.5455393195152283, 5.371489524841309, -1.8092900514602661, 10.945856094360352, -2.7296159267425537, -63.67339324951172, -1.1109956502914429, -0.519775390625, 0.295654296875, -0.653076171875, 
376, 3256687618, -0.8013241291046143, 0.19540303945541382, 0.15114767849445343, 0.5448414087295532, 5.353349685668945, -1.7499804496765137, 10.506669998168945, 0.46246635913848877, -57.53592300415039, -2.0946741104125977, -0.527099609375, 0.297119140625, -0.6494140625, 
377, 3256695951, -0.800674319267273, 0.197224959731102, 0.15436650812625885, 0.5442375540733337, 5.5326032638549805, -1.672232747077942, 9.899338722229004, 3.4598512649536133, -52.44633483886719, -3.225364923477173, -0.53271484375, 0.295166015625, -0.643798828125, 
378, 3256704284, -0.8000990152359009, 0.1987411379814148, 0.15754887461662292, 0.5436198115348816, 5.672708034515381, -1.5693564414978027, 9.345874786376953, 6.790463924407959, -49.82355880737305, -3.0696423053741455, -0.537109375, 0.29248046875, -0.642822265625, 
379, 3256712617, -0.7995546460151672, 0.2001718133687973, 0.16091327369213104, 0.5429099798202515, 5.337474346160889, -1.5507395267486572, 8.997721672058105, 9.37032413482666, -51.1806526184082, -2.5030930042266846, -0.5419921875, 0.293212890625, -0.63623046875, 
380, 3256720950, -0.7989025712013245, 0.20175941288471222, 0.1646338403224945, 0.5421662330627441, 4.979872226715088, -1.4882526397705078, 8.82907772064209, 10.087989807128906, -56.79192352294922, -3.5726449489593506, -0.546875, 0.290771484375, -0.6328125, 
381, 3256729283, -0.7980484366416931, 0.20379388332366943, 0.16889294981956482, 0.5413526296615601, 4.637353897094727, -1.2768410444259644, 8.851418495178223, 8.786370277404785, -66.49885559082031, -4.789496421813965, -0.552490234375, 0.290283203125, -0.628173828125, 
382, 3256737616, -0.796929121017456, 0.20640331506729126, 0.17369666695594788, 0.540492057800293, 4.424253940582275, -1.1743035316467285, 9.023655891418457, 5.90038537979126, -77.69734191894531, -6.443012714385986, -0.558837890625, 0.287353515625, -0.62158203125, 
383, 3256745949, -0.7955398559570312, 0.20956525206565857, 0.1789788156747818, 0.5395979285240173, 4.596027851104736, -1.1211634874343872, 9.324239730834961, 2.711759090423584, -87.59579467773438, -8.114542961120605, -0.56640625, 0.286376953125, -0.617919921875, 
384, 3256754282, -0.7939634919166565, 0.21305949985980988, 0.18448832631111145, 0.5386949777603149, 4.929430961608887, -1.2264490127563477, 9.644842147827148, 0.2504323422908783, -93.22630310058594, -9.248322486877441, -0.57470703125, 0.286865234375, -0.607421875, 
385, 3256762615, -0.7922819256782532, 0.2166370004415512, 0.19002631306648254, 0.5378182530403137, 5.322967529296875, -1.3574278354644775, 9.90222454071045, -0.8312525153160095, -94.15972900390625, -10.181777000427246, -0.584228515625, 0.283935546875, -0.596435546875, 
386, 3256770948, -0.7906167507171631, 0.22002999484539032, 0.19533401727676392, 0.5369892120361328, 5.772340297698975, -1.4242674112319946, 10.101299285888672, -0.5899513363838196, -90.28506469726562, -10.381498336791992, -0.58935546875, 0.28564453125, -0.58642578125, 
387, 3256779281, -0.7890886068344116, 0.22307509183883667, 0.20028099417686462, 0.5361573696136475, 6.141444683074951, -1.5521671772003174, 10.244370460510254, 0.9399585723876953, -83.25720977783203, -9.174408912658691, -0.59765625, 0.2822265625, -0.581787109375, 
388, 3256787614, -0.7877612709999084, 0.22566735744476318, 0.2047838717699051, 0.5353228449821472, 6.202078342437744, -1.7252707481384277, 10.194414138793945, 3.212374210357666, -74.73027801513672, -7.555968761444092, -0.606201171875, 0.2802734375, -0.57568359375, 
389, 3256795947, -0.7866461873054504, 0.22783653438091278, 0.2089148759841919, 0.5344470143318176, 6.212041854858398, -1.771080732345581, 9.999407768249512, 5.8242387771606445, -66.94635772705078, -5.577303886413574, -0.612548828125, 0.27978515625, -0.566650390625, 
390, 3256804280, -0.7856864929199219, 0.22968679666519165, 0.21278196573257446, 0.5335404276847839, 6.100535869598389, -1.7890182733535767, 9.679962158203125, 7.919256210327148, -61.56986618041992, -4.199275493621826, -0.6162109375, 0.277099609375, -0.558837890625, 
391, 3256812613, -0.7848023772239685, 0.23137196898460388, 0.21654365956783295, 0.5325990319252014, 6.067405700683594, -1.621678352355957, 9.338918685913086, 9.261086463928223, -58.94160461425781, -3.413939952850342, -0.62060546875, 0.279052734375, -0.55810546875, 
392, 3256820946, -0.7839797735214233, 0.23299594223499298, 0.2202192097902298, 0.5315946340560913, 6.148431777954102, -1.4576853513717651, 9.193103790283203, 9.682888984680176, -57.74726104736328, -2.195735454559326, -0.6259765625, 0.278076171875, -0.550048828125, 
393, 3256829279, -0.7831841111183167, 0.2346869260072708, 0.2238621860742569, 0.5305007100105286, 6.266025543212891, -1.3873177766799927, 8.831197738647461, 9.072244644165039, -57.92932891845703, -0.7209660410881042, -0.628173828125, 0.274169921875, -0.544921875, 
394, 3256837612, -0.7823947668075562, 0.2364588975906372, 0.22753962874412537, 0.5293128490447998, 6.2176899909973145, -1.27609384059906, 8.612262725830078, 8.76869010925293, -59.336429595947266, 0.46970251202583313, -0.633056640625, 0.274658203125, -0.539306640625, 
395, 3256845945, -0.7815420627593994, 0.23835310339927673, 0.2312895655632019, 0.5280959606170654, 6.308510780334473, -1.328894019126892, 8.421451568603516, 7.8553876876831055, -61.13954544067383, 0.47218725085258484, -0.638916015625, 0.273193359375, -0.533203125, 
396, 3256854278, -0.7806310057640076, 0.2404681295156479, 0.2351386398077011, 0.5267834067344666, 6.225490093231201, -1.295384407043457, 8.432538032531738, 6.3271098136901855, -64.46784973144531, 1.4490665197372437, -0.642578125, 0.2705078125, -0.5263671875, 
397, 3256862611, -0.7796201109886169, 0.24286264181137085, 0.23920278251171112, 0.5253503918647766, 5.909029960632324, -1.2566982507705688, 8.5597562789917, 4.932618141174316, -69.36463928222656, 2.2142701148986816, -0.64892578125, 0.27294921875, -0.522705078125, 
398, 3256870944, -0.7784566283226013, 0.2455146312713623, 0.24343475699424744, 0.5238969326019287, 5.927417278289795, -1.212524175643921, 8.757256507873535, 2.9515297412872314, -73.7524185180664, 1.6149979829788208, -0.653564453125, 0.2705078125, -0.511962890625, 
399, 3256879277, -0.7771693468093872, 0.24830475449562073, 0.24777330458164215, 0.522457480430603, 6.172645092010498, -1.0760799646377563, 8.969562530517578, 1.7666739225387573, -76.10295867919922, 0.6782427430152893, -0.658935546875, 0.271240234375, -0.50830078125, 
400, 3256887610, -0.7758275270462036, 0.25108811259269714, 0.25208866596221924, 0.521055281162262, 6.300949573516846, -0.984572172164917, 9.137742042541504, 1.3707396984100342, -76.01850128173828, -0.05706879869103432, -0.66552734375, 0.270263671875, -0.500244140625, 
401, 3256895943, -0.7744737267494202, 0.2538066506385803, 0.2562618851661682, 0.5197144150733948, 6.401151180267334, -0.8331791758537292, 9.30895709991455, 0.775897204875946, -73.72222900390625, -0.5268104076385498, -0.66748046875, 0.27294921875, -0.488525390625, 
402, 3256904276, -0.7732090353965759, 0.2562989890575409, 0.2602386176586151, 0.5183965563774109, 6.540859222412109, -0.639255702495575, 9.384675025939941, 2.023597240447998, -69.76261901855469, -0.25217321515083313, -0.675537109375, 0.2685546875, -0.48486328125, 
403, 3256912609, -0.7720404267311096, 0.25854742527008057, 0.2639235854148865, 0.517157256603241, 6.670982360839844, -0.5802534818649292, 9.352293014526367, 2.5803236961364746, -64.16679382324219, -0.23654834926128387, -0.679931640625, 0.2685546875, -0.474853515625, 
404, 3256920942, -0.770990788936615, 0.2604922950267792, 0.26731786131858826, 0.5160024166107178, 6.710885524749756, -0.6619290113449097, 9.208311080932617, 3.865673303604126, -58.32316970825195, -0.36561864614486694, -0.681640625, 0.269775390625, -0.465576171875, 
405, 3256929275, -0.7700105905532837, 0.26224789023399353, 0.27049341797828674, 0.5149209499359131, 6.593855381011963, -0.6757006049156189, 9.06372356414795, 4.2829670906066895, -54.01906204223633, -0.5486966967582703, -0.68701171875, 0.271240234375, -0.4619140625, 
406, 3256937608, -0.7690834999084473, 0.2639402151107788, 0.27346596121788025, 0.5138705968856812, 6.409975051879883, -0.8049413561820984, 8.876213073730469, 3.608259677886963, -51.23699951171875, -0.021938642486929893, -0.68994140625, 0.265380859375, -0.454345703125, 
407, 3256945941, -0.7682071328163147, 0.2655908763408661, 0.27629634737968445, 0.5128158926963806, 6.389964580535889, -1.1793068647384644, 8.66463851928711, 3.225748062133789, -49.14902877807617, 0.7621403336524963, -0.696044921875, 0.267333984375, -0.452880859375, 
408, 3256954274, -0.7673723697662354, 0.26730117201805115, 0.2790587842464447, 0.5116798281669617, 6.21320104598999, -1.418634295463562, 8.651809692382812, 2.5963282585144043, -49.105690002441406, 2.3711531162261963, -0.692626953125, 0.2705078125, -0.447265625, 
409, 3256962607, -0.7665221691131592, 0.26913002133369446, 0.28186917304992676, 0.510453999042511, 6.052675724029541, -1.4359714984893799, 8.727306365966797, 1.9531282186508179, -50.730106353759766, 3.505610942840576, -0.70166015625, 0.26953125, -0.440185546875, 
410, 3256970940, -0.765627920627594, 0.27108651399612427, 0.2847379446029663, 0.509166955947876, 6.14279317855835, -1.5002001523971558, 8.915610313415527, 1.108061671257019, -52.7428092956543, 4.1034746170043945, -0.7021484375, 0.270263671875, -0.434326171875, 
411, 3256979273, -0.764705240726471, 0.2731657028198242, 0.28768008947372437, 0.5077863335609436, 6.119219779968262, -1.2033851146697998, 9.2236967086792, 0.5747849941253662, -54.74331283569336, 5.114843368530273, -0.70458984375, 0.268310546875, -0.429931640625, 
412, 3256987606, -0.7637441158294678, 0.27532610297203064, 0.2905783951282501, 0.5064138174057007, 6.297420501708984, -0.7880527973175049, 9.603168487548828, -0.7450177073478699, -55.06376266479492, 5.2296342849731445, -0.706787109375, 0.2705078125, -0.417724609375, 
413, 3256995939, -0.762782633304596, 0.2774696946144104, 0.2932949960231781, 0.5051256418228149, 6.718197822570801, -0.41210827231407166, 9.990804672241211, -2.189971446990967, -52.64488983154297, 4.97925329208374, -0.711669921875, 0.2724609375, -0.416015625, 
414, 3257004272, -0.7619352340698242, 0.2793998420238495, 0.29560214281082153, 0.5039944052696228, 7.144397735595703, -0.09604670852422714, 10.230555534362793, -2.9748685359954834, -45.882789611816406, 4.810067653656006, -0.716796875, 0.267822265625, -0.406982421875, 
415, 3257012605, -0.7613521218299866, 0.2809120714664459, 0.2972572147846222, 0.503060519695282, 7.601018905639648, 0.009219394996762276, 10.220695495605469, -2.9260449409484863, -34.263916015625, 5.404749393463135, -0.7158203125, 0.274169921875, -0.406005859375, 
416, 3257020938, -0.7611356377601624, 0.28192049264907837, 0.29813846945762634, 0.5023020505905151, 7.617859363555908, -0.2992657423019409, 9.956537246704102, -2.2813456058502197, -20.557212829589844, 7.010158061981201, -0.716796875, 0.27099609375, -0.400146484375, 
417, 3257029271, -0.761257529258728, 0.2824282646179199, 0.2983718812465668, 0.5016928911209106, 7.096764087677002, -0.44582781195640564, 9.65958023071289, -0.8446295857429504, -8.310462951660156, 8.274641036987305, -0.720703125, 0.273193359375, -0.4013671875, 
418, 3257037604, -0.7615496516227722, 0.2825714647769928, 0.298284649848938, 0.5012205243110657, 6.497401237487793, -0.6543958783149719, 9.330530166625977, 0.88690584897995, -1.250922679901123, 7.734309196472168, -0.718994140625, 0.2744140625, -0.398681640625, 
419, 3257045937, -0.7618357539176941, 0.28262096643447876, 0.29807350039482117, 0.5008834004402161, 6.190407752990723, -0.9352877140045166, 9.003921508789062, 0.4051019251346588, 1.2198907136917114, 6.410820484161377, -0.71875, 0.2724609375, -0.398193359375, 
420, 3257054270, -0.7620425820350647, 0.28265172243118286, 0.2979733645915985, 0.5006111264228821, 6.0237507820129395, -1.2036902904510498, 8.708268165588379, 0.823459267616272, 0.08530821651220322, 4.640031814575195, -0.71533203125, 0.2763671875, -0.399658203125, 
421, 3257062603, -0.7620925903320312, 0.2826713025569916, 0.2980806231498718, 0.500460147857666, 5.9947686195373535, -1.0944187641143799, 8.439842224121094, 1.2281513214111328, -2.171459436416626, 1.4775571823120117, -0.717529296875, 0.27783203125, -0.398681640625, 
422, 3257070936, -0.7619730830192566, 0.28265783190727234, 0.2984199821949005, 0.5004476308822632, 6.112891674041748, -0.8472623229026794, 8.217920303344727, 1.9801467657089233, -4.5433759689331055, -2.219780683517456, -0.717041015625, 0.27734375, -0.400634765625, 
423, 3257079269, -0.7617084980010986, 0.28263527154922485, 0.29892584681510925, 0.5005611181259155, 6.193105220794678, -0.41721975803375244, 8.024611473083496, 2.10394024848938, -6.334527969360352, -5.179684638977051, -0.717041015625, 0.27587890625, -0.397705078125, 
424, 3257087602, -0.7613698840141296, 0.28264886140823364, 0.29950064420700073, 0.5007250308990479, 6.246653079986572, -0.3168002665042877, 7.87269926071167, 1.740807294845581, -7.409250259399414, -6.379814147949219, -0.7158203125, 0.27490234375, -0.402587890625, 
425, 3257095935, -0.7609993815422058, 0.2826958894729614, 0.3000461459159851, 0.5009350180625916, 6.39981746673584, -0.43298619985580444, 7.747060298919678, 0.838597297668457, -7.299391746520996, -6.785160064697266, -0.717529296875, 0.27490234375, -0.397705078125, 
426, 3257104268, -0.7606273293495178, 0.2828036844730377, 0.30049705505371094, 0.501168966293335, 6.444777488708496, -0.6007346510887146, 7.660305500030518, -0.518073558807373, -6.628836631774902, -6.469695091247559, -0.721435546875, 0.27392578125, -0.39697265625, 
427, 3257112601, -0.7602764368057251, 0.28294116258621216, 0.3008524477481842, 0.5014104843139648, 6.527341365814209, -0.8087223768234253, 7.570809841156006, -1.4750981330871582, -5.740482807159424, -5.86220121383667, -0.719970703125, 0.27392578125, -0.395751953125, 
428, 3257120934, -0.7599489092826843, 0.28308796882629395, 0.3010765314102173, 0.5016894340515137, 6.673435211181641, -1.0842467546463013, 7.548635482788086, -2.5016400814056396, -4.163799285888672, -5.591562271118164, -0.719482421875, 0.2705078125, -0.393310546875, 
429, 3257129267, -0.7596384286880493, 0.28323039412498474, 0.30111995339393616, 0.502052903175354, 6.871886253356934, -1.2222906351089478, 7.529819011688232, -4.02860689163208, -1.8793933391571045, -5.6217360496521, -0.720947265625, 0.2734375, -0.395751953125, 
430, 3257137600, -0.7593767046928406, 0.28338032960891724, 0.30095726251602173, 0.5024616718292236, 6.971352577209473, -1.4272732734680176, 7.468421459197998, -5.484840393066406, 0.6310067176818848, -4.9734272956848145, -0.72021484375, 0.26953125, -0.394775390625, 
431, 3257145933, -0.7591373920440674, 0.2834925055503845, 0.3006448745727539, 0.5029466152191162, 7.087657451629639, -1.7527310848236084, 7.350785255432129, -6.3955159187316895, 2.8086905479431152, -5.13947057723999, -0.723388671875, 0.27099609375, -0.39453125, 
432, 3257154266, -0.758905827999115, 0.28352782130241394, 0.3002682030200958, 0.5035010576248169, 7.140183925628662, -2.1193032264709473, 7.217936992645264, -6.252076148986816, 4.350385665893555, -5.927799701690674, -0.72265625, 0.269287109375, -0.397705078125, 
433, 3257162599, -0.7586734890937805, 0.28351694345474243, 0.2998908460140228, 0.5040818452835083, 7.15663480758667, -2.302142858505249, 7.094595909118652, -5.924495697021484, 4.735854148864746, -6.3484368324279785, -0.723876953125, 0.269775390625, -0.39697265625, 
434, 3257170932, -0.7584402561187744, 0.2834901809692383, 0.2996104955673218, 0.5046143531799316, 7.062634468078613, -2.3882393836975098, 7.0368852615356445, -4.854281902313232, 3.683058261871338, -6.341495513916016, -0.720458984375, 0.26904296875, -0.392333984375, 
435, 3257179265, -0.7581908106803894, 0.28348687291145325, 0.2994648516178131, 0.5050771236419678, 7.151045322418213, -2.22096586227417, 6.957422256469727, -3.974714756011963, 1.7311766147613525, -6.113529682159424, -0.720703125, 0.265869140625, -0.395751953125, 
436, 3257187598, -0.7579367160797119, 0.28353071212768555, 0.2994081676006317, 0.5054674744606018, 7.252432346343994, -2.1714980602264404, 6.91057825088501, -3.5331506729125977, 0.22108925879001617, -5.586644172668457, -0.720703125, 0.2685546875, -0.395751953125, 
437, 3257195931, -0.7577061057090759, 0.28353556990623474, 0.2994263470172882, 0.5057995319366455, 7.332592964172363, -2.007091999053955, 6.962660789489746, -2.3022587299346924, -0.46758782863616943, -5.2291460037231445, -0.71875, 0.266845703125, -0.3955078125, 
438, 3257204264, -0.757474422454834, 0.2835431396961212, 0.29941612482070923, 0.5061482191085815, 7.306066989898682, -1.6945197582244873, 7.066152572631836, -2.5748965740203857, -0.08129958063364029, -5.325839996337891, -0.72265625, 0.266357421875, -0.396240234375, 
439, 3257212597, -0.7572391629219055, 0.2835254669189453, 0.29932940006256104, 0.506561279296875, 7.356291770935059, -1.6542773246765137, 7.084559917449951, -3.149244546890259, 1.0770913362503052, -5.792428493499756, -0.72314453125, 0.268798828125, -0.396240234375, 
440, 3257220930, -0.7569971680641174, 0.28349989652633667, 0.2991296648979187, 0.5070551633834839, 7.394522190093994, -1.604526162147522, 7.028283596038818, -4.184726238250732, 2.647167444229126, -6.307788848876953, -0.724609375, 0.263916015625, -0.395263671875, 
441, 3257229263, -0.756767749786377, 0.2834649980068207, 0.2988009750843048, 0.5076106190681458, 7.29667854309082, -1.6459816694259644, 6.9536356925964355, -5.219259738922119, 4.293189525604248, -6.364062786102295, -0.71826171875, 0.2685546875, -0.395751953125, 
442, 3257237596, -0.7565301656723022, 0.2834240794181824, 0.29840922355651855, 0.508217990398407, 7.108647346496582, -1.6332011222839355, 6.8470869064331055, -5.814099311828613, 5.212894439697266, -6.771738052368164, -0.72119140625, 0.267333984375, -0.397705078125, 
443, 3257245929, -0.7562550902366638, 0.28338873386383057, 0.2979829013347626, 0.5088964104652405, 6.995611667633057, -1.3963727951049805, 6.702216148376465, -6.576903820037842, 5.601500034332275, -7.584310531616211, -0.72216796875, 0.264404296875, -0.396728515625, 
444, 3257254262, -0.7559300065040588, 0.2833952009677887, 0.2975581884384155, 0.5096239447593689, 6.942306041717529, -1.1916593313217163, 6.571835994720459, -7.372032642364502, 5.334612846374512, -8.31330394744873, -0.71923828125, 0.260986328125, -0.39794921875, 
445, 3257262595, -0.7555797696113586, 0.28344908356666565, 0.2971419394016266, 0.5103557705879211, 6.901092052459717, -1.1109905242919922, 6.474759101867676, -7.944870948791504, 4.770511627197266, -8.342890739440918, -0.7236328125, 0.263427734375, -0.397216796875, 
446, 3257270928, -0.7551960349082947, 0.2835802435874939, 0.29674026370048523, 0.5110840797424316, 6.816152572631836, -1.0355937480926514, 6.4482197761535645, -8.73803997039795, 3.981823205947876, -8.310820579528809, -0.72265625, 0.265869140625, -0.395751953125, 
447, 3257279261, -0.7547972798347473, 0.2837469279766083, 0.2964213788509369, 0.5117650032043457, 6.734703063964844, -0.9366655945777893, 6.428837776184082, -8.41384220123291, 2.569556474685669, -8.073506355285645, -0.72021484375, 0.26025390625, -0.39892578125, 
