sep=,
PacketCounter,SampleTimeFine,Quat_W,Quat_X,Quat_Y,Quat_Z,Acc_X,Acc_Y,Acc_Z,Gyr_X,Gyr_Y,Gyr_Z,Mag_X,Mag_Y,Mag_Z,
0, 3128609408, -0.8313771486282349, 0.1659160554409027, -0.1264193207025528, 0.51507568359375, 0, 0, 0, 0, 0, 0, -0.033203125, -0.16064453125, -0.56298828125, 
1, 3128617741, -0.8313902616500854, 0.1659066081047058, -0.12637437880039215, 0.5150684714317322, -0.28148582577705383, -4.04531192779541, 9.007818222045898, 0.33785173296928406, -0.9637483358383179, -0.059924498200416565, -0.0341796875, -0.16259765625, -0.5634765625, 
2, 3128626074, -0.831404983997345, 0.16589190065860748, -0.12633123993873596, 0.5150600075721741, -0.2879663109779358, -4.040562152862549, 8.998820304870605, 0.41069865226745605, -0.9766324162483215, -0.02529405802488327, -0.033203125, -0.1591796875, -0.5654296875, 
3, 3128634407, -0.8314198851585388, 0.16585800051689148, -0.12629461288452148, 0.5150559544563293, -0.3333584666252136, -4.008124351501465, 9.015522956848145, 0.5688409209251404, -0.6899833679199219, -0.027215125039219856, -0.033203125, -0.1630859375, -0.5634765625, 
4, 3128642740, -0.831432580947876, 0.16582441329956055, -0.12626424431800842, 0.5150536298751831, -0.32468900084495544, -3.9866943359375, 9.006295204162598, 0.5425863265991211, -0.6791742444038391, -0.04839809238910675, -0.03466796875, -0.16015625, -0.56396484375, 
5, 3128651073, -0.8314450979232788, 0.16577717661857605, -0.12624101340770721, 0.5150540471076965, -0.36403679847717285, -3.985485315322876, 9.005937576293945, 0.6263192296028137, -0.4408082067966461, -0.01402379386126995, -0.03662109375, -0.1611328125, -0.56298828125, 
6, 3128659406, -0.8314487934112549, 0.16572117805480957, -0.12622736394405365, 0.5150696039199829, -0.3641369342803955, -3.9954206943511963, 9.009148597717285, 0.6912000775337219, -0.27267634868621826, -0.2392241507768631, -0.03466796875, -0.1630859375, -0.56201171875, 
7, 3128667739, -0.8314520120620728, 0.16565391421318054, -0.12621769309043884, 0.5150884389877319, -0.3858742117881775, -4.004798412322998, 9.017354011535645, 0.7719618082046509, -0.081517294049263, -0.23405006527900696, -0.03369140625, -0.162109375, -0.56494140625, 
8, 3128676072, -0.8314515948295593, 0.1655898243188858, -0.126205176115036, 0.5151126980781555, -0.39420005679130554, -3.9792628288269043, 9.020100593566895, 0.7804144620895386, -0.17588013410568237, -0.3514913320541382, -0.03466796875, -0.16162109375, -0.5634765625, 
9, 3128684405, -0.8314390778541565, 0.1655322164297104, -0.12617793679237366, 0.5151580572128296, -0.36337873339653015, -3.9849560260772705, 9.020156860351562, 0.7928375005722046, -0.29401305317878723, -0.6360655426979065, -0.03564453125, -0.162109375, -0.56396484375, 
10, 3128692738, -0.8314287662506104, 0.1654781997203827, -0.12614883482456207, 0.5151993036270142, -0.3351035416126251, -3.965207099914551, 9.011974334716797, 0.7895331382751465, -0.38084524869918823, -0.6715667843818665, -0.03515625, -0.162109375, -0.5625, 
11, 3128701071, -0.831418514251709, 0.16542568802833557, -0.12611129879951477, 0.5152419805526733, -0.3230298161506653, -3.9448349475860596, 9.034175872802734, 0.8131750822067261, -0.41665393114089966, -0.7171344757080078, -0.0361328125, -0.16015625, -0.564453125, 
12, 3128709404, -0.8314058780670166, 0.16538932919502258, -0.12608928978443146, 0.5152795314788818, -0.33229947090148926, -3.932225465774536, 9.027603149414062, 0.5252711772918701, -0.4287438988685608, -0.6601173281669617, -0.03515625, -0.16357421875, -0.56494140625, 
13, 3128717737, -0.8313916325569153, 0.1653710901737213, -0.12606023252010345, 0.5153154134750366, -0.3150755763053894, -3.9386558532714844, 9.034505844116211, 0.3369809091091156, -0.5975417494773865, -0.6448512673377991, -0.03564453125, -0.16015625, -0.5615234375, 
14, 3128726070, -0.8313784599304199, 0.16536597907543182, -0.12604296207427979, 0.5153425335884094, -0.27092820405960083, -3.9081921577453613, 9.033490180969238, 0.11641669273376465, -0.619390606880188, -0.5878082513809204, -0.03369140625, -0.16015625, -0.56396484375, 
15, 3128734403, -0.8313565850257874, 0.16538147628307343, -0.12603574991226196, 0.5153747200965881, -0.2736820876598358, -3.907533645629883, 9.038196563720703, -0.23625288903713226, -0.6608344316482544, -0.49147310853004456, -0.03515625, -0.16259765625, -0.56298828125, 
16, 3128742736, -0.8313425779342651, 0.1654229462146759, -0.12604206800460815, 0.5153824090957642, -0.2790825068950653, -3.9225192070007324, 9.021202087402344, -0.6197747588157654, -0.7233843803405762, -0.39800676703453064, -0.03515625, -0.16259765625, -0.5654296875, 
17, 3128751069, -0.8313359618186951, 0.16547302901744843, -0.12604095041751862, 0.5153772234916687, -0.2759566903114319, -3.9621458053588867, 8.997218132019043, -0.6947733163833618, -0.8416453003883362, -0.2362016886472702, -0.03515625, -0.1630859375, -0.56201171875, 
18, 3128759402, -0.8313335180282593, 0.16552917659282684, -0.12602752447128296, 0.5153666138648987, -0.2932737171649933, -3.985199213027954, 8.996051788330078, -0.6521767973899841, -1.1141806840896606, -0.1776987463235855, -0.0341796875, -0.16162109375, -0.5634765625, 
19, 3128767735, -0.8313395977020264, 0.16559366881847382, -0.1260014772415161, 0.5153422355651855, -0.3137308359146118, -3.9706575870513916, 9.008755683898926, -0.6857826709747314, -1.2867438793182373, -0.027932321652770042, -0.033203125, -0.16015625, -0.56396484375, 
20, 3128776068, -0.8313442468643188, 0.16564670205116272, -0.125984326004982, 0.5153219103813171, -0.29917481541633606, -3.9735758304595947, 9.00497817993164, -0.5919321775436401, -1.1680731773376465, -0.019658925011754036, -0.03759765625, -0.161865234375, -0.568115234375, 
21, 3128784401, -0.8313465118408203, 0.16572363674640656, -0.12596255540847778, 0.5152989029884338, -0.35351496934890747, -3.9736616611480713, 9.01188850402832, -0.8652103543281555, -1.3157649040222168, -0.08425801992416382, -0.0361328125, -0.16259765625, -0.56298828125, 
22, 3128792734, -0.8313471674919128, 0.1658129245042801, -0.1259455382823944, 0.5152732729911804, -0.3433152139186859, -3.9464118480682373, 9.008913040161133, -1.0251712799072266, -1.4286210536956787, -0.050549689680337906, -0.03369140625, -0.162109375, -0.56396484375, 
23, 3128801067, -0.8313390612602234, 0.1658966839313507, -0.125947505235672, 0.5152587890625, -0.32923805713653564, -3.9374897480010986, 9.031137466430664, -1.1228641271591187, -1.1002979278564453, -0.11263861507177353, -0.03466796875, -0.160400390625, -0.56005859375, 
24, 3128809400, -0.8313286304473877, 0.16596272587776184, -0.1259462684392929, 0.5152546763420105, -0.3254830241203308, -3.9473323822021484, 9.00875473022461, -0.8606510758399963, -1.0154634714126587, -0.2972147464752197, -0.0322265625, -0.162109375, -0.56396484375, 
25, 3128817733, -0.8313160538673401, 0.1660270094871521, -0.12594571709632874, 0.5152543187141418, -0.3222498893737793, -3.9948341846466064, 9.001967430114746, -0.8686171174049377, -0.9589840769767761, -0.2591007649898529, -0.03662109375, -0.16064453125, -0.565673828125, 
26, 3128826066, -0.8313136696815491, 0.16608601808547974, -0.1259375661611557, 0.5152410864830017, -0.3198035955429077, -3.9867944717407227, 9.016544342041016, -0.7285072803497314, -1.0795247554779053, -0.1405324935913086, -0.03564453125, -0.16064453125, -0.560546875, 
27, 3128834399, -0.831305742263794, 0.16614188253879547, -0.12593640387058258, 0.5152360796928406, -0.2889891564846039, -4.010606288909912, 8.997782707214355, -0.7617288827896118, -0.8816547393798828, -0.2569235861301422, -0.03564453125, -0.162109375, -0.5654296875, 
28, 3128842732, -0.831298291683197, 0.16619372367858887, -0.125942200422287, 0.5152298808097839, -0.2847689688205719, -3.9851419925689697, 9.022903442382812, -0.7439526319503784, -0.8446677923202515, -0.21320007741451263, -0.0341796875, -0.16259765625, -0.5654296875, 
29, 3128851065, -0.831288754940033, 0.1662498563528061, -0.12594254314899445, 0.5152272582054138, -0.32069772481918335, -3.960850954055786, 9.021037101745605, -0.7776866555213928, -0.8671315908432007, -0.26929527521133423, -0.03515625, -0.1591796875, -0.5634765625, 
30, 3128859398, -0.831275999546051, 0.16632217168807983, -0.12594661116600037, 0.5152234435081482, -0.3435295820236206, -3.9556221961975098, 9.012689590454102, -0.973609983921051, -0.9944086670875549, -0.3178086280822754, -0.03662109375, -0.1611328125, -0.565185546875, 
31, 3128867731, -0.8312440514564514, 0.1663985699415207, -0.12595701217651367, 0.5152480602264404, -0.338694304227829, -3.942103624343872, 9.011165618896484, -1.0999648571014404, -0.9778105616569519, -0.348801851272583, -0.03466796875, -0.16259765625, -0.56201171875, 
32, 3128876064, -0.8312203884124756, 0.16649888455867767, -0.1259690672159195, 0.5152508616447449, -0.33748045563697815, -3.9447431564331055, 9.026541709899902, -1.3637402057647705, -1.0683568716049194, -0.49785104393959045, -0.03369140625, -0.16259765625, -0.56201171875, 
33, 3128884397, -0.8311941027641296, 0.16660334169864655, -0.12598007917404175, 0.5152566432952881, -0.3232915997505188, -3.9668502807617188, 9.015470504760742, -1.4286210536956787, -1.0417436361312866, -0.5425222516059875, -0.03564453125, -0.16015625, -0.560546875, 
34, 3128892730, -0.8311659693717957, 0.16669565439224243, -0.126003697514534, 0.515266478061676, -0.30459848046302795, -3.9907143115997314, 8.99727725982666, -1.3534176349639893, -0.8547598123550415, -0.5719786882400513, -0.03564453125, -0.15966796875, -0.56201171875, 
35, 3128901063, -0.8311455249786377, 0.16677962243556976, -0.1260155886411667, 0.5152695178985596, -0.271600604057312, -4.00508451461792, 8.998991012573242, -1.1940715312957764, -0.9198455810546875, -0.39226919412612915, -0.03662109375, -0.16064453125, -0.563232421875, 
36, 3128909396, -0.8311374187469482, 0.1668388992547989, -0.1260174810886383, 0.5152628421783447, -0.27439022064208984, -4.000864028930664, 9.00645923614502, -0.8020457029342651, -0.9425141215324402, -0.23320481181144714, -0.03515625, -0.1591796875, -0.5634765625, 
37, 3128917729, -0.8311254382133484, 0.16689293086528778, -0.12600882351398468, 0.5152668952941895, -0.2955983877182007, -4.014740467071533, 8.979127883911133, -0.6893430948257446, -0.9832407236099243, -0.2735216021537781, -0.03662109375, -0.15966796875, -0.563232421875, 
38, 3128926062, -0.8311229348182678, 0.1669180989265442, -0.12599995732307434, 0.5152648091316223, -0.2884455621242523, -4.027207851409912, 8.977596282958984, -0.3164510428905487, -0.8225371241569519, -0.21163760125637054, -0.0341796875, -0.16259765625, -0.56591796875, 
39, 3128934395, -0.8311120867729187, 0.16693508625030518, -0.125996395945549, 0.5152776837348938, -0.3017211854457855, -4.016442775726318, 9.011066436767578, -0.28771188855171204, -0.7193885445594788, -0.12905731797218323, -0.03466796875, -0.161865234375, -0.55859375, 
40, 3128942728, -0.8311132192611694, 0.16694283485412598, -0.12599049508571625, 0.5152747631072998, -0.2988886833190918, -3.991121768951416, 8.995163917541504, -0.132387176156044, -0.6738720536231995, -0.13832968473434448, -0.03564453125, -0.1630859375, -0.56103515625, 
41, 3128951061, -0.831108570098877, 0.1669512242078781, -0.12599249184131622, 0.5152790546417236, -0.31235745549201965, -3.9985463619232178, 9.010563850402832, -0.21988539397716522, -0.5065342783927917, -0.2203720659017563, -0.03515625, -0.16064453125, -0.56298828125, 
42, 3128959394, -0.8311108946800232, 0.1669427454471588, -0.12598994374275208, 0.5152786374092102, -0.34073275327682495, -3.990813970565796, 9.032129287719727, 0.0378834530711174, -0.5175228714942932, -0.12252568453550339, -0.03466796875, -0.162109375, -0.56494140625, 
43, 3128967727, -0.8311201333999634, 0.1669398695230484, -0.1259804219007492, 0.515267014503479, -0.3577207922935486, -3.999662160873413, 9.01903247833252, 0.0006403557490557432, -0.5469022989273071, -0.10795118659734726, -0.03369140625, -0.1640625, -0.55859375, 
44, 3128976060, -0.8311208486557007, 0.16691885888576508, -0.12597617506980896, 0.5152737498283386, -0.31473225355148315, -4.001278877258301, 9.011917114257812, 0.20048263669013977, -0.42692530155181885, -0.19949647784233093, -0.033203125, -0.16162109375, -0.56103515625, 
45, 3128984393, -0.8311198353767395, 0.1668979525566101, -0.12597216665744781, 0.5152832269668579, -0.34976688027381897, -4.009848117828369, 9.010607719421387, 0.17322905361652374, -0.37626028060913086, -0.1881493479013443, -0.0361328125, -0.15966796875, -0.564697265625, 
46, 3128992726, -0.8311148881912231, 0.16687975823879242, -0.1259697526693344, 0.5152976512908936, -0.3451318144798279, -4.034124851226807, 9.00019359588623, 0.15698964893817902, -0.39987659454345703, -0.3261844515800476, -0.037109375, -0.16162109375, -0.564208984375, 
47, 3129001059, -0.831098735332489, 0.16685496270656586, -0.12596914172172546, 0.5153318047523499, -0.30353090167045593, -3.978668689727783, 9.012532234191895, 0.19226042926311493, -0.330795019865036, -0.33374062180519104, -0.037109375, -0.16162109375, -0.5625, 
48, 3129009392, -0.8310917019844055, 0.1668403595685959, -0.12597475945949554, 0.5153464674949646, -0.26617875695228577, -3.9622888565063477, 9.0184907913208, 0.05527551844716072, -0.3284641206264496, -0.33274170756340027, -0.03662109375, -0.16259765625, -0.56640625, 
49, 3129017725, -0.8310750126838684, 0.16683724522590637, -0.12598980963230133, 0.5153706073760986, -0.28716519474983215, -3.954413414001465, 9.021987915039062, -0.1755983680486679, -0.22137102484703064, -0.4566889703273773, -0.0341796875, -0.15966796875, -0.5625, 
50, 3129026058, -0.8310585618019104, 0.1668444722890854, -0.12600626051425934, 0.5153908133506775, -0.2839750051498413, -3.978940486907959, 9.016666412353516, -0.28435641527175903, -0.3306669592857361, -0.4755410850048065, -0.03369140625, -0.158935546875, -0.56103515625, 
51, 3129034391, -0.8310471177101135, 0.1668587625026703, -0.12600338459014893, 0.5154052972793579, -0.29689306020736694, -3.973339796066284, 9.019627571105957, -0.25203126668930054, -0.5827878713607788, -0.3782326281070709, -0.03271484375, -0.16259765625, -0.56201171875, 
52, 3129042724, -0.831037700176239, 0.166865736246109, -0.1260073035955429, 0.5154171586036682, -0.28598496317863464, -3.948362112045288, 9.018533706665039, -0.19165851175785065, -0.5020774006843567, -0.3589450716972351, -0.03564453125, -0.16015625, -0.5634765625, 
53, 3129051057, -0.8310301899909973, 0.16688846051692963, -0.12600766122341156, 0.5154219269752502, -0.31737878918647766, -3.9857285022735596, 9.012138366699219, -0.37426242232322693, -0.5759233236312866, -0.37574803829193115, -0.03515625, -0.16162109375, -0.5634765625, 
54, 3129059390, -0.8310167193412781, 0.16692177951335907, -0.1260213404893875, 0.5154293775558472, -0.32443150877952576, -3.964935302734375, 9.005794525146484, -0.5769733786582947, -0.5812253952026367, -0.3600721061229706, -0.03369140625, -0.1611328125, -0.5625, 
55, 3129067723, -0.8310116529464722, 0.16695073246955872, -0.126026913523674, 0.5154270529747009, -0.3103475570678711, -3.9799633026123047, 8.995636940002441, -0.4902692139148712, -0.5773064494132996, -0.2852785289287567, -0.03662109375, -0.16259765625, -0.56103515625, 
56, 3129076056, -0.8310011625289917, 0.16699601709842682, -0.12603621184825897, 0.5154271125793457, -0.335640013217926, -3.9837186336517334, 9.02651596069336, -0.6893942952156067, -0.7383943200111389, -0.2874557375907898, -0.033203125, -0.158447265625, -0.5625, 
57, 3129084389, -0.8309870958328247, 0.16705362498760223, -0.12603971362113953, 0.515430212020874, -0.31458917260169983, -4.017487049102783, 9.018204689025879, -0.8158005475997925, -0.8120096325874329, -0.3839189410209656, -0.03662109375, -0.1611328125, -0.56201171875, 
58, 3129092722, -0.8309723138809204, 0.1671103537082672, -0.12604621052742004, 0.5154340863227844, -0.29048410058021545, -4.01881742477417, 9.002925872802734, -0.8028910160064697, -0.8369323015213013, -0.38622424006462097, -0.03564453125, -0.16015625, -0.560546875, 
59, 3129101055, -0.8309522271156311, 0.1671651154756546, -0.12604884803295135, 0.5154478549957275, -0.256458044052124, -3.972259759902954, 9.02175235748291, -0.7771230340003967, -0.8019689321517944, -0.4660893976688385, -0.0361328125, -0.16162109375, -0.56298828125, 
60, 3129109388, -0.830935001373291, 0.16723361611366272, -0.126067653298378, 0.5154489278793335, -0.29076308012008667, -3.972259759902954, 9.008784294128418, -1.0353145599365234, -0.7812981605529785, -0.3648107349872589, -0.0341796875, -0.1611328125, -0.5625, 
61, 3129117721, -0.8309170007705688, 0.1673203557729721, -0.12609264254570007, 0.515443742275238, -0.30210748314857483, -3.974691867828369, 9.01444149017334, -1.32521653175354, -0.771718442440033, -0.34401199221611023, -0.03662109375, -0.162109375, -0.564453125, 
62, 3129126054, -0.8308895230293274, 0.1674318164587021, -0.12613436579704285, 0.5154417157173157, -0.33418551087379456, -3.9669435024261475, 9.035150527954102, -1.7179595232009888, -0.8125987648963928, -0.42315995693206787, -0.0361328125, -0.16015625, -0.56396484375, 
63, 3129134387, -0.8308563232421875, 0.16756166517734528, -0.12617982923984528, 0.5154417753219604, -0.3393647074699402, -3.955471992492676, 9.013127326965332, -1.988830327987671, -0.8161592483520508, -0.5209551453590393, -0.032958984375, -0.1640625, -0.5634765625, 
64, 3129142720, -0.8308085799217224, 0.16772033274173737, -0.12624768912792206, 0.5154505968093872, -0.3403627872467041, -3.9588019847869873, 9.024852752685547, -2.4703009128570557, -0.7887007594108582, -0.7116018533706665, -0.03759765625, -0.158203125, -0.562744140625, 
65, 3129151053, -0.830752432346344, 0.16789790987968445, -0.12633128464221954, 0.5154626965522766, -0.32102644443511963, -3.978069305419922, 9.041476249694824, -2.8388640880584717, -0.671746015548706, -0.7710268497467041, -0.03955078125, -0.1630859375, -0.563720703125, 
66, 3129159386, -0.8306751251220703, 0.16809765994548798, -0.12646731734275818, 0.5154887437820435, -0.2797587513923645, -3.9741909503936768, 9.02311897277832, -3.4606237411499023, -0.20902498066425323, -1.0324969291687012, -0.03564453125, -0.1591796875, -0.5625, 
67, 3129167719, -0.8305673599243164, 0.16824845969676971, -0.12667420506477356, 0.5155624151229858, -0.23093709349632263, -3.9214906692504883, 9.045223236083984, -3.4247896671295166, 1.0866838693618774, -1.3480899333953857, -0.033203125, -0.1611328125, -0.56591796875, 
68, 3129176052, -0.8304433822631836, 0.16847309470176697, -0.12696287035942078, 0.5156177282333374, -0.2515740990638733, -3.9046080112457275, 9.071053504943848, -4.885620594024658, 1.5066293478012085, -1.3886628150939941, -0.03466796875, -0.158203125, -0.56298828125, 
69, 3129184385, -0.8302337527275085, 0.1687706857919693, -0.1273525059223175, 0.5157617926597595, -0.18352967500686646, -3.7973225116729736, 9.119643211364746, -6.501750469207764, 2.5776114463806152, -2.9337644577026367, -0.0341796875, -0.159423828125, -0.5615234375, 
70, 3129192718, -0.8298622369766235, 0.16895592212677002, -0.12800893187522888, 0.5161364674568176, -0.02818114124238491, -3.7100563049316406, 9.241928100585938, -7.0582709312438965, 7.158666610717773, -5.867133140563965, -0.0322265625, -0.15966796875, -0.5654296875, 
71, 3129201051, -0.8293596506118774, 0.16929809749126434, -0.1289680004119873, 0.5165933966636658, -0.17911605536937714, -3.647308111190796, 9.21372127532959, -11.196534156799316, 9.872214317321777, -7.0601935386657715, -0.03271484375, -0.15966796875, -0.56298828125, 
72, 3129209384, -0.8287771940231323, 0.16982652246952057, -0.1301288902759552, 0.5170632600784302, -0.3777134120464325, -3.7740602493286133, 9.099227905273438, -14.877303123474121, 11.070629119873047, -7.883129596710205, -0.03125, -0.158935546875, -0.5595703125, 
73, 3129217717, -0.8282073140144348, 0.17033255100250244, -0.13133887946605682, 0.5175038576126099, -0.4591415524482727, -4.005145072937012, 9.043584823608398, -15.023175239562988, 11.784807205200195, -7.351991653442383, -0.03173828125, -0.157470703125, -0.5634765625, 
74, 3129226050, -0.8276631832122803, 0.17080572247505188, -0.13251028954982758, 0.5179197192192078, -0.5025467872619629, -4.271589756011963, 8.917091369628906, -14.33187484741211, 11.387887001037598, -6.874056339263916, -0.02880859375, -0.154052734375, -0.5625, 
75, 3129234383, -0.8271523714065552, 0.1712515652179718, -0.13362112641334534, 0.5183030366897583, -0.4410697817802429, -4.359862804412842, 8.838924407958984, -13.597204208374023, 10.84061336517334, -6.391867637634277, -0.02587890625, -0.156494140625, -0.562255859375, 
76, 3129242716, -0.8267080783843994, 0.17150531709194183, -0.13458527624607086, 0.5186784267425537, -0.44423121213912964, -4.492142677307129, 8.833252906799316, -10.196708679199219, 10.315570831298828, -5.785449504852295, -0.02734375, -0.156494140625, -0.561279296875, 
77, 3129251049, -0.8263409733772278, 0.17162315547466278, -0.135418102145195, 0.5190075635910034, -0.4948462247848511, -4.765900611877441, 8.9533052444458, -7.646374702453613, 9.616710662841797, -4.789132595062256, -0.02490234375, -0.15185546875, -0.562255859375, 
78, 3129259382, -0.8258758783340454, 0.17158740758895874, -0.13623833656311035, 0.5195447206497192, -0.5249481201171875, -4.518725872039795, 8.901582717895508, -5.627870559692383, 11.168601036071777, -7.576038360595703, -0.0244140625, -0.152587890625, -0.563720703125, 
79, 3129267715, -0.8253629207611084, 0.1714121401309967, -0.13699208199977875, 0.5202189683914185, -0.35773879289627075, -3.757545232772827, 9.06070327758789, -3.449303150177002, 11.893075942993164, -9.380459785461426, -0.0244140625, -0.15380859375, -0.559814453125, 
80, 3129276048, -0.8247791528701782, 0.17130398750305176, -0.13792875409126282, 0.5209324359893799, -0.2493346929550171, -4.016589641571045, 9.245262145996094, -5.587427139282227, 13.645092010498047, -10.01600170135498, -0.0244140625, -0.152587890625, -0.564208984375, 
81, 3129284381, -0.8243790864944458, 0.17114891111850739, -0.13875652849674225, 0.5213968753814697, -0.329437792301178, -4.081670761108398, 8.575634956359863, -4.3407301902771, 11.898225784301758, -6.0896453857421875, -0.02490234375, -0.1533203125, -0.561767578125, 
82, 3129292714, -0.824032187461853, 0.17131350934505463, -0.1394544392824173, 0.5217048525810242, -0.4913894236087799, -4.116453647613525, 8.656994819641113, -7.180144309997559, 7.575948715209961, -4.804910659790039, -0.02197265625, -0.152587890625, -0.564697265625, 
83, 3129301047, -0.8238363265991211, 0.17140205204486847, -0.13986989855766296, 0.5218735933303833, -0.6878830790519714, -4.626028060913086, 8.627209663391113, -4.230408668518066, 4.3684306144714355, -2.660384178161621, -0.0185546875, -0.15087890625, -0.56103515625, 
84, 3129309380, -0.8237099051475525, 0.171426460146904, -0.13999751210212708, 0.5220309495925903, -0.48202601075172424, -4.523674011230469, 8.54935359954834, -1.2712986469268799, 1.343133807182312, -2.589740037918091, -0.01806640625, -0.150390625, -0.56201171875, 
85, 3129317713, -0.8236907124519348, 0.17140322923660278, -0.13986730575561523, 0.5221039056777954, -0.5719909071922302, -4.625676155090332, 8.589566230773926, 1.1837105751037598, -1.5914762020111084, -1.3531615734100342, -0.02099609375, -0.14794921875, -0.561279296875, 
86, 3129326046, -0.8237842321395874, 0.17130616307258606, -0.13949280977249146, 0.5220884680747986, -0.5895567536354065, -4.541087627410889, 8.664756774902344, 3.8975133895874023, -4.3040242195129395, -0.0018058036221191287, -0.0205078125, -0.15087890625, -0.5634765625, 
87, 3129334379, -0.8239526152610779, 0.1711406409740448, -0.13898952305316925, 0.5220111012458801, -0.45217999815940857, -4.429167747497559, 8.825146675109863, 5.632648468017578, -5.490988731384277, 1.0526171922683716, -0.01806640625, -0.15234375, -0.56494140625, 
88, 3129342712, -0.8241386413574219, 0.17099271714687347, -0.1385018229484558, 0.5218955278396606, -0.4107203185558319, -4.150937080383301, 8.96333122253418, 5.3109846115112305, -5.633044719696045, 1.6253516674041748, -0.0205078125, -0.15380859375, -0.56201171875, 
89, 3129351045, -0.8243019580841064, 0.170904740691185, -0.13807950913906097, 0.5217781066894531, -0.43784260749816895, -3.9809041023254395, 9.049464225769043, 4.086392879486084, -5.199830532073975, 1.4818092584609985, -0.01953125, -0.15185546875, -0.5615234375, 
90, 3129359378, -0.8244309425354004, 0.17087829113006592, -0.13773958384990692, 0.5216728448867798, -0.43625110387802124, -3.8867788314819336, 9.057926177978516, 2.7608046531677246, -4.698073387145996, 1.2158310413360596, -0.0244140625, -0.15185546875, -0.560302734375, 
91, 3129367711, -0.8245425820350647, 0.1709141880273819, -0.1374584138393402, 0.5215590596199036, -0.37029916048049927, -3.8727900981903076, 9.005841255187988, 1.5537339448928833, -4.376102447509766, 1.1571232080459595, -0.0234375, -0.151611328125, -0.566162109375, 
92, 3129376044, -0.8246286511421204, 0.17100924253463745, -0.13726022839546204, 0.5214440822601318, -0.39840540289878845, -3.960761070251465, 8.984395027160645, 0.24515381455421448, -3.9042108058929443, 1.1196237802505493, -0.02197265625, -0.15234375, -0.56396484375, 
93, 3129384377, -0.8247002363204956, 0.17116723954677582, -0.1371012181043625, 0.5213209986686707, -0.4445993900299072, -4.0960774421691895, 8.949957847595215, -0.8220760226249695, -3.839407444000244, 1.0840201377868652, -0.0244140625, -0.15185546875, -0.563720703125, 
94, 3129392710, -0.8247570991516113, 0.1713419407606125, -0.1369764804840088, 0.5212063789367676, -0.41658830642700195, -4.233582019805908, 8.914848327636719, -1.2520623207092285, -3.585775136947632, 0.9307956695556641, -0.02197265625, -0.155517578125, -0.56201171875, 
95, 3129401043, -0.8248189091682434, 0.17147113382816315, -0.13684138655662537, 0.5211012363433838, -0.41001689434051514, -4.292479038238525, 8.89610767364502, -0.6570436358451843, -3.308142900466919, 0.9347403049468994, -0.02392578125, -0.15283203125, -0.561767578125, 
96, 3129409376, -0.8249005675315857, 0.17155438661575317, -0.13669371604919434, 0.5209833979606628, -0.4172244668006897, -4.310286998748779, 8.884531021118164, 0.003355465130880475, -3.243978977203369, 1.262192726135254, -0.02197265625, -0.153564453125, -0.56396484375, 
97, 3129417709, -0.8249919414520264, 0.17161938548088074, -0.13651826977729797, 0.5208633542060852, -0.4510992169380188, -4.249349594116211, 8.891188621520996, 0.401836097240448, -3.390056610107422, 1.327636957168579, -0.02587890625, -0.153076171875, -0.563720703125, 
98, 3129426042, -0.8250772953033447, 0.1716606765985489, -0.1363203227519989, 0.5207662582397461, -0.43620389699935913, -4.2363152503967285, 8.899728775024414, 0.8879685997962952, -3.473148822784424, 1.0144003629684448, -0.02392578125, -0.1513671875, -0.560302734375, 
99, 3129434375, -0.8251714706420898, 0.17164400219917297, -0.13607224822044373, 0.520687460899353, -0.4212324917316437, -4.209497928619385, 8.910969734191895, 1.9316718578338623, -3.5445873737335205, 0.8788244128227234, -0.02685546875, -0.153076171875, -0.561767578125, 
100, 3129442708, -0.8252667784690857, 0.17159122228622437, -0.13581597805023193, 0.520620584487915, -0.3896540403366089, -4.215525150299072, 8.896834373474121, 2.4526655673980713, -3.407935619354248, 0.7817209362983704, -0.025390625, -0.154052734375, -0.562255859375, 
101, 3129451041, -0.825365424156189, 0.17152966558933258, -0.13556133210659027, 0.5205507874488831, -0.3458685278892517, -4.212663650512695, 8.915234565734863, 2.5177512168884277, -3.2774055004119873, 0.8578208088874817, -0.02392578125, -0.1552734375, -0.5595703125, 
102, 3129459374, -0.8254700303077698, 0.17144675552845, -0.13531479239463806, 0.5204766392707825, -0.3436083495616913, -4.1988701820373535, 8.93541431427002, 2.7314252853393555, -3.116163969039917, 1.0099693536758423, -0.02490234375, -0.15283203125, -0.558837890625, 
103, 3129467707, -0.8255723714828491, 0.17134256660938263, -0.13509203493595123, 0.5204065442085266, -0.33316075801849365, -4.199816703796387, 8.909668922424316, 2.783421754837036, -2.623448371887207, 1.0574836730957031, -0.025390625, -0.154052734375, -0.561767578125, 
104, 3129476040, -0.8256672620773315, 0.1712256520986557, -0.1349039524793625, 0.5203433632850647, -0.3300807774066925, -4.176442623138428, 8.930715560913086, 2.696026563644409, -2.1663880348205566, 1.0159120559692383, -0.025390625, -0.153076171875, -0.562744140625, 
105, 3129484373, -0.8257544636726379, 0.17110256850719452, -0.13473805785179138, 0.5202882289886475, -0.36912375688552856, -4.161813259124756, 8.934396743774414, 2.5835540294647217, -1.7754122018814087, 0.9397606253623962, -0.0283203125, -0.154541015625, -0.561767578125, 
106, 3129492706, -0.8258329033851624, 0.1709849238395691, -0.13461706042289734, 0.5202338099479675, -0.3988696038722992, -4.134259223937988, 8.9501371383667, 2.202517032623291, -1.3472704887390137, 0.9578956365585327, -0.02490234375, -0.1552734375, -0.559814453125, 
107, 3129501039, -0.8258922100067139, 0.17088449001312256, -0.13452717661857605, 0.5201958417892456, -0.42452874779701233, -4.149796962738037, 8.944113731384277, 1.7445855140686035, -0.9953819513320923, 0.7127160429954529, -0.025390625, -0.154541015625, -0.562255859375, 
108, 3129509372, -0.8259404897689819, 0.17075859010219574, -0.1344643533229828, 0.520176887512207, -0.44410523772239685, -4.221861362457275, 8.945306777954102, 1.875064492225647, -0.48921912908554077, 0.4903845489025116, -0.02783203125, -0.153564453125, -0.561279296875, 
109, 3129517705, -0.8259830474853516, 0.170628622174263, -0.13438661396503448, 0.5201718807220459, -0.41993510723114014, -4.306693077087402, 8.894755363464355, 2.0174026489257812, -0.5281015038490295, 0.28039902448654175, -0.029296875, -0.156494140625, -0.558837890625, 
110, 3129526038, -0.8260438442230225, 0.17046475410461426, -0.1342419534921646, 0.5201665759086609, -0.3950079679489136, -4.293421745300293, 8.876664161682129, 2.9461236000061035, -1.138027548789978, 0.30468133091926575, -0.0234375, -0.15283203125, -0.560791015625, 
111, 3129534371, -0.8261057734489441, 0.17029842734336853, -0.13406075537204742, 0.5201692581176758, -0.44600197672843933, -4.234054088592529, 8.884425163269043, 3.2275986671447754, -1.5033379793167114, 0.2433096468448639, -0.02685546875, -0.157470703125, -0.563720703125, 
112, 3129542704, -0.8261628746986389, 0.1701715588569641, -0.1338908076286316, 0.5201639533042908, -0.3983005881309509, -4.154534339904785, 8.931982040405273, 2.69830584526062, -1.6813052892684937, 0.15009939670562744, -0.02587890625, -0.153564453125, -0.566162109375, 
113, 3129551037, -0.8262184858322144, 0.17005254328250885, -0.13372096419334412, 0.5201582312583923, -0.3306959867477417, -4.089584827423096, 8.984827995300293, 2.580531597137451, -1.7044609785079956, 0.19571837782859802, -0.02783203125, -0.153076171875, -0.561767578125, 
114, 3129559370, -0.8262692093849182, 0.1699678599834442, -0.13361698389053345, 0.5201322436332703, -0.32431524991989136, -4.05670166015625, 9.025276184082031, 1.6942535638809204, -1.271247148513794, 0.416513055562973, -0.02783203125, -0.14892578125, -0.56396484375, 
115, 3129567703, -0.8262954950332642, 0.1698775738477707, -0.13355471193790436, 0.5201357007026672, -0.34852227568626404, -3.986672878265381, 9.000214576721191, 1.4222559928894043, -0.6982824206352234, 0.2667466402053833, -0.03076171875, -0.155517578125, -0.56298828125, 
116, 3129576036, -0.8263235688209534, 0.16979937255382538, -0.13351304829120636, 0.5201273560523987, -0.37540265917778015, -3.964763641357422, 8.957025527954102, 1.1552789211273193, -0.5269744992256165, 0.1868046075105667, -0.02978515625, -0.153076171875, -0.564453125, 
117, 3129584369, -0.8263341188430786, 0.16974206268787384, -0.13347944617271423, 0.5201379060745239, -0.3955237567424774, -4.008789539337158, 8.956404685974121, 0.8208593726158142, -0.5403707027435303, 0.03232516348361969, -0.02587890625, -0.152587890625, -0.563720703125, 
118, 3129592702, -0.8263561725616455, 0.16969773173332214, -0.13344928622245789, 0.5201250314712524, -0.405916690826416, -4.079473972320557, 8.959486961364746, 0.6648687124252319, -0.6384219527244568, 0.16101108491420746, -0.02734375, -0.154052734375, -0.566162109375, 
119, 3129601035, -0.8263677358627319, 0.1696384847164154, -0.13342119753360748, 0.5201332569122314, -0.3894866108894348, -4.113649845123291, 8.95301342010498, 0.7987287044525146, -0.48588913679122925, 0.11526405811309814, -0.0263671875, -0.154052734375, -0.560791015625, 
120, 3129609368, -0.8263821005821228, 0.169588103890419, -0.13339121639728546, 0.5201346278190613, -0.41069477796554565, -4.103407382965088, 8.967633247375488, 0.7414808869361877, -0.5455703735351562, -0.04427420347929001, -0.0283203125, -0.155029296875, -0.563720703125, 
121, 3129617701, -0.8263928294181824, 0.1695563942193985, -0.13335548341274261, 0.5201369524002075, -0.43811163306236267, -4.073780059814453, 8.949014663696289, 0.5432267189025879, -0.6481297612190247, -0.18236054480075836, -0.03125, -0.156494140625, -0.5634765625, 
122, 3129626034, -0.8263925909996033, 0.1695466786623001, -0.133322611451149, 0.5201490521430969, -0.4711792767047882, -4.066441535949707, 8.943164825439453, 0.284010648727417, -0.8171836733818054, -0.35195237398147583, -0.02880859375, -0.152587890625, -0.56298828125, 
123, 3129634367, -0.8263751268386841, 0.16957774758338928, -0.13330033421516418, 0.5201721787452698, -0.4368169605731964, -4.04714298248291, 8.977797508239746, -0.3035670816898346, -0.9293484091758728, -0.5209550857543945, -0.02783203125, -0.154052734375, -0.564208984375, 
124, 3129642700, -0.8263512253761292, 0.16962416470050812, -0.13328923285007477, 0.5201979875564575, -0.3722124993801117, -3.9869518280029297, 8.972970008850098, -0.5386289954185486, -0.8959476351737976, -0.7289683818817139, -0.02734375, -0.154052734375, -0.563232421875, 
125, 3129651033, -0.826319694519043, 0.16969114542007446, -0.13326729834079742, 0.5202318429946899, -0.3831634819507599, -4.0423502922058105, 8.972583770751953, -0.7283023595809937, -1.1340830326080322, -0.8016615509986877, -0.02783203125, -0.156494140625, -0.566162109375, 
126, 3129659366, -0.826294481754303, 0.16977635025978088, -0.13324309885501862, 0.5202502608299255, -0.392069011926651, -4.0859904289245605, 8.9580078125, -0.9015571475028992, -1.3382540941238403, -0.7572976350784302, -0.02783203125, -0.152587890625, -0.564453125, 
127, 3129667699, -0.826292097568512, 0.16986706852912903, -0.13321509957313538, 0.5202318429946899, -0.33238300681114197, -4.119341850280762, 8.932024955749512, -0.955782413482666, -1.2749614715576172, -0.6445950269699097, -0.0263671875, -0.152587890625, -0.562744140625, 
128, 3129676032, -0.8262712955474854, 0.1699390411376953, -0.13321448862552643, 0.5202414989471436, -0.28999772667884827, -4.129136085510254, 8.951231956481934, -0.9267613887786865, -1.0037323236465454, -0.5456216335296631, -0.03173828125, -0.156005859375, -0.564453125, 
129, 3129684365, -0.8262699246406555, 0.1700097769498825, -0.1332215666770935, 0.520218551158905, -0.30384561419487, -4.15902042388916, 8.92701244354248, -0.9861608743667603, -0.7645977735519409, -0.4264386296272278, -0.02685546875, -0.153564453125, -0.563232421875, 
130, 3129692698, -0.8262588977813721, 0.1700490415096283, -0.13324519991874695, 0.52021723985672, -0.33330103754997253, -4.161488056182861, 8.939702033996582, -0.7259714007377625, -0.5371177196502686, -0.2347160428762436, -0.02734375, -0.156494140625, -0.563232421875, 
131, 3129701031, -0.8262442350387573, 0.17006812989711761, -0.1332736313343048, 0.5202268958091736, -0.326577365398407, -4.1356520652771, 8.923164367675781, -0.5534852147102356, -0.3541039824485779, -0.0982690081000328, -0.0263671875, -0.155029296875, -0.565185546875, 
132, 3129709364, -0.8262459635734558, 0.1700553148984909, -0.13329747319221497, 0.5202221870422363, -0.37203365564346313, -4.119458198547363, 8.939773559570312, -0.1120750829577446, -0.19363079965114594, -0.009669373743236065, -0.02783203125, -0.156982421875, -0.564697265625, 
133, 3129717697, -0.8262467980384827, 0.17004165053367615, -0.13331851363182068, 0.5202199220657349, -0.4168176054954529, -4.121811389923096, 8.935874938964844, -0.1021367609500885, -0.14708974957466125, -0.050677765160799026, -0.02587890625, -0.156982421875, -0.564208984375, 
134, 3129726030, -0.8262472152709961, 0.17003561556339264, -0.13332802057266235, 0.5202187299728394, -0.4143856465816498, -4.1373186111450195, 8.92666244506836, -0.08354083448648453, -0.39477941393852234, -0.10480063408613205, -0.02734375, -0.154052734375, -0.566162109375, 
135, 3129734363, -0.8262599110603333, 0.17002251744270325, -0.13330304622650146, 0.5202094912528992, -0.4397067129611969, -4.13173246383667, 8.939765930175781, 0.24510259926319122, -0.6004616618156433, -0.23215460777282715, -0.0263671875, -0.153564453125, -0.567626953125, 
136, 3129742696, -0.826263964176178, 0.17001911997795105, -0.1332642287015915, 0.5202141404151917, -0.4555431008338928, -4.086225986480713, 8.929930686950684, 0.25245389342308044, -0.9559872150421143, -0.2632758915424347, -0.0302734375, -0.153564453125, -0.5654296875, 
137, 3129751029, -0.8262755274772644, 0.17002098262310028, -0.13320320844650269, 0.5202108025550842, -0.4182768762111664, -4.089759826660156, 8.945568084716797, 0.33992648124694824, -1.1245801448822021, -0.37436482310295105, -0.02392578125, -0.155029296875, -0.563232421875, 
138, 3129759362, -0.8262730836868286, 0.17002087831497192, -0.13315105438232422, 0.5202280282974243, -0.39336344599723816, -4.123928546905518, 8.956067085266113, 0.31753966212272644, -1.0894373655319214, -0.48686257004737854, -0.029296875, -0.154052734375, -0.560546875, 
139, 3129767695, -0.8262753486633301, 0.17001031339168549, -0.13309209048748016, 0.5202429294586182, -0.3612900972366333, -4.142268657684326, 8.936490058898926, 0.4658716917037964, -1.0792173147201538, -0.34936535358428955, -0.0263671875, -0.154541015625, -0.563720703125, 
140, 3129776028, -0.826281726360321, 0.16999110579490662, -0.13303975760936737, 0.5202524065971375, -0.33827951550483704, -4.16904878616333, 8.926777839660645, 0.5416898131370544, -0.9898750185966492, -0.30292677879333496, -0.02880859375, -0.153564453125, -0.56396484375, 
141, 3129784361, -0.8263132572174072, 0.16994869709014893, -0.13296757638454437, 0.5202347040176392, -0.3446740508079529, -4.172360420227051, 8.939680099487305, 0.9469070434570312, -0.9690760970115662, -0.08745980262756348, -0.02978515625, -0.156005859375, -0.5615234375, 
142, 3129792694, -0.8263351917266846, 0.16990168392658234, -0.1328902691602707, 0.5202349424362183, -0.3521702289581299, -4.142447471618652, 8.944208145141602, 1.0565102100372314, -1.1239908933639526, -0.09499038010835648, -0.029296875, -0.154052734375, -0.5654296875, 
143, 3129801027, -0.826357364654541, 0.16986271739006042, -0.13282950222492218, 0.5202280282974243, -0.33863013982772827, -4.100760459899902, 8.966096878051758, 0.8126627802848816, -0.9378266930580139, -0.009233931079506874, -0.025390625, -0.155517578125, -0.565673828125, 
144, 3129809360, -0.8263684511184692, 0.16984161734580994, -0.1328141987323761, 0.5202213525772095, -0.3481002449989319, -4.076905727386475, 8.975208282470703, 0.2808600664138794, -0.600410521030426, 0.0029968656599521637, -0.02978515625, -0.154541015625, -0.56591796875, 
145, 3129817693, -0.8263749480247498, 0.16983991861343384, -0.13281206786632538, 0.5202120542526245, -0.3815254867076874, -4.054338455200195, 8.98593807220459, -0.07186073809862137, -0.5115290284156799, -0.03402851149439812, -0.02734375, -0.155029296875, -0.565185546875, 
146, 3129826026, -0.8263742923736572, 0.169861301779747, -0.1328100711107254, 0.5202067494392395, -0.4221464991569519, -4.0843377113342285, 8.972433090209961, -0.32216304540634155, -0.7286096811294556, -0.14160828292369843, -0.02734375, -0.154541015625, -0.565185546875, 
147, 3129834359, -0.8263944387435913, 0.16989322006702423, -0.13278843462467194, 0.5201694965362549, -0.36368629336357117, -4.088521480560303, 8.942869186401367, -0.3066408038139343, -0.7974863052368164, -0.2980087995529175, -0.03076171875, -0.155517578125, -0.56201171875, 
148, 3129842692, -0.8263888955116272, 0.1699298769235611, -0.13278788328170776, 0.5201665163040161, -0.3714471459388733, -4.104058265686035, 8.945130348205566, -0.5136294960975647, -0.8080138564109802, -0.22690369188785553, -0.0283203125, -0.152587890625, -0.5634765625, 
149, 3129851025, -0.8263939619064331, 0.1699700802564621, -0.13278913497924805, 0.5201451778411865, -0.38947945833206177, -4.1257524490356445, 8.952884674072266, -0.5847345590591431, -0.6684675812721252, -0.2535681426525116, -0.029296875, -0.156494140625, -0.562255859375, 
150, 3129859358, -0.8263868689537048, 0.16999906301498413, -0.13279259204864502, 0.5201460719108582, -0.3887212574481964, -4.188068389892578, 8.939465522766113, -0.45202720165252686, -0.6962845325469971, -0.2605864107608795, -0.02685546875, -0.153076171875, -0.563232421875, 
151, 3129867691, -0.8263866305351257, 0.1699940413236618, -0.13277672231197357, 0.5201521515846252, -0.3779991567134857, -4.188333034515381, 8.928528785705566, 0.07720131427049637, -0.6017424464225769, -0.2675022780895233, -0.02783203125, -0.154541015625, -0.563720703125, 
152, 3129876024, -0.826389729976654, 0.16996973752975464, -0.13274990022182465, 0.5201621055603027, -0.3655245900154114, -4.196837425231934, 8.92746353149414, 0.41100600361824036, -0.6551737189292908, -0.26440292596817017, -0.02978515625, -0.154052734375, -0.564453125, 
153, 3129884357, -0.8263426423072815, 0.1699102371931076, -0.13271677494049072, 0.5202648043632507, -0.3865897059440613, -4.147525787353516, 8.91372299194336, 0.8226779699325562, -0.7615495324134827, -0.2228822559118271, -0.0283203125, -0.153076171875, -0.56298828125, 
154, 3129892690, -0.8263639807701111, 0.1698472797870636, -0.13266433775424957, 0.5202648639678955, -0.3357258439064026, -4.131811141967773, 8.94549560546875, 1.0569714307785034, -0.7266631126403809, -0.009797444567084312, -0.02734375, -0.153564453125, -0.564208984375, 
155, 3129901023, -0.8263360261917114, 0.16976311802864075, -0.1326206773519516, 0.5203474760055542, -0.35910847783088684, -4.095725059509277, 8.929981231689453, 1.1911131143569946, -0.7377027273178101, 0.0646759420633316, -0.027587890625, -0.158447265625, -0.566162109375, 
156, 3129909356, -0.826363205909729, 0.16970127820968628, -0.1325720101594925, 0.5203369855880737, -0.3207477927207947, -4.106883525848389, 8.966925621032715, 1.0125563144683838, -0.7265605926513672, 0.15681035816669464, -0.02734375, -0.155029296875, -0.563232421875, 
157, 3129917689, -0.8264145851135254, 0.1696421355009079, -0.13250227272510529, 0.5202925205230713, -0.31759336590766907, -4.124808311462402, 8.941482543945312, 1.1270263195037842, -0.8171068429946899, 0.17430487275123596, -0.0302734375, -0.157958984375, -0.56396484375, 
158, 3129926022, -0.8264524340629578, 0.16955994069576263, -0.13242441415786743, 0.5202788710594177, -0.3301627039909363, -4.191614627838135, 8.914412498474121, 1.4725624322891235, -0.9404393434524536, 0.24146538972854614, -0.029296875, -0.154541015625, -0.56689453125, 
159, 3129934355, -0.8265494108200073, 0.16943398118019104, -0.1322842538356781, 0.5202018022537231, -0.35262495279312134, -4.234651565551758, 8.893027305603027, 2.4502577781677246, -1.1670485734939575, 0.5429962277412415, -0.02783203125, -0.155029296875, -0.566650390625, 
160, 3129942688, -0.8266340494155884, 0.16925719380378723, -0.13211435079574585, 0.5201679468154907, -0.33880287408828735, -4.2885823249816895, 8.906022071838379, 3.279287815093994, -1.4420171976089478, 0.7615367770195007, -0.0302734375, -0.153564453125, -0.564453125, 
161, 3129951021, -0.8268146514892578, 0.1690383106470108, -0.13190074265003204, 0.5200061798095703, -0.2742267847061157, -4.310156345367432, 8.878195762634277, 4.104246139526367, -1.366481065750122, 1.4124715328216553, -0.0302734375, -0.155517578125, -0.56201171875, 
162, 3129959354, -0.8269830942153931, 0.1687965840101242, -0.13171742856502533, 0.519863486289978, -0.26917821168899536, -4.141317844390869, 8.968498229980469, 4.109726905822754, -1.5353556871414185, 2.685652494430542, -0.02783203125, -0.155517578125, -0.568115234375, 
163, 3129967687, -0.8273356556892395, 0.16854789853096008, -0.1314755380153656, 0.5194441080093384, -0.3682810366153717, -3.919038772583008, 8.958995819091797, 4.60398006439209, -2.130861282348633, 5.00402307510376, -0.03076171875, -0.155029296875, -0.56396484375, 
164, 3129976020, -0.8276063799858093, 0.16822445392608643, -0.13120248913764954, 0.5191867351531982, -0.49535465240478516, -4.105381965637207, 9.013592720031738, 5.710925102233887, -2.423222303390503, 4.660433769226074, -0.029296875, -0.157958984375, -0.564697265625, 
165, 3129984353, -0.8277920484542847, 0.1679382175207138, -0.1309293806552887, 0.5190523862838745, -0.5203003287315369, -3.984783887863159, 9.037821769714355, 5.241440773010254, -2.692376136779785, 3.6729273796081543, -0.029296875, -0.156494140625, -0.56640625, 
166, 3129992686, -0.828015148639679, 0.16771258413791656, -0.13074727356433868, 0.5188152194023132, -0.32244986295700073, -3.814312219619751, 9.014189720153809, 3.874768018722534, -1.9541997909545898, 4.123840808868408, -0.0283203125, -0.156494140625, -0.564697265625, 
167, 3130001019, -0.8282922506332397, 0.1674986034631729, -0.13056433200836182, 0.5184879302978516, -0.2657341957092285, -3.975146770477295, 8.969572067260742, 3.7413432598114014, -1.7597618103027344, 4.361823081970215, -0.03125, -0.153564453125, -0.56494140625, 
168, 3130009352, -0.8284835815429688, 0.16733931005001068, -0.13044875860214233, 0.5182629823684692, -0.44297030568122864, -4.0186591148376465, 9.01482105255127, 2.59157133102417, -1.5843045711517334, 3.791393280029297, -0.029296875, -0.156005859375, -0.564453125, 
169, 3130017685, -0.8285964727401733, 0.16721852123737335, -0.13037021458148956, 0.5181410312652588, -0.4250204265117645, -3.90730881690979, 9.002888679504395, 1.845070242881775, -1.284643530845642, 2.7055039405822754, -0.02978515625, -0.156494140625, -0.56494140625, 
170, 3130026018, -0.8287046551704407, 0.1670873463153839, -0.1302916705608368, 0.5180302858352661, -0.3663893938064575, -4.036861896514893, 9.008861541748047, 2.0222694873809814, -0.9512485861778259, 1.9332342147827148, -0.0302734375, -0.155517578125, -0.56396484375, 
171, 3130034351, -0.8288053870201111, 0.16695134341716766, -0.13019657135009766, 0.5179368853569031, -0.33760422468185425, -4.172369003295898, 8.972562789916992, 2.187737226486206, -0.9841116070747375, 1.642717719078064, -0.0283203125, -0.158447265625, -0.565673828125, 
172, 3130042684, -0.8289205431938171, 0.16676752269268036, -0.13004295527935028, 0.5178504586219788, -0.32629549503326416, -4.3124237060546875, 8.890727043151855, 3.2163281440734863, -1.3893800973892212, 1.6266576051712036, -0.03076171875, -0.158935546875, -0.56396484375, 
173, 3130051017, -0.8290477395057678, 0.16647276282310486, -0.12979668378829956, 0.5178032517433167, -0.32733049988746643, -4.500235080718994, 8.877320289611816, 5.192389488220215, -1.7778455018997192, 1.80680251121521, -0.0302734375, -0.158447265625, -0.56396484375, 
174, 3130059350, -0.8292476534843445, 0.16604885458946228, -0.12947988510131836, 0.5176986455917358, -0.29491251707077026, -4.485854148864746, 8.91728687286377, 7.277184963226318, -1.7307157516479492, 2.4943912029266357, -0.03369140625, -0.15869140625, -0.5654296875, 
175, 3130067683, -0.8295549154281616, 0.16552840173244476, -0.12909093499183655, 0.5174701809883118, -0.30860936641693115, -4.3777031898498535, 8.954641342163086, 8.964188575744629, -1.6234428882598877, 3.2298779487609863, -0.0302734375, -0.157470703125, -0.564453125, 
176, 3130076016, -0.8298140168190002, 0.16496551036834717, -0.12872129678726196, 0.5173265933990479, -0.33430957794189453, -4.25009822845459, 8.997977256774902, 9.303011894226074, -1.5393000841140747, 3.4858410358428955, -0.027587890625, -0.158203125, -0.568115234375, 
177, 3130084349, -0.8301476836204529, 0.16446387767791748, -0.1284465193748474, 0.5170191526412964, -0.26260340213775635, -3.9579808712005615, 9.104011535644531, 7.797382354736328, -1.2959650754928589, 5.910330295562744, -0.033203125, -0.154296875, -0.567626953125, 
178, 3130092682, -0.8306036591529846, 0.16401329636573792, -0.1283397674560547, 0.5164563059806824, -0.262383371591568, -3.7659108638763428, 9.35843563079834, 5.8561835289001465, -0.6353227496147156, 10.065985679626465, -0.0322265625, -0.1572265625, -0.5693359375, 
179, 3130101015, -0.8315060138702393, 0.16384901106357574, -0.12818045914173126, 0.5150938034057617, -0.2759600877761841, -3.717588424682617, 9.032256126403809, 2.698153018951416, -4.280664443969727, 18.36136245727539, -0.033203125, -0.15673828125, -0.5654296875, 
180, 3130109348, -0.8327330350875854, 0.16390520334243774, -0.12824276089668274, 0.5130742788314819, 0.06510467082262039, -3.658602714538574, 9.268671989440918, -1.9610403776168823, -6.940503120422363, 31.670263290405273, -0.03125, -0.153076171875, -0.56787109375, 
181, 3130117681, -0.8345151543617249, 0.16419380903244019, -0.12829187512397766, 0.5100655555725098, -0.30843979120254517, -4.247509956359863, 9.10911750793457, -5.042799949645996, -11.881046295166016, 46.48828887939453, -0.03564453125, -0.15380859375, -0.567138671875, 
182, 3130126014, -0.8370007872581482, 0.1644521951675415, -0.12844111025333405, 0.5058543682098389, -0.5885641574859619, -5.107906341552734, 8.844437599182129, -5.911699295043945, -14.53630256652832, 65.48860931396484, -0.0380859375, -0.1533203125, -0.56884765625, 
183, 3130134347, -0.8402591347694397, 0.16643524169921875, -0.12929826974868774, 0.49954622983932495, -1.1221199035644531, -5.615955352783203, 9.125078201293945, -32.657413482666016, -24.432504653930664, 93.56871795654297, -0.0390625, -0.1513671875, -0.57177734375, 
184, 3130142680, -0.8444323539733887, 0.1693333089351654, -0.1301601380109787, 0.4912426471710205, -1.0831634998321533, -6.728098392486572, 8.172472953796387, -44.703277587890625, -36.91650390625, 121.28266143798828, -0.039306640625, -0.144775390625, -0.56787109375, 
185, 3130151013, -0.8490014672279358, 0.17176282405853271, -0.13058675825595856, 0.48232945799827576, -0.45299074053764343, -7.1413397789001465, 7.832202434539795, -36.49243927001953, -40.87987518310547, 130.87660217285156, -0.05078125, -0.137939453125, -0.569580078125, 
186, 3130159346, -0.8539806604385376, 0.17312054336071014, -0.1310955137014389, 0.47282230854034424, 0.334735631942749, -7.886274814605713, 8.278968811035156, -24.6213321685791, -35.005672454833984, 142.6337432861328, -0.05322265625, -0.131591796875, -0.5751953125, 
187, 3130167679, -0.8590442538261414, 0.17410822212696075, -0.13176754117012024, 0.4629982113838196, 0.3036572337150574, -6.420692443847656, 8.650461196899414, -21.689516067504883, -31.532760620117188, 147.9800262451172, -0.05859375, -0.127197265625, -0.5771484375, 
188, 3130176012, -0.8648532032966614, 0.1755361407995224, -0.1321934163570404, 0.4513774514198303, -0.07728410512208939, -4.647511959075928, 8.5612154006958, -26.811120986938477, -42.95262145996094, 172.54681396484375, -0.064208984375, -0.116943359375, -0.577880859375, 
189, 3130184345, -0.8714498281478882, 0.1782364696264267, -0.13202105462551117, 0.4374677836894989, -0.9986274242401123, -4.364270210266113, 8.299271583557129, -40.46465301513672, -64.86612701416016, 200.9226837158203, -0.0732421875, -0.109130859375, -0.5810546875, 
190, 3130192678, -0.8788614273071289, 0.18163718283176422, -0.13133129477500916, 0.4211454391479492, -0.9745221138000488, -5.457495212554932, 8.237923622131348, -48.15483474731445, -82.73294830322266, 232.18280029296875, -0.079345703125, -0.09814453125, -0.5830078125, 
191, 3130201011, -0.8864255547523499, 0.184860497713089, -0.13046450912952423, 0.4038023054599762, -0.48226892948150635, -7.944125175476074, 7.975610733032227, -46.41271209716797, -86.61636352539062, 245.3040008544922, -0.09375, -0.08642578125, -0.584716796875, 
192, 3130209344, -0.8936716318130493, 0.1869475096464157, -0.12968046963214874, 0.3867631256580353, 0.26886609196662903, -9.162344932556152, 8.136308670043945, -33.32099151611328, -78.0082778930664, 242.0606231689453, -0.099365234375, -0.072998046875, -0.5888671875, 
193, 3130217677, -0.9002108573913574, 0.18745166063308716, -0.12899276614189148, 0.3712734878063202, -0.3188558518886566, -7.515094757080078, 8.018895149230957, -13.371737480163574, -63.10906219482422, 222.3501739501953, -0.107421875, -0.058349609375, -0.59326171875, 
194, 3130226010, -0.905939519405365, 0.18649721145629883, -0.12806715071201324, 0.3578992187976837, -0.7563995122909546, -5.849231243133545, 7.955702304840088, 7.502906322479248, -51.7657585144043, 193.9702606201172, -0.114013671875, -0.048095703125, -0.598876953125, 
195, 3130234343, -0.9107992649078369, 0.18540339171886444, -0.12666943669319153, 0.3464471101760864, -1.4765827655792236, -3.7145042419433594, 7.891212463378906, 12.796107292175293, -50.4521369934082, 164.8036346435547, -0.11669921875, -0.03369140625, -0.60107421875, 
196, 3130242676, -0.9148815870285034, 0.18486914038658142, -0.12502197921276093, 0.3364301323890686, -1.544321894645691, -2.592634916305542, 8.10020637512207, 7.417544364929199, -51.28247833251953, 141.48922729492188, -0.12255859375, -0.028076171875, -0.611328125, 
197, 3130251009, -0.9182863235473633, 0.18466611206531525, -0.12369272112846375, 0.32764220237731934, -0.9486423134803772, -3.0453600883483887, 8.190366744995117, 2.243661880493164, -44.47880935668945, 123.15131378173828, -0.12744140625, -0.01904296875, -0.6142578125, 
198, 3130259342, -0.9213152527809143, 0.1845199316740036, -0.12216189503669739, 0.3196994364261627, -0.5878060460090637, -2.089543581008911, 8.933595657348633, 2.841754913330078, -44.536643981933594, 110.15416717529297, -0.132080078125, -0.0087890625, -0.6240234375, 
199, 3130267675, -0.9240367412567139, 0.18425361812114716, -0.12039700150489807, 0.3125891387462616, -1.0620754957199097, -1.5088306665420532, 10.09664249420166, 6.082494258880615, -44.30409240722656, 97.88484191894531, -0.136962890625, -0.002685546875, -0.629638671875, 
200, 3130276008, -0.9262105822563171, 0.18407203257083893, -0.11864930391311646, 0.30687886476516724, -0.815519392490387, -0.4541254937648773, 10.404364585876465, 5.791571617126465, -40.03664016723633, 77.62300872802734, -0.138916015625, 0.002685546875, -0.6318359375, 
201, 3130284341, -0.9278804063796997, 0.18410588800907135, -0.11716762185096741, 0.3023497760295868, -0.26302674412727356, 0.37030142545700073, 10.30289363861084, 2.6297218799591064, -33.70436477661133, 60.78882598876953, -0.14013671875, 0.01123046875, -0.635009765625, 
202, 3130292674, -0.9290979504585266, 0.18449176847934723, -0.11595091223716736, 0.29882434010505676, -0.18685579299926758, 0.5417671799659729, 10.262495994567871, -2.5447680950164795, -28.559520721435547, 46.189727783203125, -0.14501953125, 0.0166015625, -0.639404296875, 
203, 3130301007, -0.9299467206001282, 0.18503278493881226, -0.11496317386627197, 0.2962201237678528, -0.06630270928144455, 0.1419011354446411, 10.444558143615723, -4.9031219482421875, -23.299163818359375, 33.25221252441406, -0.148193359375, 0.01904296875, -0.639404296875, 
204, 3130309340, -0.9305837154388428, 0.185475692152977, -0.1140633076429367, 0.2942843735218048, -0.021280985325574875, -0.6205453872680664, 10.613425254821777, -3.5204875469207764, -19.786359786987305, 24.206396102905273, -0.150146484375, 0.02197265625, -0.63818359375, 
205, 3130317673, -0.9309979677200317, 0.18590547144412994, -0.1132437214255333, 0.2930160164833069, -0.13129329681396484, -1.0515162944793701, 10.329243659973145, -3.1877570152282715, -16.60390853881836, 15.000982284545898, -0.154052734375, 0.0224609375, -0.641357421875, 
206, 3130326006, -0.9311797618865967, 0.18655508756637573, -0.11266949772834778, 0.292246013879776, -0.04590436816215515, -2.0813722610473633, 9.719603538513184, -6.819215297698975, -12.763359069824219, 7.9571661949157715, -0.154541015625, 0.02392578125, -0.640380859375, 
207, 3130334339, -0.9312126040458679, 0.1874198466539383, -0.1126231923699379, 0.291605144739151, 0.2189100831747055, -3.558117628097534, 9.478522300720215, -11.880308151245117, -6.249350070953369, 6.73972225189209, -0.152099609375, 0.02294921875, -0.641845703125, 
208, 3130342672, -0.931168794631958, 0.18863177299499512, -0.11334154009819031, 0.29068419337272644, 0.03970533236861229, -4.342981815338135, 9.512697219848633, -20.02059555053711, 1.4904162883758545, 11.439194679260254, -0.15771484375, 0.029296875, -0.6396484375, 
209, 3130351005, -0.9310860633850098, 0.19001591205596924, -0.11465520411729813, 0.2895297408103943, -0.21627812087535858, -5.138315677642822, 9.134688377380371, -25.07590675354004, 7.941366195678711, 15.563270568847656, -0.154052734375, 0.029052734375, -0.638916015625, 
210, 3130359338, -0.930969774723053, 0.19129197299480438, -0.11617209762334824, 0.28845706582069397, -0.46249550580978394, -5.240756034851074, 8.608687400817871, -24.455097198486328, 11.181032180786133, 15.067610740661621, -0.15771484375, 0.031005859375, -0.63671875, 
211, 3130367671, -0.9308680891990662, 0.19218270480632782, -0.11748935282230377, 0.2876586616039276, -0.6118522882461548, -4.929355144500732, 8.348722457885742, -18.253238677978516, 10.914231300354004, 11.722565650939941, -0.1552734375, 0.034423828125, -0.6376953125, 
212, 3130376004, -0.9308913946151733, 0.19259637594223022, -0.11824001371860504, 0.28699833154678345, -0.7765821814537048, -4.6889777183532715, 8.439579963684082, -9.351822853088379, 5.647708892822266, 9.706258773803711, -0.15576171875, 0.034912109375, -0.638671875, 
213, 3130384337, -0.9310759902000427, 0.19236424565315247, -0.11846429854631424, 0.2864619791507721, -1.0396908521652222, -4.776187896728516, 8.655351638793945, 1.6272724866867065, 1.58877432346344, 8.428621292114258, -0.15234375, 0.037353515625, -0.6396484375, 
214, 3130392670, -0.9312944412231445, 0.19187785685062408, -0.11833115667104721, 0.28613314032554626, -1.1734154224395752, -4.143265724182129, 8.609185218811035, 6.711979866027832, -1.5563594102859497, 5.357243061065674, -0.15234375, 0.037841796875, -0.6396484375, 
215, 3130401003, -0.9314704537391663, 0.19145265221595764, -0.11795404553413391, 0.2860003709793091, -1.124605655670166, -3.5980939865112305, 8.670039176940918, 7.102622985839844, -4.271007537841797, 1.9547247886657715, -0.1513671875, 0.034423828125, -0.638916015625, 
216, 3130409336, -0.9315426349639893, 0.19118526577949524, -0.11751657724380493, 0.2861248552799225, -1.1397743225097656, -3.5270392894744873, 8.842179298400879, 5.455474376678467, -4.883213996887207, -2.184446334838867, -0.15234375, 0.033935546875, -0.639404296875, 
217, 3130417669, -0.9315069913864136, 0.19112102687358856, -0.11703892797231674, 0.2864789664745331, -1.096449375152588, -3.324201822280884, 8.843971252441406, 3.102088689804077, -5.356231212615967, -5.9649271965026855, -0.15283203125, 0.033447265625, -0.640869140625, 
218, 3130426002, -0.931347131729126, 0.1915004551410675, -0.11643588542938232, 0.28699108958244324, -1.2523761987686157, -2.836290121078491, 8.870779037475586, -2.1626741886138916, -8.157660484313965, -9.540009498596191, -0.1513671875, 0.032958984375, -0.638916015625, 
219, 3130434335, -0.931036114692688, 0.19229336082935333, -0.11591129004955292, 0.28768080472946167, -0.9753440618515015, -3.0775701999664307, 9.07800006866455, -7.882000923156738, -8.013811111450195, -12.849267959594727, -0.15283203125, 0.033935546875, -0.638427734375, 
220, 3130442668, -0.930621862411499, 0.19331589341163635, -0.11566655337810516, 0.288433313369751, -0.6342870593070984, -3.5012309551239014, 9.268277168273926, -12.102280616760254, -5.071479320526123, -13.704681396484375, -0.15625, 0.034423828125, -0.6376953125, 
221, 3130451001, -0.9302073121070862, 0.194253072142601, -0.11576684564352036, 0.2890998125076294, -0.5472577810287476, -4.2412109375, 9.454560279846191, -12.521199226379395, -0.47966498136520386, -11.536280632019043, -0.15283203125, 0.033447265625, -0.638427734375, 
222, 3130459334, -0.9298748970031738, 0.19485628604888916, -0.116206593811512, 0.2895868718624115, -0.5767174959182739, -4.988266944885254, 9.483972549438477, -9.658782958984375, 4.5149712562561035, -7.490717887878418, -0.15185546875, 0.032470703125, -0.637939453125, 
223, 3130467667, -0.9296406507492065, 0.19501060247421265, -0.11692847311496735, 0.2899441123008728, -0.7782964706420898, -5.288422584533691, 9.177898406982422, -4.991484642028809, 9.472068786621094, -3.9516491889953613, -0.15234375, 0.031982421875, -0.636962890625, 
224, 3130476000, -0.9294770956039429, 0.19478534162044525, -0.11781679093837738, 0.29026031494140625, -0.9616692662239075, -5.208729267120361, 8.710273742675781, -0.6750504374504089, 12.823050498962402, -2.1043503284454346, -0.1533203125, 0.031005859375, -0.635498046875, 
225, 3130484333, -0.9293581247329712, 0.1943705528974533, -0.11862275004386902, 0.2905905246734619, -1.2040717601776123, -4.800490856170654, 8.359195709228516, 2.2182698249816895, 12.560145378112793, -2.000612497329712, -0.1494140625, 0.034423828125, -0.635986328125, 
226, 3130492666, -0.9292558431625366, 0.19395582377910614, -0.11917666345834732, 0.29096803069114685, -1.3408437967300415, -4.326574802398682, 8.263066291809082, 3.3462698459625244, 9.369585990905762, -3.231351137161255, -0.146728515625, 0.033447265625, -0.63818359375, 
227, 3130500999, -0.9291540384292603, 0.19365735352039337, -0.1193680688738823, 0.29141274094581604, -1.3892278671264648, -3.9762182235717773, 8.413651466369629, 3.4255969524383545, 4.516481876373291, -5.227725028991699, -0.14990234375, 0.033935546875, -0.639404296875, 
228, 3130509332, -0.9290125966072083, 0.1935989260673523, -0.11925079673528671, 0.2919505536556244, -1.3396931886672974, -3.5144810676574707, 8.645319938659668, 1.6392600536346436, -0.14227427542209625, -7.808001518249512, -0.149169921875, 0.032470703125, -0.638427734375, 
229, 3130517665, -0.9287956953048706, 0.19375038146972656, -0.11897870153188705, 0.29265013337135315, -1.1517021656036377, -3.4351398944854736, 8.87575626373291, -0.3557945787906647, -2.3460206985473633, -10.919004440307617, -0.149169921875, 0.031005859375, -0.639892578125, 
230, 3130525998, -0.9285060167312622, 0.1940068006515503, -0.11868581920862198, 0.2935173213481903, -1.0421767234802246, -3.4676637649536133, 9.026330947875977, -1.5309504270553589, -2.5293424129486084, -13.595770835876465, -0.145751953125, 0.031494140625, -0.63671875, 
231, 3130534331, -0.9281620383262634, 0.19426624476909637, -0.11842342466115952, 0.29453763365745544, -0.8987694978713989, -3.7355611324310303, 9.103178024291992, -1.592808723449707, -1.5952420234680176, -15.677234649658203, -0.146484375, 0.03271484375, -0.63525390625, 
232, 3130542664, -0.9278194308280945, 0.19435544312000275, -0.11824280023574829, 0.2956288754940033, -0.8329904675483704, -4.1670427322387695, 9.07175350189209, 0.372123658657074, 0.2657220959663391, -16.09699821472168, -0.15087890625, 0.030029296875, -0.635009765625, 
233, 3130550997, -0.9275038838386536, 0.194198876619339, -0.11818616092205048, 0.29674267768859863, -0.7804620862007141, -4.508230209350586, 9.04272747039795, 3.1066999435424805, 2.9241981506347656, -15.528773307800293, -0.149169921875, 0.027099609375, -0.63818359375, 
234, 3130559330, -0.9272218942642212, 0.19369812309741974, -0.11833316087722778, 0.29789039492607117, -0.786142885684967, -4.780536651611328, 9.006073951721191, 6.816946983337402, 6.899450778961182, -14.737319946289062, -0.150634765625, 0.027587890625, -0.634765625, 
235, 3130567663, -0.9269546270370483, 0.19285108149051666, -0.1186966747045517, 0.2991240322589874, -0.8348290920257568, -4.851561069488525, 8.972901344299316, 10.520691871643066, 11.346930503845215, -14.615143775939941, -0.150146484375, 0.0244140625, -0.6376953125, 
236, 3130575996, -0.9266858100891113, 0.1918308287858963, -0.11914726346731186, 0.3004309833049774, -0.8821389675140381, -4.4340314865112305, 8.817838668823242, 12.488713264465332, 13.303503036499023, -15.060808181762695, -0.148193359375, 0.0234375, -0.638671875, 
237, 3130584329, -0.9263988137245178, 0.19103097915649414, -0.11951780319213867, 0.3016762435436249, -0.9899286031723022, -3.807356595993042, 8.771462440490723, 9.859280586242676, 11.304051399230957, -14.905913352966309, -0.146240234375, 0.021484375, -0.637451171875, 
238, 3130592662, -0.926111102104187, 0.19050699472427368, -0.1197626143693924, 0.30279189348220825, -0.9640732407569885, -3.644282579421997, 8.706302642822266, 6.654552936553955, 8.155367851257324, -14.055338859558105, -0.147216796875, 0.0205078125, -0.639892578125, 
239, 3130600995, -0.925774335861206, 0.1901809424161911, -0.11993744224309921, 0.3039550483226776, -1.0119465589523315, -3.8377768993377686, 8.785710334777832, 4.370711803436279, 6.7083964347839355, -15.359850883483887, -0.144775390625, 0.01953125, -0.637451171875, 
240, 3130609328, -0.9253669381141663, 0.1898406744003296, -0.1201310008764267, 0.3053288757801056, -0.8124333620071411, -3.8589985370635986, 8.896925926208496, 4.642171859741211, 7.6083269119262695, -18.279386520385742, -0.1484375, 0.017578125, -0.638916015625, 
241, 3130617661, -0.9249146580696106, 0.1892479658126831, -0.12036821991205215, 0.30696970224380493, -0.7580555081367493, -3.981396436691284, 9.036201477050781, 7.986138343811035, 10.061097145080566, -21.319774627685547, -0.14599609375, 0.0166015625, -0.637451171875, 
242, 3130625994, -0.9243791103363037, 0.18834105134010315, -0.12075930833816528, 0.30898040533065796, -0.7970931529998779, -3.765709400177002, 9.229084968566895, 11.735711097717285, 14.379819869995117, -25.471473693847656, -0.1416015625, 0.0146484375, -0.6376953125, 
243, 3130634327, -0.9237071871757507, 0.18716152012348175, -0.12148477137088776, 0.31141266226768494, -0.6002663373947144, -3.7532758712768555, 9.364699363708496, 14.116947174072266, 21.1717586517334, -30.0722713470459, -0.14208984375, 0.01318359375, -0.63916015625, 
244, 3130642660, -0.9229077696800232, 0.1856585294008255, -0.12270639836788177, 0.3141913414001465, -0.3331921100616455, -3.796093702316284, 9.53311538696289, 16.363174438476562, 29.89873695373535, -33.219383239746094, -0.1396484375, 0.010009765625, -0.641845703125, 
245, 3130650993, -0.9220016598701477, 0.18384365737438202, -0.12433701753616333, 0.3172623813152313, -0.5034379363059998, -3.701263189315796, 9.68846607208252, 18.760656356811523, 37.43302536010742, -35.80450439453125, -0.137939453125, 0.007568359375, -0.643310546875, 
246, 3130659326, -0.920966386795044, 0.18207310140132904, -0.12623955309391022, 0.32052236795425415, -0.6798224449157715, -3.4806950092315674, 9.623167037963867, 17.024168014526367, 41.317012786865234, -38.16620635986328, -0.133056640625, 0.003173828125, -0.636474609375, 
247, 3130667659, -0.9198463559150696, 0.1806468367576599, -0.12823225557804108, 0.32373854517936707, -0.769279956817627, -3.1198108196258545, 9.210321426391602, 11.957938194274902, 41.04875183105469, -38.343536376953125, -0.130126953125, 0.001220703125, -0.636962890625, 
248, 3130675992, -0.9186561703681946, 0.1799180805683136, -0.13011698424816132, 0.32675793766975403, -1.1182631254196167, -2.9767985343933105, 8.769988059997559, 3.1127259731292725, 36.143333435058594, -37.6788215637207, -0.123046875, -0.000732421875, -0.641845703125, 
249, 3130684325, -0.9174608588218689, 0.1800088882446289, -0.1316068023443222, 0.3294580578804016, -1.380976915359497, -3.109358072280884, 8.291439056396484, -6.0734148025512695, 26.760875701904297, -36.09716796875, -0.1240234375, -0.004638671875, -0.642333984375, 
250, 3130692658, -0.9161942601203918, 0.1808018535375595, -0.13256746530532837, 0.3321526050567627, -1.7081807851791382, -3.645225763320923, 7.985844612121582, -12.69729232788086, 16.94797134399414, -38.94647216796875, -0.1201171875, -0.008544921875, -0.6396484375, 
251, 3130700991, -0.9148642420768738, 0.18184952437877655, -0.13295716047286987, 0.33507806062698364, -1.7216665744781494, -4.330124855041504, 8.002285957336426, -13.062246322631836, 9.349034309387207, -44.014854431152344, -0.11669921875, -0.006591796875, -0.63916015625, 
252, 3130709324, -0.9135376811027527, 0.1826625019311905, -0.13279390335083008, 0.3383045196533203, -1.6782957315444946, -4.805935382843018, 8.195419311523438, -6.9762959480285645, 4.152102470397949, -48.752384185791016, -0.118408203125, -0.010498046875, -0.63916015625, 
253, 3130717657, -0.9122007489204407, 0.18323546648025513, -0.132129967212677, 0.34184393286705017, -1.7622735500335693, -4.611362934112549, 8.533954620361328, -1.1101109981536865, -0.15123963356018066, -53.539180755615234, -0.120849609375, -0.015625, -0.63623046875, 
254, 3130725990, -0.9107970595359802, 0.183540940284729, -0.1311948001384735, 0.3457602858543396, -1.5235896110534668, -4.326317310333252, 8.840012550354004, 4.0616865158081055, -1.2897957563400269, -58.79169464111328, -0.118408203125, -0.016845703125, -0.631591796875, 
255, 3130734323, -0.9093433618545532, 0.1832253336906433, -0.13043183088302612, 0.35001614689826965, -0.7852334380149841, -4.737559795379639, 9.132979393005371, 11.484283447265625, 4.827915191650391, -61.713314056396484, -0.118896484375, -0.020263671875, -0.630615234375, 
256, 3130742656, -0.9075744152069092, 0.18301859498023987, -0.1299162358045578, 0.3548736870288849, -0.7619059085845947, -4.029805660247803, 9.278080940246582, 9.239762306213379, 9.417909622192383, -70.3398666381836, -0.121337890625, -0.02099609375, -0.633544921875, 
257, 3130750989, -0.905447781085968, 0.18277882039546967, -0.12949395179748535, 0.36053866147994995, -0.3376837372779846, -2.5338168144226074, 9.195714950561523, 9.715641021728516, 13.478139877319336, -81.8565673828125, -0.117919921875, -0.02880859375, -0.6337890625, 
258, 3130759322, -0.9028632044792175, 0.18276792764663696, -0.1291450709104538, 0.36709168553352356, -0.7842628955841064, -2.2726666927337646, 9.427810668945312, 6.956013202667236, 16.242660522460938, -95.42153930664062, -0.12060546875, -0.032470703125, -0.63232421875, 
259, 3130767655, -0.8996739983558655, 0.1830044686794281, -0.12882807850837708, 0.37483343482017517, -1.318094253540039, -1.7948496341705322, 9.601922035217285, 4.280240535736084, 19.51320457458496, -113.57841491699219, -0.115234375, -0.036376953125, -0.631591796875, 
260, 3130775988, -0.8956197500228882, 0.1836177259683609, -0.12841275334358215, 0.3842664957046509, -0.7354523539543152, -1.384936809539795, 9.299481391906738, 0.9805815815925598, 22.081066131591797, -139.89053344726562, -0.115234375, -0.047607421875, -0.626953125, 
261, 3130784321, -0.8908180594444275, 0.18456123769283295, -0.12752148509025574, 0.3951193392276764, -0.6943526268005371, -1.3262388706207275, 8.816296577453613, -0.003650115104392171, 19.441307067871094, -163.1036376953125, -0.111572265625, -0.050048828125, -0.625732421875, 
262, 3130792654, -0.8855693936347961, 0.18480603396892548, -0.12577874958515167, 0.40717813372612, -0.8762753009796143, -3.2307443618774414, 8.660877227783203, 14.214398384094238, 16.588932037353516, -181.25254821777344, -0.110595703125, -0.0595703125, -0.6220703125, 
263, 3130800987, -0.879646897315979, 0.1835632175207138, -0.12294675409793854, 0.4212014377117157, -0.5159244537353516, -4.206408500671387, 8.895337104797363, 40.05476760864258, 17.869693756103516, -209.1367645263672, -0.1083984375, -0.072021484375, -0.622314453125, 
264, 3130809320, -0.873013973236084, 0.18120881915092468, -0.11902409791946411, 0.43685704469680786, -0.1736074835062027, -3.583183765411377, 8.781314849853516, 60.84838104248047, 16.379100799560547, -233.88406372070312, -0.103759765625, -0.085693359375, -0.616943359375, 
265, 3130817653, -0.8656655550003052, 0.17866754531860352, -0.11411307007074356, 0.45351970195770264, -0.17164571583271027, -2.553419589996338, 8.897822380065918, 68.82795715332031, 9.370509147644043, -252.42510986328125, -0.10107421875, -0.100830078125, -0.614990234375, 
266, 3130825986, -0.8571946620941162, 0.1766587793827057, -0.10877342522144318, 0.4713574945926666, 0.16549775004386902, -2.1626651287078857, 8.963167190551758, 64.316162109375, 5.5410566329956055, -275.3152770996094, -0.098388671875, -0.115478515625, -0.609130859375, 
267, 3130834319, -0.847545862197876, 0.17593462765216827, -0.10349054634571075, 0.48990145325660706, 0.4195691645145416, -1.8249999284744263, 9.559391975402832, 46.92061996459961, 1.4129652976989746, -293.0557861328125, -0.09228515625, -0.13037109375, -0.604736328125, 
268, 3130842652, -0.8371604084968567, 0.17688390612602234, -0.09974269568920135, 0.5078649520874023, 0.730911910533905, -1.6199049949645996, 10.880278587341309, 14.543383598327637, 7.622722625732422, -289.925537109375, -0.085693359375, -0.147705078125, -0.60205078125, 
269, 3130850985, -0.8267316222190857, 0.1776420772075653, -0.09814288467168808, 0.5247159600257874, 1.593552827835083, -6.04375696182251, 11.343863487243652, 0.014139991253614426, 31.08707618713379, -271.9251403808594, -0.074951171875, -0.1552734375, -0.592529296875, 
270, 3130859318, -0.8157517313957214, 0.17769502103328705, -0.09879439324140549, 0.5414925217628479, 2.9931490421295166, -7.426736831665039, 11.13160228729248, -9.565650939941406, 62.288089752197266, -268.60870361328125, -0.06640625, -0.162109375, -0.589111328125, 
271, 3130867651, -0.804374635219574, 0.17545905709266663, -0.10013362765312195, 0.5587213039398193, 3.71933913230896, -6.612383842468262, 9.845612525939941, 10.546525955200195, 88.74381256103516, -271.8460388183594, -0.052490234375, -0.17431640625, -0.588134765625, 
272, 3130875984, -0.7925852537155151, 0.1700715571641922, -0.1002134308218956, 0.5769248008728027, 2.6696321964263916, -5.918320655822754, 9.418500900268555, 55.52213668823242, 101.9000473022461, -284.5032958984375, -0.037109375, -0.17822265625, -0.58740234375, 
273, 3130884317, -0.7801126837730408, 0.16359704732894897, -0.09920009225606918, 0.5956680178642273, 1.3443559408187866, -3.639289617538452, 9.267868041992188, 75.10881805419922, 100.8659896850586, -296.8609313964844, -0.024169921875, -0.1875, -0.582763671875, 
274, 3130892650, -0.7672252058982849, 0.15817409753799438, -0.09794387966394424, 0.6138030886650085, 0.2603697180747986, -0.751344621181488, 9.229792594909668, 64.13555908203125, 88.79016876220703, -295.72052001953125, -0.008544921875, -0.19873046875, -0.581787109375, 
275, 3130900983, -0.7536418437957764, 0.1554953157901764, -0.09767429530620575, 0.6311147212982178, 0.4246141016483307, 0.7871861457824707, 9.560935020446777, 24.134605407714844, 75.2298583984375, -294.4538879394531, 0.010009765625, -0.201416015625, -0.577392578125, 
276, 3130909316, -0.7399860620498657, 0.1550114005804062, -0.09907574951648712, 0.6469752788543701, 0.9664534330368042, 0.04881758242845535, 9.387163162231445, -15.12763500213623, 70.44493103027344, -279.4163818359375, 0.0244140625, -0.20556640625, -0.57568359375, 
277, 3130917649, -0.7267537713050842, 0.1550208032131195, -0.10045816749334335, 0.6615937352180481, 0.6433833837509155, -3.8536508083343506, 8.871877670288086, -20.88481330871582, 62.67658233642578, -263.7218933105469, 0.038818359375, -0.207763671875, -0.571044921875, 
278, 3130925982, -0.7144525647163391, 0.154679536819458, -0.10007630288600922, 0.6749941110610962, -1.0887202024459839, -5.663491249084473, 8.017855644226074, -0.9093170762062073, 44.309669494628906, -246.347900390625, 0.053955078125, -0.206787109375, -0.563232421875, 
279, 3130934315, -0.703212559223175, 0.154804989695549, -0.0975160151720047, 0.6870363354682922, -1.2614123821258545, -5.915543556213379, 7.492935657501221, 15.004180908203125, 14.252700805664062, -228.429443359375, 0.065185546875, -0.2060546875, -0.56005859375, 
280, 3130942648, -0.6931059956550598, 0.15560948848724365, -0.09387478232383728, 0.697551429271698, -0.1388668566942215, -4.767625331878662, 7.662136554718018, 19.12702751159668, -7.416792392730713, -206.15919494628906, 0.0771484375, -0.20947265625, -0.55419921875, 
281, 3130950981, -0.6852273344993591, 0.1571851372718811, -0.09006642550230026, 0.7054396867752075, 0.42816653847694397, -8.46854305267334, 7.672987461090088, 14.654618263244629, -24.887989044189453, -161.1037139892578, 0.08251953125, -0.213134765625, -0.546875, 
282, 3130959314, -0.6788740158081055, 0.1591259092092514, -0.08674481511116028, 0.71153724193573, 2.4303536415100098, -8.784753799438477, 7.754587173461914, 7.670941352844238, -29.620437622070312, -128.82846069335938, 0.08642578125, -0.214111328125, -0.545166015625, 
283, 3130967647, -0.6741101145744324, 0.16042399406433105, -0.08330752700567245, 0.716170608997345, 3.651359796524048, -8.749716758728027, 7.807717800140381, 16.46232795715332, -29.496707916259766, -99.09192657470703, 0.0888671875, -0.21435546875, -0.542236328125, 
284, 3130975980, -0.6701959371566772, 0.16125936806201935, -0.07946638762950897, 0.7200824618339539, 2.8507728576660156, -7.8614654541015625, 8.440064430236816, 25.849393844604492, -31.261329650878906, -84.39741516113281, 0.087890625, -0.217529296875, -0.540771484375, 
285, 3130984313, -0.6669297218322754, 0.1616966426372528, -0.07582282274961472, 0.7234022617340088, 2.4938085079193115, -5.289484024047852, 9.048691749572754, 28.302013397216797, -27.49793815612793, -71.64952850341797, 0.087890625, -0.21826171875, -0.53759765625, 
286, 3130992646, -0.6642265915870667, 0.16211873292922974, -0.07303819805383682, 0.7260764241218567, 2.0101451873779297, -3.695868968963623, 9.279584884643555, 20.52527618408203, -21.5155086517334, -58.201168060302734, 0.08740234375, -0.223388671875, -0.54052734375, 
287, 3131000979, -0.6618016362190247, 0.162592813372612, -0.07080317288637161, 0.7284022569656372, 1.3495184183120728, -1.999930739402771, 9.784174919128418, 14.78962230682373, -18.04244613647461, -51.06617736816406, 0.0849609375, -0.225341796875, -0.53857421875, 
288, 3131009312, -0.6594631671905518, 0.16328440606594086, -0.06927166134119034, 0.7305126786231995, 0.7472460269927979, -1.2871959209442139, 10.1804780960083, 5.790724754333496, -14.412379264831543, -46.88130569458008, 0.08837890625, -0.226806640625, -0.53955078125, 
289, 3131017645, -0.6572252511978149, 0.1640840768814087, -0.0685725063085556, 0.7324137687683105, 0.9515966773033142, -1.381799578666687, 10.066703796386719, -3.5775845050811768, -8.491504669189453, -42.20427703857422, 0.087890625, -0.226318359375, -0.53515625, 
290, 3131025978, -0.655269980430603, 0.16504383087158203, -0.06859966367483139, 0.7339459657669067, 1.3650003671646118, -2.0510387420654297, 9.674162864685059, -11.996736526489258, -4.6620402336120605, -34.539676666259766, 0.0849609375, -0.227294921875, -0.53955078125, 
291, 3131034311, -0.6536391973495483, 0.16596674919128418, -0.06902264058589935, 0.7351512312889099, 1.6930568218231201, -2.926736831665039, 9.383869171142578, -15.292442321777344, -1.749133586883545, -27.37745475769043, 0.0869140625, -0.225830078125, -0.5390625, 
292, 3131042644, -0.6522150635719299, 0.1668032854795456, -0.06942319869995117, 0.7361883521080017, 1.610918402671814, -3.476379871368408, 9.316314697265625, -13.916592597961426, -1.6797696352005005, -23.753358840942383, 0.08544921875, -0.222900390625, -0.53662109375, 
293, 3131050977, -0.6509702801704407, 0.16757908463478088, -0.06974057853221893, 0.7370835542678833, 1.5340806245803833, -3.575845956802368, 8.86800479888916, -12.313983917236328, -2.2865965366363525, -20.794065475463867, 0.087890625, -0.2197265625, -0.53564453125, 
294, 3131059310, -0.6502418518066406, 0.16823682188987732, -0.06991036981344223, 0.7375603914260864, 2.184748649597168, -4.595903396606445, 8.447349548339844, -8.9122314453125, -3.8911232948303223, -12.045083045959473, 0.08837890625, -0.223876953125, -0.537109375, 
295, 3131067643, -0.6501633524894714, 0.1682695895433426, -0.07023051381111145, 0.7375915050506592, 2.647130012512207, -5.09736442565918, 9.242015838623047, -3.826984405517578, 2.158025026321411, -0.5137575268745422, 0.08837890625, -0.22021484375, -0.53759765625, 
296, 3131075976, -0.6501960158348083, 0.168090358376503, -0.07092857360839844, 0.7375368475914001, 2.1101577281951904, -2.945443630218506, 9.272507667541504, -5.538349151611328, 7.3607635498046875, 2.45420241355896, 0.08740234375, -0.220703125, -0.537109375, 
297, 3131084309, -0.6502678990364075, 0.16793134808540344, -0.07188958674669266, 0.7374167442321777, 1.1486294269561768, -2.715437650680542, 9.520995140075684, -8.40705394744873, 9.341960906982422, 4.032308578491211, 0.08837890625, -0.221435546875, -0.537109375, 
298, 3131092642, -0.650418221950531, 0.16799551248550415, -0.07332639396190643, 0.7371281385421753, 1.3292386531829834, -2.1663763523101807, 9.491787910461426, -15.165681838989258, 10.840217590332031, 7.205222129821777, 0.0859375, -0.221923828125, -0.538330078125, 
299, 3131100975, -0.6504912972450256, 0.16830651462078094, -0.07483448833227158, 0.7368410229682922, 1.2062901258468628, -2.5590715408325195, 9.08614444732666, -18.324817657470703, 9.081927299499512, 6.330368995666504, 0.08837890625, -0.21875, -0.53955078125, 
300, 3131109308, -0.650632917881012, 0.16881442070007324, -0.07625779509544373, 0.7364537119865417, 1.106829047203064, -3.395752191543579, 9.046833992004395, -19.118305206298828, 6.0012125968933105, 7.518421173095703, 0.08837890625, -0.2177734375, -0.53857421875, 
301, 3131117641, -0.6508118510246277, 0.16931697726249695, -0.07757419347763062, 0.7360426187515259, 1.446043610572815, -3.483936309814453, 9.030926704406738, -17.98056983947754, 5.029126167297363, 7.869616985321045, 0.08837890625, -0.2138671875, -0.539794921875, 
302, 3131125974, -0.6509292125701904, 0.16968080401420593, -0.07866653054952621, 0.73573899269104, 1.387773871421814, -3.458461284637451, 8.938483238220215, -14.445420265197754, 4.7190141677856445, 5.90608024597168, 0.08984375, -0.21240234375, -0.541748046875, 
303, 3131134307, -0.6510099768638611, 0.16999687254428864, -0.07939980179071426, 0.735515832901001, 1.0766732692718506, -3.5938096046447754, 8.895530700683594, -10.43630313873291, 2.239811420440674, 4.034114360809326, 0.089599609375, -0.208984375, -0.540283203125, 
304, 3131142640, -0.65107262134552, 0.1703578233718872, -0.07972485572099686, 0.7353416681289673, 0.8766502141952515, -3.440699338912964, 9.003520965576172, -6.645228862762451, -1.758596658706665, 2.4048824310302734, 0.0888671875, -0.2099609375, -0.542236328125, 
305, 3131150973, -0.6511613130569458, 0.17068544030189514, -0.07993701845407486, 0.735164225101471, 1.1900324821472168, -3.3420135974884033, 9.074556350708008, -5.199357509613037, -2.4473891258239746, 2.4730162620544434, 0.09130859375, -0.20849609375, -0.541748046875, 
306, 3131159306, -0.6512823104858398, 0.170896977186203, -0.08010189235210419, 0.7349898219108582, 1.3019386529922485, -3.567551612854004, 9.077099800109863, -3.550478935241699, -1.7464170455932617, 2.7859838008880615, 0.089111328125, -0.20849609375, -0.543212890625, 
307, 3131167639, -0.6514284610748291, 0.1709393411874771, -0.08021774142980576, 0.7348378896713257, 1.546195387840271, -3.50323224067688, 9.095911026000977, -1.5084351301193237, -0.43038320541381836, 2.9129533767700195, 0.08935546875, -0.2099609375, -0.541259765625, 
308, 3131175972, -0.6515495181083679, 0.17091035842895508, -0.08041221648454666, 0.7347159385681152, 1.4475678205490112, -3.255498170852661, 9.14090633392334, -1.6375309228897095, 1.0733901262283325, 2.6519956588745117, 0.091796875, -0.21142578125, -0.54052734375, 
309, 3131184305, -0.6516760587692261, 0.1709367036819458, -0.08071247488260269, 0.7345645427703857, 1.20426607131958, -3.2630693912506104, 9.212669372558594, -3.273179292678833, 1.4071948528289795, 3.1622567176818848, 0.090087890625, -0.2099609375, -0.539306640625, 
310, 3131192638, -0.6517364978790283, 0.17103539407253265, -0.08110097050666809, 0.734445333480835, 1.1809295415878296, -3.134488105773926, 9.317687034606934, -4.8797807693481445, 1.5950753688812256, 2.328385353088379, 0.091796875, -0.21044921875, -0.5419921875, 
311, 3131200971, -0.651730477809906, 0.17126399278640747, -0.08154349029064178, 0.7343483567237854, 1.2437257766723633, -3.333181142807007, 9.289438247680664, -6.774388790130615, 0.9139670729637146, 1.4436438083648682, 0.09033203125, -0.2099609375, -0.540771484375, 
312, 3131209304, -0.6516592502593994, 0.17151255905628204, -0.08204565197229385, 0.7342976331710815, 1.398683786392212, -3.396270751953125, 9.158764839172363, -7.605956077575684, 1.4088600873947144, 0.4842371940612793, 0.091064453125, -0.207275390625, -0.541259765625, 
313, 3131217637, -0.6515405774116516, 0.17174972593784332, -0.0824931338429451, 0.7342973351478577, 1.3534595966339111, -3.4459500312805176, 9.019512176513672, -7.056607246398926, 1.224898338317871, -0.5585312843322754, 0.091552734375, -0.206787109375, -0.541748046875, 
314, 3131225970, -0.6514291167259216, 0.17196476459503174, -0.08277025818824768, 0.7343147397041321, 1.3292945623397827, -3.743377685546875, 9.030402183532715, -5.051164627075195, -0.06235784664750099, -1.0239930152893066, 0.09228515625, -0.208984375, -0.543212890625, 
315, 3131234303, -0.6513260006904602, 0.1720808446407318, -0.08296022564172745, 0.7343575358390808, 1.3444823026657104, -3.7649567127227783, 9.165644645690918, -3.2859349250793457, 0.22376595437526703, -1.2575691938400269, 0.092041015625, -0.207275390625, -0.541259765625, 
316, 3131242636, -0.6512624621391296, 0.17207922041416168, -0.08313444256782532, 0.7343945503234863, 1.3583967685699463, -3.741781711578369, 9.114548683166504, -1.9352452754974365, 1.195057988166809, -0.7129082679748535, 0.092529296875, -0.207763671875, -0.540283203125, 
317, 3131250969, -0.6512206792831421, 0.1719980388879776, -0.08325503021478653, 0.7344369292259216, 1.2332392930984497, -3.440659523010254, 9.130376815795898, -0.6700555682182312, 1.5250970125198364, -0.5740277767181396, 0.089599609375, -0.205322265625, -0.541259765625, 
318, 3131259302, -0.651195764541626, 0.17190752923488617, -0.0833578035235405, 0.7344686985015869, 1.2185155153274536, -3.3394832611083984, 9.174251556396484, -0.3338302671909332, 1.3957066535949707, -0.34338441491127014, 0.091064453125, -0.204833984375, -0.540771484375, 
319, 3131267635, -0.6511303186416626, 0.17185062170028687, -0.08349303901195526, 0.7345247268676758, 1.277445673942566, -3.4355759620666504, 9.228333473205566, -1.0760667324066162, 1.46766996383667, -0.926991879940033, 0.090576171875, -0.204345703125, -0.537841796875, 
320, 3131275968, -0.6510902047157288, 0.17187143862247467, -0.08365437388420105, 0.7345370054244995, 1.1772974729537964, -3.521080493927002, 9.118227005004883, -1.9795576333999634, 0.7676073312759399, -0.31191733479499817, 0.0927734375, -0.209716796875, -0.54052734375, 
321, 3131284301, -0.6511296033859253, 0.17196808755397797, -0.08380446583032608, 0.7344622015953064, 1.1708927154541016, -3.544926166534424, 9.076394081115723, -2.5052127838134766, -0.3801792860031128, 1.158941626548767, 0.091552734375, -0.206787109375, -0.541748046875, 
322, 3131292634, -0.6512558460235596, 0.17214874923229218, -0.0839274525642395, 0.7342939376831055, 1.2092212438583374, -3.551948070526123, 9.083725929260254, -2.8371481895446777, -1.8081730604171753, 2.711061954498291, 0.089599609375, -0.207275390625, -0.540771484375, 
323, 3131300967, -0.6514431834220886, 0.1724110096693039, -0.0840260237455368, 0.7340549826622009, 1.2185081243515015, -3.4822607040405273, 9.132098197937012, -3.304403066635132, -3.0750787258148193, 3.8115265369415283, 0.092041015625, -0.204345703125, -0.540771484375, 
324, 3131309300, -0.6516673564910889, 0.17271065711975098, -0.08412045985460281, 0.733774721622467, 1.2898916006088257, -3.4356110095977783, 9.16661262512207, -3.512057304382324, -3.6438167095184326, 4.495349407196045, 0.092529296875, -0.205810546875, -0.539306640625, 
325, 3131317633, -0.6519365906715393, 0.17301909625530243, -0.08420369774103165, 0.7334531545639038, 1.2937753200531006, -3.502567768096924, 9.111530303955078, -3.465362787246704, -3.9700918197631836, 5.287879467010498, 0.087646484375, -0.204345703125, -0.5380859375, 
326, 3131325966, -0.6522864699363708, 0.17325565218925476, -0.08420391380786896, 0.7330862283706665, 1.280685305595398, -3.6132547855377197, 9.095369338989258, -1.7981836795806885, -4.203873634338379, 6.391598224639893, 0.090087890625, -0.202392578125, -0.540771484375, 
327, 3131334299, -0.6527938842773438, 0.17346391081809998, -0.08409757167100906, 0.732597291469574, 1.261366844177246, -3.621164321899414, 8.989751815795898, -0.28051432967185974, -5.333614349365234, 8.853510856628418, 0.090087890625, -0.205810546875, -0.539306640625, 
328, 3131342632, -0.6535486578941345, 0.17365828156471252, -0.084044449031353, 0.7318840622901917, 1.1511248350143433, -3.411405086517334, 9.044865608215332, -0.31737321615219116, -5.551258087158203, 13.501750946044922, 0.086669921875, -0.202880859375, -0.54052734375, 
329, 3131350965, -0.6541467905044556, 0.17374494671821594, -0.08410774916410446, 0.7313217520713806, 1.7904800176620483, -3.246685743331909, 9.116129875183105, -0.763291597366333, -2.8658876419067383, 10.973139762878418, 0.087646484375, -0.20751953125, -0.540771484375, 
330, 3131359298, -0.6545574069023132, 0.17370669543743134, -0.08415000140666962, 0.7309584617614746, 1.6867620944976807, -3.4268147945404053, 9.162747383117676, 0.39792993664741516, -1.1201106309890747, 7.38869571685791, 0.088134765625, -0.20849609375, -0.541259765625, 
331, 3131367631, -0.6550511121749878, 0.17376206815242767, -0.08423039317131042, 0.730493426322937, 1.0732494592666626, -3.4431073665618896, 9.08250617980957, -0.7934010028839111, -2.042325735092163, 9.12324047088623, 0.085693359375, -0.207275390625, -0.5380859375, 
332, 3131375964, -0.6557604074478149, 0.17378880083560944, -0.08447802066802979, 0.7298218011856079, 1.2537137269973755, -3.473442792892456, 9.04003620147705, -1.8936866521835327, -1.0062811374664307, 13.581963539123535, 0.088134765625, -0.202880859375, -0.54248046875, 
333, 3131384297, -0.6565942764282227, 0.17384342849254608, -0.08485482633113861, 0.729015052318573, 1.360450029373169, -3.6189494132995605, 9.117400169372559, -3.345745086669922, -0.5768967866897583, 16.329797744750977, 0.086181640625, -0.202880859375, -0.541015625, 
334, 3131392630, -0.6574701070785522, 0.1736343950033188, -0.08520030230283737, 0.7282348275184631, 1.7404181957244873, -3.894310235977173, 9.061878204345703, -0.47420915961265564, 1.7857221364974976, 16.740108489990234, 0.084716796875, -0.205810546875, -0.53857421875, 
335, 3131400963, -0.6586877107620239, 0.1734222024679184, -0.08574572205543518, 0.727120041847229, 1.286110281944275, -4.072835922241211, 8.951759338378906, -2.0678768157958984, 2.4412169456481934, 23.670433044433594, 0.087646484375, -0.202880859375, -0.5419921875, 
336, 3131409296, -0.6603957414627075, 0.17317184805870056, -0.08633739501237869, 0.7255589962005615, 1.149442195892334, -4.293408393859863, 8.781355857849121, -1.4972429275512695, 1.5833195447921753, 32.76954650878906, 0.086669921875, -0.202880859375, -0.5419921875, 
337, 3131417629, -0.6626318097114563, 0.1729985773563385, -0.08679310977458954, 0.7235041856765747, 1.2091675996780396, -4.367593765258789, 8.699033737182617, -0.21015232801437378, -2.209115982055664, 42.11117172241211, 0.083740234375, -0.20654296875, -0.53955078125, 
338, 3131425962, -0.6655610203742981, 0.17285743355751038, -0.08708229660987854, 0.7208095192909241, 1.1575263738632202, -4.661025047302246, 8.893769264221191, 2.078856945037842, -6.4087114334106445, 54.399837493896484, 0.084228515625, -0.202392578125, -0.541015625, 
339, 3131434295, -0.6690776348114014, 0.17263410985469818, -0.08732493221759796, 0.7175707221031189, 1.2908563613891602, -4.354588985443115, 9.010452270507812, 4.004057884216309, -8.004311561584473, 65.19269561767578, 0.081787109375, -0.20654296875, -0.545654296875, 
340, 3131442628, -0.6731031537055969, 0.172210231423378, -0.08755450695753098, 0.7138703465461731, 1.4689644575119019, -4.212458610534668, 9.123607635498047, 6.664626598358154, -7.865004539489746, 74.67021942138672, 0.079345703125, -0.20654296875, -0.540283203125, 
341, 3131450961, -0.6775302290916443, 0.17164558172225952, -0.0880124568939209, 0.7097500562667847, 1.6713465452194214, -4.159237384796143, 9.245818138122559, 6.1424336433410645, -5.833255290985107, 83.21060180664062, 0.073974609375, -0.207763671875, -0.54541015625, 
342, 3131459294, -0.6822612881660461, 0.1707734912633896, -0.08910076320171356, 0.7052785754203796, 2.1777472496032715, -3.98895263671875, 9.735822677612305, 3.1766245365142822, 1.82840895652771, 91.30748748779297, 0.069091796875, -0.205810546875, -0.547607421875, 
343, 3131467627, -0.6875385642051697, 0.16970521211624146, -0.09083280712366104, 0.7001721262931824, 1.9141567945480347, -4.162538528442383, 9.608247756958008, -0.7489802837371826, 7.629837989807129, 104.31932067871094, 0.068115234375, -0.206298828125, -0.544189453125, 
344, 3131475960, -0.6938156485557556, 0.1687980741262436, -0.09325417876243591, 0.6938527822494507, 1.225050687789917, -4.6503214836120605, 9.43661117553711, -8.065102577209473, 8.496927261352539, 126.81732940673828, 0.06591796875, -0.203857421875, -0.5478515625, 
345, 3131484293, -0.7014967799186707, 0.1680748462677002, -0.09654183685779572, 0.6858086585998535, 1.370018720626831, -4.920479774475098, 9.311115264892578, -17.06029510498047, 9.223841667175293, 158.4520721435547, 0.05908203125, -0.203369140625, -0.547607421875, 
346, 3131492626, -0.7111603617668152, 0.16764310002326965, -0.09993255138397217, 0.6753968000411987, 1.1209524869918823, -5.738566875457764, 8.243223190307617, -19.38271141052246, -0.6551457643508911, 199.8377685546875, 0.05517578125, -0.198974609375, -0.55126953125, 
347, 3131500959, -0.7228565216064453, 0.16797204315662384, -0.10322637856006622, 0.6622756123542786, 0.9774520397186279, -6.442488670349121, 8.0079984664917, -24.97478675842285, -17.684663772583008, 243.95387268066406, 0.04931640625, -0.197265625, -0.55322265625, 
348, 3131509292, -0.7366723418235779, 0.16890114545822144, -0.10666198283433914, 0.6460729837417603, 1.467201590538025, -6.558948516845703, 8.354548454284668, -31.696247100830078, -31.8925724029541, 293.3716735839844, 0.035888671875, -0.194580078125, -0.558837890625, 
349, 3131517625, -0.7521804571151733, 0.17009423673152924, -0.11039949208498001, 0.6269810795783997, 2.0881195068359375, -6.843889236450195, 8.39643669128418, -37.36003112792969, -40.349544525146484, 338.0088806152344, 0.02734375, -0.185302734375, -0.562255859375, 
350, 3131525958, -0.7683207392692566, 0.17314188182353973, -0.11561521887779236, 0.6052594780921936, 1.438293695449829, -5.627760887145996, 8.377246856689453, -71.80908203125, -48.18745803833008, 371.3070373535156, 0.01708984375, -0.178955078125, -0.566650390625, 
351, 3131534291, -0.7846430540084839, 0.176963210105896, -0.12133942544460297, 0.5816328525543213, 2.111182451248169, -6.241451263427734, 6.886190891265869, -86.7967300415039, -54.052085876464844, 392.9489440917969, 0.00048828125, -0.167236328125, -0.572265625, 
352, 3131542624, -0.7998431921005249, 0.1803344041109085, -0.12710599601268768, 0.5581892132759094, 4.035643577575684, -7.48518180847168, 8.330981254577637, -84.72107696533203, -47.7036018371582, 382.8403625488281, -0.015869140625, -0.152587890625, -0.5771484375, 
353, 3131550957, -0.8140057325363159, 0.1806582808494568, -0.13222725689411163, 0.5359793901443481, 4.100735664367676, -5.936720848083496, 9.674234390258789, -46.6248779296875, -26.496356964111328, 365.0365905761719, -0.02490234375, -0.138427734375, -0.585693359375, 
354, 3131559290, -0.8270887732505798, 0.17954318225383759, -0.13695739209651947, 0.514715313911438, 1.444917917251587, -2.97513484954834, 10.055522918701172, -28.628873825073242, -15.993212699890137, 348.116943359375, -0.032958984375, -0.124267578125, -0.59130859375, 
355, 3131567623, -0.8392305970191956, 0.17948828637599945, -0.14112228155136108, 0.4935190677642822, -1.9396600723266602, -0.648510754108429, 9.779590606689453, -38.84651184082031, -27.93754768371582, 337.30377197265625, -0.037109375, -0.11328125, -0.593994140625, 
356, 3131575956, -0.850493311882019, 0.1810407042503357, -0.14367641508579254, 0.4724861681461334, -2.7452964782714844, -0.7144293785095215, 8.171775817871094, -48.35435104370117, -55.378292083740234, 322.33941650390625, -0.04931640625, -0.100830078125, -0.605224609375, 
357, 3131584289, -0.8609520792961121, 0.18395543098449707, -0.14409422874450684, 0.45184001326560974, -1.8935058116912842, -1.971056342124939, 7.648336410522461, -51.61872863769531, -86.63005828857422, 304.59454345703125, -0.056884765625, -0.0869140625, -0.60888671875, 
358, 3131592622, -0.870391845703125, 0.18724820017814636, -0.14292916655540466, 0.43235164880752563, -0.8463954329490662, -2.942072868347168, 8.034948348999023, -46.569278717041016, -102.80768585205078, 279.78277587890625, -0.06787109375, -0.07763671875, -0.6103515625, 
359, 3131600955, -0.8784326314926147, 0.1904744654893875, -0.14060330390930176, 0.41509881615638733, -0.46761512756347656, -3.096031427383423, 8.206990242004395, -38.054893493652344, -107.76515197753906, 241.85000610351562, -0.07861328125, -0.061767578125, -0.61083984375, 
360, 3131609288, -0.8852149248123169, 0.19325603544712067, -0.13683068752288818, 0.4004058241844177, -1.2246673107147217, -3.084782361984253, 8.123353958129883, -22.79273796081543, -113.59697723388672, 200.79818725585938, -0.086181640625, -0.053955078125, -0.610595703125, 
361, 3131617621, -0.8910223841667175, 0.1949794888496399, -0.13166823983192444, 0.3882348835468292, -1.6734548807144165, -4.114909648895264, 8.763554573059082, -0.08420976251363754, -116.12246704101562, 163.03575134277344, -0.10205078125, -0.047119140625, -0.611083984375, 
362, 3131625954, -0.895810604095459, 0.1955273300409317, -0.12645195424556732, 0.3785538673400879, -0.5060824751853943, -3.8591086864471436, 10.400958061218262, 16.364534378051758, -102.01102447509766, 129.0555419921875, -0.10888671875, -0.042724609375, -0.613037109375, 
363, 3131634287, -0.8996983170509338, 0.1954476535320282, -0.12286527454853058, 0.3704696595668793, 0.5521572232246399, -2.758563995361328, 11.428201675415039, 15.984350204467773, -72.78063201904297, 110.17681121826172, -0.118408203125, -0.036376953125, -0.613525390625, 
364, 3131642620, -0.9030209183692932, 0.19530749320983887, -0.12108954042196274, 0.3629688620567322, 0.8707638382911682, -1.7632830142974854, 11.33741283416748, 6.953911781311035, -47.571590423583984, 105.03945922851562, -0.122314453125, -0.03369140625, -0.61669921875, 
365, 3131650953, -0.9061105847358704, 0.19516821205615997, -0.12071093916893005, 0.35539090633392334, 0.04429468512535095, -2.65757417678833, 10.910889625549316, -0.7771317362785339, -30.011032104492188, 108.59600067138672, -0.1279296875, -0.028076171875, -0.616455078125, 
366, 3131659286, -0.908873438835144, 0.19521965086460114, -0.12137369811534882, 0.3480055630207062, -0.018182486295700073, -3.706261396408081, 10.094840049743652, -8.807405471801758, -16.94152069091797, 107.06651306152344, -0.12890625, -0.021240234375, -0.6171875, 
367, 3131667619, -0.9113075137138367, 0.19602146744728088, -0.12229473888874054, 0.3407920002937317, -0.9662928581237793, -2.8935792446136475, 8.796318054199219, -20.01852798461914, -16.255067825317383, 102.79812622070312, -0.132568359375, -0.01318359375, -0.619384765625, 
368, 3131675952, -0.9134849905967712, 0.19701455533504486, -0.12280260771512985, 0.33414211869239807, -2.134526491165161, -4.010212421417236, 7.92870569229126, -20.221210479736328, -20.41921043395996, 93.08631896972656, -0.130126953125, -0.0087890625, -0.619384765625, 
369, 3131684285, -0.915187418460846, 0.19800424575805664, -0.12269973754882812, 0.328894704580307, -1.7535147666931152, -4.957224369049072, 7.576704025268555, -16.295001983642578, -23.437339782714844, 71.64431762695312, -0.133544921875, -0.00244140625, -0.619140625, 
370, 3131692618, -0.9167178273200989, 0.19842827320098877, -0.12168760597705841, 0.324726939201355, -1.507416009902954, -4.363485813140869, 7.254221439361572, -3.706251621246338, -29.128570556640625, 55.74888229370117, -0.134765625, 0.000732421875, -0.621337890625, 
371, 3131700951, -0.9181484580039978, 0.19839467108249664, -0.11959484964609146, 0.3214665651321411, -1.8573601245880127, -3.9036920070648193, 7.605006217956543, 8.13597583770752, -38.03101348876953, 41.68918228149414, -0.13525390625, 0.005615234375, -0.622314453125, 
372, 3131709284, -0.919541597366333, 0.198245570063591, -0.11694689095020294, 0.3185375928878784, -0.9824113249778748, -4.053278923034668, 9.195569038391113, 12.489485740661621, -43.598514556884766, 36.00706100463867, -0.14208984375, 0.00390625, -0.623779296875, 
373, 3131717617, -0.9208690524101257, 0.19802938401699066, -0.11509287357330322, 0.31549760699272156, -0.06327785551548004, -3.8642563819885254, 10.228239059448242, 9.502647399902344, -33.43169403076172, 39.40324401855469, -0.1455078125, 0.0048828125, -0.623779296875, 
374, 3131725950, -0.9220664501190186, 0.1977570801973343, -0.11472317576408386, 0.31228965520858765, 0.7766931653022766, -3.8994412422180176, 10.630841255187988, 3.153963565826416, -14.673155784606934, 45.088829040527344, -0.144775390625, 0.010986328125, -0.625, 
375, 3131734283, -0.9232745170593262, 0.19709748029708862, -0.1157049611210823, 0.30875563621520996, 0.8984687328338623, -4.818694591522217, 10.709322929382324, 1.771767020225525, 3.259599208831787, 53.562599182128906, -0.151123046875, 0.014404296875, -0.623291015625, 
376, 3131742616, -0.9244116544723511, 0.19611616432666779, -0.11791843175888062, 0.30511873960494995, 0.40229347348213196, -4.419452667236328, 10.352967262268066, 0.27271562814712524, 20.06220817565918, 58.41140365600586, -0.145751953125, 0.013916015625, -0.62646484375, 
377, 3131750949, -0.9254434704780579, 0.1952943503856659, -0.12067906558513641, 0.3014165461063385, -0.47719645500183105, -3.5831050872802734, 9.427956581115723, -4.443920135498047, 26.386653900146484, 60.027618408203125, -0.144287109375, 0.018798828125, -0.6259765625, 
378, 3131759282, -0.9263081550598145, 0.19496971368789673, -0.12326757609844208, 0.297902375459671, -1.5723316669464111, -3.6265993118286133, 8.267009735107422, -10.190593719482422, 22.872562408447266, 55.642112731933594, -0.141845703125, 0.024658203125, -0.63134765625, 
379, 3131767615, -0.9269666075706482, 0.1952485889196396, -0.1251021772623062, 0.29489201307296753, -2.1423046588897705, -3.654637336730957, 7.263055324554443, -14.4938325881958, 12.542291641235352, 45.34632873535156, -0.137451171875, 0.02685546875, -0.630859375, 
380, 3131775948, -0.9274685382843018, 0.19589246809482574, -0.12561927735805511, 0.2926580011844635, -2.292421579360962, -4.213459014892578, 6.084159851074219, -12.883499145507812, -3.4230258464813232, 30.63980484008789, -0.136962890625, 0.02978515625, -0.6337890625, 
381, 3131784281, -0.9281206727027893, 0.19590017199516296, -0.1247759684920311, 0.29094111919403076, -1.5278700590133667, -5.3282599449157715, 6.957237720489502, 1.9994486570358276, -17.041893005371094, 22.092679977416992, -0.135498046875, 0.035888671875, -0.6337890625, 
382, 3131792614, -0.9289440512657166, 0.19524648785591125, -0.12296388298273087, 0.28952091932296753, -1.783136248588562, -4.219763278961182, 8.37275505065918, 15.292818069458008, -26.29338836669922, 17.505273818969727, -0.135986328125, 0.035888671875, -0.6337890625, 
383, 3131800947, -0.929719865322113, 0.19449543952941895, -0.12067677080631256, 0.2884971499443054, -1.5128200054168701, -3.245326042175293, 9.490731239318848, 18.968338012695312, -30.79509735107422, 11.151581764221191, -0.139892578125, 0.03515625, -0.636474609375, 
384, 3131809280, -0.9302605986595154, 0.1939893662929535, -0.11866790801286697, 0.28792694211006165, -0.5847954750061035, -2.6443870067596436, 10.076860427856445, 14.858036994934082, -26.639379501342773, 4.748908996582031, -0.14501953125, 0.03759765625, -0.63671875, 
385, 3131817613, -0.9306009411811829, 0.19372621178627014, -0.11741628497838974, 0.28751716017723083, 0.15502546727657318, -2.499560832977295, 10.184576988220215, 8.472602844238281, -17.125259399414062, 3.534048318862915, -0.14501953125, 0.0361328125, -0.63671875, 
386, 3131825946, -0.9308205842971802, 0.19364672899246216, -0.11711029708385468, 0.28698426485061646, 0.22287797927856445, -2.851522445678711, 10.441610336303711, 1.8693015575408936, -5.917951583862305, 6.846634864807129, -0.1455078125, 0.037109375, -0.63623046875, 
387, 3131834279, -0.9309272766113281, 0.19375930726528168, -0.11766288429498672, 0.2863355278968811, 0.07451702654361725, -3.3324828147888184, 10.268083572387695, -4.481453895568848, 4.23088264465332, 9.868422508239746, -0.150390625, 0.036376953125, -0.641845703125, 
388, 3131842612, -0.9310367703437805, 0.19386547803878784, -0.11881639063358307, 0.28543001413345337, -0.14460569620132446, -4.3519158363342285, 9.774436950683594, -7.157835960388184, 11.217705726623535, 14.77139949798584, -0.1455078125, 0.03857421875, -0.63818359375, 
389, 3131850945, -0.9311677813529968, 0.19383719563484192, -0.12030410766601562, 0.2843969166278839, -0.7774651050567627, -4.631892681121826, 8.954187393188477, -6.9181389808654785, 15.695231437683105, 17.609872817993164, -0.14892578125, 0.03759765625, -0.635009765625, 
390, 3131859278, -0.9313029646873474, 0.19377031922340393, -0.12167085707187653, 0.2834162712097168, -1.2117540836334229, -4.714167594909668, 8.083565711975098, -5.832991123199463, 14.382576942443848, 16.685195922851562, -0.142578125, 0.04150390625, -0.63818359375, 
391, 3131867611, -0.9314087629318237, 0.19378915429115295, -0.1224990263581276, 0.28269848227500916, -1.6938565969467163, -4.431689739227295, 7.63386344909668, -4.487576007843018, 7.9488420486450195, 11.63621711730957, -0.140625, 0.0419921875, -0.6396484375, 
392, 3131875944, -0.9314700365066528, 0.19404026865959167, -0.12262473255395889, 0.28226926922798157, -1.6743031740188599, -3.8600471019744873, 7.6730852127075195, -4.348002910614014, -1.154215693473816, 5.494227409362793, -0.1396484375, 0.04248046875, -0.640625, 
393, 3131884277, -0.9315030574798584, 0.19434581696987152, -0.1221456229686737, 0.28215739130973816, -1.5798704624176025, -3.848163604736328, 8.057494163513184, -2.2524774074554443, -8.17505168914795, -0.37613222002983093, -0.14208984375, 0.044189453125, -0.6357421875, 
394, 3131892610, -0.9314262270927429, 0.1947416365146637, -0.1212388426065445, 0.28252947330474854, -1.545552134513855, -3.306457042694092, 8.49292278289795, -1.2157670259475708, -12.569483757019043, -8.307171821594238, -0.14208984375, 0.047607421875, -0.6376953125, 
395, 3131900943, -0.9312503337860107, 0.19517961144447327, -0.12012355774641037, 0.28328222036361694, -1.1237897872924805, -3.3545849323272705, 9.008849143981934, -0.5924191474914551, -14.177907943725586, -14.186898231506348, -0.1455078125, 0.04345703125, -0.637451171875, 
396, 3131909276, -0.9310231804847717, 0.19554509222507477, -0.1191052794456482, 0.2842053771018982, -0.7068302631378174, -3.6973164081573486, 9.440997123718262, 0.12007958441972733, -12.153997421264648, -16.197975158691406, -0.14599609375, 0.0439453125, -0.639404296875, 
397, 3131917609, -0.9308164715766907, 0.19587065279483795, -0.11843380331993103, 0.28493794798851013, -0.4509522020816803, -4.093471050262451, 9.773085594177246, -1.0030407905578613, -8.059788703918457, -12.66901969909668, -0.14697265625, 0.04248046875, -0.636962890625, 
398, 3131925942, -0.930691659450531, 0.1962791085243225, -0.11825422942638397, 0.28513938188552856, -0.45246538519859314, -4.54538631439209, 9.802624702453613, -4.616491794586182, -3.695147752761841, -4.370748519897461, -0.14892578125, 0.041015625, -0.639892578125, 
399, 3131934275, -0.9306537508964539, 0.19659370183944702, -0.11859533935785294, 0.28490403294563293, -0.5646641850471497, -4.961105823516846, 9.4856595993042, -5.953068256378174, 2.0628678798675537, 3.127856492996216, -0.1474609375, 0.041015625, -0.636962890625, 
400, 3131942608, -0.9306453466415405, 0.19671037793159485, -0.11929573863744736, 0.2845589220523834, -0.8786360025405884, -5.032529354095459, 8.957082748413086, -4.905446529388428, 7.046041011810303, 5.932053089141846, -0.1474609375, 0.0390625, -0.638427734375, 
401, 3131950941, -0.9306528568267822, 0.1966772973537445, -0.11999321728944778, 0.28426364064216614, -1.0785796642303467, -4.3353495597839355, 8.47314453125, -2.873366594314575, 7.749151229858398, 5.605752944946289, -0.1474609375, 0.04052734375, -0.637451171875, 
402, 3131959274, -0.9306417107582092, 0.19667796790599823, -0.12044122815132141, 0.2841101586818695, -1.2775053977966309, -3.98848295211792, 8.201879501342773, -2.125200033187866, 4.793140888214111, 2.976835250854492, -0.1416015625, 0.04345703125, -0.63916015625, 
403, 3131967607, -0.9305489659309387, 0.19708344340324402, -0.12046459317207336, 0.2841230034828186, -1.3369418382644653, -3.361473798751831, 8.149884223937988, -5.612808704376221, -1.5917837619781494, -1.279751181602478, -0.14599609375, 0.04345703125, -0.636962890625, 
404, 3131975940, -0.930425226688385, 0.19760026037693024, -0.12022843211889267, 0.28426891565322876, -1.099043607711792, -3.9619572162628174, 8.453726768493652, -5.867133140563965, -4.982981204986572, -4.000034809112549, -0.146484375, 0.041015625, -0.638427734375, 
405, 3131984273, -0.9302470684051514, 0.19816528260707855, -0.11982517689466476, 0.28462886810302734, -1.1277906894683838, -3.979004144668579, 8.763051986694336, -5.645134925842285, -6.592016220092773, -7.476244926452637, -0.14501953125, 0.04296875, -0.638916015625, 
406, 3131992606, -0.9300621151924133, 0.19867217540740967, -0.11940489709377289, 0.28505656123161316, -0.9327494502067566, -4.202242851257324, 9.096559524536133, -4.7207932472229, -6.4308762550354, -8.329378128051758, -0.1494140625, 0.0419921875, -0.638916015625, 
407, 3132000939, -0.929885983467102, 0.19902732968330383, -0.1191508024930954, 0.28548920154571533, -0.8448606133460999, -4.517838001251221, 9.28253173828125, -3.4230992794036865, -3.666588068008423, -7.646297931671143, -0.1455078125, 0.042236328125, -0.6328125, 
408, 3132009272, -0.929712176322937, 0.19924704730510712, -0.11922056972980499, 0.2858726382255554, -0.7614844441413879, -4.459212779998779, 9.279717445373535, -3.0128612518310547, 0.821858286857605, -5.908243179321289, -0.1484375, 0.04296875, -0.636962890625, 
409, 3132017605, -0.9295450448989868, 0.19935250282287598, -0.1196211725473404, 0.28617480397224426, -0.709980845451355, -4.508639812469482, 9.17409610748291, -2.9907820224761963, 5.312623023986816, -3.738948106765747, -0.1494140625, 0.043701171875, -0.634521484375, 
410, 3132025938, -0.9294137954711914, 0.19942522048950195, -0.12026271224021912, 0.2862820625305176, -0.7448689341545105, -4.692774772644043, 9.115336418151855, -3.720762252807617, 7.883933067321777, -0.4026685655117035, -0.14990234375, 0.0419921875, -0.634033203125, 
411, 3132034271, -0.9293434023857117, 0.1994447261095047, -0.12106699496507645, 0.28615784645080566, -0.8511505722999573, -4.592376708984375, 8.922051429748535, -3.919451951980591, 9.484285354614258, 3.3384571075439453, -0.146484375, 0.03955078125, -0.635498046875, 
412, 3132042604, -0.9292714595794678, 0.19965432584285736, -0.12181615829467773, 0.28592681884765625, -1.1100289821624756, -4.315864562988281, 8.589150428771973, -6.290126800537109, 7.693467140197754, 4.2230963706970215, -0.14501953125, 0.045166015625, -0.635009765625, 
413, 3132050937, -0.9292030334472656, 0.19989457726478577, -0.12240441143512726, 0.28573015332221985, -1.1403642892837524, -4.4036149978637695, 8.344223022460938, -6.005090236663818, 5.655776023864746, 3.3124585151672363, -0.142578125, 0.046142578125, -0.63720703125, 
414, 3132059270, -0.9290868043899536, 0.20020703971385956, -0.12273858487606049, 0.2857459485530853, -1.167807698249817, -4.050594329833984, 8.320573806762695, -5.680455684661865, 2.7395193576812744, -0.41998377442359924, -0.14453125, 0.045166015625, -0.635986328125, 
415, 3132067603, -0.9289129972457886, 0.2005927711725235, -0.12288884818553925, 0.28597569465637207, -1.0033059120178223, -3.8342466354370117, 8.558171272277832, -5.712602138519287, 0.8368426561355591, -3.9983181953430176, -0.14599609375, 0.0439453125, -0.636962890625, 
416, 3132075936, -0.9286704659461975, 0.20107287168502808, -0.1229424849152565, 0.2864031195640564, -0.9393041729927063, -3.7946724891662598, 8.816760063171387, -6.373193740844727, -0.15569613873958588, -7.231680393218994, -0.14404296875, 0.043701171875, -0.63427734375, 
417, 3132084269, -0.9283939003944397, 0.20147722959518433, -0.12303288280963898, 0.2869758605957031, -0.8363945484161377, -4.178559303283691, 9.09954833984375, -5.422111988067627, 1.1192909479141235, -8.979032516479492, -0.14453125, 0.044921875, -0.638916015625, 
418, 3132092602, -0.928119957447052, 0.2017207145690918, -0.12333658337593079, 0.2875608205795288, -0.7776645421981812, -4.388431549072266, 9.270509719848633, -4.159790992736816, 4.459874629974365, -8.275358200073242, -0.1435546875, 0.042724609375, -0.63427734375, 
419, 3132100935, -0.9278964400291443, 0.20171238481998444, -0.12396218627691269, 0.288018137216568, -0.7817825675010681, -4.662059307098389, 9.356266021728516, -2.3180243968963623, 9.1719970703125, -5.115355491638184, -0.14501953125, 0.041015625, -0.63623046875, 
420, 3132109268, -0.9277031421661377, 0.20164060592651367, -0.12486577033996582, 0.28830114006996155, -0.968678891658783, -4.5200958251953125, 9.27171802520752, -2.7996490001678467, 12.388428688049316, -1.902382254600525, -0.14111328125, 0.042236328125, -0.63623046875, 
421, 3132117601, -0.9275297522544861, 0.20154021680355072, -0.12595710158348083, 0.2884538769721985, -1.0782936811447144, -4.528384685516357, 8.969401359558105, -3.3715131282806396, 14.55099105834961, 0.41838303208351135, -0.14013671875, 0.040283203125, -0.635009765625, 
422, 3132125934, -0.927345335483551, 0.20148836076259613, -0.12706346809864044, 0.28859782218933105, -1.1791424751281738, -4.326265335083008, 8.544625282287598, -4.072574138641357, 14.493483543395996, 0.4343150556087494, -0.14208984375, 0.043701171875, -0.63671875, 
423, 3132134267, -0.9271531105041504, 0.20157355070114136, -0.1279483586549759, 0.2887647747993469, -1.3602489233016968, -4.207657814025879, 8.277078628540039, -4.945865631103516, 11.254817962646484, -0.7315809726715088, -0.13818359375, 0.045166015625, -0.6376953125, 
424, 3132142600, -0.9269822835922241, 0.20175321400165558, -0.12848031520843506, 0.2889513671398163, -1.3517173528671265, -4.39346170425415, 8.237067222595215, -4.630759239196777, 6.34441614151001, -2.052046060562134, -0.138671875, 0.043701171875, -0.634521484375, 
425, 3132150933, -0.9268644452095032, 0.20183584094047546, -0.12868013978004456, 0.2891826033592224, -1.3665963411331177, -4.583019256591797, 8.370379447937012, -1.871645212173462, 2.5770740509033203, -3.152817964553833, -0.13525390625, 0.044189453125, -0.633056640625, 
426, 3132159266, -0.9267537593841553, 0.20179571211338043, -0.1286739856004715, 0.28956806659698486, -1.3151048421859741, -4.5882887840271, 8.592133522033691, 0.8283900022506714, 0.8044663071632385, -5.453104496002197, -0.1376953125, 0.043701171875, -0.631591796875, 
427, 3132167599, -0.9266369938850403, 0.20152786374092102, -0.1285954713821411, 0.2901625335216522, -1.1274809837341309, -4.438670635223389, 8.80080509185791, 4.348964691162109, 1.428992748260498, -7.927927017211914, -0.13818359375, 0.040771484375, -0.635009765625, 
428, 3132175932, -0.92645663022995, 0.20102804899215698, -0.12864020466804504, 0.2910640239715576, -1.0177597999572754, -4.167871952056885, 8.993358612060547, 7.201801300048828, 4.840475559234619, -11.352139472961426, -0.13671875, 0.040771484375, -0.634521484375, 
429, 3132184265, -0.9261418581008911, 0.20037144422531128, -0.12889593839645386, 0.29240214824676514, -1.0035080909729004, -3.737166166305542, 9.125656127929688, 8.73299789428711, 9.649500846862793, -16.584827423095703, -0.13916015625, 0.03955078125, -0.636962890625, 
430, 3132192598, -0.9256332516670227, 0.19933518767356873, -0.12952308356761932, 0.2944371998310089, -0.8107774257659912, -3.8724100589752197, 9.197721481323242, 12.797420501708984, 18.121625900268555, -24.55156135559082, -0.135009765625, 0.038818359375, -0.6376953125, 
431, 3132200931, -0.9248689413070679, 0.19774681329727173, -0.13050106167793274, 0.2974624037742615, -0.7499995827674866, -3.6375741958618164, 9.220500946044922, 19.443525314331055, 28.041345596313477, -36.23531723022461, -0.134033203125, 0.036865234375, -0.634765625, 
432, 3132209264, -0.9237726926803589, 0.1957109421491623, -0.1317071169614792, 0.30165427923202515, -0.7547571063041687, -3.1023595333099365, 9.326617240905762, 25.418363571166992, 36.4927978515625, -51.020347595214844, -0.130615234375, 0.03271484375, -0.638427734375, 
433, 3132217597, -0.9222233891487122, 0.19366960227489471, -0.1331123560667038, 0.30704739689826965, -0.7084909081459045, -2.297974109649658, 9.328747749328613, 25.584426879882812, 43.149497985839844, -67.60144805908203, -0.12890625, 0.02783203125, -0.63623046875, 
434, 3132225930, -0.9199788570404053, 0.1922398954629898, -0.13446806371212006, 0.31400957703590393, -0.5250986814498901, -1.2294718027114868, 9.107009887695312, 19.091110229492188, 45.34025955200195, -91.70061492919922, -0.1240234375, 0.0234375, -0.636474609375, 
435, 3132234263, -0.9170538187026978, 0.19117125868797302, -0.13541683554649353, 0.3226900100708008, -0.5865223407745361, -1.282974123954773, 9.290735244750977, 17.612319946289062, 44.485748291015625, -118.10987091064453, -0.12109375, 0.01904296875, -0.63623046875, 
436, 3132242596, -0.9135698080062866, 0.18947242200374603, -0.13596020638942719, 0.3331756591796875, -0.49328938126564026, -2.742575168609619, 9.505829811096191, 29.298505783081055, 47.90471649169922, -143.2593536376953, -0.119873046875, 0.007080078125, -0.633544921875, 
437, 3132250929, -0.909314751625061, 0.187021404504776, -0.13593550026416779, 0.3459651470184326, -0.8233338594436646, -2.5323731899261475, 9.368785858154297, 43.58771896362305, 51.71314239501953, -175.8042449951172, -0.115234375, -0.00390625, -0.634765625, 
438, 3132259262, -0.9041932225227356, 0.18378940224647522, -0.1351952701807022, 0.3610802888870239, -1.2188619375228882, -2.463549852371216, 9.355419158935547, 58.94035339355469, 54.027347564697266, -209.39886474609375, -0.110107421875, -0.01220703125, -0.6318359375, 
439, 3132267595, -0.8979843854904175, 0.1798303872346878, -0.1335342526435852, 0.37875357270240784, -1.4630013704299927, -2.641279935836792, 9.340749740600586, 74.48831176757812, 54.72835159301758, -247.58346557617188, -0.10595703125, -0.02783203125, -0.6337890625, 
440, 3132275928, -0.8902425765991211, 0.17582446336746216, -0.1303701251745224, 0.39944732189178467, -1.4750529527664185, -1.4035775661468506, 8.763511657714844, 84.72712707519531, 46.64654541015625, -296.5114440917969, -0.101318359375, -0.046142578125, -0.634765625, 
441, 3132284261, -0.8809460401535034, 0.17301532626152039, -0.12619201838970184, 0.4219905436038971, -1.68318510055542, -0.4711674451828003, 8.015084266662598, 75.11747741699219, 34.95769119262695, -332.29937744140625, -0.09619140625, -0.06103515625, -0.62939453125, 
442, 3132292594, -0.8699697852134705, 0.17117714881896973, -0.12117917090654373, 0.44628164172172546, -0.8533587455749512, -0.4569937288761139, 8.293270111083984, 67.32268524169922, 26.243072509765625, -366.9010314941406, -0.092041015625, -0.079833984375, -0.626708984375, 
443, 3132300927, -0.8576810359954834, 0.17079338431358337, -0.11609125882387161, 0.4708891212940216, 0.12021002173423767, -1.0441925525665283, 9.486893653869629, 47.714839935302734, 19.37826156616211, -381.3516540527344, -0.087646484375, -0.099609375, -0.617431640625, 
444, 3132309260, -0.8445951342582703, 0.1717822402715683, -0.11198785901069641, 0.4945801794528961, 0.7603409290313721, -2.195582151412964, 10.8194580078125, 21.915849685668945, 21.193769454956055, -375.5771789550781, -0.078125, -0.115478515625, -0.613037109375, 
445, 3132317593, -0.8308799862861633, 0.17313863337039948, -0.10933904349803925, 0.5174044966697693, 1.9076151847839355, -3.931133508682251, 11.357195854187012, 4.811160087585449, 34.534095764160156, -366.92388916015625, -0.072021484375, -0.131103515625, -0.604736328125, 
