sep=,
PacketCounter,SampleTimeFine,Quat_W,Quat_X,Quat_Y,Quat_Z,Acc_X,Acc_Y,Acc_Z,Gyr_X,Gyr_Y,Gyr_Z,Mag_X,Mag_Y,Mag_Z,
0, 3185490466, -0.6303324103355408, 0.6014074683189392, -0.42930981516838074, 0.23808450996875763, 0, 0, 0, 0, 0, 0, -0.230224609375, 0.6416015625, -0.176025390625, 
1, 3185498799, -0.63027024269104, 0.6013515591621399, -0.429440438747406, 0.23815441131591797, -2.467216730117798, -9.614361763000488, -0.8217732906341553, -0.14947186410427094, 1.7238123416900635, 0.46238812804222107, -0.227783203125, 0.641845703125, -0.175048828125, 
2, 3185507132, -0.630198061466217, 0.6012922525405884, -0.42958077788352966, 0.23824161291122437, -2.4937191009521484, -9.602945327758789, -0.8119429349899292, -0.11347105354070663, 2.0149567127227783, 0.36391422152519226, -0.228759765625, 0.64013671875, -0.176025390625, 
3, 3185515465, -0.6301612257957458, 0.6012060046195984, -0.42969343066215515, 0.2383541464805603, -2.5048258304595947, -9.5388822555542, -0.8288812041282654, 0.6329149603843689, 1.8707995414733887, 0.20618179440498352, -0.228759765625, 0.64111328125, -0.177490234375, 
4, 3185523798, -0.6301408410072327, 0.601108729839325, -0.4298003613948822, 0.23846103250980377, -2.574711322784424, -9.491277694702148, -0.8299027681350708, 0.8711016774177551, 1.70750892162323, 0.31114891171455383, -0.228271484375, 0.640869140625, -0.175048828125, 
5, 3185532131, -0.63014817237854, 0.60101318359375, -0.42988502979278564, 0.23852920532226562, -2.5714972019195557, -9.471944808959961, -0.8813732862472534, 0.9053350687026978, 1.0292824506759644, 0.5577499270439148, -0.2275390625, 0.654296875, -0.171875, 
6, 3185540464, -0.6301530003547668, 0.6009371280670166, -0.42996323108673096, 0.2385672926902771, -2.5556464195251465, -9.46696662902832, -0.8882325291633606, 0.5852083563804626, 0.6727066040039062, 0.6277792453765869, -0.229248046875, 0.6396484375, -0.176025390625, 
7, 3185548797, -0.6301656365394592, 0.600869357585907, -0.4300214648246765, 0.23859959840774536, -2.5782923698425293, -9.503946304321289, -0.9392111897468567, 0.5832873582839966, 0.3841879665851593, 0.504011332988739, -0.2275390625, 0.6513671875, -0.172119140625, 
8, 3185557130, -0.6301785707473755, 0.6008121967315674, -0.43006372451782227, 0.23863300681114197, -2.539416551589966, -9.543387413024902, -0.9212146401405334, 0.5786383748054504, 0.21051058173179626, 0.28520166873931885, -0.228271484375, 0.64013671875, -0.178955078125, 
9, 3185565463, -0.6302226781845093, 0.6007238030433655, -0.4300931394100189, 0.23868605494499207, -2.489353895187378, -9.625587463378906, -0.8706654906272888, 1.2407790422439575, 0.1853189766407013, 0.31190451979637146, -0.228271484375, 0.6416015625, -0.177001953125, 
10, 3185573796, -0.6303205490112305, 0.6005859971046448, -0.43010270595550537, 0.23875735700130463, -2.487582206726074, -9.67166519165039, -0.8075895309448242, 2.3094820976257324, 0.00537898950278759, 0.44233226776123047, -0.229736328125, 0.644775390625, -0.178955078125, 
11, 3185582129, -0.6304700374603271, 0.6003875136375427, -0.43010368943214417, 0.2388598918914795, -2.4188082218170166, -9.671380043029785, -0.7323207855224609, 3.4510059356689453, 0.085397869348526, 0.644428551197052, -0.229248046875, 0.640625, -0.180419921875, 
12, 3185590462, -0.6306872367858887, 0.6000913381576538, -0.43011265993118286, 0.23901425302028656, -2.383052110671997, -9.757099151611328, -0.5893621444702148, 5.160602569580078, 0.49776145815849304, 1.0464951992034912, -0.229248046875, 0.6416015625, -0.180419921875, 
13, 3185598795, -0.6309391856193542, 0.599730908870697, -0.4301298260688782, 0.2392231822013855, -2.406986951828003, -9.658135414123535, -0.4946683347225189, 6.2747697830200195, 1.033585548400879, 1.1495667695999146, -0.228759765625, 0.64013671875, -0.179443359375, 
14, 3185607128, -0.6311304569244385, 0.5993975400924683, -0.43018150329589844, 0.23946118354797363, -2.3834497928619385, -9.440155029296875, -0.4772316813468933, 5.62402868270874, 1.834248423576355, 0.8082444667816162, -0.227783203125, 0.64013671875, -0.177978515625, 
15, 3185615461, -0.6312059760093689, 0.5991523265838623, -0.4302960932254791, 0.23966994881629944, -2.4203717708587646, -9.334089279174805, -0.48416340351104736, 3.4969067573547363, 2.53898549079895, 0.6933261752128601, -0.228759765625, 0.643798828125, -0.177978515625, 
16, 3185623794, -0.6311288475990295, 0.5990359783172607, -0.4304756820201874, 0.23984169960021973, -2.5239973068237305, -9.350770950317383, -0.5780709385871887, 0.7152007222175598, 3.2722957134246826, 0.26900070905685425, -0.230224609375, 0.63818359375, -0.181396484375, 
17, 3185632127, -0.6309772729873657, 0.5989977717399597, -0.4306681752204895, 0.23999032378196716, -2.5579984188079834, -9.413846015930176, -0.711137056350708, -0.7842695713043213, 3.3834102153778076, -0.11609654128551483, -0.227783203125, 0.638671875, -0.181396484375, 
18, 3185640460, -0.6308404207229614, 0.5989494919776917, -0.43085455894470215, 0.24013599753379822, -2.5632503032684326, -9.593992233276367, -0.7869369387626648, -0.5444561839103699, 3.2438249588012695, -0.04846213012933731, -0.230224609375, 0.63671875, -0.178955078125, 
19, 3185648793, -0.6307936310768127, 0.5988098978996277, -0.4310216009616852, 0.24030698835849762, -2.6035799980163574, -9.712191581726074, -0.9046415090560913, 1.1747199296951294, 3.0624637603759766, 0.4263489246368408, -0.232666015625, 0.638916015625, -0.18408203125, 
20, 3185657126, -0.6308565139770508, 0.5985599756240845, -0.43114495277404785, 0.24054311215877533, -2.5572385787963867, -9.601994514465332, -0.9806398153305054, 3.5941643714904785, 2.9254531860351562, 0.5028843283653259, -0.229736328125, 0.635986328125, -0.183349609375, 
21, 3185665459, -0.6309632062911987, 0.5982571244239807, -0.43128061294555664, 0.24077342450618744, -2.658738851547241, -9.645957946777344, -0.96826171875, 4.3088908195495605, 2.906895399093628, 1.1292675733566284, -0.232666015625, 0.636474609375, -0.18310546875, 
22, 3185673792, -0.6310852766036987, 0.5979567766189575, -0.4313986003398895, 0.2409883439540863, -2.6046252250671387, -9.572009086608887, -0.9987824559211731, 4.411756992340088, 2.522451400756836, 1.137361764907837, -0.228271484375, 0.635498046875, -0.182861328125, 
23, 3185682125, -0.6312066316604614, 0.5976477861404419, -0.43151938915252686, 0.241220161318779, -2.588261604309082, -9.583169937133789, -0.9900130033493042, 4.543773174285889, 2.7241125106811523, 1.077757477760315, -0.228759765625, 0.636474609375, -0.184326171875, 
24, 3185690458, -0.6313427090644836, 0.5973020792007446, -0.43167150020599365, 0.24144825339317322, -2.575871229171753, -9.563430786132812, -1.0205148458480835, 4.8838019371032715, 2.9931640625, 1.6188068389892578, -0.233642578125, 0.635498046875, -0.1865234375, 
25, 3185698791, -0.6314555406570435, 0.5969728827476501, -0.43182429671287537, 0.24169401824474335, -2.6488192081451416, -9.46801471710205, -1.0553604364395142, 4.625392913818359, 3.233720541000366, 1.3091691732406616, -0.228515625, 0.633544921875, -0.188232421875, 
26, 3185707124, -0.6314817070960999, 0.5967400074005127, -0.43199658393859863, 0.2418929487466812, -2.6108524799346924, -9.309672355651855, -1.12452232837677, 2.7617011070251465, 3.2052884101867676, 1.002541184425354, -0.2255859375, 0.635009765625, -0.1865234375, 
27, 3185715457, -0.6314421892166138, 0.5966070890426636, -0.43215519189834595, 0.24204014241695404, -2.618910789489746, -9.314193725585938, -1.1513400077819824, 1.0683953762054443, 2.724560499191284, 0.5413312315940857, -0.232666015625, 0.639404296875, -0.185546875, 
28, 3185723790, -0.6313692331314087, 0.5965508818626404, -0.43228262662887573, 0.24214132130146027, -2.655885696411133, -9.445707321166992, -1.1649163961410522, -0.017801892012357712, 2.016800880432129, 0.10485187917947769, -0.232666015625, 0.635009765625, -0.1875, 
29, 3185732123, -0.6313356161117554, 0.5965244174003601, -0.4323190450668335, 0.24222935736179352, -2.574472665786743, -9.392577171325684, -1.1716070175170898, 0.24934180080890656, 0.7902888655662537, -0.560670018196106, -0.231689453125, 0.637939453125, -0.185546875, 
30, 3185740456, -0.6313390135765076, 0.5964952111244202, -0.4323060214519501, 0.24231550097465515, -2.5359690189361572, -9.482975006103516, -1.0841635465621948, 0.7536220550537109, 0.1300690919160843, -0.8253034949302673, -0.22998046875, 0.633544921875, -0.186767578125, 
31, 3185748789, -0.6313174962997437, 0.5965530276298523, -0.43223807215690613, 0.24235069751739502, -2.6204426288604736, -9.347123146057129, -1.141371488571167, -0.34726500511169434, -0.9055529832839966, -1.4189391136169434, -0.230712890625, 0.64013671875, -0.18359375, 
32, 3185757122, -0.6313230395317078, 0.596584141254425, -0.432148814201355, 0.24241851270198822, -2.4746930599212646, -9.41750717163086, -1.0712116956710815, 0.39161601662635803, -0.8953070640563965, -1.6408863067626953, -0.232666015625, 0.632568359375, -0.185791015625, 
33, 3185765455, -0.6313334703445435, 0.5966222882270813, -0.4320308566093445, 0.2425079643726349, -2.5491416454315186, -9.423495292663574, -1.061769962310791, 0.5750908255577087, -1.0182043313980103, -2.0786080360412598, -0.231201171875, 0.637939453125, -0.183837890625, 
34, 3185773788, -0.6313785910606384, 0.5966272354125977, -0.43189311027526855, 0.2426236867904663, -2.536869764328003, -9.444953918457031, -0.9743483662605286, 1.3895978927612305, -1.0727113485336304, -2.1681039333343506, -0.232666015625, 0.638427734375, -0.18701171875, 
35, 3185782121, -0.6314826011657715, 0.5965830087661743, -0.43172505497932434, 0.24276137351989746, -2.5518908500671387, -9.486886978149414, -0.955920934677124, 2.5120906829833984, -1.3372552394866943, -2.1081156730651855, -0.23095703125, 0.634521484375, -0.188720703125, 
36, 3185790454, -0.6315954327583313, 0.596523642539978, -0.4315529465675354, 0.24291953444480896, -2.5488457679748535, -9.514984130859375, -0.9117717146873474, 2.870638608932495, -1.2103110551834106, -2.209855318069458, -0.232177734375, 0.635009765625, -0.184814453125, 
37, 3185798787, -0.6317119598388672, 0.5964704751968384, -0.43137186765670776, 0.24306842684745789, -2.5275015830993652, -9.459580421447754, -0.89250648021698, 2.8043484687805176, -1.4037238359451294, -2.216437816619873, -0.231689453125, 0.636962890625, -0.1865234375, 
38, 3185807120, -0.6318082809448242, 0.5964329242706299, -0.43120846152305603, 0.24320031702518463, -2.4949283599853516, -9.5165376663208, -0.8726108074188232, 2.3607871532440186, -1.3247811794281006, -2.094975471496582, -0.233154296875, 0.634765625, -0.18896484375, 
39, 3185815453, -0.6318625807762146, 0.5964321494102478, -0.4310680627822876, 0.24330973625183105, -2.463282346725464, -9.46258544921875, -0.8480371236801147, 1.468233585357666, -1.1813156604766846, -2.0593717098236084, -0.231689453125, 0.637451171875, -0.18701171875, 
40, 3185823786, -0.6318523287773132, 0.5965035557746887, -0.430959016084671, 0.24335448443889618, -2.4788389205932617, -9.475851058959961, -0.8446975350379944, -0.15915407240390778, -1.299832820892334, -1.8955687284469604, -0.234619140625, 0.635498046875, -0.1884765625, 
41, 3185832119, -0.6317920088768005, 0.5966530442237854, -0.43085238337516785, 0.24333320558071136, -2.54996919631958, -9.585662841796875, -0.8089496493339539, -1.6645538806915283, -1.7822768688201904, -1.918032169342041, -0.233154296875, 0.635009765625, -0.1875, 
42, 3185840452, -0.6317209601402283, 0.5968462228775024, -0.43071290850639343, 0.24329110980033875, -2.540862560272217, -9.707803726196289, -0.7986057996749878, -2.1282737255096436, -2.3243250846862793, -2.316384792327881, -0.233642578125, 0.635009765625, -0.18359375, 
43, 3185848785, -0.6316997408866882, 0.5970124006271362, -0.4305311441421509, 0.24326016008853912, -2.5014400482177734, -9.752385139465332, -0.7442363500595093, -1.2953245639801025, -2.8036956787109375, -2.4212749004364014, -0.233642578125, 0.635009765625, -0.1865234375, 
44, 3185857118, -0.6317582130432129, 0.5971008539199829, -0.43031737208366394, 0.2432694286108017, -2.4923832416534424, -9.732872009277344, -0.69162917137146, 0.3970206379890442, -2.962606430053711, -2.318049669265747, -0.232666015625, 0.6435546875, -0.18212890625, 
45, 3185865451, -0.6318621039390564, 0.5971200466156006, -0.43010878562927246, 0.2433215230703354, -2.4398672580718994, -9.610005378723145, -0.6590101718902588, 1.5900933742523193, -2.6009716987609863, -2.073241710662842, -0.238525390625, 0.63818359375, -0.190673828125, 
46, 3185873784, -0.631972074508667, 0.5970845222473145, -0.42995554208755493, 0.2433941662311554, -2.401317834854126, -9.537893295288086, -0.6150197982788086, 2.0702195167541504, -1.8090438842773438, -1.4652239084243774, -0.234619140625, 0.64306640625, -0.18505859375, 
47, 3185882117, -0.6320487260818481, 0.5970407128334045, -0.4298522174358368, 0.24348440766334534, -2.4797282218933105, -9.525146484375, -0.604591965675354, 1.787463903427124, -1.0024771690368652, -1.2584915161132812, -0.236083984375, 0.634521484375, -0.18603515625, 
48, 3185890450, -0.6320903897285461, 0.5970182418823242, -0.4297599792480469, 0.24359428882598877, -2.496457815170288, -9.507411003112793, -0.5919016003608704, 1.4102426767349243, -0.6111171841621399, -1.594498872756958, -0.23828125, 0.6455078125, -0.184326171875, 
49, 3185898783, -0.6321039199829102, 0.5970074534416199, -0.4296897053718567, 0.2437095046043396, -2.4438424110412598, -9.563957214355469, -0.6121375560760498, 1.01783287525177, -0.2471645623445511, -1.611276388168335, -0.234619140625, 0.640625, -0.1826171875, 
50, 3185907116, -0.6320977807044983, 0.5969955325126648, -0.42965057492256165, 0.24382390081882477, -2.42587947845459, -9.573357582092285, -0.6172259449958801, 0.775650143623352, 0.1335269808769226, -1.419553518295288, -0.239013671875, 0.637939453125, -0.187255859375, 
51, 3185915449, -0.6320928931236267, 0.5969613790512085, -0.42962899804115295, 0.2439582198858261, -2.394679069519043, -9.636451721191406, -0.6374208927154541, 1.0170131921768188, 0.5207885503768921, -1.2998839616775513, -0.238037109375, 0.63623046875, -0.190185546875, 
52, 3185923782, -0.6321065425872803, 0.5968732237815857, -0.4296403229236603, 0.2441185563802719, -2.392955780029297, -9.6580228805542, -0.6282296180725098, 1.7034233808517456, 1.088809847831726, -0.8890316486358643, -0.236083984375, 0.64453125, -0.183837890625, 
53, 3185932115, -0.6321216225624084, 0.5967614054679871, -0.42967990040779114, 0.2442832738161087, -2.487084150314331, -9.685528755187988, -0.5709725022315979, 1.8307771682739258, 1.444437861442566, -0.5367847084999084, -0.235107421875, 0.635498046875, -0.1845703125, 
54, 3185940448, -0.6321077942848206, 0.596655011177063, -0.42974841594696045, 0.24445855617523193, -2.451674461364746, -9.596040725708008, -0.6109480261802673, 1.5315264463424683, 1.9318511486053467, -0.5340439677238464, -0.237548828125, 0.63623046875, -0.189697265625, 
55, 3185948781, -0.6320755481719971, 0.5965541005134583, -0.4298323392868042, 0.24464042484760284, -2.397221088409424, -9.63007926940918, -0.6489430069923401, 1.2993077039718628, 2.2156822681427, -0.5451093316078186, -0.236083984375, 0.63525390625, -0.18896484375, 
56, 3185957114, -0.6319988965988159, 0.5964657068252563, -0.4299895763397217, 0.24477781355381012, -2.51668643951416, -9.610199928283691, -0.676245927810669, 0.3383640646934509, 2.702685832977295, 0.2069886326789856, -0.236083984375, 0.63330078125, -0.1884765625, 
57, 3185965447, -0.6319261193275452, 0.5963549613952637, -0.43015095591545105, 0.244951531291008, -2.4575095176696777, -9.577759742736816, -0.7955018281936646, 0.740738034248352, 3.094404458999634, 0.08145326375961304, -0.238525390625, 0.63427734375, -0.191650390625, 
58, 3185973780, -0.631857693195343, 0.5962401628494263, -0.4303138554096222, 0.2451213300228119, -2.505843162536621, -9.619503021240234, -0.8561992049217224, 0.809973418712616, 3.058340072631836, 0.15622122585773468, -0.238525390625, 0.6337890625, -0.191650390625, 
59, 3185982113, -0.6317881345748901, 0.596132755279541, -0.43047186732292175, 0.24528448283672333, -2.5433318614959717, -9.492249488830566, -0.9258009791374207, 0.6866664290428162, 2.946277379989624, 0.1385474056005478, -0.2333984375, 0.6318359375, -0.1923828125, 
60, 3185990446, -0.6316997408866882, 0.5960747599601746, -0.4306109547615051, 0.24540898203849792, -2.5559794902801514, -9.5175142288208, -0.9560725092887878, -0.036769237369298935, 2.406022071838379, -0.05008864030241966, -0.237548828125, 0.63623046875, -0.189697265625, 
61, 3185998779, -0.6316322088241577, 0.5960327982902527, -0.4307166337966919, 0.24549923837184906, -2.5504534244537354, -9.564316749572754, -0.9960119128227234, -0.11712108552455902, 1.6631578207015991, -0.03787064924836159, -0.239013671875, 0.6357421875, -0.188232421875, 
62, 3186007112, -0.6316171884536743, 0.5959780216217041, -0.4307764172554016, 0.24556604027748108, -2.5714328289031982, -9.565990447998047, -0.9881724119186401, 0.46177345514297485, 0.7992922067642212, 0.028201274573802948, -0.239013671875, 0.640869140625, -0.187744140625, 
63, 3186015445, -0.6316606998443604, 0.5959053039550781, -0.430775910615921, 0.24563097953796387, -2.590259075164795, -9.567192077636719, -0.9973495006561279, 1.2709527015686035, -0.020683493465185165, -0.13051731884479523, -0.234130859375, 0.63525390625, -0.18994140625, 
64, 3186023778, -0.6317347288131714, 0.5958161950111389, -0.43075278401374817, 0.2456972897052765, -2.563380002975464, -9.501296043395996, -0.9868665337562561, 1.7673821449279785, -0.3360459506511688, -0.14155705273151398, -0.2353515625, 0.63427734375, -0.19189453125, 
65, 3186032111, -0.6318013072013855, 0.5957446694374084, -0.43071871995925903, 0.24575944244861603, -2.5564191341400146, -9.396812438964844, -0.9689528346061707, 1.5469204187393188, -0.4776158034801483, -0.31273698806762695, -0.238037109375, 0.63525390625, -0.192138671875, 
66, 3186040444, -0.6318274140357971, 0.595719575881958, -0.4306902289390564, 0.245803102850914, -2.587068796157837, -9.382991790771484, -0.9607055187225342, 0.7009848356246948, -0.5024360418319702, -0.5295871496200562, -0.237060546875, 0.63427734375, -0.18896484375, 
67, 3186048777, -0.6318138241767883, 0.5957360863685608, -0.43067413568496704, 0.24582649767398834, -2.5581283569335938, -9.397583961486816, -0.9928432106971741, -0.16426408290863037, -0.4598267376422882, -0.62091463804245, -0.237548828125, 0.63671875, -0.189208984375, 
68, 3186057110, -0.6317710280418396, 0.5957509279251099, -0.43070101737976074, 0.24585306644439697, -2.478538990020752, -9.42054557800293, -1.034623146057129, -0.49699294567108154, 0.11228000372648239, -0.3983269929885864, -0.237548828125, 0.640869140625, -0.186767578125, 
69, 3186065443, -0.6317014694213867, 0.5957834124565125, -0.4307386577129364, 0.24588753283023834, -2.484511137008667, -9.512042045593262, -0.9992519617080688, -0.8760452270507812, 0.3762218654155731, -0.5606571435928345, -0.237548828125, 0.63427734375, -0.18701171875, 
70, 3186073776, -0.6316091418266296, 0.5958351492881775, -0.43076762557029724, 0.24594831466674805, -2.4771153926849365, -9.487587928771973, -0.9683805108070374, -1.027809500694275, 0.5789840817451477, -1.0642074346542358, -0.238525390625, 0.641845703125, -0.190185546875, 
71, 3186082109, -0.6314941048622131, 0.5959300398826599, -0.4307834506034851, 0.2459859400987625, -2.4255216121673584, -9.542356491088867, -0.9936368465423584, -1.6980830430984497, 0.2676943838596344, -1.2907910346984863, -0.239501953125, 0.63525390625, -0.191650390625, 
72, 3186090442, -0.6314036846160889, 0.5960544347763062, -0.43075621128082275, 0.24596460163593292, -2.489572048187256, -9.587187767028809, -0.9697319269180298, -1.9400349855422974, -0.8372909426689148, -1.2355667352676392, -0.237548828125, 0.63623046875, -0.194091796875, 
73, 3186098775, -0.631359875202179, 0.5961929559707642, -0.43066197633743286, 0.2459062933921814, -2.462585926055908, -9.649624824523926, -0.970953643321991, -1.6884262561798096, -2.0420308113098145, -1.377571940422058, -0.236083984375, 0.6357421875, -0.1884765625, 
74, 3186107108, -0.6313900351524353, 0.5963077545166016, -0.4304976165294647, 0.24583874642848969, -2.423353433609009, -9.675644874572754, -0.901188313961029, -0.6768946051597595, -3.0894484519958496, -1.4921444654464722, -0.238037109375, 0.638671875, -0.192626953125, 
75, 3186115441, -0.631479024887085, 0.5964102745056152, -0.4302547574043274, 0.24578620493412018, -2.4441909790039062, -9.680109977722168, -0.8461604714393616, 0.25078898668289185, -3.952263832092285, -1.9851161241531372, -0.237548828125, 0.6357421875, -0.190185546875, 
76, 3186123774, -0.631586492061615, 0.5964818596839905, -0.43001610040664673, 0.2457544058561325, -2.358367919921875, -9.64281940460205, -0.8003741502761841, 0.7939645051956177, -3.751934766769409, -1.895543098449707, -0.236572265625, 0.638916015625, -0.188232421875, 
77, 3186132107, -0.6316863298416138, 0.5965133309364319, -0.4298303723335266, 0.24574583768844604, -2.3209123611450195, -9.53117561340332, -0.7723087668418884, 1.022315263748169, -2.9179608821868896, -1.4399425983428955, -0.235595703125, 0.63623046875, -0.1904296875, 
78, 3186140440, -0.63172447681427, 0.5965570211410522, -0.4297195374965668, 0.24573546648025513, -2.4062507152557373, -9.461052894592285, -0.7282844185829163, 0.16382862627506256, -1.9630619287490845, -1.1027823686599731, -0.237548828125, 0.63671875, -0.190185546875, 
79, 3186148773, -0.6316745281219482, 0.5966672301292419, -0.4296424388885498, 0.24573084712028503, -2.4742441177368164, -9.481040000915527, -0.7431285977363586, -1.2336456775665283, -1.324191927909851, -1.5543615818023682, -0.236572265625, 0.634765625, -0.192138671875, 
80, 3186157106, -0.6315721869468689, 0.5968243479728699, -0.4295705556869507, 0.24573832750320435, -2.441056489944458, -9.5025634765625, -0.7936227321624756, -2.001739501953125, -1.0295002460479736, -2.083730936050415, -0.239013671875, 0.637451171875, -0.187744140625, 
81, 3186165439, -0.6314428448677063, 0.5969682931900024, -0.4295279383659363, 0.24579580128192902, -2.3855838775634766, -9.48965835571289, -0.8633819818496704, -1.9278171062469482, -0.1613824963569641, -2.2782199382781982, -0.236572265625, 0.638427734375, -0.189208984375, 
82, 3186173772, -0.6313109993934631, 0.5970686674118042, -0.4295225441455841, 0.24590018391609192, -2.358163356781006, -9.521615982055664, -0.9442391395568848, -1.4024434089660645, 0.7081055641174316, -2.1427717208862305, -0.237060546875, 0.640380859375, -0.190185546875, 
83, 3186182105, -0.6311816573143005, 0.59713214635849, -0.4295242726802826, 0.2460750937461853, -2.367793560028076, -9.545999526977539, -1.0036406517028809, -0.6848606467247009, 1.4585515260696411, -2.4582366943359375, -0.236572265625, 0.639404296875, -0.188720703125, 
84, 3186190438, -0.6310673356056213, 0.597225546836853, -0.42946481704711914, 0.24624483287334442, -2.5264699459075928, -9.550237655639648, -0.9812866449356079, -0.6306352615356445, 0.695938766002655, -3.054356575012207, -0.237060546875, 0.6376953125, -0.190185546875, 
85, 3186198771, -0.6309825778007507, 0.5973936915397644, -0.42929789423942566, 0.24634559452533722, -2.5999999046325684, -9.610180854797363, -0.8907197117805481, -1.0934972763061523, -1.2306102514266968, -3.667548656463623, -0.235107421875, 0.6435546875, -0.185791015625, 
86, 3186207104, -0.6309505701065063, 0.5976055264472961, -0.42903727293014526, 0.24636773765087128, -2.607985734939575, -9.70310115814209, -0.810292661190033, -1.1716974973678589, -3.1507046222686768, -3.845874547958374, -0.239501953125, 0.63720703125, -0.188232421875, 
87, 3186215437, -0.6309757828712463, 0.597806453704834, -0.42871904373168945, 0.24636948108673096, -2.5048396587371826, -9.642641067504883, -0.7768617272377014, -0.5435724854469299, -4.116886615753174, -3.8730392456054688, -0.238525390625, 0.641845703125, -0.186767578125, 
88, 3186223770, -0.6310575604438782, 0.5979641675949097, -0.4283866584300995, 0.24635550379753113, -2.4814605712890625, -9.606809616088867, -0.7619473934173584, 0.2625459134578705, -4.555760860443115, -3.4186675548553467, -0.239501953125, 0.645263671875, -0.18798828125, 
89, 3186232103, -0.6311584115028381, 0.5980708599090576, -0.42807844281196594, 0.24637413024902344, -2.4267892837524414, -9.574736595153809, -0.7606174349784851, 0.9592018127441406, -4.018348217010498, -3.1251542568206787, -0.235595703125, 0.637939453125, -0.189453125, 
90, 3186240436, -0.6312494874000549, 0.598129391670227, -0.427815318107605, 0.2464556097984314, -2.4100468158721924, -9.504973411560059, -0.7555789947509766, 1.5287857055664062, -2.889580249786377, -3.061631202697754, -0.239013671875, 0.639892578125, -0.189208984375, 
91, 3186248769, -0.6313179135322571, 0.5981884002685547, -0.4275747239589691, 0.24655482172966003, -2.4649593830108643, -9.410825729370117, -0.7372930645942688, 1.352085828781128, -2.416344404220581, -3.097554922103882, -0.237548828125, 0.638916015625, -0.189697265625, 
92, 3186257102, -0.631361722946167, 0.5982843041419983, -0.42732906341552734, 0.24663567543029785, -2.5131194591522217, -9.456377029418945, -0.7240086197853088, 0.7521236538887024, -2.5917508602142334, -3.2922744750976562, -0.237060546875, 0.641357421875, -0.189208984375, 
93, 3186265435, -0.6314090490341187, 0.5983918905258179, -0.42706844210624695, 0.24670492112636566, -2.4763100147247314, -9.582691192626953, -0.7243275046348572, 0.6459270715713501, -2.8743784427642822, -3.36133074760437, -0.234619140625, 0.640869140625, -0.1884765625, 
94, 3186273768, -0.6314929127693176, 0.5984631776809692, -0.4268074035644531, 0.24676916003227234, -2.4032115936279297, -9.607330322265625, -0.6815667152404785, 1.2511147260665894, -3.0133869647979736, -2.9942786693573, -0.239990234375, 0.643310546875, -0.18994140625, 
95, 3186282101, -0.631601870059967, 0.5985075831413269, -0.42656072974205017, 0.2468089759349823, -2.386716365814209, -9.663494110107422, -0.5744893550872803, 1.482859492301941, -3.1452362537384033, -2.4091854095458984, -0.237548828125, 0.641845703125, -0.190185546875, 
96, 3186290434, -0.6317160129547119, 0.5985318422317505, -0.42636188864707947, 0.2468014508485794, -2.3945834636688232, -9.752344131469727, -0.41387373208999634, 1.2755118608474731, -3.081225633621216, -1.4807971715927124, -0.236572265625, 0.640869140625, -0.189208984375, 
97, 3186298767, -0.6318133473396301, 0.5985304117202759, -0.4262339472770691, 0.2467770129442215, -2.39369797706604, -9.770464897155762, -0.28680047392845154, 1.0041933059692383, -2.417189836502075, -0.644223690032959, -0.239013671875, 0.644287109375, -0.19189453125, 
98, 3186307100, -0.6318455934524536, 0.5985427498817444, -0.42619383335113525, 0.24673371016979218, -2.3735132217407227, -9.850008010864258, -0.27177226543426514, -0.04292945936322212, -1.477044939994812, -0.07128442078828812, -0.237548828125, 0.63818359375, -0.191650390625, 
99, 3186315433, -0.6317938566207886, 0.598571240901947, -0.42625510692596436, 0.24669092893600464, -2.3445661067962646, -9.786376953125, -0.3024221956729889, -1.2343628406524658, -0.15211012959480286, 0.39036092162132263, -0.237060546875, 0.642822265625, -0.189208984375, 
100, 3186323766, -0.6316667795181274, 0.5985588431358337, -0.4264712929725647, 0.24667297303676605, -2.2634541988372803, -9.803581237792969, -0.28770920634269714, -1.8611433506011963, 1.9770348072052002, 1.4227172136306763, -0.23974609375, 0.65185546875, -0.18701171875, 
101, 3186332099, -0.6314898133277893, 0.5984964966773987, -0.42681586742401123, 0.24668127298355103, -2.3144314289093018, -9.77039909362793, -0.31366732716560364, -2.1407225131988525, 3.7727203369140625, 2.388092041015625, -0.239013671875, 0.640869140625, -0.188232421875, 
102, 3186340432, -0.6312810778617859, 0.5984044075012207, -0.42723360657691956, 0.24671588838100433, -2.351306676864624, -9.695571899414062, -0.3930596709251404, -2.2177703380584717, 4.911094665527344, 2.815593719482422, -0.238037109375, 0.642822265625, -0.190185546875, 
103, 3186348765, -0.6310586333274841, 0.5982919931411743, -0.4276801645755768, 0.24678397178649902, -2.331343650817871, -9.613787651062012, -0.465072900056839, -2.0763285160064697, 5.588181018829346, 2.8488667011260986, -0.236083984375, 0.641357421875, -0.189208984375, 
104, 3186357098, -0.6308210492134094, 0.598172664642334, -0.42815154790878296, 0.24686340987682343, -2.3133528232574463, -9.499095916748047, -0.518703043460846, -2.13480544090271, 6.00482177734375, 2.930422067642212, -0.238525390625, 0.642333984375, -0.188720703125, 
105, 3186365431, -0.6305628418922424, 0.5980404019355774, -0.4286474585533142, 0.24698282778263092, -2.291104555130005, -9.477569580078125, -0.6010093688964844, -2.065519094467163, 6.716948509216309, 2.805091619491577, -0.238037109375, 0.640869140625, -0.189208984375, 
106, 3186373764, -0.6302842497825623, 0.5979195237159729, -0.42913883924484253, 0.24713370203971863, -2.3352162837982178, -9.460524559020996, -0.6665505766868591, -2.1060922145843506, 7.012692451477051, 2.3453421592712402, -0.236572265625, 0.642822265625, -0.187255859375, 
107, 3186382097, -0.6300025582313538, 0.5978058576583862, -0.42959538102149963, 0.24733327329158783, -2.381660223007202, -9.448566436767578, -0.7527892589569092, -1.8165231943130493, 7.110435485839844, 1.5955621004104614, -0.234375, 0.6513671875, -0.183349609375, 
108, 3186390430, -0.6297126412391663, 0.5977154970169067, -0.43001997470855713, 0.24755211174488068, -2.423204183578491, -9.455798149108887, -0.890568733215332, -1.8356571197509766, 6.9560322761535645, 0.9886070489883423, -0.238037109375, 0.639892578125, -0.190673828125, 
109, 3186398763, -0.6294323205947876, 0.5976614952087402, -0.4303891658782959, 0.2477535754442215, -2.46856951713562, -9.418724060058594, -1.0223935842514038, -2.012650966644287, 6.1593523025512695, 0.5142825841903687, -0.235595703125, 0.640380859375, -0.18603515625, 
110, 3186407096, -0.6291670203208923, 0.597648561000824, -0.4307005703449249, 0.2479178011417389, -2.5242464542388916, -9.47244930267334, -1.1399198770523071, -2.2426416873931885, 5.1166486740112305, 0.1558113992214203, -0.237548828125, 0.641357421875, -0.187744140625, 
111, 3186415429, -0.6289348602294922, 0.5976662635803223, -0.4309263229370117, 0.2480708658695221, -2.555180788040161, -9.531973838806152, -1.2376199960708618, -2.0317342281341553, 3.988316059112549, -0.5060988664627075, -0.236572265625, 0.640869140625, -0.190673828125, 
112, 3186423762, -0.6287795901298523, 0.5976762175559998, -0.431059330701828, 0.24820993840694427, -2.531952142715454, -9.554424285888672, -1.2948260307312012, -1.0768095254898071, 2.640366792678833, -0.8524801135063171, -0.239990234375, 0.640380859375, -0.186767578125, 
113, 3186432095, -0.6287093758583069, 0.5976656079292297, -0.4311164319515228, 0.24831393361091614, -2.4956912994384766, -9.59164047241211, -1.2974756956100464, -0.1693100929260254, 1.2630763053894043, -0.7483967542648315, -0.237548828125, 0.638671875, -0.191162109375, 
114, 3186440428, -0.6287199258804321, 0.597615122795105, -0.4311330020427704, 0.24838030338287354, -2.472930908203125, -9.597813606262207, -1.2556315660476685, 0.7759832143783569, 0.2582426965236664, -0.25707724690437317, -0.237548828125, 0.640869140625, -0.189697265625, 
115, 3186448761, -0.628764271736145, 0.5975485444068909, -0.4311395585536957, 0.24841666221618652, -2.464397668838501, -9.589286804199219, -1.1900614500045776, 1.0307167768478394, -0.21768254041671753, 0.14425936341285706, -0.238525390625, 0.637939453125, -0.188720703125, 
116, 3186457094, -0.6288163661956787, 0.597501277923584, -0.431128591299057, 0.24841736257076263, -2.4838674068450928, -9.549989700317383, -1.1683094501495361, 0.7930678725242615, -0.7767387628555298, 0.20788510143756866, -0.23876953125, 0.6494140625, -0.18603515625, 
117, 3186465427, -0.6288421750068665, 0.5975273251533508, -0.4310840368270874, 0.24836677312850952, -2.519939422607422, -9.50395393371582, -1.1242552995681763, -0.2613036036491394, -1.5824857950210571, -0.1383296698331833, -0.237060546875, 0.642822265625, -0.186767578125, 
118, 3186473760, -0.6288409233093262, 0.5976019501686096, -0.43104392290115356, 0.248260498046875, -2.477823257446289, -9.493622779846191, -1.0694682598114014, -1.2338247299194336, -2.0079379081726074, -0.011795355007052422, -0.2412109375, 0.64794921875, -0.185546875, 
119, 3186482093, -0.6288235783576965, 0.5976942777633667, -0.4310232996940613, 0.24811744689941406, -2.504927396774292, -9.55414867401123, -1.0362129211425781, -1.8185980319976807, -2.1070656776428223, 0.3188716173171997, -0.239501953125, 0.64111328125, -0.19189453125, 
120, 3186490426, -0.6288314461708069, 0.5977693200111389, -0.43098822236061096, 0.24797774851322174, -2.4952569007873535, -9.563425064086914, -1.0030899047851562, -1.3767781257629395, -2.2950994968414307, 0.34771326184272766, -0.238037109375, 0.641357421875, -0.189208984375, 
121, 3186498759, -0.6288705468177795, 0.5978241562843323, -0.43092086911201477, 0.2478635609149933, -2.4712958335876465, -9.57746410369873, -0.94636470079422, -0.7010616064071655, -2.47835636138916, 0.09870445728302002, -0.239013671875, 0.640869140625, -0.189697265625, 
122, 3186507092, -0.6289374828338623, 0.597865104675293, -0.4308260977268219, 0.24775980412960052, -2.460513114929199, -9.516119003295898, -0.8952840566635132, -0.1784287691116333, -2.7512505054473877, -0.050613731145858765, -0.237060546875, 0.638427734375, -0.188720703125, 
123, 3186515425, -0.6290163397789001, 0.5979033708572388, -0.4307112693786621, 0.247666597366333, -2.4106791019439697, -9.51387882232666, -0.8383699655532837, 0.0574527308344841, -2.897341251373291, -0.24035115540027618, -0.242431640625, 0.639892578125, -0.1875, 
124, 3186523758, -0.6290889382362366, 0.5979394912719727, -0.4306015968322754, 0.24758575856685638, -2.3610918521881104, -9.50480842590332, -0.813498318195343, 0.09620705991983414, -2.7081289291381836, -0.3223166763782501, -0.2392578125, 0.64404296875, -0.183349609375, 
125, 3186532091, -0.6291866302490234, 0.5979132652282715, -0.43051689863204956, 0.2475481778383255, -2.354235887527466, -9.599413871765137, -0.7457272410392761, 0.995894193649292, -2.0675551891326904, -0.027560915797948837, -0.234619140625, 0.640380859375, -0.18994140625, 
126, 3186540424, -0.6292890906333923, 0.5978851914405823, -0.4304220676422119, 0.2475205808877945, -2.398512125015259, -9.550686836242676, -0.7180840373039246, 1.1617976427078247, -2.0999319553375244, -0.17996563017368317, -0.236572265625, 0.642822265625, -0.188232421875, 
127, 3186548757, -0.6293741464614868, 0.5978847742080688, -0.430318683385849, 0.2474849671125412, -2.439870595932007, -9.484326362609863, -0.6928017139434814, 0.7448235750198364, -2.2289764881134033, -0.39281991124153137, -0.238037109375, 0.637451171875, -0.188720703125, 
128, 3186557090, -0.6294186115264893, 0.5979511141777039, -0.4302169978618622, 0.24738840758800507, -2.497321367263794, -9.519773483276367, -0.6922493577003479, -0.5192133188247681, -2.7034928798675537, -0.3967260718345642, -0.240966796875, 0.637939453125, -0.187744140625, 
129, 3186565423, -0.6293858289718628, 0.5981100797653198, -0.43013113737106323, 0.24723680317401886, -2.465451955795288, -9.583194732666016, -0.7144719958305359, -2.349837064743042, -2.877131700515747, -0.5887560248374939, -0.2392578125, 0.64990234375, -0.1865234375, 
130, 3186573756, -0.6293015480041504, 0.5983203053474426, -0.43006160855293274, 0.2470635175704956, -2.4019792079925537, -9.634684562683105, -0.7464015483856201, -3.386906385421753, -2.7844343185424805, -0.7566573619842529, -0.237060546875, 0.641845703125, -0.187744140625, 
131, 3186582089, -0.6292011141777039, 0.598522424697876, -0.4300234615802765, 0.24689602851867676, -2.376638412475586, -9.663972854614258, -0.7474654912948608, -3.5376203060150146, -2.339668035507202, -0.5448788404464722, -0.23779296875, 0.6494140625, -0.182861328125, 
132, 3186590422, -0.6291003823280334, 0.5986930131912231, -0.43001991510391235, 0.24674537777900696, -2.4280202388763428, -9.678779602050781, -0.7905099987983704, -3.2684273719787598, -1.7955577373504639, -0.23101477324962616, -0.236083984375, 0.64599609375, -0.185791015625, 
133, 3186598755, -0.6290265321731567, 0.598819375038147, -0.43001267313957214, 0.24663954973220825, -2.3904778957366943, -9.648870468139648, -0.809164822101593, -2.4031145572662354, -1.4650444984436035, -0.28614941239356995, -0.237060546875, 0.641845703125, -0.185302734375, 
134, 3186607088, -0.6289716958999634, 0.5989264845848083, -0.42999032139778137, 0.24655872583389282, -2.3828189373016357, -9.611723899841309, -0.8193883299827576, -1.864063024520874, -1.4393279552459717, -0.4574317932128906, -0.23681640625, 0.64453125, -0.182861328125, 
135, 3186615421, -0.6289457678794861, 0.599004864692688, -0.4299568831920624, 0.2464921474456787, -2.3414218425750732, -9.55712890625, -0.8238211870193481, -1.2740007638931274, -1.4862147569656372, -0.39407503604888916, -0.235595703125, 0.641357421875, -0.184326171875, 
136, 3186623754, -0.6289398074150085, 0.5990263223648071, -0.42994993925094604, 0.2464674860239029, -2.3314976692199707, -9.568007469177246, -0.7934433817863464, -0.4405904710292816, -0.8416838645935059, -0.14533518254756927, -0.23828125, 0.6513671875, -0.18115234375, 
137, 3186632087, -0.6289379000663757, 0.599020779132843, -0.4299441874027252, 0.2464960813522339, -2.3605527877807617, -9.524497032165527, -0.7906606793403625, 0.11858108639717102, -0.3238663375377655, -0.4117487967014313, -0.236083984375, 0.639892578125, -0.188720703125, 
138, 3186640420, -0.6289411187171936, 0.5990236401557922, -0.4299139976501465, 0.24653328955173492, -2.390758991241455, -9.505705833435059, -0.7883720397949219, 0.24085064232349396, -0.5242336988449097, -0.7313504219055176, -0.237548828125, 0.639892578125, -0.186279296875, 
139, 3186648753, -0.6289174556732178, 0.5990558862686157, -0.4299049377441406, 0.24653121829032898, -2.3795716762542725, -9.430580139160156, -0.7365279793739319, -0.5588386058807373, -0.6035354137420654, -0.4703926146030426, -0.237548828125, 0.643798828125, -0.189697265625, 
140, 3186657086, -0.6288753151893616, 0.5990837216377258, -0.4299424886703491, 0.24650529026985168, -2.3934059143066406, -9.50971794128418, -0.7532514929771423, -0.9519914388656616, -0.27610865235328674, 0.07166863232851028, -0.237060546875, 0.642333984375, -0.184814453125, 
141, 3186665419, -0.6288037300109863, 0.599137544631958, -0.4299871325492859, 0.2464793473482132, -2.5081944465637207, -9.595610618591309, -0.7945306301116943, -1.4627649784088135, -0.12603484094142914, -0.11138349771499634, -0.235595703125, 0.643798828125, -0.187744140625, 
142, 3186673752, -0.6287347078323364, 0.5991777181625366, -0.43001964688301086, 0.24650105834007263, -2.5040245056152344, -9.614652633666992, -0.7978425025939941, -0.9811149835586548, 0.19185063242912292, -0.544648289680481, -0.240478515625, 0.641357421875, -0.184814453125, 
143, 3186682085, -0.6286843419075012, 0.5992176532745361, -0.4300173223018646, 0.24653631448745728, -2.543715715408325, -9.491313934326172, -0.8687988519668579, -0.6473997831344604, -0.10688821226358414, -0.8735991716384888, -0.239501953125, 0.642822265625, -0.183837890625, 
144, 3186690418, -0.6286550164222717, 0.599250853061676, -0.4300048053264618, 0.24655258655548096, -2.512342929840088, -9.490456581115723, -0.9001922011375427, -0.47452932596206665, -0.45472949743270874, -0.6943250298500061, -0.239501953125, 0.644287109375, -0.1865234375, 
145, 3186698751, -0.6286272406578064, 0.5992850065231323, -0.4299907088279724, 0.24656465649604797, -2.5197534561157227, -9.542421340942383, -0.9664563536643982, -0.506611168384552, -0.5114009976387024, -0.6610137224197388, -0.24072265625, 0.6455078125, -0.1845703125, 
146, 3186707084, -0.6286126971244812, 0.5993110537528992, -0.429954469203949, 0.2466016262769699, -2.4575953483581543, -9.539546012878418, -1.0293585062026978, -0.08671698719263077, -0.5516665577888489, -0.9751978516578674, -0.23681640625, 0.655517578125, -0.177734375, 
147, 3186715417, -0.6286281943321228, 0.5993024706840515, -0.4299027919769287, 0.2466730922460556, -2.441301107406616, -9.570947647094727, -0.9946027994155884, 0.696323037147522, -0.4589174687862396, -1.0842890739440918, -0.2373046875, 0.64599609375, -0.184326171875, 
148, 3186723750, -0.628688395023346, 0.5992696285247803, -0.429819792509079, 0.24674411118030548, -2.472388982772827, -9.615406036376953, -0.94186931848526, 1.3981785774230957, -0.9189234375953674, -1.0531933307647705, -0.24072265625, 0.65087890625, -0.18408203125, 
149, 3186732083, -0.628791332244873, 0.599200427532196, -0.42972585558891296, 0.24681346118450165, -2.4116592407226562, -9.633399963378906, -0.897087574005127, 2.0742409229278564, -1.1518337726593018, -0.7603713870048523, -0.23779296875, 0.64501953125, -0.182861328125, 
150, 3186740416, -0.6289143562316895, 0.5991153120994568, -0.42963212728500366, 0.24687007069587708, -2.395838499069214, -9.614096641540527, -0.8934550285339355, 2.3181650638580322, -1.3229625225067139, -0.49557143449783325, -0.239013671875, 0.641845703125, -0.187744140625, 
151, 3186748749, -0.6290220022201538, 0.5990588068962097, -0.42954352498054504, 0.2468871772289276, -2.403512716293335, -9.5542573928833, -0.8988270163536072, 1.675773024559021, -1.6104694604873657, -0.32256007194519043, -0.236572265625, 0.64306640625, -0.183837890625, 
152, 3186757082, -0.6290988922119141, 0.5990398526191711, -0.42946621775627136, 0.24687162041664124, -2.3760759830474854, -9.51814079284668, -0.8666354417800903, 0.8848052620887756, -1.728448510169983, -0.28324222564697266, -0.24169921875, 0.644287109375, -0.18408203125, 
153, 3186765415, -0.629120945930481, 0.5990809798240662, -0.4294061064720154, 0.24681977927684784, -2.3963284492492676, -9.546394348144531, -0.8426814079284668, -0.37720802426338196, -1.7543318271636963, -0.3593549430370331, -0.23779296875, 0.6474609375, -0.181396484375, 
154, 3186773748, -0.6291183829307556, 0.5991411805152893, -0.42935416102409363, 0.2467707246541977, -2.3883588314056396, -9.61098861694336, -0.9076533317565918, -0.7393420338630676, -1.5854058265686035, -0.5224151015281677, -0.240234375, 0.64892578125, -0.1845703125, 
155, 3186782081, -0.6291062831878662, 0.5991973876953125, -0.42931270599365234, 0.24673745036125183, -2.371582269668579, -9.574115753173828, -0.9966199398040771, -0.7406740188598633, -1.2901248931884766, -0.5696989893913269, -0.238037109375, 0.642333984375, -0.185791015625, 
156, 3186790414, -0.6291011571884155, 0.5992286205291748, -0.4292798936367035, 0.246731698513031, -2.3495371341705322, -9.532979965209961, -0.996755838394165, -0.3205493092536926, -0.9483030438423157, -0.5773064494132996, -0.238037109375, 0.642333984375, -0.185791015625, 
157, 3186798747, -0.6291226744651794, 0.5992348790168762, -0.42923063039779663, 0.24674734473228455, -2.4157159328460693, -9.52099895477295, -1.0249592065811157, 0.28416433930397034, -0.9859046339988708, -0.6477968096733093, -0.240234375, 0.643798828125, -0.18505859375, 
158, 3186807080, -0.6291623711585999, 0.5992550849914551, -0.42912745475769043, 0.24677668511867523, -2.4168996810913086, -9.517715454101562, -1.0028480291366577, 0.5918169021606445, -1.4941167831420898, -1.2434046268463135, -0.23828125, 0.64599609375, -0.183837890625, 
159, 3186815413, -0.6292392611503601, 0.5992751121520996, -0.42896774411201477, 0.24680927395820618, -2.378993034362793, -9.516780853271484, -1.0041613578796387, 1.0959564447402954, -2.1745333671569824, -1.5990070104599, -0.24267578125, 0.645263671875, -0.18603515625, 
160, 3186823746, -0.6293612718582153, 0.5992560386657715, -0.4287853240966797, 0.24686163663864136, -2.35471510887146, -9.526132583618164, -1.0033161640167236, 2.0137014389038086, -2.3425753116607666, -1.5839329957962036, -0.238525390625, 0.641357421875, -0.187255859375, 
161, 3186832079, -0.6295163035392761, 0.5992109179496765, -0.42858248949050903, 0.24692808091640472, -2.384579658508301, -9.560291290283203, -0.9339317679405212, 2.650830030441284, -2.509861946105957, -1.5983538627624512, -0.239990234375, 0.644287109375, -0.1865234375, 
162, 3186840412, -0.6296810507774353, 0.5991671681404114, -0.42835789918899536, 0.24700434505939484, -2.4459571838378906, -9.541284561157227, -0.9048140048980713, 2.8630824089050293, -2.678596019744873, -1.847798228263855, -0.240478515625, 0.640869140625, -0.186767578125, 
163, 3186848745, -0.6298215389251709, 0.5991842746734619, -0.4281047284603119, 0.24704347550868988, -2.4291329383850098, -9.445505142211914, -0.8583117723464966, 2.0010483264923096, -3.2954764366149902, -2.1926043033599854, -0.24072265625, 0.64794921875, -0.18603515625, 
164, 3186857078, -0.6299249529838562, 0.5992666482925415, -0.42784833908081055, 0.24702413380146027, -2.455042600631714, -9.485747337341309, -0.8968315124511719, 0.8124579787254333, -3.8106939792633057, -2.234086275100708, -0.23876953125, 0.645751953125, -0.1865234375, 
165, 3186865411, -0.6299638748168945, 0.5994142293930054, -0.42761197686195374, 0.2469761073589325, -2.468475103378296, -9.540477752685547, -0.8922335505485535, -0.5362724661827087, -3.7132315635681152, -2.4125661849975586, -0.2373046875, 0.64794921875, -0.186279296875, 
166, 3186873744, -0.6299760937690735, 0.5995872616767883, -0.4274003803730011, 0.24689096212387085, -2.448188304901123, -9.58634090423584, -0.8721454739570618, -1.2649205923080444, -3.735900402069092, -2.135983943939209, -0.240234375, 0.647216796875, -0.1865234375, 
167, 3186882077, -0.6300005912780762, 0.599729597568512, -0.42721033096313477, 0.2468118816614151, -2.457693576812744, -9.695154190063477, -0.8993995189666748, -0.9473680853843689, -3.464094638824463, -1.7796257734298706, -0.240478515625, 0.641845703125, -0.186279296875, 
168, 3186890410, -0.630068302154541, 0.599808394908905, -0.4270363748073578, 0.24674855172634125, -2.4511685371398926, -9.727535247802734, -0.8773178458213806, 0.00892656110227108, -3.2359488010406494, -1.2738984823226929, -0.23974609375, 0.6474609375, -0.18505859375, 
169, 3186898743, -0.6301656365394592, 0.5998537540435791, -0.42686697840690613, 0.2466827929019928, -2.45959210395813, -9.691075325012207, -0.7770962119102478, 0.5022696256637573, -3.275459051132202, -0.9087802767753601, -0.238525390625, 0.645751953125, -0.18896484375, 
170, 3186907076, -0.6302893757820129, 0.5998646020889282, -0.42669305205345154, 0.24664081633090973, -2.4540598392486572, -9.655572891235352, -0.7017777562141418, 1.185964822769165, -3.158607006072998, -0.8688733577728271, -0.2392578125, 0.6484375, -0.18212890625, 
171, 3186915409, -0.6303997039794922, 0.599878191947937, -0.42653340101242065, 0.24660220742225647, -2.3832128047943115, -9.65277099609375, -0.6449158787727356, 1.0107249021530151, -2.9356727600097656, -0.8312587141990662, -0.24072265625, 0.650390625, -0.1826171875, 
172, 3186923742, -0.6304802298545837, 0.5999047756195068, -0.4264068007469177, 0.2465510368347168, -2.3484699726104736, -9.524566650390625, -0.6055545210838318, 0.4793832302093506, -2.6237688064575195, -0.6390495896339417, -0.24072265625, 0.6552734375, -0.18408203125, 
173, 3186932075, -0.6305414438247681, 0.5999322533607483, -0.4263225793838501, 0.2464725226163864, -2.308168649673462, -9.533693313598633, -0.593956708908081, -0.00562232406809926, -2.3691246509552, -0.11233121156692505, -0.23974609375, 0.647216796875, -0.18701171875, 
174, 3186940408, -0.6305765509605408, 0.5999733805656433, -0.4262632429599762, 0.24638542532920837, -2.3610458374023438, -9.558979988098145, -0.5861300230026245, -0.46027499437332153, -2.1196162700653076, -0.009976743720471859, -0.23876953125, 0.646240234375, -0.18798828125, 
175, 3186948741, -0.6305996775627136, 0.6000214219093323, -0.4262080490589142, 0.24630418419837952, -2.360466241836548, -9.596949577331543, -0.5889586210250854, -0.6152027249336243, -1.986051082611084, -0.09922954440116882, -0.23828125, 0.64599609375, -0.185791015625, 
176, 3186957074, -0.6306334137916565, 0.6000537872314453, -0.42613768577575684, 0.24626095592975616, -2.3473918437957764, -9.636680603027344, -0.598900318145752, -0.10034377127885818, -1.8151912689208984, -0.43537798523902893, -0.24072265625, 0.645263671875, -0.1865234375, 
177, 3186965407, -0.6306655406951904, 0.6000616550445557, -0.4260736107826233, 0.2462700605392456, -2.304896354675293, -9.634500503540039, -0.5750313401222229, 0.3663859963417053, -1.2356178760528564, -0.6889588236808777, -0.239990234375, 0.645263671875, -0.18798828125, 
178, 3186973740, -0.6307040452957153, 0.6000233888626099, -0.4260503649711609, 0.24630503356456757, -2.296992540359497, -9.62477970123291, -0.6006170511245728, 0.849931538105011, -0.5509493947029114, -0.2953192889690399, -0.23828125, 0.646484375, -0.184326171875, 
179, 3186982073, -0.6307216286659241, 0.599972665309906, -0.4260590076446533, 0.2463686466217041, -2.3045601844787598, -9.63515853881836, -0.631123960018158, 0.8258285522460938, 0.1298641711473465, -0.26765596866607666, -0.2392578125, 0.6455078125, -0.182861328125, 
180, 3186990406, -0.6306875348091125, 0.599942147731781, -0.42610734701156616, 0.2464466691017151, -2.3490653038024902, -9.627462387084961, -0.7245116829872131, 0.19487307965755463, 0.8255211710929871, -0.3683198392391205, -0.23828125, 0.64501953125, -0.184326171875, 
181, 3186998739, -0.6306152939796448, 0.5999290347099304, -0.426188200712204, 0.24652421474456787, -2.3393802642822266, -9.629629135131836, -0.7995376586914062, -0.4046664834022522, 1.2696975469589233, -0.3166815936565399, -0.24072265625, 0.65087890625, -0.1845703125, 
182, 3187007072, -0.6305177211761475, 0.5999135375022888, -0.4263135492801666, 0.24659456312656403, -2.358715057373047, -9.630356788635254, -0.8565362095832825, -0.7679276466369629, 1.7505794763565063, 0.030301641672849655, -0.23779296875, 0.64404296875, -0.183349609375, 
183, 3187015405, -0.6304396390914917, 0.5998629331588745, -0.42645150423049927, 0.24667870998382568, -2.3945531845092773, -9.667973518371582, -0.8609201312065125, -0.28083446621894836, 1.979506492614746, 0.297317236661911, -0.23779296875, 0.6513671875, -0.185546875, 
184, 3187023738, -0.630381166934967, 0.5997921228408813, -0.4265810549259186, 0.2467762529850006, -2.4150731563568115, -9.613065719604492, -0.890016496181488, 0.18045227229595184, 1.970707893371582, 0.2856499254703522, -0.237548828125, 0.644287109375, -0.188720703125, 
185, 3187032071, -0.630340576171875, 0.5997169613838196, -0.42668092250823975, 0.2468898892402649, -2.4300241470336914, -9.517183303833008, -0.9171651005744934, 0.5425606966018677, 1.7570852041244507, -0.0016777323326095939, -0.240234375, 0.65185546875, -0.18115234375, 
186, 3187040404, -0.6302955746650696, 0.5996714234352112, -0.4267444312572479, 0.24700574576854706, -2.42287540435791, -9.453326225280762, -0.9432028532028198, 0.40475618839263916, 1.3843982219696045, -0.5203148126602173, -0.236328125, 0.6484375, -0.185302734375, 
187, 3187048737, -0.6302449703216553, 0.5996766090393066, -0.42677268385887146, 0.24707303941249847, -2.4360365867614746, -9.391532897949219, -0.957715630531311, -0.2658885717391968, 0.5393846035003662, -0.6971298456192017, -0.2353515625, 0.6494140625, -0.184814453125, 
188, 3187057070, -0.6302294731140137, 0.5996864438056946, -0.42676615715026855, 0.2471003234386444, -2.4585533142089844, -9.538908958435059, -1.0049391984939575, -0.11476456373929977, -0.3149653971195221, -0.5550732612609863, -0.23681640625, 0.6513671875, -0.1875, 
189, 3187065403, -0.63023442029953, 0.5997553467750549, -0.4266749620437622, 0.24707788228988647, -2.4849770069122314, -9.536802291870117, -1.083410620689392, -0.47753897309303284, -1.7781784534454346, -1.0886178016662598, -0.23828125, 0.64990234375, -0.181640625, 
190, 3187073736, -0.6302234530448914, 0.5998877882957458, -0.426525354385376, 0.24704256653785706, -2.4842982292175293, -9.529868125915527, -1.1425628662109375, -1.0221232175827026, -2.5144853591918945, -1.8963112831115723, -0.242919921875, 0.659912109375, -0.181884765625, 
191, 3187082069, -0.6301347017288208, 0.6001191139221191, -0.4263702929019928, 0.24697521328926086, -2.406599998474121, -9.587095260620117, -1.3342914581298828, -2.702058792114258, -2.70597767829895, -2.497605800628662, -0.2431640625, 0.64794921875, -0.18505859375, 
192, 3187090402, -0.6299240589141846, 0.6004889011383057, -0.42624568939208984, 0.24682873487472534, -2.3123743534088135, -9.524212837219238, -1.5492266416549683, -5.462005138397217, -2.8497884273529053, -2.7965621948242188, -0.240234375, 0.645263671875, -0.18798828125, 
193, 3187098735, -0.6296030282974243, 0.6009900569915771, -0.42615407705307007, 0.24658580124378204, -2.3698315620422363, -9.589298248291016, -1.7437955141067505, -8.200845718383789, -3.159990072250366, -2.824648380279541, -0.24169921875, 0.64892578125, -0.1806640625, 
194, 3187107068, -0.6292371153831482, 0.6015997529029846, -0.42604976892471313, 0.24621349573135376, -2.417609930038452, -9.656184196472168, -1.9762088060379028, -10.214200973510742, -4.444441318511963, -2.606081962585449, -0.24169921875, 0.6494140625, -0.18505859375, 
195, 3187115401, -0.6289342641830444, 0.6022594571113586, -0.4258574843406677, 0.245706245303154, -2.4038312435150146, -9.752549171447754, -2.2046754360198975, -10.624055862426758, -6.861709117889404, -2.2351112365722656, -0.23828125, 0.6474609375, -0.182861328125, 
196, 3187123734, -0.6287705302238464, 0.6029220223426819, -0.4255298376083374, 0.24506723880767822, -2.455333709716797, -9.814226150512695, -2.340179443359375, -9.80634880065918, -9.945357322692871, -1.7757970094680786, -0.2412109375, 0.646484375, -0.17919921875, 
197, 3187132067, -0.6287987232208252, 0.6035741567611694, -0.4250043034553528, 0.24430017173290253, -2.4238507747650146, -9.765689849853516, -2.575486898422241, -8.204971313476562, -13.815258026123047, -1.5906569957733154, -0.2333984375, 0.651123046875, -0.181396484375, 
198, 3187140400, -0.6290920376777649, 0.6041414737701416, -0.42426154017448425, 0.24343279004096985, -2.390791416168213, -9.678361892700195, -2.7862179279327393, -5.130519866943359, -17.782289505004883, -1.1490932703018188, -0.23681640625, 0.649658203125, -0.176025390625, 
199, 3187148733, -0.6296390891075134, 0.6046846508979797, -0.42323046922683716, 0.24246293306350708, -2.455573320388794, -9.62441349029541, -2.917308807373047, -2.435723066329956, -22.536352157592773, -1.6584073305130005, -0.235595703125, 0.65673828125, -0.173095703125, 
200, 3187157066, -0.6303449273109436, 0.6053420305252075, -0.42187538743019104, 0.24134773015975952, -2.524811029434204, -9.415897369384766, -3.0614612102508545, -1.8795355558395386, -27.846216201782227, -3.23844838142395, -0.232421875, 0.65576171875, -0.177978515625, 
201, 3187165399, -0.6311427354812622, 0.6061939597129822, -0.4202212393283844, 0.24000610411167145, -2.5092902183532715, -9.058418273925781, -3.158745765686035, -3.1011312007904053, -33.51909255981445, -4.580585479736328, -0.231201171875, 0.660888671875, -0.170654296875, 
202, 3187173732, -0.6319568753242493, 0.6073004603385925, -0.41829952597618103, 0.2384176254272461, -2.4512760639190674, -8.909470558166504, -3.390845775604248, -5.738352298736572, -38.81925964355469, -6.094723224639893, -0.232177734375, 0.662109375, -0.174072265625, 
203, 3187182065, -0.6328319907188416, 0.6086095571517944, -0.4160938262939453, 0.23661154508590698, -2.4291584491729736, -8.937434196472168, -3.600029945373535, -7.279284477233887, -44.13728713989258, -7.533301830291748, -0.228271484375, 0.6640625, -0.166015625, 
204, 3187190398, -0.6338043212890625, 0.6100972294807434, -0.41355082392692566, 0.23462781310081482, -2.3818886280059814, -8.952802658081055, -3.82989239692688, -7.970719814300537, -49.67731857299805, -9.524532318115234, -0.230224609375, 0.661865234375, -0.16455078125, 
205, 3187198731, -0.6348972916603088, 0.6117714643478394, -0.41063192486763, 0.23243002593517303, -2.3610236644744873, -8.987709999084473, -3.946075677871704, -8.543639183044434, -56.062252044677734, -11.477682113647461, -0.225830078125, 0.6689453125, -0.1640625, 
206, 3187207064, -0.6361424326896667, 0.613649308681488, -0.40725570917129517, 0.23000259697437286, -2.3514654636383057, -9.028478622436523, -4.055263042449951, -8.919947624206543, -63.47256088256836, -13.987435340881348, -0.22216796875, 0.671630859375, -0.162109375, 
207, 3187215397, -0.6375612020492554, 0.6156947612762451, -0.4034762680530548, 0.22725245356559753, -2.329597234725952, -9.120267868041992, -4.028810024261475, -9.39415454864502, -71.2573471069336, -14.95503044128418, -0.2236328125, 0.6787109375, -0.1572265625, 
208, 3187223730, -0.6391578912734985, 0.6178714036941528, -0.39926713705062866, 0.2242746502161026, -2.235628366470337, -9.203083992004395, -3.9991159439086914, -9.017684936523438, -78.31768035888672, -16.77115821838379, -0.219482421875, 0.68798828125, -0.1474609375, 
209, 3187232063, -0.6409305930137634, 0.6200854182243347, -0.3947193920612335, 0.2211325466632843, -2.0112056732177734, -9.383231163024902, -3.9568064212799072, -7.633053302764893, -83.80802917480469, -17.866336822509766, -0.215576171875, 0.68798828125, -0.146728515625, 
210, 3187240396, -0.642866313457489, 0.6223130822181702, -0.38987112045288086, 0.21783225238323212, -1.934814453125, -9.351401329040527, -3.8325726985931396, -6.3840484619140625, -88.69608306884766, -18.612525939941406, -0.212646484375, 0.688232421875, -0.14599609375, 
211, 3187248729, -0.6449192762374878, 0.6245824098587036, -0.38476815819740295, 0.21431368589401245, -1.9619085788726807, -9.310643196105957, -3.716689109802246, -6.068599224090576, -93.61659240722656, -18.738142013549805, -0.208251953125, 0.69580078125, -0.14208984375, 
212, 3187257062, -0.6471002101898193, 0.6268905997276306, -0.37940722703933716, 0.21052473783493042, -1.9939013719558716, -9.448437690734863, -3.5994138717651367, -6.070794105529785, -98.97129821777344, -18.381132125854492, -0.205078125, 0.703857421875, -0.138671875, 
213, 3187265395, -0.6493685245513916, 0.629267156124115, -0.3738365173339844, 0.20637483894824982, -1.8785462379455566, -9.429314613342285, -3.502422332763672, -7.1002326011657715, -104.65018463134766, -17.084196090698242, -0.20068359375, 0.7080078125, -0.133544921875, 
214, 3187273728, -0.6518459916114807, 0.6314794421195984, -0.36816689372062683, 0.20195196568965912, -1.6808524131774902, -9.53724479675293, -3.489786148071289, -5.047069072723389, -108.45891571044922, -14.062579154968262, -0.197021484375, 0.715087890625, -0.131591796875, 
215, 3187282061, -0.6544780731201172, 0.633552610874176, -0.36243730783462524, 0.19725587964057922, -1.618423581123352, -9.550041198730469, -3.315995693206787, -3.5625569820404053, -111.82703399658203, -11.004804611206055, -0.188232421875, 0.721923828125, -0.12841796875, 
216, 3187290394, -0.6572527289390564, 0.6355974078178406, -0.35653191804885864, 0.19214823842048645, -1.837910771369934, -9.567319869995117, -2.9554104804992676, -3.7517755031585693, -117.56565856933594, -8.300101280212402, -0.186279296875, 0.72900390625, -0.12451171875, 
217, 3187298727, -0.6600403785705566, 0.6378324031829834, -0.3503219187259674, 0.18652622401714325, -2.030686140060425, -9.614123344421387, -2.4526615142822266, -6.949609756469727, -125.44329833984375, -7.216667652130127, -0.17626953125, 0.7451171875, -0.117431640625, 
218, 3187307060, -0.6627804040908813, 0.6403084993362427, -0.3437819182872772, 0.18039435148239136, -2.010504722595215, -9.747775077819824, -2.1352217197418213, -11.289894104003906, -133.23876953125, -6.761739253997803, -0.1708984375, 0.749267578125, -0.119140625, 
219, 3187315393, -0.6654905080795288, 0.6429926156997681, -0.33683499693870544, 0.17385637760162354, -1.867482304573059, -9.943060874938965, -1.9264092445373535, -14.228638648986816, -140.96514892578125, -7.710648536682129, -0.163330078125, 0.762451171875, -0.10888671875, 
220, 3187323726, -0.6680665016174316, 0.6458773612976074, -0.3293347954750061, 0.16753850877285004, -1.201097846031189, -10.59766960144043, -1.2945996522903442, -15.040332794189453, -143.8737335205078, -15.858592987060547, -0.156494140625, 0.7666015625, -0.110595703125, 
221, 3187332059, -0.6706220507621765, 0.648551344871521, -0.32197150588035583, 0.1611916422843933, -1.403416633605957, -10.143011093139648, -1.0194833278656006, -13.596653938293457, -142.3697967529297, -13.478954315185547, -0.1474609375, 0.77587890625, -0.10595703125, 
222, 3187340392, -0.6730832457542419, 0.6510966420173645, -0.31481897830963135, 0.15466813743114471, -1.1311818361282349, -10.047164916992188, -0.8391963839530945, -14.63633918762207, -141.22450256347656, -9.598133087158203, -0.14208984375, 0.7861328125, -0.100830078125, 
223, 3187348725, -0.6753896474838257, 0.6535834670066833, -0.3077227771282196, 0.14827434718608856, -1.0312352180480957, -10.159730911254883, -0.781126856803894, -14.902337074279785, -138.81846618652344, -10.383190155029297, -0.133544921875, 0.794677734375, -0.09619140625, 
224, 3187357058, -0.677527904510498, 0.6560317873954773, -0.3007805049419403, 0.14181053638458252, -1.1874706745147705, -9.847270965576172, -0.7750173807144165, -16.80319595336914, -137.15640258789062, -8.51726245880127, -0.124755859375, 0.811279296875, -0.09375, 
225, 3187365391, -0.6794518232345581, 0.6584307551383972, -0.29405316710472107, 0.13545425236225128, -0.8985639810562134, -9.72641372680664, -0.7329400777816772, -18.115623474121094, -133.276123046875, -7.807676315307617, -0.1181640625, 0.823486328125, -0.089599609375, 
226, 3187373724, -0.6812578439712524, 0.6607197523117065, -0.2875353693962097, 0.12907885015010834, -0.7699504494667053, -9.80753231048584, -0.655007541179657, -18.75887107849121, -130.7350311279297, -5.4914937019348145, -0.110107421875, 0.83935546875, -0.084716796875, 
227, 3187382057, -0.6829418540000916, 0.6630175709724426, -0.28106948733329773, 0.12247078120708466, -1.3455009460449219, -9.824151039123535, -0.44710642099380493, -20.824445724487305, -131.97311401367188, -3.1034953594207764, -0.100830078125, 0.840576171875, -0.081298828125, 
228, 3187390390, -0.6845011115074158, 0.6654213070869446, -0.27437251806259155, 0.11572977900505066, -1.7017288208007812, -10.018440246582031, -0.26112261414527893, -23.219928741455078, -134.97540283203125, -4.572305679321289, -0.092041015625, 0.8525390625, -0.0810546875, 
229, 3187398723, -0.6860149502754211, 0.6678614020347595, -0.26735958456993103, 0.10892388224601746, -1.552034616470337, -10.39727783203125, -0.005919319111853838, -23.58585548400879, -138.50933837890625, -7.073711395263672, -0.083984375, 0.873779296875, -0.07421875, 
230, 3187407056, -0.6876890063285828, 0.6700423359870911, -0.2601408064365387, 0.10224860906600952, -1.226279377937317, -10.657511711120605, 0.5394773483276367, -19.01376724243164, -139.37255859375, -8.991304397583008, -0.079833984375, 0.8740234375, -0.068603515625, 
231, 3187415389, -0.6896576285362244, 0.6717405915260315, -0.25286027789115906, 0.09591478854417801, -1.1754913330078125, -10.826668739318848, 0.9553037881851196, -10.29680347442627, -137.265869140625, -10.661683082580566, -0.069580078125, 0.888671875, -0.0654296875, 
232, 3187423722, -0.6918952465057373, 0.67295241355896, -0.2456226944923401, 0.08992306143045425, -1.0794943571090698, -10.586421966552734, 1.290328025817871, -2.196455717086792, -133.9105682373047, -11.44866943359375, -0.06396484375, 0.904052734375, -0.05810546875, 
233, 3187432055, -0.6942773461341858, 0.6737154722213745, -0.23871499300003052, 0.08427578210830688, -0.7305904626846313, -10.454328536987305, 1.5638000965118408, 4.289024829864502, -127.59056854248047, -9.991464614868164, -0.059326171875, 0.9111328125, -0.0556640625, 
234, 3187440388, -0.69666987657547, 0.6740772724151611, -0.2324354499578476, 0.0790281742811203, -0.5065603256225586, -10.136454582214355, 1.714717149734497, 8.67750358581543, -117.3857192993164, -6.646564960479736, -0.051513671875, 0.921630859375, -0.056396484375, 
235, 3187448721, -0.6989112496376038, 0.6742014288902283, -0.22690728306770325, 0.07409107685089111, -0.5264092683792114, -9.834747314453125, 1.764033317565918, 9.841036796569824, -106.63916778564453, -2.0693819522857666, -0.0478515625, 0.938720703125, -0.05224609375, 
236, 3187457054, -0.7008211016654968, 0.6743797063827515, -0.22193415462970734, 0.06934022903442383, -0.8851208686828613, -9.678900718688965, 1.803167462348938, 6.152515411376953, -98.52709197998047, 0.7891557216644287, -0.0439453125, 0.9443359375, -0.052001953125, 
237, 3187465387, -0.7022363543510437, 0.6748778820037842, -0.21730485558509827, 0.06468039751052856, -1.2630983591079712, -9.457040786743164, 1.7879468202590942, -1.4658371210098267, -93.23445129394531, 1.6490955352783203, -0.036865234375, 0.96044921875, -0.047607421875, 
238, 3187473720, -0.7031241059303284, 0.6758078336715698, -0.21282997727394104, 0.06003901734948158, -1.4374772310256958, -9.368667602539062, 1.6539417505264282, -10.714641571044922, -90.31002807617188, 1.1478207111358643, -0.034423828125, 0.963623046875, -0.043212890625, 
239, 3187482053, -0.7034854292869568, 0.6772032976150513, -0.20840799808502197, 0.05541617050766945, -1.5801905393600464, -9.539108276367188, 1.46405827999115, -20.005950927734375, -88.52787780761719, -0.3397881090641022, -0.029541015625, 0.97705078125, -0.0322265625, 
240, 3187490386, -0.7034759521484375, 0.6789047122001648, -0.2040206491947174, 0.05085738003253937, -1.5968377590179443, -9.767087936401367, 1.2666947841644287, -26.3531436920166, -86.70929718017578, -1.7928557395935059, -0.023681640625, 0.979736328125, -0.028076171875, 
241, 3187498719, -0.7033103704452515, 0.6806638240814209, -0.1997416913509369, 0.04642714187502861, -1.572744607925415, -9.989006042480469, 1.0445104837417603, -27.99847412109375, -84.11952209472656, -2.299482583999634, -0.018310546875, 0.98828125, -0.020751953125, 
242, 3187507052, -0.703240692615509, 0.6821978688240051, -0.19564898312091827, 0.042201921343803406, -1.5004616975784302, -10.312868118286133, 0.8596363067626953, -24.56561279296875, -80.46172332763672, -1.8554298877716064, -0.01611328125, 0.99658203125, -0.011962890625, 
243, 3187515385, -0.7034155130386353, 0.6833294034004211, -0.19185829162597656, 0.038195885717868805, -1.3807854652404785, -10.324960708618164, 0.6982321739196777, -17.883621215820312, -75.9662857055664, 0.08067246526479721, -0.015869140625, 1.0087890625, -0.000732421875, 
244, 3187523718, -0.7039072513580322, 0.6839699149131775, -0.1884598284959793, 0.034404315054416656, -1.2678970098495483, -10.257658958435059, 0.5580099821090698, -9.876867294311523, -70.67755126953125, 3.1559314727783203, -0.0087890625, 1.0205078125, 0.003173828125, 
245, 3187532051, -0.7046353220939636, 0.684232771396637, -0.1853896528482437, 0.03075810894370079, -1.4008276462554932, -9.946863174438477, 0.4520127773284912, -3.700759172439575, -66.62114715576172, 5.927375793457031, -0.01025390625, 1.0185546875, 0.01025390625, 
246, 3187540384, -0.7054440975189209, 0.6843447685241699, -0.1824342906475067, 0.027193311601877213, -1.6759434938430786, -9.58765983581543, 0.46660467982292175, -1.3971335887908936, -64.82992553710938, 6.637018203735352, -0.004638671875, 1.028564453125, 0.02001953125, 
247, 3187548717, -0.7061682343482971, 0.6845195889472961, -0.1794407218694687, 0.023691561073064804, -1.7876436710357666, -9.200057983398438, 0.4815799295902252, -2.5554003715515137, -64.46958923339844, 5.478546142578125, 0.000244140625, 1.031005859375, 0.020751953125, 
248, 3187557050, -0.7066595554351807, 0.6849375367164612, -0.17630904912948608, 0.02022438310086727, -1.7601505517959595, -8.880309104919434, 0.35498350858688354, -7.051945209503174, -64.93812561035156, 3.16506028175354, 0.0009765625, 1.0341796875, 0.027099609375, 
249, 3187565383, -0.7068580985069275, 0.6856553554534912, -0.1730562299489975, 0.0167545136064291, -1.7292975187301636, -8.811565399169922, 0.2789818048477173, -12.626444816589355, -65.57115173339844, 1.2450615167617798, 0.00341796875, 1.039306640625, 0.033935546875, 
250, 3187573716, -0.7068140506744385, 0.6865902543067932, -0.1697976142168045, 0.01332943793386221, -1.608166217803955, -9.056159019470215, 0.26474153995513916, -16.98785972595215, -64.62035369873047, 0.17846786975860596, 0.005615234375, 1.045166015625, 0.04248046875, 
251, 3187582049, -0.7066207528114319, 0.6876188516616821, -0.16663822531700134, 0.010003061965107918, -1.5496833324432373, -9.0399808883667, 0.22375568747520447, -19.023738861083984, -62.44527816772461, -0.08573117107152939, 0.006103515625, 1.0478515625, 0.0517578125, 
252, 3187590382, -0.70636385679245, 0.6886652112007141, -0.1635410338640213, 0.006747533567249775, -1.612058162689209, -9.164203643798828, 0.1420232206583023, -19.71529769897461, -60.975257873535156, -0.24031361937522888, 0.0068359375, 1.0556640625, 0.060546875, 
253, 3187598715, -0.7060843706130981, 0.6896954774856567, -0.16047854721546173, 0.0035387687385082245, -1.707406997680664, -9.222260475158691, 0.08811347931623459, -19.598901748657227, -60.1934814453125, -0.32545557618141174, 0.010009765625, 1.059326171875, 0.070068359375, 
254, 3187607048, -0.7058108448982239, 0.690693736076355, -0.15739759802818298, 0.0003848392516374588, -1.797437310218811, -9.235135078430176, 0.01349496841430664, -19.18238639831543, -59.8155403137207, -0.9680677056312561, 0.010986328125, 1.064453125, 0.079345703125, 
255, 3187615381, -0.7055812478065491, 0.6916276216506958, -0.15427276492118835, -0.002674981951713562, -1.8471678495407104, -9.297157287597656, -0.06719744950532913, -17.865259170532227, -59.49240493774414, -2.1548430919647217, 0.01220703125, 1.07421875, 0.090087890625, 
256, 3187623714, -0.7054947018623352, 0.6924118995666504, -0.15103574097156525, -0.005647335201501846, -1.826483964920044, -9.459020614624023, -0.08589693903923035, -14.943588256835938, -60.007972717285156, -3.761706590652466, 0.009765625, 1.0703125, 0.093994140625, 
257, 3187632047, -0.7055713534355164, 0.693021297454834, -0.14771024882793427, -0.008552204817533493, -1.8291964530944824, -9.515936851501465, -0.05248535796999931, -11.488869667053223, -60.62614059448242, -4.9034528732299805, 0.010986328125, 1.071533203125, 0.102783203125, 
258, 3187640380, -0.7058315277099609, 0.6934401988983154, -0.14426670968532562, -0.011427339166402817, -1.8212265968322754, -9.59260082244873, -0.026551466435194016, -7.913185119628906, -61.83344268798828, -5.957224369049072, 0.011962890625, 1.07470703125, 0.112548828125, 
259, 3187648713, -0.7061817646026611, 0.6937666535377502, -0.14067916572093964, -0.014327704906463623, -1.7249703407287598, -9.588047981262207, 0.10004886984825134, -6.162729740142822, -63.7141227722168, -6.910591125488281, 0.01220703125, 1.078369140625, 0.117431640625, 
260, 3187657046, -0.7065799236297607, 0.6940301060676575, -0.13700588047504425, -0.017236003652215004, -1.6393845081329346, -9.720481872558594, 0.3133566975593567, -5.1928181648254395, -64.67769622802734, -7.544290542602539, 0.007568359375, 1.084716796875, 0.130126953125, 
261, 3187665379, -0.7069798707962036, 0.6942647695541382, -0.1333094984292984, -0.02012796141207218, -1.5940237045288086, -9.823553085327148, 0.5253241658210754, -4.805030822753906, -64.8072738647461, -7.8644585609436035, 0.009521484375, 1.087646484375, 0.133544921875, 
262, 3187673712, -0.7073088884353638, 0.6945362687110901, -0.12963896989822388, -0.022980086505413055, -1.5289692878723145, -9.805304527282715, 0.6859769821166992, -5.826299667358398, -63.984256744384766, -8.057103157043457, 0.00537109375, 1.093994140625, 0.14501953125, 
263, 3187682045, -0.7074592709541321, 0.6949495077133179, -0.12602509558200836, -0.02578600123524666, -1.524720311164856, -9.772783279418945, 0.8396918773651123, -8.745844841003418, -62.678138732910156, -8.156100273132324, 0.005859375, 1.08740234375, 0.147216796875, 
264, 3187690378, -0.7074006199836731, 0.6955330967903137, -0.12248936295509338, -0.028553305193781853, -1.497822880744934, -9.779004096984863, 0.9342345595359802, -12.374495506286621, -61.077354431152344, -8.012710571289062, 0.006103515625, 1.0888671875, 0.159423828125, 
265, 3187698711, -0.7071515917778015, 0.6962697505950928, -0.11903180181980133, -0.031261906027793884, -1.4731663465499878, -9.80185604095459, 1.040738821029663, -15.491299629211426, -59.42083740234375, -8.009431838989258, 0.007080078125, 1.092529296875, 0.165283203125, 
266, 3187707044, -0.7068296074867249, 0.69704270362854, -0.11565496772527695, -0.0338842049241066, -1.5384893417358398, -9.915169715881348, 1.1010124683380127, -16.42774200439453, -57.6290397644043, -8.113000869750977, 0.003173828125, 1.087646484375, 0.173095703125, 
267, 3187715377, -0.7065762281417847, 0.6977120041847229, -0.11236996203660965, -0.03635811433196068, -1.4674757719039917, -10.009964942932129, 1.2201088666915894, -14.429640769958496, -55.51332473754883, -8.531203269958496, 0.003662109375, 1.0869140625, 0.18212890625, 
268, 3187723710, -0.7065244317054749, 0.6981456279754639, -0.10919001698493958, -0.03865823149681091, -1.3980337381362915, -10.173826217651367, 1.5004104375839233, -9.93774700164795, -53.21157455444336, -8.961125373840332, 0.00146484375, 1.090576171875, 0.191162109375, 
269, 3187732043, -0.7068206071853638, 0.6981971263885498, -0.10613977909088135, -0.04075102508068085, -1.253975510597229, -10.352486610412598, 1.9144515991210938, -2.4560136795043945, -50.7243537902832, -9.32551097869873, 0, 1.08544921875, 0.19580078125, 
270, 3187740376, -0.7075404524803162, 0.6977841258049011, -0.10330571979284286, -0.042575493454933167, -1.1842411756515503, -10.341561317443848, 2.3511862754821777, 6.591644287109375, -46.88815689086914, -9.431974411010742, 0.001708984375, 1.0927734375, 0.20263671875, 
271, 3187748709, -0.7086281180381775, 0.6969581842422485, -0.10072160512208939, -0.04417635500431061, -1.1059321165084839, -10.124558448791504, 2.6593101024627686, 14.642431259155273, -43.1071662902832, -8.821188926696777, 0.0029296875, 1.083740234375, 0.200927734375, 
272, 3187757042, -0.7099195718765259, 0.6958791613578796, -0.09841594099998474, -0.045624375343322754, -1.104892373085022, -9.955588340759277, 2.8901207447052, 19.402074813842773, -39.331993103027344, -7.432354927062988, 0.0009765625, 1.084716796875, 0.20361328125, 
273, 3187765375, -0.7112203240394592, 0.6947554349899292, -0.09635837376117706, -0.046867478638887405, -1.1100634336471558, -9.745678901672363, 3.1037063598632812, 20.386985778808594, -35.0129280090332, -6.981592178344727, -0.000732421875, 1.09130859375, 0.208984375, 
274, 3187773708, -0.7123613357543945, 0.6937641501426697, -0.09453746676445007, -0.04791940748691559, -1.1338837146759033, -9.447660446166992, 3.2282614707946777, 17.945621490478516, -30.551286697387695, -6.6838884353637695, 0.0009765625, 1.083740234375, 0.20361328125, 
275, 3187782041, -0.7132550477981567, 0.6929992437362671, -0.09295983612537384, -0.048770271241664886, -1.188145637512207, -9.440886497497559, 3.419870376586914, 13.80396842956543, -25.793245315551758, -6.439858913421631, 0.00048828125, 1.084716796875, 0.20263671875, 
276, 3187790374, -0.7139281034469604, 0.6924338936805725, -0.09167540073394775, -0.049379050731658936, -1.2744290828704834, -9.485447883605957, 3.5240957736968994, 10.235849380493164, -20.17938995361328, -6.152157306671143, 0.0009765625, 1.086669921875, 0.20263671875, 
277, 3187798707, -0.7143913507461548, 0.6920576691627502, -0.09070362150669098, -0.04974853992462158, -1.2552673816680908, -9.518179893493652, 3.611022710800171, 6.894623756408691, -14.442383766174316, -5.592280387878418, -0.003662109375, 1.082275390625, 0.2060546875, 
278, 3187807040, -0.7146649360656738, 0.6918469667434692, -0.0900963619351387, -0.049853842705488205, -1.3172047138214111, -9.527097702026367, 3.631585121154785, 4.043860912322998, -7.994152545928955, -4.823827266693115, -0.0029296875, 1.081787109375, 0.2041015625, 
279, 3187815373, -0.7147532105445862, 0.6917997598648071, -0.08985057473182678, -0.049686066806316376, -1.3505178689956665, -9.594744682312012, 3.6003236770629883, 1.2448261976242065, -1.4945266246795654, -4.113070011138916, -0.003662109375, 1.0869140625, 0.207763671875, 
280, 3187823706, -0.7147405743598938, 0.6918302774429321, -0.08994586765766144, -0.04926983267068863, -1.454830527305603, -9.79207992553711, 3.4424705505371094, 0.07504971325397491, 4.391099452972412, -3.3683106899261475, -0.004150390625, 1.09130859375, 0.205810546875, 
281, 3187832039, -0.7147549390792847, 0.6918106079101562, -0.09033830463886261, -0.04861506074666977, -1.5053987503051758, -10.106060981750488, 3.340161085128784, 1.291341781616211, 9.533132553100586, -2.8079991340637207, -0.005859375, 1.081787109375, 0.202880859375, 
282, 3187840372, -0.7149034142494202, 0.6916317343711853, -0.09102282673120499, -0.04769183695316315, -1.4967306852340698, -10.17820930480957, 3.1297123432159424, 4.692836284637451, 14.664894104003906, -2.594325542449951, -0.005615234375, 1.085693359375, 0.202880859375, 
283, 3187848705, -0.7151806950569153, 0.6912974715232849, -0.0919954776763916, -0.046499863266944885, -1.3727302551269531, -10.086407661437988, 2.975667953491211, 7.928005695343018, 19.818828582763672, -2.3488519191741943, -0.010009765625, 1.089599609375, 0.205078125, 
284, 3187857038, -0.715502917766571, 0.6908860802650452, -0.09329327195882797, -0.04504778981208801, -1.3167644739151, -9.95334529876709, 2.8484814167022705, 9.692523002624512, 25.355024337768555, -1.7840325832366943, -0.010009765625, 1.08740234375, 0.197265625, 
285, 3187865371, -0.7157740592956543, 0.6904928088188171, -0.0949072614312172, -0.043366990983486176, -1.3267335891723633, -9.79004192352295, 2.670010805130005, 9.463891983032227, 30.75221061706543, -0.9856622815132141, -0.009033203125, 1.094482421875, 0.197265625, 
286, 3187873704, -0.7158972024917603, 0.6902107000350952, -0.09683042764663696, -0.04153699427843094, -1.333093285560608, -9.628162384033203, 2.481421947479248, 7.398168087005615, 35.43638610839844, 0.3899003267288208, -0.012451171875, 1.09130859375, 0.191162109375, 
287, 3187882037, -0.7158025503158569, 0.6901200413703918, -0.0989714190363884, -0.03958050534129143, -1.4161789417266846, -9.569661140441895, 2.2655580043792725, 3.6739447116851807, 39.22193908691406, 1.1197150945663452, -0.013916015625, 1.09619140625, 0.19189453125, 
288, 3187890370, -0.7154940962791443, 0.6902175545692444, -0.10130926221609116, -0.03748742863535881, -1.4278844594955444, -9.703299522399902, 2.1060032844543457, 0.15103457868099213, 42.80799865722656, 1.4643809795379639, -0.01318359375, 1.091064453125, 0.18359375, 
289, 3187898703, -0.7150808572769165, 0.6903906464576721, -0.10382036864757538, -0.03524887561798096, -1.4143385887145996, -9.951642990112305, 1.9992361068725586, -1.3704408407211304, 46.12495422363281, 1.6666829586029053, -0.014892578125, 1.0986328125, 0.1826171875, 
290, 3187907036, -0.7147229909896851, 0.6904702186584473, -0.10650135576725006, -0.03286896273493767, -1.344061255455017, -10.333917617797852, 1.9735159873962402, 0.43368837237358093, 48.96708679199219, 1.9552539587020874, -0.013916015625, 1.096923828125, 0.1767578125, 
291, 3187915369, -0.7145290374755859, 0.6903374195098877, -0.10938309133052826, -0.030312195420265198, -1.2962290048599243, -10.458730697631836, 2.0011513233184814, 4.346848487854004, 52.33551025390625, 2.4019033908843994, -0.014404296875, 1.102783203125, 0.174560546875, 
292, 3187923702, -0.7145357728004456, 0.6899455189704895, -0.11249005794525146, -0.02758016623556614, -1.2185908555984497, -10.396815299987793, 2.10168719291687, 9.234469413757324, 55.75002670288086, 3.0833990573883057, -0.017578125, 1.0947265625, 0.167724609375, 
293, 3187932035, -0.7146714329719543, 0.689363420009613, -0.11581280827522278, -0.02472158707678318, -1.20206880569458, -10.217761993408203, 2.198451280593872, 12.516538619995117, 58.85850143432617, 4.174877643585205, -0.01318359375, 1.095458984375, 0.159912109375, 
294, 3187940368, -0.7148366570472717, 0.6886894106864929, -0.1193501427769661, -0.021724825724959373, -1.166524052619934, -10.018418312072754, 2.2680435180664062, 14.082104682922363, 62.139495849609375, 4.945422172546387, -0.01708984375, 1.100341796875, 0.154296875, 
295, 3187948701, -0.7148903608322144, 0.6880646347999573, -0.12310144305229187, -0.01858975924551487, -1.2131102085113525, -9.708712577819824, 2.3209917545318604, 12.7354097366333, 65.81842803955078, 5.609731197357178, -0.019775390625, 1.095947265625, 0.142822265625, 
296, 3187957034, -0.7147226929664612, 0.6876048445701599, -0.12703441083431244, -0.015299657359719276, -1.2959831953048706, -9.537141799926758, 2.3482980728149414, 9.424836158752441, 69.4207763671875, 5.535452365875244, -0.014404296875, 1.096435546875, 0.13330078125, 
297, 3187965367, -0.7142602801322937, 0.6873790621757507, -0.1311626434326172, -0.011810069903731346, -1.2363555431365967, -9.401676177978516, 2.2862958908081055, 4.621572971343994, 73.85948944091797, 5.121001720428467, -0.014892578125, 1.100830078125, 0.132568359375, 
298, 3187973700, -0.7134756445884705, 0.6874028444290161, -0.13551779091358185, -0.008105600252747536, -1.2389723062515259, -9.355354309082031, 2.19707989692688, -0.34567874670028687, 78.6721420288086, 4.71171236038208, -0.014404296875, 1.101318359375, 0.126220703125, 
299, 3187982033, -0.7123658061027527, 0.6876704692840576, -0.14009660482406616, -0.0042471811175346375, -1.4011571407318115, -9.370689392089844, 2.053840160369873, -5.619028091430664, 83.03209686279297, 4.943179607391357, -0.009765625, 1.097412109375, 0.11376953125, 
300, 3187990366, -0.7110016942024231, 0.6881128549575806, -0.14483878016471863, -0.00028017163276672363, -1.4128988981246948, -9.541604995727539, 1.8617631196975708, -9.396286010742188, 86.08209228515625, 5.056603908538818, -0.015869140625, 1.09326171875, 0.106201171875, 
301, 3187998699, -0.7095199823379517, 0.6885974407196045, -0.14967362582683563, 0.0037054885178804398, -1.4295976161956787, -9.849122047424316, 1.7445759773254395, -11.009751319885254, 87.48231506347656, 5.712985992431641, -0.014404296875, 1.0927734375, 0.099853515625, 
302, 3188007032, -0.7080755233764648, 0.6889695525169373, -0.15456877648830414, 0.007712126709520817, -1.516194224357605, -10.191637992858887, 1.5526787042617798, -9.395020484924316, 88.11373138427734, 6.267616271972656, -0.012451171875, 1.089599609375, 0.098876953125, 
303, 3188015365, -0.7068472504615784, 0.6890685558319092, -0.1594190001487732, 0.011745727621018887, -1.5260379314422607, -10.489882469177246, 1.3601415157318115, -4.7578511238098145, 87.59083557128906, 6.228335857391357, -0.01123046875, 1.0869140625, 0.090576171875, 
304, 3188023698, -0.7059133648872375, 0.6888138055801392, -0.1642315536737442, 0.015830831602215767, -1.5173096656799316, -10.61676025390625, 1.263413667678833, 1.7209296226501465, 87.03543090820312, 6.146612167358398, -0.0107421875, 1.086181640625, 0.081787109375, 
305, 3188032031, -0.7052403688430786, 0.6882264018058777, -0.16906091570854187, 0.019995003938674927, -1.4144340753555298, -10.488746643066406, 1.106967568397522, 7.459145545959473, 87.51992797851562, 6.39263916015625, -0.012939453125, 1.085205078125, 0.075927734375, 
306, 3188040364, -0.7046509385108948, 0.687462329864502, -0.17400163412094116, 0.024228321388363838, -1.2940961122512817, -10.174415588378906, 0.927837610244751, 10.230295181274414, 89.02052307128906, 7.164378643035889, -0.00927734375, 1.077392578125, 0.059814453125, 
307, 3188048697, -0.7039865255355835, 0.6866766810417175, -0.17907656729221344, 0.028471577912569046, -1.2453643083572388, -9.976570129394531, 0.9166348576545715, 9.567729949951172, 90.69551849365234, 8.409368515014648, -0.0078125, 1.080078125, 0.053466796875, 
308, 3188057030, -0.7031375169754028, 0.6859821081161499, -0.18426820635795593, 0.032747942954301834, -1.2603912353515625, -9.923501968383789, 0.9472704529762268, 7.1216559410095215, 92.46385955810547, 8.848248481750488, -0.010498046875, 1.0673828125, 0.042724609375, 
309, 3188065363, -0.7020524144172668, 0.6854278445243835, -0.18957017362117767, 0.037083085626363754, -1.174226999282837, -9.783462524414062, 0.8951375484466553, 3.487765073776245, 94.71464538574219, 8.904501914978027, -0.009033203125, 1.06591796875, 0.039306640625, 
310, 3188073696, -0.7007145285606384, 0.6850373148918152, -0.19495046138763428, 0.04145229607820511, -1.1462491750717163, -9.786253929138184, 0.8568060994148254, -0.27846744656562805, 96.27173614501953, 8.712906837463379, -0.008056640625, 1.053466796875, 0.02197265625, 
311, 3188082029, -0.6991755962371826, 0.6847416162490845, -0.200437530875206, 0.04591381549835205, -1.1901334524154663, -9.859295845031738, 0.8139870762825012, -3.052129030227661, 98.7515869140625, 8.505074501037598, -0.00732421875, 1.039794921875, 0.016357421875, 
312, 3188090362, -0.6974982619285583, 0.6844586133956909, -0.20606958866119385, 0.05048801749944687, -1.1209572553634644, -9.903696060180664, 0.7433859705924988, -4.10614013671875, 101.48439025878906, 8.619807243347168, -0.012451171875, 1.029052734375, 0.01123046875, 
313, 3188098695, -0.6957482695579529, 0.6841132044792175, -0.21183577179908752, 0.05522572249174118, -1.1256862878799438, -9.83534049987793, 0.6066349744796753, -3.9759445190429688, 104.65570831298828, 8.485925674438477, -0.01220703125, 1.02197265625, 0.005615234375, 
314, 3188107028, -0.693925142288208, 0.6837201714515686, -0.2177046537399292, 0.060000739991664886, -1.1832706928253174, -9.677252769470215, 0.369014173746109, -4.022179126739502, 106.14293670654297, 9.133666038513184, -0.0185546875, 1.00927734375, -0.00048828125, 
315, 3188115361, -0.6920250654220581, 0.6833043098449707, -0.22365084290504456, 0.0646352469921112, -1.2058087587356567, -9.53355884552002, 0.2954597473144531, -5.175240993499756, 105.90474700927734, 11.249909400939941, -0.016845703125, 1.004638671875, -0.006591796875, 
316, 3188123694, -0.6900629997253418, 0.6828564405441284, -0.2296586036682129, 0.06912481039762497, -1.2687088251113892, -9.758240699768066, 0.2741945683956146, -5.790141582489014, 105.25041961669922, 13.207853317260742, -0.022216796875, 0.99462890625, -0.007080078125, 
317, 3188132027, -0.6880713701248169, 0.6823342442512512, -0.23570972681045532, 0.07361820340156555, -1.1817859411239624, -9.701822280883789, 0.17211511731147766, -5.556859016418457, 105.96345520019531, 13.828790664672852, -0.024658203125, 0.973388671875, -0.014892578125, 
318, 3188140360, -0.6860823035240173, 0.6816902160644531, -0.2418109029531479, 0.07821880280971527, -1.0541279315948486, -9.645462036132812, 0.13298287987709045, -3.918199062347412, 107.4573745727539, 13.636428833007812, -0.02880859375, 0.96484375, -0.017822265625, 
319, 3188148693, -0.6841200590133667, 0.6808971166610718, -0.24794143438339233, 0.08297447115182877, -1.0964990854263306, -9.686317443847656, 0.03312666341662407, -1.9443074464797974, 109.35660552978516, 13.01823902130127, -0.03369140625, 0.9521484375, -0.021728515625, 
320, 3188157026, -0.6821190118789673, 0.6800558567047119, -0.2540268898010254, 0.0878007635474205, -1.1269727945327759, -9.652238845825195, -0.0371953584253788, -1.3939800262451172, 109.68189239501953, 12.006340980529785, -0.036865234375, 0.94091796875, -0.028076171875, 
321, 3188165359, -0.6800789833068848, 0.6791926622390747, -0.26002734899520874, 0.09261099249124527, -1.17704176902771, -9.752925872802734, -0.0787263885140419, -1.677814245223999, 108.99774932861328, 11.43769645690918, -0.04296875, 0.927734375, -0.031494140625, 
322, 3188173692, -0.6779078841209412, 0.6783915162086487, -0.2659675180912018, 0.09740710258483887, -1.2295156717300415, -9.839999198913574, -0.1409398466348648, -3.283818483352661, 108.5931167602539, 10.572234153747559, -0.050537109375, 0.914306640625, -0.033203125, 
323, 3188182025, -0.6756472587585449, 0.6775853037834167, -0.27189362049102783, 0.10224340856075287, -1.2100363969802856, -9.920819282531738, -0.23873217403888702, -4.08267068862915, 109.26748657226562, 10.008829116821289, -0.057373046875, 0.903564453125, -0.03271484375, 
324, 3188190358, -0.6732971668243408, 0.676698625087738, -0.27797114849090576, 0.10715965181589127, -1.1345356702804565, -10.190134048461914, -0.44766390323638916, -3.9057276248931885, 111.77027130126953, 10.80823802947998, -0.06103515625, 0.89404296875, -0.0380859375, 
325, 3188198691, -0.6708475351333618, 0.6756815314292908, -0.2843277156352997, 0.1121467798948288, -0.9721713662147522, -9.979450225830078, -0.7017621397972107, -3.942192792892456, 115.68087005615234, 13.143793106079102, -0.06884765625, 0.88232421875, -0.039794921875, 
326, 3188207024, -0.668361485004425, 0.6744997501373291, -0.2909158170223236, 0.11709710955619812, -1.1289055347442627, -10.049368858337402, -0.8279839754104614, -3.0853116512298584, 117.77603912353516, 16.178794860839844, -0.078125, 0.871337890625, -0.036865234375, 
327, 3188215357, -0.6659459471702576, 0.6731365919113159, -0.29753026366233826, 0.12198241800069809, -1.440213680267334, -10.292062759399414, -0.8954116702079773, -1.2451361417770386, 117.51971435546875, 17.90375328063965, -0.080810546875, 0.856201171875, -0.040771484375, 
328, 3188223690, -0.6636804342269897, 0.6715351939201355, -0.30409932136535645, 0.12685932219028473, -1.4910262823104858, -10.350305557250977, -1.028954029083252, 2.543755531311035, 116.71694946289062, 18.74431800842285, -0.087890625, 0.841064453125, -0.045654296875, 
329, 3188232023, -0.6616507768630981, 0.6696155071258545, -0.3105919659137726, 0.1317845731973648, -1.3905797004699707, -10.23903751373291, -1.2093855142593384, 7.787487030029297, 116.13298034667969, 19.381629943847656, -0.096923828125, 0.829345703125, -0.04541015625, 
330, 3188240356, -0.6598790884017944, 0.6673815846443176, -0.3169809877872467, 0.13669458031654358, -1.4446983337402344, -10.140618324279785, -1.357119083404541, 13.31967544555664, 114.41921997070312, 20.332782745361328, -0.104736328125, 0.817138671875, -0.048095703125, 
331, 3188248689, -0.6583053469657898, 0.6649428009986877, -0.32319581508636475, 0.14152953028678894, -1.543312430381775, -9.938071250915527, -1.5171122550964355, 16.818693161010742, 111.76104736328125, 20.720399856567383, -0.11279296875, 0.806640625, -0.051025390625, 
332, 3188257022, -0.6568372249603271, 0.6624117493629456, -0.3292241096496582, 0.1462457776069641, -1.5780104398727417, -9.774353981018066, -1.6019318103790283, 18.6328067779541, 108.60894775390625, 20.664628982543945, -0.11767578125, 0.79638671875, -0.056640625, 
333, 3188265355, -0.655475378036499, 0.6598221659660339, -0.3350031077861786, 0.15086564421653748, -1.533129334449768, -9.786913871765137, -1.4529396295547485, 20.021221160888672, 105.2020263671875, 19.782108306884766, -0.123291015625, 0.787353515625, -0.05859375, 
334, 3188273688, -0.6542513966560364, 0.6571130156517029, -0.3405521512031555, 0.1555081158876419, -1.3991825580596924, -9.910627365112305, -1.2453293800354004, 23.104887008666992, 102.86022186279297, 18.28985023498535, -0.130615234375, 0.78173828125, -0.058349609375, 
335, 3188282021, -0.6531068682670593, 0.6542853116989136, -0.3459372818470001, 0.16028204560279846, -1.1999889612197876, -9.702719688415527, -1.146421194076538, 25.682344436645508, 102.54116821289062, 16.388126373291016, -0.1376953125, 0.766357421875, -0.064208984375, 
336, 3188290354, -0.6518316864967346, 0.6514674425125122, -0.3513357639312744, 0.16513554751873016, -1.0358351469039917, -9.195198059082031, -1.298850417137146, 24.941116333007812, 103.89044952392578, 15.42171859741211, -0.1474609375, 0.76171875, -0.067138671875, 
337, 3188298687, -0.6502275466918945, 0.6488206386566162, -0.35689011216163635, 0.1699007749557495, -0.9744408130645752, -8.938756942749023, -1.3832342624664307, 19.505884170532227, 105.77783966064453, 16.072309494018555, -0.153564453125, 0.7490234375, -0.074462890625, 
338, 3188307020, -0.6481724381446838, 0.6464609503746033, -0.3626556098461151, 0.17447833716869354, -1.0993424654006958, -8.888124465942383, -1.5498113632202148, 11.675387382507324, 107.45496368408203, 17.135759353637695, -0.162841796875, 0.73779296875, -0.0771484375, 
339, 3188315353, -0.6456525325775146, 0.6444805860519409, -0.3685072362422943, 0.17883199453353882, -1.286693811416626, -8.82911205291748, -1.8407572507858276, 2.6675069332122803, 107.71778106689453, 16.925689697265625, -0.168701171875, 0.729736328125, -0.078857421875, 
340, 3188323686, -0.6427571773529053, 0.6428675651550293, -0.3743129074573517, 0.18296284973621368, -1.5315797328948975, -9.08548641204834, -2.111663579940796, -4.767088890075684, 106.25627136230469, 15.675289154052734, -0.17578125, 0.72216796875, -0.0830078125, 
341, 3188332019, -0.639718234539032, 0.641473650932312, -0.3799245059490204, 0.18689700961112976, -1.6694450378417969, -9.444486618041992, -2.376293897628784, -8.663187980651855, 103.06270599365234, 14.24346923828125, -0.18310546875, 0.712890625, -0.086181640625, 
342, 3188340352, -0.6367968320846558, 0.6400496959686279, -0.385297566652298, 0.1907167285680771, -1.6626029014587402, -9.873100280761719, -2.590881586074829, -7.180438041687012, 99.34412384033203, 13.572489738464355, -0.1904296875, 0.702880859375, -0.084228515625, 
343, 3188348685, -0.6342725157737732, 0.6383265852928162, -0.39037656784057617, 0.19453690946102142, -1.7261457443237305, -10.282410621643066, -2.4742915630340576, -0.4537855088710785, 95.5216064453125, 13.63791275024414, -0.197021484375, 0.696044921875, -0.08984375, 
344, 3188357018, -0.632230281829834, 0.6361492872238159, -0.3952299952507019, 0.19847680628299713, -1.7698402404785156, -10.35147476196289, -2.5017895698547363, 9.146288871765137, 93.16410064697266, 14.30931282043457, -0.201904296875, 0.69140625, -0.092041015625, 
345, 3188365351, -0.6305691599845886, 0.6336331367492676, -0.39987120032310486, 0.20247377455234528, -1.8296499252319336, -9.944620132446289, -2.523956775665283, 16.160465240478516, 90.735107421875, 14.868958473205566, -0.2080078125, 0.681396484375, -0.095947265625, 
346, 3188373684, -0.6291011571884155, 0.6309468746185303, -0.40438076853752136, 0.20643380284309387, -2.018742322921753, -9.621957778930664, -2.5369863510131836, 19.638809204101562, 88.62117004394531, 15.486327171325684, -0.2138671875, 0.669677734375, -0.10302734375, 
347, 3188382017, -0.6276013851165771, 0.6283203959465027, -0.408815860748291, 0.210239976644516, -2.1226038932800293, -9.281347274780273, -2.625577449798584, 18.04973602294922, 86.71060943603516, 15.775893211364746, -0.220947265625, 0.661376953125, -0.11083984375, 
348, 3188390350, -0.6259611248970032, 0.6258896589279175, -0.4132092297077179, 0.21376167237758636, -2.1651852130889893, -8.866196632385254, -2.7209928035736084, 13.818971633911133, 84.05377960205078, 16.336509704589844, -0.229736328125, 0.653564453125, -0.11328125, 
349, 3188398683, -0.6240378022193909, 0.6238476037979126, -0.4175369441509247, 0.21692141890525818, -2.307882308959961, -8.729025840759277, -2.6904821395874023, 6.029486179351807, 80.89506530761719, 15.871225357055664, -0.2294921875, 0.6474609375, -0.118408203125, 
350, 3188407016, -0.6218687295913696, 0.6221752166748047, -0.42174631357192993, 0.21979182958602905, -2.4240267276763916, -9.006346702575684, -2.587078332901001, -0.41524744033813477, 77.65095520019531, 14.456521987915039, -0.23583984375, 0.635986328125, -0.123046875, 
351, 3188415349, -0.6195855736732483, 0.6207020282745361, -0.42580848932266235, 0.2225549966096878, -2.3785903453826904, -9.233884811401367, -2.5975019931793213, -3.4103095531463623, 75.58704376220703, 12.638845443725586, -0.241943359375, 0.631591796875, -0.127197265625, 
352, 3188423682, -0.6173573136329651, 0.61922287940979, -0.42973974347114563, 0.22529453039169312, -2.2526912689208984, -9.332608222961426, -2.612983465194702, -2.4913554191589355, 73.91238403320312, 11.900933265686035, -0.245361328125, 0.625, -0.131103515625, 
353, 3188432015, -0.6153039336204529, 0.6175820231437683, -0.43357518315315247, 0.22805076837539673, -2.310915470123291, -9.439567565917969, -2.5785906314849854, 0.637592613697052, 72.76353454589844, 12.461898803710938, -0.24951171875, 0.61181640625, -0.136962890625, 
354, 3188440348, -0.6134415864944458, 0.6157621741294861, -0.43731415271759033, 0.2308328002691269, -2.3552098274230957, -9.406777381896973, -2.6639881134033203, 4.360074996948242, 71.53406524658203, 13.07115650177002, -0.25537109375, 0.61083984375, -0.13671875, 
355, 3188448681, -0.6118372678756714, 0.6137917041778564, -0.44084030389785767, 0.2336147129535675, -2.4629294872283936, -9.428504943847656, -2.6980063915252686, 8.365107536315918, 68.71186828613281, 13.011396408081055, -0.256591796875, 0.6005859375, -0.1435546875, 
356, 3188457014, -0.6105007529258728, 0.6117137670516968, -0.4440699815750122, 0.23642757534980774, -2.558818817138672, -9.508661270141602, -2.593400716781616, 12.793131828308105, 65.15262603759766, 11.741815567016602, -0.258056640625, 0.593994140625, -0.1484375, 
357, 3188465347, -0.6094773411750793, 0.6095141768455505, -0.44695261120796204, 0.23929958045482635, -2.51900577545166, -9.66529655456543, -2.2750651836395264, 17.81973648071289, 61.26560974121094, 10.103700637817383, -0.2626953125, 0.584228515625, -0.15478515625, 
358, 3188473680, -0.6086943745613098, 0.6071655750274658, -0.4496089518070221, 0.24226824939250946, -2.3699753284454346, -9.658164024353027, -2.0644633769989014, 22.543474197387695, 59.1469612121582, 9.087603569030762, -0.26708984375, 0.5791015625, -0.1572265625, 
359, 3188482013, -0.6080715656280518, 0.6046736836433411, -0.4521664083003998, 0.24528609216213226, -2.2115330696105957, -9.563389778137207, -1.8435783386230469, 25.597267150878906, 58.25770950317383, 9.285371780395508, -0.270263671875, 0.569091796875, -0.16015625, 
360, 3188490346, -0.6074662804603577, 0.6021184325218201, -0.4547497034072876, 0.24827757477760315, -2.186105489730835, -9.48100471496582, -1.658152461051941, 26.135515213012695, 58.31869125366211, 10.157758712768555, -0.27294921875, 0.56103515625, -0.166748046875, 
361, 3188498679, -0.6067277193069458, 0.5996490716934204, -0.45740386843681335, 0.25116729736328125, -2.1614832878112793, -9.4109468460083, -1.5273035764694214, 23.32440757751465, 58.650718688964844, 10.615269660949707, -0.27392578125, 0.559326171875, -0.174560546875, 
362, 3188507012, -0.605583906173706, 0.5975335240364075, -0.4602019190788269, 0.2538442015647888, -2.2073304653167725, -9.223101615905762, -1.4674488306045532, 15.308012962341309, 59.38084030151367, 9.939611434936523, -0.2802734375, 0.552734375, -0.173828125, 
363, 3188515345, -0.6040083169937134, 0.5958523154258728, -0.46312645077705383, 0.25622010231018066, -2.212277412414551, -9.398689270019531, -1.3057042360305786, 5.682895183563232, 59.215946197509766, 9.243310928344727, -0.281494140625, 0.545166015625, -0.177978515625, 
364, 3188523678, -0.6020953059196472, 0.5944489240646362, -0.4661884307861328, 0.25842005014419556, -2.2014501094818115, -9.879412651062012, -1.3452314138412476, -0.880376935005188, 60.047874450683594, 8.858098030090332, -0.284423828125, 0.535400390625, -0.183349609375, 
365, 3188532011, -0.6000434160232544, 0.5930640697479248, -0.46939095854759216, 0.26056867837905884, -2.1367461681365967, -10.068263053894043, -1.3939067125320435, -3.1114742755889893, 61.657814025878906, 9.83353042602539, -0.28759765625, 0.52783203125, -0.18896484375, 
366, 3188540344, -0.5979795455932617, 0.5915240049362183, -0.47274690866470337, 0.26273760199546814, -2.2120063304901123, -10.209360122680664, -1.485990285873413, -2.233210802078247, 63.678871154785156, 11.86392879486084, -0.290283203125, 0.517578125, -0.191650390625, 
367, 3188548677, -0.5959919095039368, 0.5898287296295166, -0.4761526584625244, 0.26490601897239685, -2.3762993812561035, -10.044971466064453, -1.649573802947998, -0.6339675188064575, 64.18833923339844, 13.567654609680176, -0.289794921875, 0.510986328125, -0.197021484375, 
368, 3188557010, -0.5941480398178101, 0.5880564451217651, -0.47946515679359436, 0.26700514554977417, -2.4901726245880127, -10.041677474975586, -1.6490254402160645, 1.1637868881225586, 62.16341018676758, 14.39732551574707, -0.2890625, 0.50341796875, -0.19873046875, 
369, 3188565343, -0.592532217502594, 0.5861492156982422, -0.48258736729621887, 0.2691563367843628, -2.39835524559021, -10.076979637145996, -1.559974193572998, 5.038414001464844, 60.06161880493164, 14.170791625976562, -0.290771484375, 0.493408203125, -0.2021484375, 
370, 3188573676, -0.5911409854888916, 0.5840895771980286, -0.48552483320236206, 0.2714007794857025, -2.194936752319336, -9.803939819335938, -1.5040220022201538, 9.506882667541504, 58.340423583984375, 13.75266170501709, -0.287841796875, 0.49658203125, -0.20166015625, 
371, 3188582009, -0.5899348258972168, 0.5818558931350708, -0.4883350133895874, 0.2737709581851959, -2.1158015727996826, -9.586407661437988, -1.3573353290557861, 13.60993766784668, 57.76986312866211, 13.572745323181152, -0.29296875, 0.476806640625, -0.207275390625, 
372, 3188590342, -0.5887554287910461, 0.5795655846595764, -0.4910951256752014, 0.27621975541114807, -2.0368683338165283, -9.38351821899414, -1.2644991874694824, 15.112065315246582, 57.98651885986328, 13.005364418029785, -0.29248046875, 0.47265625, -0.210693359375, 
373, 3188598675, -0.5874186158180237, 0.577340304851532, -0.4939333200454712, 0.27865439653396606, -1.9241780042648315, -8.900766372680664, -1.3746525049209595, 12.825923919677734, 59.36272430419922, 12.71401596069336, -0.296630859375, 0.4580078125, -0.214111328125, 
374, 3188607008, -0.5857552886009216, 0.575319766998291, -0.49697014689445496, 0.28092634677886963, -1.942070722579956, -8.609498977661133, -1.5840957164764404, 6.828022480010986, 61.06922149658203, 12.954507827758789, -0.29248046875, 0.451416015625, -0.22119140625, 
375, 3188615341, -0.5837498903274536, 0.5735358595848083, -0.5001841187477112, 0.2830362319946289, -2.087880849838257, -8.67113971710205, -1.963618516921997, 0.31026631593704224, 62.67377471923828, 12.731216430664062, -0.291748046875, 0.44091796875, -0.225341796875, 
376, 3188623674, -0.5814715027809143, 0.5719603896141052, -0.50349360704422, 0.28503939509391785, -2.2227492332458496, -8.625656127929688, -2.476789951324463, -4.509876728057861, 63.62914276123047, 11.835561752319336, -0.29248046875, 0.431396484375, -0.225830078125, 
377, 3188632007, -0.5790590643882751, 0.5705806016921997, -0.5067508220672607, 0.2869369089603424, -2.4122393131256104, -8.637590408325195, -3.009716033935547, -7.766302585601807, 62.57126235961914, 10.398674011230469, -0.29443359375, 0.423828125, -0.228759765625, 
378, 3188640340, -0.5766203999519348, 0.569387674331665, -0.5098549723625183, 0.28871360421180725, -2.6031911373138428, -8.850054740905762, -3.5197677612304688, -9.5870943069458, 59.81947326660156, 8.742474555969238, -0.293701171875, 0.413818359375, -0.2333984375, 
379, 3188648673, -0.5743074417114258, 0.5683115124702454, -0.5127166509628296, 0.29037144780158997, -2.62628173828125, -9.018294334411621, -3.9441933631896973, -9.499385833740234, 55.65666580200195, 7.476047515869141, -0.29541015625, 0.403564453125, -0.236083984375, 
380, 3188657006, -0.5723385810852051, 0.5672417879104614, -0.5152298212051392, 0.29189833998680115, -2.7128427028656006, -9.351963996887207, -4.141101360321045, -6.29410982131958, 49.393314361572266, 7.10668420791626, -0.2939453125, 0.397705078125, -0.237060546875, 
381, 3188665339, -0.5708461403846741, 0.566091775894165, -0.5173067450523376, 0.29337602853775024, -2.7851450443267822, -9.661311149597168, -4.22342586517334, -0.6304313540458679, 42.55040740966797, 6.57902717590332, -0.294189453125, 0.384521484375, -0.2412109375, 
382, 3188673672, -0.5698341131210327, 0.5648304224014282, -0.5189651846885681, 0.2948419153690338, -2.6920769214630127, -9.655525207519531, -4.20652437210083, 5.676326274871826, 36.17638397216797, 6.136999130249023, -0.2939453125, 0.379150390625, -0.2421875, 
383, 3188682005, -0.5692844986915588, 0.5634342432022095, -0.5202679634094238, 0.2962758243083954, -2.6114721298217773, -9.549968719482422, -3.9462852478027344, 11.458998680114746, 30.41280746459961, 6.466857433319092, -0.29736328125, 0.37109375, -0.24169921875, 
384, 3188690338, -0.5690005421638489, 0.561965823173523, -0.521364688873291, 0.29767876863479614, -2.585228204727173, -9.387218475341797, -3.6469099521636963, 14.779747009277344, 26.928050994873047, 6.708899021148682, -0.292236328125, 0.362548828125, -0.24560546875, 
385, 3188698671, -0.568812906742096, 0.5604662299156189, -0.5223907828330994, 0.29906243085861206, -2.36952805519104, -9.104480743408203, -3.5112335681915283, 15.852099418640137, 25.691509246826172, 6.933318138122559, -0.292236328125, 0.361572265625, -0.24365234375, 
386, 3188707004, -0.5685470104217529, 0.5590382218360901, -0.5234794616699219, 0.3003344237804413, -2.3277769088745117, -8.853626251220703, -3.364096164703369, 13.696403503417969, 25.562129974365234, 7.453339099884033, -0.292236328125, 0.34912109375, -0.241943359375, 
387, 3188715337, -0.5681235194206238, 0.5578047633171082, -0.5246286988258362, 0.301422119140625, -2.4193947315216064, -8.668564796447754, -3.2882165908813477, 9.327250480651855, 24.965391159057617, 7.306797981262207, -0.291015625, 0.350341796875, -0.248291015625, 
388, 3188723670, -0.5674589276313782, 0.5568932294845581, -0.5258252620697021, 0.3022734522819519, -2.464364767074585, -8.5940523147583, -3.304053783416748, 3.120814323425293, 23.910364151000977, 6.194626331329346, -0.2900390625, 0.342041015625, -0.24609375, 
389, 3188732003, -0.5666055083274841, 0.5562995672225952, -0.5270217657089233, 0.30288270115852356, -2.482398509979248, -8.540203094482422, -3.4197912216186523, -2.609464168548584, 22.11726188659668, 4.999491214752197, -0.292724609375, 0.33544921875, -0.248046875, 
390, 3188740336, -0.5657356381416321, 0.5558928847312927, -0.5281355381011963, 0.30331501364707947, -2.4785397052764893, -8.857345581054688, -3.4451937675476074, -5.074796676635742, 19.443300247192383, 4.323108673095703, -0.286865234375, 0.3330078125, -0.246826171875, 
391, 3188748669, -0.5650222301483154, 0.555517852306366, -0.5290563702583313, 0.3037266433238983, -2.581789970397949, -9.290055274963379, -3.304860830307007, -3.515772581100464, 16.529613494873047, 3.428670883178711, -0.288330078125, 0.328125, -0.246826171875, 
392, 3188757002, -0.5645419359207153, 0.5551133155822754, -0.5297046899795532, 0.3042290508747101, -2.526384115219116, -9.334010124206543, -3.298740863800049, 0.3373907506465912, 13.51904010772705, 1.831341028213501, -0.287353515625, 0.324951171875, -0.248779296875, 
393, 3188765335, -0.5643179416656494, 0.554656445980072, -0.5301018357276917, 0.30478593707084656, -2.558026075363159, -9.289328575134277, -3.224714517593384, 4.112699031829834, 10.349638938903809, 0.9445251226425171, -0.287109375, 0.320068359375, -0.2490234375, 
394, 3188773668, -0.564281702041626, 0.5542165040969849, -0.5302760004997253, 0.30534958839416504, -2.6410374641418457, -9.259921073913574, -3.043379545211792, 6.430785655975342, 7.217834949493408, -0.14488691091537476, -0.28857421875, 0.320068359375, -0.24853515625, 
395, 3188782001, -0.5643180012702942, 0.5538362264633179, -0.5303097367286682, 0.3059137165546417, -2.571582078933716, -9.119954109191895, -2.94718337059021, 7.085768222808838, 5.364773273468018, -1.348294734954834, -0.28662109375, 0.3134765625, -0.25, 
396, 3188790334, -0.5643792152404785, 0.5534787774085999, -0.5302857756614685, 0.30648887157440186, -2.5156052112579346, -8.982720375061035, -2.9453821182250977, 7.451719284057617, 4.711611270904541, -1.9368590116500854, -0.286865234375, 0.3115234375, -0.2529296875, 
397, 3188798667, -0.5643941760063171, 0.5531970858573914, -0.5302697420120239, 0.3069969713687897, -2.573333740234375, -8.850055694580078, -2.886126756668091, 5.9643778800964355, 4.290615558624268, -2.1047346591949463, -0.2861328125, 0.3115234375, -0.245361328125, 
398, 3188807000, -0.5643007159233093, 0.55306077003479, -0.5303279161453247, 0.3073136806488037, -2.6299705505371094, -8.588395118713379, -2.940095901489258, 2.3258495330810547, 3.5756447315216064, -1.5693202018737793, -0.2861328125, 0.31103515625, -0.250244140625, 
399, 3188815333, -0.5640257000923157, 0.5531301498413086, -0.5305312871932983, 0.30734261870384216, -2.9338178634643555, -8.538627624511719, -2.9865870475769043, -3.3822317123413086, 2.977052927017212, -0.5030892491340637, -0.28662109375, 0.31103515625, -0.251220703125, 
400, 3188823666, -0.5636855363845825, 0.5533480644226074, -0.5307281017303467, 0.3072351813316345, -3.8217718601226807, -8.897751808166504, -3.2399466037750244, -5.975763320922852, 1.72873055934906, -0.8502005338668823, -0.287841796875, 0.309814453125, -0.25439453125, 
401, 3188831999, -0.5633493661880493, 0.553776204586029, -0.5307532548904419, 0.3070361614227295, -3.2998270988464355, -9.132356643676758, -3.4269418716430664, -7.531366348266602, -1.204137921333313, -2.9710845947265625, -0.286865234375, 0.30810546875, -0.250732421875, 
402, 3188840332, -0.5630943775177002, 0.5543227195739746, -0.5306350588798523, 0.30672189593315125, -2.9121923446655273, -9.008520126342773, -3.693223476409912, -8.05435848236084, -4.297800064086914, -3.684518337249756, -0.28955078125, 0.310546875, -0.2509765625, 
403, 3188848665, -0.5629311203956604, 0.5550228357315063, -0.5303815603256226, 0.30619344115257263, -3.315186023712158, -9.157090187072754, -3.8505496978759766, -9.539266586303711, -8.282349586486816, -3.7995262145996094, -0.2880859375, 0.3125, -0.251953125, 
404, 3188856998, -0.5629408955574036, 0.5558305382728577, -0.5299298167228699, 0.30549192428588867, -3.272409677505493, -9.28399658203125, -3.8088457584381104, -9.475872993469238, -12.864585876464844, -4.022217273712158, -0.2890625, 0.31689453125, -0.2490234375, 
405, 3188865331, -0.563373863697052, 0.5566132068634033, -0.529101550579071, 0.30470335483551025, -3.066624641418457, -9.938272476196289, -3.3705928325653076, -5.092611312866211, -19.41438102722168, -4.277360916137695, -0.28857421875, 0.320068359375, -0.24658203125, 
406, 3188873664, -0.5642640590667725, 0.5571724772453308, -0.5278909206390381, 0.3041330873966217, -2.813272714614868, -10.04272747039795, -2.9208984375, 3.319798231124878, -23.10655975341797, -5.341082572937012, -0.292236328125, 0.321533203125, -0.248779296875, 
407, 3188881997, -0.5654460191726685, 0.5574293732643127, -0.5265480279922485, 0.3037950098514557, -2.5405149459838867, -9.511604309082031, -2.4821372032165527, 10.152732849121094, -23.202821731567383, -4.757436752319336, -0.291259765625, 0.325439453125, -0.247802734375, 
408, 3188890330, -0.5666548013687134, 0.5575008988380432, -0.5252995491027832, 0.3035726249217987, -2.41593337059021, -8.987841606140137, -2.1546666622161865, 12.231776237487793, -21.00484848022461, -3.462085485458374, -0.290283203125, 0.33251953125, -0.245361328125, 
409, 3188898663, -0.5677187442779541, 0.557603120803833, -0.5241883993148804, 0.3033175468444824, -2.538130521774292, -8.741241455078125, -2.0334432125091553, 10.088017463684082, -19.265026092529297, -2.9955732822418213, -0.289306640625, 0.334716796875, -0.243896484375, 
410, 3188906996, -0.5685125589370728, 0.557951807975769, -0.5231676697731018, 0.3029516637325287, -2.535116195678711, -8.580540657043457, -1.9381663799285889, 4.899544715881348, -18.49183464050293, -4.327078342437744, -0.29052734375, 0.3388671875, -0.248046875, 
411, 3188915329, -0.5690259337425232, 0.5585912466049194, -0.5221915245056152, 0.30249348282814026, -2.325265884399414, -8.55870246887207, -2.028099536895752, -0.3561275899410248, -18.042633056640625, -6.5380988121032715, -0.291015625, 0.342529296875, -0.24658203125, 
412, 3188923662, -0.5693215131759644, 0.5594830513000488, -0.5212413668632507, 0.3019269108772278, -2.1536593437194824, -8.73314094543457, -2.1677188873291016, -4.907625675201416, -18.16043472290039, -8.1943941116333, -0.29150390625, 0.349609375, -0.243408203125, 
413, 3188931995, -0.5694894790649414, 0.5605030059814453, -0.5203003883361816, 0.3013412058353424, -2.058893918991089, -8.933094024658203, -2.4211654663085938, -7.049720287322998, -17.844024658203125, -9.43404769897461, -0.289306640625, 0.35302734375, -0.243408203125, 
414, 3188940328, -0.569604218006134, 0.5615843534469604, -0.5193220973014832, 0.30079805850982666, -1.9077816009521484, -8.966232299804688, -2.815129041671753, -7.500466346740723, -17.690608978271484, -10.702452659606934, -0.293701171875, 0.356689453125, -0.24169921875, 
415, 3188948661, -0.5697428584098816, 0.5627139210700989, -0.5182480812072754, 0.30027660727500916, -1.8630279302597046, -9.012197494506836, -3.1783061027526855, -7.118020057678223, -18.6433048248291, -11.871358871459961, -0.295166015625, 0.363525390625, -0.244384765625, 
416, 3188956994, -0.5699232220649719, 0.5638870596885681, -0.5170685052871704, 0.29976698756217957, -1.8140970468521118, -8.917525291442871, -3.4908711910247803, -6.641249656677246, -19.856767654418945, -12.904623985290527, -0.2958984375, 0.36962890625, -0.239990234375, 
417, 3188965327, -0.5701864957809448, 0.5650765895843506, -0.5157551765441895, 0.299288272857666, -1.6680505275726318, -8.960749626159668, -3.709596872329712, -5.323370933532715, -21.325437545776367, -13.96777057647705, -0.29296875, 0.3740234375, -0.243896484375, 
418, 3188973660, -0.5708210468292236, 0.5663440227508545, -0.514012336730957, 0.29868096113204956, -2.1524009704589844, -9.426801681518555, -3.554640769958496, -2.2246878147125244, -28.642335891723633, -15.312447547912598, -0.297607421875, 0.376708984375, -0.23828125, 
419, 3188981993, -0.5720016956329346, 0.5676097869873047, -0.5116047859191895, 0.29815226793289185, -2.340972661972046, -9.843412399291992, -3.1273655891418457, 5.365627288818359, -37.109825134277344, -18.86077880859375, -0.298583984375, 0.382568359375, -0.243408203125, 
420, 3188990326, -0.5737727284431458, 0.5687415599822998, -0.5086315274238586, 0.2976790964603424, -2.242324113845825, -9.878625869750977, -2.6848514080047607, 13.69906234741211, -44.72200393676758, -20.34168243408203, -0.30029296875, 0.390380859375, -0.240478515625, 
421, 3188998659, -0.5760162472724915, 0.5697091221809387, -0.5052915811538696, 0.29718393087387085, -2.374998092651367, -9.74216079711914, -2.3725461959838867, 20.08287239074707, -50.429256439208984, -19.961523056030273, -0.30126953125, 0.39453125, -0.2392578125, 
422, 3189006992, -0.5784783959388733, 0.5706762671470642, -0.5017461776733398, 0.2965521812438965, -2.5083184242248535, -9.72665786743164, -2.131593942642212, 21.642230987548828, -54.633060455322266, -19.584110260009766, -0.30224609375, 0.40087890625, -0.239501953125, 
423, 3189015325, -0.5809710621833801, 0.5718205571174622, -0.49805909395217896, 0.29568907618522644, -2.6616737842559814, -9.610016822814941, -2.0264453887939453, 19.50216293334961, -58.52243423461914, -19.961389541625977, -0.303466796875, 0.404052734375, -0.237548828125, 
424, 3189023658, -0.5833641290664673, 0.573284924030304, -0.4943051040172577, 0.2944384515285492, -2.953272819519043, -9.350505828857422, -2.0920345783233643, 13.734073638916016, -62.71171569824219, -19.98126983642578, -0.30322265625, 0.41259765625, -0.230712890625, 
425, 3189031991, -0.5854544639587402, 0.5752700567245483, -0.49050670862197876, 0.2927655279636383, -2.839953899383545, -9.142279624938965, -2.0852720737457275, 4.528103351593018, -66.45537567138672, -21.718568801879883, -0.30615234375, 0.41455078125, -0.23193359375, 
426, 3189040324, -0.5871025919914246, 0.5777076482772827, -0.48695242404937744, 0.29059016704559326, -2.7228128910064697, -8.844029426574707, -2.3548827171325684, -7.03486442565918, -67.29694366455078, -20.564722061157227, -0.306884765625, 0.4267578125, -0.225341796875, 
427, 3189048657, -0.5883700251579285, 0.5806110501289368, -0.4835800528526306, 0.2878592014312744, -2.5656750202178955, -8.922053337097168, -2.5512616634368896, -18.214561462402344, -69.56170654296875, -19.290748596191406, -0.310302734375, 0.4287109375, -0.22265625, 
428, 3189056990, -0.5895835161209106, 0.5838223099708557, -0.48013171553611755, 0.2846357524394989, -2.4859025478363037, -9.479796409606934, -2.4905052185058594, -24.162010192871094, -74.9593276977539, -18.155744552612305, -0.310546875, 0.43994140625, -0.21533203125, 
429, 3189065323, -0.591011643409729, 0.5871065855026245, -0.4764135479927063, 0.2811446785926819, -2.5719103813171387, -9.981032371520996, -2.3074190616607666, -23.685768127441406, -81.01131439208984, -17.811975479125977, -0.313720703125, 0.443115234375, -0.209716796875, 
430, 3189073656, -0.5927930474281311, 0.5902255177497864, -0.4723113775253296, 0.2777649164199829, -2.552096366882324, -10.251227378845215, -2.2221601009368896, -17.332412719726562, -84.89710235595703, -19.353490829467773, -0.314697265625, 0.450927734375, -0.207763671875, 
431, 3189081989, -0.5950016975402832, 0.5931809544563293, -0.46768850088119507, 0.274550199508667, -2.6049327850341797, -10.177371978759766, -2.3101751804351807, -9.411624908447266, -89.96157836914062, -22.24770736694336, -0.3134765625, 0.462646484375, -0.19873046875, 
432, 3189090322, -0.5975245237350464, 0.5961169004440308, -0.46251869201660156, 0.2714526653289795, -2.609130859375, -9.848419189453125, -2.296304941177368, -3.9291679859161377, -95.42036437988281, -26.337766647338867, -0.315185546875, 0.46875, -0.1953125, 
433, 3189098655, -0.600169837474823, 0.5991230010986328, -0.45701923966407776, 0.2682948708534241, -2.3991830348968506, -9.399799346923828, -2.4033241271972656, -2.5916342735290527, -99.66926574707031, -28.55636215209961, -0.31787109375, 0.474609375, -0.180908203125, 
434, 3189106988, -0.6027832627296448, 0.6021750569343567, -0.4514521360397339, 0.26500898599624634, -2.192941427230835, -9.037887573242188, -2.7653160095214844, -3.8527770042419434, -101.24468231201172, -28.440555572509766, -0.317138671875, 0.484619140625, -0.177490234375, 
435, 3189115321, -0.6052319407463074, 0.6052349209785461, -0.44605329632759094, 0.26157665252685547, -1.9431400299072266, -8.867785453796387, -3.161228895187378, -6.736581802368164, -100.08213806152344, -26.507089614868164, -0.318603515625, 0.48974609375, -0.17333984375, 
436, 3189123654, -0.6074508428573608, 0.6082758903503418, -0.44098469614982605, 0.2579481601715088, -1.6867470741271973, -8.616649627685547, -3.7282018661499023, -10.950885772705078, -97.4754409790039, -22.812841415405273, -0.3193359375, 0.4970703125, -0.162109375, 
437, 3189131987, -0.609480082988739, 0.6113074421882629, -0.4362397789955139, 0.25403347611427307, -1.7025399208068848, -8.316643714904785, -4.24990701675415, -15.26323127746582, -95.99656677246094, -18.35428237915039, -0.319091796875, 0.505126953125, -0.1611328125, 
438, 3189140320, -0.6114522814750671, 0.6143308281898499, -0.431574285030365, 0.2499365359544754, -1.7002214193344116, -8.801807403564453, -4.0251898765563965, -17.125492095947266, -96.47726440429688, -16.284133911132812, -0.3173828125, 0.515869140625, -0.14892578125, 
439, 3189148653, -0.6136794686317444, 0.6172597408294678, -0.42660024762153625, 0.2457663118839264, -1.7769081592559814, -10.049521446228027, -3.2704334259033203, -13.458919525146484, -100.90534973144531, -16.864416122436523, -0.315673828125, 0.52294921875, -0.144287109375, 
440, 3189156986, -0.6163197755813599, 0.6199226975440979, -0.4211670458316803, 0.24179524183273315, -1.717373013496399, -10.390307426452637, -2.838550090789795, -5.079532623291016, -104.58918762207031, -19.459224700927734, -0.31640625, 0.5341796875, -0.134521484375, 
441, 3189165319, -0.6193808913230896, 0.6222272515296936, -0.41536208987236023, 0.23806644976139069, -1.5793339014053345, -10.190484046936035, -2.479250907897949, 4.281912326812744, -106.94033813476562, -21.2353458404541, -0.3125, 0.541259765625, -0.130615234375, 
442, 3189173652, -0.6226959228515625, 0.6242375373840332, -0.4093758463859558, 0.23449824750423431, -1.6033233404159546, -10.092745780944824, -2.1443891525268555, 10.376514434814453, -107.5780029296875, -21.613689422607422, -0.305908203125, 0.551513671875, -0.126953125, 
443, 3189181985, -0.6260738968849182, 0.626034140586853, -0.40343931317329407, 0.2309769243001938, -1.5413621664047241, -9.979696273803711, -1.9774024486541748, 12.948079109191895, -106.4491195678711, -20.210521697998047, -0.30908203125, 0.560546875, -0.120849609375, 
