sep=,
PacketCounter,SampleTimeFine,Quat_W,Quat_X,Quat_Y,Quat_Z,Acc_X,Acc_Y,Acc_Z,Gyr_X,Gyr_Y,Gyr_Z,Mag_X,Mag_Y,Mag_Z,
0, 2844179119, 0.017451757565140724, 0.7452820539474487, 0.09687642008066177, 0.6594405770301819, 0, 0, 0, 0, 0, 0, -0.71875, -0.462646484375, 0.157958984375, 
1, 2844187452, 0.017352838069200516, 0.7452589869499207, 0.09699618071317673, 0.6594517230987549, 9.812674522399902, 1.317845106124878, -1.3172719478607178, 1.9933892488479614, -0.05501937493681908, -0.5305476784706116, -0.716552734375, -0.465576171875, 0.156005859375, 
2, 2844195785, 0.017231710255146027, 0.7452363967895508, 0.0971272811293602, 0.659461259841919, 9.800054550170898, 1.3444442749023438, -1.3106826543807983, 2.202965021133423, -0.06974755972623825, -0.4328293204307556, -0.715576171875, -0.464599609375, 0.156005859375, 
3, 2844204118, 0.01707632467150688, 0.7452027201652527, 0.09728248417377472, 0.6594803929328918, 9.784248352050781, 1.3798820972442627, -1.3181425333023071, 2.8803720474243164, 0.20673249661922455, -0.39426714181900024, -0.7177734375, -0.463134765625, 0.156982421875, 
4, 2844212451, 0.016896739602088928, 0.7451483011245728, 0.09745270013809204, 0.6595212817192078, 9.73381519317627, 1.4956446886062622, -1.316529393196106, 3.1375646591186523, 0.6325435638427734, -0.34027227759361267, -0.714599609375, -0.463623046875, 0.15478515625, 
5, 2844220784, 0.016710909083485603, 0.7450962066650391, 0.09760619699954987, 0.6595622897148132, 9.685528755187988, 1.5515393018722534, -1.2822083234786987, 3.143430233001709, 0.6376920342445374, -0.12147551774978638, -0.71630859375, -0.464599609375, 0.159423828125, 
6, 2844229117, 0.01652202196419239, 0.7450492978096008, 0.09776045382022858, 0.6595972180366516, 9.671967506408691, 1.5770611763000488, -1.2424911260604858, 3.0277435779571533, 0.5029739737510681, -0.07717569917440414, -0.7138671875, -0.464111328125, 0.158203125, 
7, 2844237450, 0.01635752059519291, 0.745024561882019, 0.09787512570619583, 0.6596122980117798, 9.659110069274902, 1.6390031576156616, -1.2210967540740967, 2.6137406826019287, 0.08625593781471252, 0.11450842767953873, -0.718017578125, -0.466552734375, 0.156982421875, 
8, 2844245783, 0.01624007150530815, 0.7450124025344849, 0.09795655310153961, 0.6596167683601379, 9.626214981079102, 1.6821264028549194, -1.1518296003341675, 1.6981852054595947, -0.23703411221504211, 0.05869501829147339, -0.716064453125, -0.465576171875, 0.156982421875, 
9, 2844254116, 0.016171017661690712, 0.745009183883667, 0.09800302982330322, 0.659615159034729, 9.651817321777344, 1.7044581174850464, -1.2015845775604248, 1.0447406768798828, -0.42178964614868164, -0.0269974023103714, -0.71923828125, -0.466064453125, 0.158935546875, 
10, 2844262449, 0.016126979142427444, 0.74500972032547, 0.09800774604082108, 0.6596149206161499, 9.636045455932617, 1.7637122869491577, -1.2550091743469238, 0.25892147421836853, -0.5149485468864441, 0.19521887600421906, -0.71533203125, -0.463134765625, 0.157470703125, 
11, 2844270782, 0.016140302643179893, 0.7450074553489685, 0.097972072660923, 0.6596224308013916, 9.633176803588867, 1.7735044956207275, -1.300165057182312, -0.5570199489593506, -0.46908628940582275, 0.07169424742460251, -0.7177734375, -0.462158203125, 0.156982421875, 
12, 2844279115, 0.01618022471666336, 0.7449962496757507, 0.09791995584964752, 0.6596418023109436, 9.669971466064453, 1.6951594352722168, -1.3192200660705566, -1.0872858762741089, -0.3256721794605255, -0.00029456368065439165, -0.714111328125, -0.464111328125, 0.15673828125, 
13, 2844287448, 0.016221266239881516, 0.7449678778648376, 0.09786581248044968, 0.6596809029579163, 9.700556755065918, 1.6344746351242065, -1.2959449291229248, -1.0574836730957031, 0.05159987509250641, -0.020388931035995483, -0.71728515625, -0.463623046875, 0.158935546875, 
14, 2844295781, 0.01625289022922516, 0.7449288964271545, 0.09781721979379654, 0.6597314476966858, 9.694162368774414, 1.5903559923171997, -1.2994498014450073, -0.9269790649414062, 0.27884936332702637, -0.0026382659561932087, -0.71875, -0.464111328125, 0.156982421875, 
15, 2844304114, 0.01625671237707138, 0.7448861002922058, 0.09779380261898041, 0.6597831845283508, 9.735949516296387, 1.5627244710922241, -1.3119386434555054, -0.5633082985877991, 0.340425968170166, 0.004290384240448475, -0.716796875, -0.462646484375, 0.157958984375, 
16, 2844312447, 0.01624300889670849, 0.7448437809944153, 0.09778030216693878, 0.6598331332206726, 9.692145347595215, 1.5469238758087158, -1.2823902368545532, -0.2973812520503998, 0.341476172208786, 0.06156381219625473, -0.71826171875, -0.462646484375, 0.155029296875, 
17, 2844320780, 0.016237549483776093, 0.7447953820228577, 0.09777101874351501, 0.659889280796051, 9.704841613769531, 1.5161666870117188, -1.2544512748718262, -0.20117421448230743, 0.48040780425071716, -0.07976272702217102, -0.71728515625, -0.464111328125, 0.160888671875, 
18, 2844329113, 0.016237029805779457, 0.7447565793991089, 0.09777001291513443, 0.6599332690238953, 9.721014022827148, 1.537768840789795, -1.1718506813049316, -0.32489100098609924, 0.2323083132505417, -0.18047790229320526, -0.71728515625, -0.461181640625, 0.156494140625, 
19, 2844337446, 0.01625649258494377, 0.7447389364242554, 0.09775561839342117, 0.6599549055099487, 9.667074203491211, 1.5151653289794922, -1.1418150663375854, -0.449760377407074, -0.18823902308940887, -0.22048735618591309, -0.71875, -0.462158203125, 0.156494140625, 
20, 2844345779, 0.016268623992800713, 0.7447366118431091, 0.09776376187801361, 0.6599558591842651, 9.640314102172852, 1.458114504814148, -1.1519149541854858, -0.43172797560691833, -0.5732466578483582, -0.3364686071872711, -0.71630859375, -0.462646484375, 0.158447265625, 
21, 2844354112, 0.01631465181708336, 0.7447542548179626, 0.09775644540786743, 0.6599358916282654, 9.616703033447266, 1.5334769487380981, -1.1628873348236084, -0.5936611294746399, -0.966040849685669, -0.4953024983406067, -0.71826171875, -0.464599609375, 0.156494140625, 
22, 2844362445, 0.016354959458112717, 0.7447739839553833, 0.09775790572166443, 0.659912645816803, 9.677905082702637, 1.5562365055084229, -1.19535493850708, -0.5649731755256653, -1.0348920822143555, -0.5179710388183594, -0.7158203125, -0.463134765625, 0.155029296875, 
23, 2844370778, 0.016383564099669456, 0.7447760105133057, 0.09777472168207169, 0.6599071025848389, 9.738509178161621, 1.5362733602523804, -1.280465841293335, -0.21879678964614868, -0.6497562527656555, -0.6024467349052429, -0.716796875, -0.463134765625, 0.157958984375, 
24, 2844379111, 0.01637926697731018, 0.744748055934906, 0.09782066196203232, 0.6599318981170654, 9.768023490905762, 1.555385947227478, -1.3839890956878662, 0.18384616076946259, -0.04618246108293533, -0.619096040725708, -0.71630859375, -0.463623046875, 0.156494140625, 
25, 2844387444, 0.016356850042939186, 0.7447013854980469, 0.09787280112504959, 0.6599774360656738, 9.77029800415039, 1.5641835927963257, -1.4274781942367554, 0.5455960035324097, 0.39308884739875793, -0.5551117062568665, -0.71630859375, -0.462646484375, 0.157470703125, 
26, 2844395777, 0.01633377932012081, 0.7446439862251282, 0.09792790561914444, 0.6600345969200134, 9.74802303314209, 1.5904847383499146, -1.3899834156036377, 0.5600168704986572, 0.6097853183746338, -0.5907155275344849, -0.71923828125, -0.464599609375, 0.158935546875, 
27, 2844404110, 0.016314012929797173, 0.7445914149284363, 0.09797471761703491, 0.6600874662399292, 9.716143608093262, 1.5533969402313232, -1.3161871433258057, 0.3500569462776184, 0.4927794337272644, -0.5183296203613281, -0.7177734375, -0.462158203125, 0.156982421875, 
28, 2844412443, 0.016304491087794304, 0.7445529103279114, 0.09799033403396606, 0.6601287722587585, 9.638748168945312, 1.5689618587493896, -1.249172568321228, -0.0054942537099123, 0.22694213688373566, -0.2771075963973999, -0.71875, -0.462646484375, 0.156494140625, 
29, 2844420776, 0.016317613422870636, 0.7445393800735474, 0.09797190129756927, 0.6601464152336121, 9.582119941711426, 1.6144253015518188, -1.2092310190200806, -0.4145280122756958, -0.255437970161438, -0.11604530364274979, -0.718017578125, -0.46630859375, 0.151611328125, 
30, 2844429109, 0.01637968420982361, 0.7445393204689026, 0.09791568666696548, 0.6601532697677612, 9.57975959777832, 1.66390860080719, -1.161492943763733, -1.1720560789108276, -0.5639998316764832, -0.1647251546382904, -0.71533203125, -0.462890625, 0.159912109375, 
31, 2844437442, 0.016469143331050873, 0.7445392608642578, 0.09781825542449951, 0.6601656079292297, 9.603116035461426, 1.6811243295669556, -1.1177469491958618, -1.9034193754196167, -0.5554958581924438, 0.01558626163750887, -0.714599609375, -0.463623046875, 0.152099609375, 
32, 2844445775, 0.01657739281654358, 0.7445349097251892, 0.09769690036773682, 0.6601857542991638, 9.609964370727539, 1.6678880453109741, -1.1339552402496338, -2.5499484539031982, -0.5053688883781433, 0.11240807920694351, -0.716796875, -0.462158203125, 0.157958984375, 
33, 2844454108, 0.01672237552702427, 0.7445276379585266, 0.0975603461265564, 0.6602104902267456, 9.64046859741211, 1.673540711402893, -1.187641978263855, -2.8451778888702393, -0.44509848952293396, -0.09469582140445709, -0.71826171875, -0.464111328125, 0.154541015625, 
34, 2844462441, 0.01687079481780529, 0.7445186972618103, 0.09740809351205826, 0.6602392792701721, 9.7008056640625, 1.6447172164916992, -1.2370444536209106, -3.101807117462158, -0.41525799036026, 0.04360823705792427, -0.7177734375, -0.463623046875, 0.157470703125, 
35, 2844470774, 0.01703840121626854, 0.7444947361946106, 0.09726093709468842, 0.6602836847305298, 9.762089729309082, 1.5639681816101074, -1.295244812965393, -3.203444242477417, -0.12653431296348572, -0.21042096614837646, -0.718017578125, -0.465576171875, 0.153076171875, 
36, 2844479107, 0.01719203218817711, 0.7444570660591125, 0.09712938964366913, 0.6603414416313171, 9.790865898132324, 1.5036475658416748, -1.3172667026519775, -2.9400787353515625, 0.15682314336299896, -0.25652652978897095, -0.71875, -0.463623046875, 0.156005859375, 
37, 2844487440, 0.017332708463072777, 0.7444160580635071, 0.09700584411621094, 0.6604022979736328, 9.787735939025879, 1.4007185697555542, -1.3207443952560425, -2.805680990219116, 0.222600519657135, -0.2156718671321869, -0.71923828125, -0.462646484375, 0.154541015625, 
38, 2844495773, 0.017451545223593712, 0.7443654537200928, 0.09690778702497482, 0.6604706645011902, 9.754860877990723, 1.3323285579681396, -1.3332940340042114, -2.270343065261841, 0.4324835240840912, -0.2978935241699219, -0.715087890625, -0.465087890625, 0.15576171875, 
39, 2844504106, 0.0175261739641428, 0.7443257570266724, 0.09683191031217575, 0.6605244874954224, 9.724340438842773, 1.3060804605484009, -1.3103936910629272, -1.620612621307373, 0.2549000382423401, -0.11336860060691833, -0.7158203125, -0.462646484375, 0.155517578125, 
40, 2844512439, 0.017575690522789955, 0.7442901134490967, 0.09677982330322266, 0.6605710387229919, 9.690299987792969, 1.344999074935913, -1.27923583984375, -1.2824279069900513, 0.15303224325180054, -0.10676012933254242, -0.716552734375, -0.465087890625, 0.155517578125, 
41, 2844520772, 0.017631085589528084, 0.7442626357078552, 0.09673869609832764, 0.6606064438819885, 9.691802024841309, 1.4393665790557861, -1.2389940023422241, -1.080869436264038, -0.010399377904832363, -0.2829348146915436, -0.719482421875, -0.466552734375, 0.155517578125, 
42, 2844529105, 0.01769340969622135, 0.7442390322685242, 0.09670305997133255, 0.6606366634368896, 9.728231430053711, 1.5472886562347412, -1.2239940166473389, -1.2248470783233643, -0.1344747394323349, -0.38224121928215027, -0.718505859375, -0.46630859375, 0.152099609375, 
43, 2844537438, 0.017741190269589424, 0.7442155480384827, 0.09668474644422531, 0.6606645584106445, 9.751656532287598, 1.580499291419983, -1.226190447807312, -0.7843590974807739, -0.10909102112054825, -0.4433824121952057, -0.71435546875, -0.463134765625, 0.15673828125, 
44, 2844545771, 0.017752280458807945, 0.7441871166229248, 0.09670298546552658, 0.6606935262680054, 9.753602027893066, 1.6171648502349854, -1.2248742580413818, -0.30040377378463745, -0.0341181643307209, -0.4649496078491211, -0.7197265625, -0.464599609375, 0.154541015625, 
45, 2844554104, 0.017758885398507118, 0.7441582679748535, 0.09671598672866821, 0.6607239246368408, 9.669126510620117, 1.6703174114227295, -1.2318840026855469, -0.0831950381398201, 0.027368808165192604, -0.3973280191421509, -0.717041015625, -0.465576171875, 0.152099609375, 
46, 2844562437, 0.01778547838330269, 0.7441467642784119, 0.09672161936759949, 0.6607353091239929, 9.615702629089355, 1.7182201147079468, -1.2217341661453247, -0.44658422470092773, -0.37688782811164856, -0.46912476420402527, -0.718017578125, -0.463623046875, 0.151611328125, 
47, 2844570770, 0.01787184551358223, 0.7441551685333252, 0.09667958319187164, 0.660729706287384, 9.594372749328613, 1.7158454656600952, -1.231955647468567, -1.343389630317688, -0.7981651425361633, -0.5175355672836304, -0.71826171875, -0.463623046875, 0.153564453125, 
48, 2844579103, 0.018001366406679153, 0.7441744208335876, 0.09659959375858307, 0.66071617603302, 9.676758766174316, 1.6466529369354248, -1.2105131149291992, -2.2256975173950195, -1.067345142364502, -0.49389365315437317, -0.713623046875, -0.463134765625, 0.15283203125, 
49, 2844587436, 0.018154814839363098, 0.7442014217376709, 0.09649238735437393, 0.6606972813606262, 9.670538902282715, 1.6007720232009888, -1.2059352397918701, -2.599025249481201, -1.2081722021102905, -0.43769606947898865, -0.716552734375, -0.468505859375, 0.1552734375, 
50, 2844595769, 0.018306314945220947, 0.7442257404327393, 0.09638743847608566, 0.6606809496879578, 9.613987922668457, 1.5034071207046509, -1.2011644840240479, -2.561833143234253, -1.154510498046875, -0.44627684354782104, -0.716064453125, -0.465576171875, 0.153076171875, 
51, 2844604102, 0.01844623312354088, 0.7442477345466614, 0.09629593789577484, 0.6606658101081848, 9.672402381896973, 1.47812819480896, -1.2677338123321533, -2.281639337539673, -1.1052544116973877, -0.4824697971343994, -0.715576171875, -0.465576171875, 0.151611328125, 
52, 2844612435, 0.018562840297818184, 0.7442620396614075, 0.09620703011751175, 0.6606591939926147, 9.67340087890625, 1.437573790550232, -1.2700072526931763, -2.1498799324035645, -0.9310775399208069, -0.2948198616504669, -0.713623046875, -0.466064453125, 0.158203125, 
53, 2844620768, 0.01866905391216278, 0.7442640066146851, 0.0961272120475769, 0.6606655716896057, 9.711404800415039, 1.3808602094650269, -1.2708179950714111, -1.9060832262039185, -0.6533423662185669, -0.3151831328868866, -0.7177734375, -0.463623046875, 0.156005859375, 
54, 2844629101, 0.018733397126197815, 0.7442567348480225, 0.09607577323913574, 0.6606793999671936, 9.714197158813477, 1.423844814300537, -1.2759602069854736, -1.4176582098007202, -0.4663968086242676, -0.2144295573234558, -0.716552734375, -0.464111328125, 0.152099609375, 
55, 2844637434, 0.01878751628100872, 0.7442392110824585, 0.09603529423475266, 0.6607035994529724, 9.718202590942383, 1.4542587995529175, -1.2865031957626343, -1.044830322265625, -0.21487781405448914, -0.2662343382835388, -0.717529296875, -0.465087890625, 0.154052734375, 
56, 2844645767, 0.018810395151376724, 0.7442018985748291, 0.09602051973342896, 0.6607471108436584, 9.75946044921875, 1.4637360572814941, -1.248292326927185, -0.649474561214447, 0.18443530797958374, -0.2509426772594452, -0.72021484375, -0.465087890625, 0.154052734375, 
57, 2844654100, 0.018823284655809402, 0.7441604733467102, 0.09601214528083801, 0.6607945561408997, 9.793729782104492, 1.4454396963119507, -1.2451815605163574, -0.3671800494194031, 0.30320847034454346, -0.24694682657718658, -0.717041015625, -0.4677734375, 0.151611328125, 
58, 2844662433, 0.018789980560541153, 0.7441237568855286, 0.09605669230222702, 0.6608303785324097, 9.746700286865234, 1.413938283920288, -1.2342805862426758, 0.44059044122695923, 0.18618984520435333, -0.3463684618473053, -0.717529296875, -0.46826171875, 0.152587890625, 
59, 2844670766, 0.01875978708267212, 0.744116485118866, 0.09612499177455902, 0.660829484462738, 9.699076652526855, 1.4387589693069458, -1.2770183086395264, 0.8419911861419678, -0.4260287880897522, -0.606890857219696, -0.716064453125, -0.465576171875, 0.156494140625, 
60, 2844679099, 0.01871555857360363, 0.7441182732582092, 0.09620119631290436, 0.6608176827430725, 9.71921157836914, 1.436061978340149, -1.2432928085327148, 1.0011707544326782, -0.616585910320282, -0.5401018261909485, -0.716552734375, -0.4658203125, 0.151611328125, 
61, 2844687432, 0.01864985004067421, 0.7441132068634033, 0.09627106785774231, 0.6608150601387024, 9.723625183105469, 1.4345955848693848, -1.2465115785598755, 1.2236303091049194, -0.4163593649864197, -0.2970738708972931, -0.717041015625, -0.466552734375, 0.155517578125, 
62, 2844695765, 0.018566656857728958, 0.7440955638885498, 0.0963381975889206, 0.6608273983001709, 9.73926830291748, 1.5348784923553467, -1.2619260549545288, 1.223335862159729, -0.15364699065685272, -0.10823294520378113, -0.718017578125, -0.466064453125, 0.155517578125, 
63, 2844704098, 0.018478726968169212, 0.7440773248672485, 0.09638302028179169, 0.6608439683914185, 9.680500030517578, 1.6129803657531738, -1.2884488105773926, 1.1933543682098389, -0.07535707950592041, 0.14801184833049774, -0.717529296875, -0.466064453125, 0.154541015625, 
64, 2844712431, 0.018420005217194557, 0.7440739274024963, 0.09639909863471985, 0.6608470678329468, 9.6273193359375, 1.6506190299987793, -1.2725911140441895, 0.5401145815849304, -0.4205600917339325, 0.2065660059452057, -0.714111328125, -0.465576171875, 0.150390625, 
65, 2844720764, 0.018397238105535507, 0.744081974029541, 0.09638138115406036, 0.6608412265777588, 9.638648986816406, 1.6166783571243286, -1.2200247049331665, -0.004648983478546143, -0.6460294723510742, 0.22504667937755585, -0.714111328125, -0.463623046875, 0.15283203125, 
66, 2844729097, 0.018369821831583977, 0.744080662727356, 0.09635593742132187, 0.6608471870422363, 9.68116569519043, 1.5803991556167603, -1.169969081878662, -0.16119040548801422, -0.4624394178390503, 0.3502874970436096, -0.717529296875, -0.466552734375, 0.153564453125, 
67, 2844737430, 0.01833891123533249, 0.7440702319145203, 0.09631580114364624, 0.6608654856681824, 9.682151794433594, 1.5362660884857178, -1.1783381700515747, -0.16129283607006073, -0.22563578188419342, 0.5102483630180359, -0.716552734375, -0.46630859375, 0.151611328125, 
68, 2844745763, 0.018287483602762222, 0.7440615296363831, 0.09628251194953918, 0.6608816385269165, 9.658047676086426, 1.506524682044983, -1.224731206893921, 0.049064066261053085, -0.2539651393890381, 0.6383194923400879, -0.716552734375, -0.463623046875, 0.153564453125, 
69, 2844754096, 0.018238745629787445, 0.7440682649612427, 0.09622909873723984, 0.6608833074569702, 9.670300483703613, 1.5066105127334595, -1.2373201847076416, -0.07342319935560226, -0.5310214757919312, 0.8251113295555115, -0.72021484375, -0.462646484375, 0.15234375, 
70, 2844762429, 0.01821410097181797, 0.7440961003303528, 0.09615390002727509, 0.6608635187149048, 9.666902542114258, 1.5854061841964722, -1.2874687910079956, -0.6362576484680176, -1.0099180936813354, 0.8706663250923157, -0.715576171875, -0.464599609375, 0.154541015625, 
71, 2844770762, 0.018206745386123657, 0.7441176176071167, 0.09605385363101959, 0.6608541011810303, 9.609586715698242, 1.6001338958740234, -1.297568678855896, -0.9021333456039429, -0.8472164273262024, 0.9429495930671692, -0.716064453125, -0.463623046875, 0.153564453125, 
72, 2844779095, 0.01822856068611145, 0.744137704372406, 0.09592226892709732, 0.660849928855896, 9.57876205444336, 1.6442883014678955, -1.2957425117492676, -1.4948723316192627, -0.8268274664878845, 1.00324547290802, -0.716064453125, -0.467041015625, 0.153076171875, 
73, 2844787428, 0.018256504088640213, 0.7441495060920715, 0.09580133110284805, 0.6608535051345825, 9.568169593811035, 1.6496723890304565, -1.2506002187728882, -1.610059380531311, -0.7045194506645203, 0.8431821465492249, -0.716064453125, -0.463134765625, 0.151611328125, 
74, 2844795761, 0.018292898312211037, 0.7441484928131104, 0.0956803485751152, 0.660871148109436, 9.56643295288086, 1.5624905824661255, -1.2224252223968506, -1.6831625699996948, -0.44973471760749817, 0.751918613910675, -0.72021484375, -0.461669921875, 0.154296875, 
75, 2844804094, 0.018336892127990723, 0.7441303133964539, 0.09556382149457932, 0.6609072685241699, 9.627572059631348, 1.5429604053497314, -1.1700431108474731, -1.6480454206466675, -0.09223685413599014, 0.604098916053772, -0.71826171875, -0.463623046875, 0.155029296875, 
76, 2844812427, 0.01837182231247425, 0.7441039085388184, 0.09546328336000443, 0.6609504222869873, 9.638384819030762, 1.4705244302749634, -1.1651408672332764, -1.4405189752578735, 0.05854133144021034, 0.5217747688293457, -0.718505859375, -0.465576171875, 0.153076171875, 
77, 2844820760, 0.018394190818071365, 0.744087815284729, 0.09539347887039185, 0.6609780192375183, 9.676566123962402, 1.4298174381256104, -1.1693754196166992, -0.9906048774719238, -0.15788614749908447, 0.323290079832077, -0.72021484375, -0.464599609375, 0.15283203125, 
78, 2844829093, 0.018382394686341286, 0.7440659999847412, 0.09536997973918915, 0.6610063314437866, 9.740304946899414, 1.3955696821212769, -1.1639610528945923, -0.26887261867523193, -0.05635131523013115, 0.16258634626865387, -0.715576171875, -0.464599609375, 0.153076171875, 
79, 2844837426, 0.018359245732426643, 0.7440394163131714, 0.09536298364400864, 0.6610378623008728, 9.781656265258789, 1.3907487392425537, -1.1923717260360718, 0.03958680480718613, 0.05275252088904381, 0.08223450928926468, -0.717041015625, -0.4658203125, 0.149169921875, 
80, 2844845759, 0.01831280067563057, 0.7440185546875, 0.09537924826145172, 0.6610603332519531, 9.809215545654297, 1.4740793704986572, -1.236018419265747, 0.42973005771636963, -0.07275723665952682, 0.07128442078828812, -0.72021484375, -0.46435546875, 0.15234375, 
81, 2844854092, 0.018280118703842163, 0.7440150380134583, 0.09537478536367416, 0.6610658764839172, 9.812241554260254, 1.5272750854492188, -1.27740478515625, 0.19990628957748413, -0.40836772322654724, 0.16747866570949554, -0.7177734375, -0.464111328125, 0.156494140625, 
82, 2844862425, 0.018234627321362495, 0.7440234422683716, 0.09538483619689941, 0.6610561609268188, 9.755955696105957, 1.5524029731750488, -1.28113853931427, 0.3401186466217041, -0.6797505617141724, 0.1643025130033493, -0.718017578125, -0.46533203125, 0.151611328125, 
83, 2844870758, 0.018195269629359245, 0.7440401911735535, 0.09540199488401413, 0.66103595495224, 9.788772583007812, 1.6290457248687744, -1.3035770654678345, 0.5027433633804321, -0.8444756865501404, 0.026958981528878212, -0.718017578125, -0.464599609375, 0.152099609375, 
84, 2844879091, 0.018141701817512512, 0.7440424561500549, 0.09543940424919128, 0.6610294580459595, 9.757185935974121, 1.6494669914245605, -1.3015670776367188, 0.6862949728965759, -0.5715816020965576, -0.051638294011354446, -0.72021484375, -0.463134765625, 0.1533203125, 
85, 2844887424, 0.018101653084158897, 0.7440412044525146, 0.09549031406641006, 0.6610245704650879, 9.782471656799316, 1.6370997428894043, -1.2706525325775146, 0.7927477955818176, -0.5134117007255554, -0.3319092392921448, -0.719970703125, -0.4658203125, 0.153564453125, 
86, 2844895757, 0.018069317564368248, 0.7440396547317505, 0.09554538130760193, 0.6610193252563477, 9.7623929977417, 1.6432440280914307, -1.249766230583191, 0.6224130392074585, -0.5490410923957825, -0.4288335144519806, -0.720458984375, -0.46630859375, 0.153076171875, 
87, 2844904090, 0.01804214157164097, 0.7440383434295654, 0.09559521079063416, 0.6610142588615417, 9.758974075317383, 1.5622810125350952, -1.2314119338989258, 0.6509217023849487, -0.5304707884788513, -0.4386693239212036, -0.717529296875, -0.463623046875, 0.152099609375, 
88, 2844912423, 0.018014192581176758, 0.7440374493598938, 0.09564312547445297, 0.6610091924667358, 9.749046325683594, 1.5618089437484741, -1.2335578203201294, 0.5346587300300598, -0.5581597685813904, -0.3970206379890442, -0.713623046875, -0.465576171875, 0.15234375, 
89, 2844920756, 0.01799866370856762, 0.7440579533576965, 0.09567587077617645, 0.6609818339347839, 9.687596321105957, 1.580356240272522, -1.219566822052002, 0.4114030599594116, -0.9763121604919434, -0.34653496742248535, -0.713134765625, -0.4658203125, 0.1494140625, 
90, 2844929089, 0.017981907352805138, 0.7440760731697083, 0.0957026407122612, 0.6609580516815186, 9.66821002960205, 1.5442055463790894, -1.1961125135421753, 0.32977044582366943, -0.9307188391685486, -0.26877015829086304, -0.716552734375, -0.464599609375, 0.150634765625, 
91, 2844937422, 0.017963344231247902, 0.7440957427024841, 0.0957275852560997, 0.660932719707489, 9.64096736907959, 1.4903165102005005, -1.1804553270339966, 0.36849913001060486, -0.9469326138496399, -0.2394418567419052, -0.7197265625, -0.463623046875, 0.1533203125, 
92, 2844945755, 0.017939502373337746, 0.7441123723983765, 0.09575386345386505, 0.6609108448028564, 9.634014129638672, 1.4451603889465332, -1.168652892112732, 0.271959125995636, -0.9061548113822937, -0.1888793557882309, -0.717041015625, -0.465087890625, 0.155029296875, 
93, 2844954088, 0.017911458387970924, 0.7441338300704956, 0.09577459841966629, 0.6608843803405762, 9.63590145111084, 1.4271206855773926, -1.1745753288269043, 0.4297684133052826, -0.9637099504470825, -0.10734925419092178, -0.7197265625, -0.462646484375, 0.15234375, 
94, 2844962421, 0.017888693138957024, 0.7441710829734802, 0.09580785781145096, 0.66083824634552, 9.638011932373047, 1.4327573776245117, -1.168652892112732, 0.27997639775276184, -1.3512020111083984, -0.24202890694141388, -0.716552734375, -0.464599609375, 0.153564453125, 
95, 2844970754, 0.017906248569488525, 0.7442103624343872, 0.09581375122070312, 0.6607926487922668, 9.645772933959961, 1.5191279649734497, -1.1885664463043213, -0.1420053243637085, -1.3849873542785645, -0.3511967658996582, -0.71826171875, -0.460693359375, 0.153564453125, 
96, 2844979087, 0.017902221530675888, 0.7442187070846558, 0.09583980590105057, 0.6607795357704163, 9.752586364746094, 1.5480468273162842, -1.253957748413086, 0.09486231952905655, -0.7627663016319275, -0.3798846900463104, -0.718994140625, -0.46533203125, 0.152099609375, 
97, 2844987420, 0.01786522939801216, 0.7442050576210022, 0.09588772058486938, 0.6607890129089355, 9.804701805114746, 1.5753707885742188, -1.3362369537353516, 0.7116274237632751, -0.2579353451728821, -0.34133532643318176, -0.717529296875, -0.463623046875, 0.152099609375, 
98, 2844995753, 0.017799735069274902, 0.7441750168800354, 0.0959601104259491, 0.6608141660690308, 9.77324390411377, 1.5292420387268066, -1.337846279144287, 1.122018814086914, 0.07695797085762024, -0.34087422490119934, -0.717041015625, -0.461669921875, 0.150634765625, 
99, 2845004086, 0.017751963809132576, 0.7441492676734924, 0.09599994868040085, 0.6608386635780334, 9.784895896911621, 1.5762577056884766, -1.3046141862869263, 0.7251005172729492, 0.016738900914788246, -0.17456099390983582, -0.717041015625, -0.467041015625, 0.154052734375, 
100, 2845012419, 0.01770850457251072, 0.7441196441650391, 0.09599809348583221, 0.6608733534812927, 9.763258934020996, 1.7227407693862915, -1.253972053527832, 0.1348973512649536, 0.1120750829577446, 0.22946511209011078, -0.71875, -0.462646484375, 0.153076171875, 
101, 2845020752, 0.017716530710458755, 0.7440845966339111, 0.09595293551683426, 0.6609191298484802, 9.70007038116455, 1.786815881729126, -1.2437363862991333, -0.6477327346801758, 0.22695492208003998, 0.1824886053800583, -0.71533203125, -0.461181640625, 0.153076171875, 
102, 2845029085, 0.017767060548067093, 0.7440431714057922, 0.0959099680185318, 0.6609707474708557, 9.646688461303711, 1.7589985132217407, -1.2830555438995361, -1.2011027336120605, 0.2626867890357971, -0.2191298007965088, -0.715087890625, -0.462158203125, 0.152587890625, 
103, 2845037418, 0.0178611371666193, 0.7439988851547241, 0.09584283083677292, 0.6610277891159058, 9.643108367919922, 1.7011860609054565, -1.2827537059783936, -1.744713544845581, 0.3057699203491211, -0.3833426237106323, -0.7177734375, -0.462646484375, 0.153564453125, 
104, 2845045751, 0.017965000122785568, 0.7439658641815186, 0.09577331691980362, 0.6610722541809082, 9.645118713378906, 1.5318553447723389, -1.2684694528579712, -1.8479645252227783, 0.060488007962703705, -0.4390023648738861, -0.718017578125, -0.464599609375, 0.152099609375, 
105, 2845054084, 0.018081873655319214, 0.7439490556716919, 0.0957048311829567, 0.6610979437828064, 9.677131652832031, 1.4466954469680786, -1.243802785873413, -2.012612819671631, -0.31105923652648926, -0.5385392904281616, -0.718017578125, -0.463623046875, 0.151611328125, 
106, 2845062417, 0.018189309164881706, 0.7439476251602173, 0.095637746155262, 0.6611061692237854, 9.663773536682129, 1.3717938661575317, -1.212722897529602, -1.9077482223510742, -0.6235017776489258, -0.4482491612434387, -0.717041015625, -0.4658203125, 0.151611328125, 
107, 2845070750, 0.018285294994711876, 0.7439566850662231, 0.09556467086076736, 0.6611039638519287, 9.689846992492676, 1.3262044191360474, -1.1770590543746948, -1.7275265455245972, -0.789097785949707, -0.28436926007270813, -0.716552734375, -0.464111328125, 0.153564453125, 
108, 2845079083, 0.018321886658668518, 0.7439659833908081, 0.09553385525941849, 0.6610969305038452, 9.654006004333496, 1.3259296417236328, -1.188065767288208, -0.8527235388755798, -0.7782885432243347, -0.16382865607738495, -0.72119140625, -0.4638671875, 0.15087890625, 
109, 2845087416, 0.01829037256538868, 0.7439727783203125, 0.09553597867488861, 0.6610898971557617, 9.638227462768555, 1.3392912149429321, -1.206648826599121, 0.26691311597824097, -0.6302382349967957, 0.09875568747520447, -0.716064453125, -0.464599609375, 0.153076171875, 
110, 2845095749, 0.01822628639638424, 0.7439826130867004, 0.09558409452438354, 0.6610736846923828, 9.704218864440918, 1.3954123258590698, -1.2360613346099854, 0.9212287068367004, -0.721194326877594, -0.057529568672180176, -0.719482421875, -0.4658203125, 0.151611328125, 
111, 2845104082, 0.018155479803681374, 0.7439877390861511, 0.09561601281166077, 0.6610652208328247, 9.717452049255371, 1.4696946144104004, -1.266618251800537, 0.940413773059845, -0.5712230801582336, 0.14888274669647217, -0.718994140625, -0.46533203125, 0.152587890625, 
112, 2845112415, 0.0180814191699028, 0.7439834475517273, 0.09564898163080215, 0.6610672473907471, 9.770898818969727, 1.511581540107727, -1.2725192308425903, 0.8460254669189453, -0.3995564877986908, 0.17367732524871826, -0.715576171875, -0.465576171875, 0.153564453125, 
113, 2845120748, 0.018005620688199997, 0.7439686059951782, 0.09566664695739746, 0.6610834002494812, 9.798372268676758, 1.5830457210540771, -1.2733204364776611, 0.8255339860916138, -0.13537122309207916, 0.3208310604095459, -0.718505859375, -0.464111328125, 0.151123046875, 
114, 2845129081, 0.01791524887084961, 0.7439325451850891, 0.09571248292922974, 0.6611196994781494, 9.764875411987305, 1.6129589080810547, -1.2671904563903809, 1.1050621271133423, 0.26816821098327637, 0.1539287269115448, -0.71728515625, -0.461181640625, 0.153076171875, 
115, 2845137414, 0.01782827265560627, 0.7438884973526001, 0.09575479477643967, 0.6611656546592712, 9.769059181213379, 1.6054127216339111, -1.2747868299484253, 1.1171008348464966, 0.45684266090393066, 0.13879072666168213, -0.713623046875, -0.462158203125, 0.152099609375, 
116, 2845145747, 0.017755422741174698, 0.7438369393348694, 0.09580933302640915, 0.6612178087234497, 9.739082336425781, 1.5852129459381104, -1.2300457954406738, 0.943205714225769, 0.5461595058441162, -0.10716995596885681, -0.719482421875, -0.46484375, 0.151611328125, 
117, 2845154080, 0.0177073385566473, 0.7437905669212341, 0.0958651751279831, 0.6612629890441895, 9.651144981384277, 1.5348856449127197, -1.2068203687667847, 0.8420807719230652, 0.4211619794368744, -0.35626834630966187, -0.716552734375, -0.463623046875, 0.150146484375, 
118, 2845162413, 0.017669228836894035, 0.743760883808136, 0.0959373190999031, 0.6612870693206787, 9.606754302978516, 1.4871405363082886, -1.1625940799713135, 0.8317070007324219, 0.02552458457648754, -0.5838764905929565, -0.717529296875, -0.464599609375, 0.151611328125, 
119, 2845170746, 0.017634129151701927, 0.7437440752983093, 0.09600616246461868, 0.6612969040870667, 9.631424903869629, 1.4509327411651611, -1.1384679079055786, 0.8814242482185364, -0.22463683784008026, -0.5784718990325928, -0.717041015625, -0.462646484375, 0.150146484375, 
120, 2845179079, 0.01759495958685875, 0.7437322735786438, 0.09608685970306396, 0.6612995862960815, 9.644993782043457, 1.4097323417663574, -1.1320661306381226, 0.9684229493141174, -0.35249027609825134, -0.6455170512199402, -0.718994140625, -0.46533203125, 0.152099609375, 
121, 2845187412, 0.017543990164995193, 0.743735671043396, 0.09616302698850632, 0.6612859964370728, 9.674735069274902, 1.382952094078064, -1.1513144969940186, 1.1463266611099243, -0.6219905018806458, -0.4867473542690277, -0.7197265625, -0.464111328125, 0.154541015625, 
122, 2845195745, 0.017449596896767616, 0.7437542080879211, 0.09626958519220352, 0.6612520217895508, 9.66080379486084, 1.365734577178955, -1.187314748764038, 1.7090715169906616, -0.9391972422599792, -0.36653971672058105, -0.71728515625, -0.463134765625, 0.154541015625, 
123, 2845204078, 0.017337899655103683, 0.7437921762466431, 0.09638524055480957, 0.6611955165863037, 9.665969848632812, 1.4650403261184692, -1.20774245262146, 2.191720724105835, -1.2869104146957397, -0.3010440766811371, -0.714599609375, -0.465576171875, 0.15380859375, 
124, 2845212411, 0.017231915146112442, 0.7438282370567322, 0.09648009389638901, 0.6611437201499939, 9.634568214416504, 1.5896553993225098, -1.2148584127426147, 1.8771008253097534, -1.2522798776626587, -0.1354224532842636, -0.715576171875, -0.465576171875, 0.151611328125, 
125, 2845220744, 0.017134616151452065, 0.7438433170318604, 0.09655033051967621, 0.6611191034317017, 9.697369575500488, 1.6573216915130615, -1.2478742599487305, 1.583587408065796, -0.782335638999939, 0.008465505205094814, -0.718505859375, -0.4638671875, 0.150634765625, 
126, 2845229077, 0.017051436007022858, 0.743829607963562, 0.09660989046096802, 0.6611279845237732, 9.730677604675293, 1.6934212446212769, -1.2685352563858032, 1.290688395500183, -0.2002008557319641, -0.041853658854961395, -0.72119140625, -0.46337890625, 0.15185546875, 
127, 2845237410, 0.016979694366455078, 0.7437906861305237, 0.09665586054325104, 0.6611669659614563, 9.75004768371582, 1.67311429977417, -1.2179646492004395, 1.042614459991455, 0.3176805377006531, -0.033375345170497894, -0.71728515625, -0.463623046875, 0.154052734375, 
128, 2845245743, 0.01697453297674656, 0.7437485456466675, 0.0966690182685852, 0.6612125635147095, 9.740384101867676, 1.737053632736206, -1.2310256958007812, -0.10836102068424225, 0.2939745783805847, -0.2886084020137787, -0.7177734375, -0.463134765625, 0.155029296875, 
129, 2845254076, 0.017021531239151955, 0.7437196969985962, 0.09665179252624512, 0.6612463593482971, 9.746757507324219, 1.631563425064087, -1.1785882711410522, -0.7760345339775085, 0.0017801893409341574, -0.4540892243385315, -0.717041015625, -0.463623046875, 0.153564453125, 
130, 2845262409, 0.017058486118912697, 0.7436856031417847, 0.09666162729263306, 0.6612822413444519, 9.740333557128906, 1.4717189073562622, -1.2085801362991333, -0.5290876626968384, 0.06865895539522171, -0.6325690746307373, -0.7197265625, -0.464599609375, 0.154541015625, 
131, 2845270742, 0.01705690659582615, 0.7436427474021912, 0.09671104699373245, 0.6613232493400574, 9.771641731262207, 1.4336729049682617, -1.262412428855896, 0.3144787549972534, 0.2837160527706146, -0.7104107737541199, -0.717529296875, -0.464599609375, 0.151123046875, 
132, 2845279075, 0.01701168715953827, 0.7435998916625977, 0.09679048508405685, 0.6613609194755554, 9.807635307312012, 1.4143531322479248, -1.3053652048110962, 0.9623396992683411, 0.29549866914749146, -0.6108995676040649, -0.719482421875, -0.465087890625, 0.153076171875, 
133, 2845287408, 0.016972601413726807, 0.743568480014801, 0.09686481952667236, 0.6613863706588745, 9.772514343261719, 1.4345812797546387, -1.3054009675979614, 0.9482517242431641, 0.0762920007109642, -0.6126156449317932, -0.71826171875, -0.464111328125, 0.154541015625, 
134, 2845295741, 0.016941502690315247, 0.7435564994812012, 0.09691676497459412, 0.6613931059837341, 9.73684310913086, 1.4556679725646973, -1.2720401287078857, 0.5600681304931641, -0.3345218896865845, -0.41853660345077515, -0.715576171875, -0.463623046875, 0.151123046875, 
135, 2845304074, 0.016905009746551514, 0.7435482740402222, 0.09696532785892487, 0.6613962054252625, 9.675457954406738, 1.4596883058547974, -1.2128859758377075, 0.7222573757171631, -0.37396782636642456, -0.34799495339393616, -0.720947265625, -0.46484375, 0.15185546875, 
136, 2845312407, 0.01679776981472969, 0.7435327768325806, 0.09706496447324753, 0.6614017486572266, 9.606703758239746, 1.5246977806091309, -1.1487921476364136, 1.8592733144760132, -0.1901600956916809, -0.22666038572788239, -0.717041015625, -0.464599609375, 0.153564453125, 
137, 2845320740, 0.01665196195244789, 0.7435123920440674, 0.09719660878181458, 0.6614089608192444, 9.57359790802002, 1.5778049230575562, -1.1104295253753662, 2.5878446102142334, -0.05440463125705719, -0.2179771214723587, -0.716064453125, -0.4638671875, 0.149658203125, 
138, 2845329073, 0.016562795266509056, 0.7435063123703003, 0.09727799892425537, 0.6614060401916504, 9.518695831298828, 1.6850734949111938, -1.080014944076538, 1.5923731327056885, -0.38162651658058167, -0.2014559805393219, -0.718505859375, -0.463134765625, 0.150634765625, 
139, 2845337406, 0.0165398046374321, 0.743527889251709, 0.09730213135480881, 0.661378800868988, 9.54021167755127, 1.6907317638397217, -1.0463249683380127, 0.40902090072631836, -0.9779257774353027, -0.18811091780662537, -0.71630859375, -0.461669921875, 0.153076171875, 
140, 2845345739, 0.016550837084650993, 0.7435527443885803, 0.09731360524892807, 0.661348819732666, 9.60013198852539, 1.6028876304626465, -1.0593148469924927, -0.12727713584899902, -1.103999137878418, -0.3504795432090759, -0.719970703125, -0.46337890625, 0.14990234375, 
141, 2845354072, 0.016542911529541016, 0.7435796856880188, 0.09733038395643234, 0.6613162159919739, 9.623627662658691, 1.5208946466445923, -1.1195272207260132, 0.1972423940896988, -1.1013864278793335, -0.24348890781402588, -0.72021484375, -0.461181640625, 0.1513671875, 
142, 2845362405, 0.01653914339840412, 0.7436000108718872, 0.09733545035123825, 0.6612926721572876, 9.658148765563965, 1.4846583604812622, -1.1735312938690186, 0.08535943925380707, -0.9628390669822693, -0.16936133801937103, -0.7177734375, -0.464111328125, 0.154052734375, 
143, 2845370738, 0.016536734998226166, 0.743615984916687, 0.09731791168451309, 0.6612774133682251, 9.689577102661133, 1.5009883642196655, -1.2404531240463257, -0.19763943552970886, -0.841401994228363, 0.0471942275762558, -0.717529296875, -0.464599609375, 0.151123046875, 
144, 2845379071, 0.016539229080080986, 0.7436267733573914, 0.09728407859802246, 0.6612704396247864, 9.676494598388672, 1.4801092147827148, -1.3252859115600586, -0.5071874260902405, -0.7420955896377563, 0.17803174257278442, -0.717041015625, -0.463134765625, 0.152587890625, 
145, 2845387404, 0.016540639102458954, 0.743611752986908, 0.09727618098258972, 0.661288321018219, 9.67867660522461, 1.4299677610397339, -1.3669226169586182, -0.1999959498643875, -0.22358667850494385, -0.12177008390426636, -0.7177734375, -0.460205078125, 0.151611328125, 
146, 2845395737, 0.01647522859275341, 0.743558943271637, 0.0973174124956131, 0.6613432168960571, 9.72691535949707, 1.4133087396621704, -1.3566868305206299, 0.8560405373573303, 0.5871166586875916, -0.05171513557434082, -0.719970703125, -0.46484375, 0.152099609375, 
147, 2845404070, 0.016370629891753197, 0.7434706687927246, 0.09739293158054352, 0.6614340543746948, 9.67495059967041, 1.4521788358688354, -1.2802722454071045, 1.5284397602081299, 1.3509074449539185, -0.0905207023024559, -0.718505859375, -0.464111328125, 0.152587890625, 
148, 2845412403, 0.01625453121960163, 0.7433518171310425, 0.09748523682355881, 0.6615568399429321, 9.652484893798828, 1.4995907545089722, -1.207842230796814, 1.658022403717041, 1.9517408609390259, -0.1791459619998932, -0.7158203125, -0.462158203125, 0.153076171875, 
149, 2845420736, 0.016159681603312492, 0.7432228922843933, 0.09758628904819489, 0.6616891622543335, 9.650525093078613, 1.5336142778396606, -1.1493282318115234, 1.5962533950805664, 2.1359198093414307, -0.4855562746524811, -0.718505859375, -0.465087890625, 0.152587890625, 
150, 2845429069, 0.016056081280112267, 0.7431052327156067, 0.0977250263094902, 0.6618034243583679, 9.623760223388672, 1.4773062467575073, -1.1102420091629028, 2.000945568084717, 1.8538684844970703, -0.7719361186027527, -0.715576171875, -0.464111328125, 0.150634765625, 
151, 2845437402, 0.015946345403790474, 0.7430161237716675, 0.09788225591182709, 0.6618829369544983, 9.617654800415039, 1.497487187385559, -1.1353970766067505, 2.3393354415893555, 1.2671490907669067, -0.8825896382331848, -0.720703125, -0.4609375, 0.1484375, 
152, 2845445735, 0.015856940299272537, 0.7429611086845398, 0.09803851693868637, 0.6619235873222351, 9.622261047363281, 1.4914391040802002, -1.1520097255706787, 2.2516579627990723, 0.5325071215629578, -1.0242619514465332, -0.716796875, -0.462158203125, 0.152099609375, 
153, 2845454068, 0.01577676832675934, 0.7429294586181641, 0.09818437695503235, 0.6619393825531006, 9.646989822387695, 1.505885362625122, -1.185999870300293, 2.032399892807007, 0.04921774938702583, -0.9722394347190857, -0.717041015625, -0.462646484375, 0.150146484375, 
154, 2845462401, 0.015708886086940765, 0.7429048418998718, 0.09831323474645615, 0.6619495749473572, 9.664396286010742, 1.5311856269836426, -1.229257583618164, 1.7358895540237427, -0.10366081446409225, -0.8959348201751709, -0.71875, -0.460693359375, 0.1533203125, 
155, 2845470734, 0.015637358650565147, 0.7428684830665588, 0.09841784834861755, 0.6619765162467957, 9.748858451843262, 1.576990008354187, -1.3071945905685425, 1.5524401664733887, 0.18630512058734894, -0.6329789161682129, -0.718994140625, -0.462890625, 0.14892578125, 
156, 2845479067, 0.015544990077614784, 0.7428174614906311, 0.09851188212633133, 0.6620219349861145, 9.797877311706543, 1.5634630918502808, -1.3070497512817383, 1.6188582181930542, 0.5241825580596924, -0.3462788462638855, -0.716552734375, -0.464599609375, 0.150634765625, 
157, 2845487400, 0.01544667687267065, 0.7427786588668823, 0.0985848605632782, 0.6620570421218872, 9.74494743347168, 1.6043254137039185, -1.2788209915161133, 1.526954174041748, 0.3196784555912018, -0.06764719635248184, -0.71923828125, -0.463134765625, 0.154052734375, 
158, 2845495733, 0.015360675752162933, 0.7427540421485901, 0.09862049669027328, 0.6620813012123108, 9.755011558532715, 1.6145039796829224, -1.207929253578186, 1.077449917793274, 0.05759360268712044, 0.21842537820339203, -0.716552734375, -0.463623046875, 0.150146484375, 
159, 2845504066, 0.015284071676433086, 0.7427327036857605, 0.09863751381635666, 0.6621043682098389, 9.809430122375488, 1.5831458568572998, -1.1679805517196655, 0.6175976395606995, -0.03942030295729637, 0.35000571608543396, -0.718505859375, -0.46484375, 0.151611328125, 
160, 2845512399, 0.015246210619807243, 0.7427178621292114, 0.09862329065799713, 0.6621239185333252, 9.758238792419434, 1.6439024209976196, -1.1622083187103271, 0.11505915224552155, -0.16688954830169678, 0.3090357482433319, -0.71875, -0.464111328125, 0.152587890625, 
161, 2845520732, 0.015239778906106949, 0.7427048683166504, 0.09858480840921402, 0.6621443629264832, 9.770425796508789, 1.6069576740264893, -1.190425992012024, -0.40178489685058594, -0.21111251413822174, 0.2660422623157501, -0.7197265625, -0.461181640625, 0.15087890625, 
162, 2845529065, 0.0152386873960495, 0.742688000202179, 0.09855975955724716, 0.6621670722961426, 9.772464752197266, 1.5291776657104492, -1.2604095935821533, -0.3379285931587219, -0.15844964981079102, 0.07462707161903381, -0.71826171875, -0.461669921875, 0.153076171875, 
163, 2845537398, 0.015219694934785366, 0.7426793575286865, 0.09855910390615463, 0.662177324295044, 9.74560546875, 1.5370744466781616, -1.3085911273956299, -0.04669475182890892, -0.35647329688072205, 0.015176434069871902, -0.718505859375, -0.462158203125, 0.1494140625, 
164, 2845545731, 0.015182730741798878, 0.7426947355270386, 0.09856844693422318, 0.6621595025062561, 9.704361915588379, 1.5443559885025024, -1.300014853477478, 0.6173414587974548, -0.7871509790420532, 0.06881263852119446, -0.718505859375, -0.46337890625, 0.149658203125, 
165, 2845554064, 0.015116970986127853, 0.7427252531051636, 0.09861431270837784, 0.6621199250221252, 9.685564041137695, 1.4713687896728516, -1.2236225605010986, 1.0627987384796143, -1.1229280233383179, -0.009451651945710182, -0.719482421875, -0.4638671875, 0.15087890625, 
166, 2845562397, 0.015034087002277374, 0.7427476048469543, 0.0986858606338501, 0.6620860695838928, 9.665315628051758, 1.500015139579773, -1.1744753122329712, 1.258235216140747, -0.9983402490615845, -0.10166288912296295, -0.7197265625, -0.463623046875, 0.15283203125, 
167, 2845570730, 0.01495318952947855, 0.7427597641944885, 0.09874902665615082, 0.6620650887489319, 9.666166305541992, 1.4678568840026855, -1.110679268836975, 1.3466044664382935, -0.7406356334686279, -0.06851808726787567, -0.71826171875, -0.461181640625, 0.150390625, 
168, 2845579063, 0.014859827235341072, 0.7427764534950256, 0.09881263226270676, 0.6620387434959412, 9.665884017944336, 1.4745700359344482, -1.1358861923217773, 1.468784213066101, -0.8317453861236572, 0.0508570596575737, -0.719482421875, -0.466796875, 0.153564453125, 
169, 2845587396, 0.014759634621441364, 0.7427909970283508, 0.09888459742069244, 0.6620139479637146, 9.686832427978516, 1.4579797983169556, -1.1293550729751587, 1.6284888982772827, -0.774164617061615, 0.019812610000371933, -0.71826171875, -0.462158203125, 0.153564453125, 
170, 2845595729, 0.014657043851912022, 0.742805004119873, 0.09897365421056747, 0.6619871258735657, 9.701323509216309, 1.4793561697006226, -1.1307958364486694, 1.688733696937561, -0.8090511560440063, -0.1190805733203888, -0.719482421875, -0.464111328125, 0.151611328125, 
171, 2845604062, 0.014551691710948944, 0.7428123354911804, 0.0990433543920517, 0.6619709134101868, 9.779367446899414, 1.4628335237503052, -1.1625767946243286, 1.647776484489441, -0.6134353280067444, 0.08177343755960464, -0.7177734375, -0.462158203125, 0.154541015625, 
172, 2845612395, 0.014412665739655495, 0.7427971959114075, 0.09912634640932083, 0.661978542804718, 9.81045150756836, 1.5194032192230225, -1.2117433547973633, 1.9910842180252075, -0.13875232636928558, 0.23983889818191528, -0.716064453125, -0.461669921875, 0.151611328125, 
173, 2845620728, 0.014267648570239544, 0.742765486240387, 0.0992145910859108, 0.6620041131973267, 9.808660507202148, 1.5325086116790771, -1.258672833442688, 2.1577048301696777, 0.22593039274215698, 0.20769304037094116, -0.7177734375, -0.462158203125, 0.152587890625, 
174, 2845629061, 0.014121496118605137, 0.742736279964447, 0.09929364919662476, 0.6620281338691711, 9.766562461853027, 1.6095768213272095, -1.2758716344833374, 2.0405707359313965, 0.16970710456371307, 0.323443740606308, -0.716064453125, -0.462158203125, 0.151123046875, 
175, 2845637394, 0.014001943171024323, 0.7427045702934265, 0.09933910518884659, 0.6620595455169678, 9.723774909973145, 1.6719340085983276, -1.2750654220581055, 1.4995726346969604, 0.2421441674232483, 0.4139900803565979, -0.7197265625, -0.460205078125, 0.15185546875, 
176, 2845645727, 0.013900408521294594, 0.7426602840423584, 0.09938156604766846, 0.6621047258377075, 9.714705467224121, 1.6566270589828491, -1.235839605331421, 1.2295217514038086, 0.46083852648735046, 0.2749047577381134, -0.71630859375, -0.459716796875, 0.150634765625, 
177, 2845654060, 0.013812694698572159, 0.7426072359085083, 0.09941917657852173, 0.6621604561805725, 9.70444107055664, 1.6696451902389526, -1.199167013168335, 1.0651551485061646, 0.6391903758049011, 0.17951735854148865, -0.71826171875, -0.461669921875, 0.151611328125, 
178, 2845662393, 0.013735041953623295, 0.7425521612167358, 0.09946026653051376, 0.6622175574302673, 9.68097972869873, 1.6316921710968018, -1.1571297645568848, 0.8918235898017883, 0.637141227722168, 0.06653297692537308, -0.71923828125, -0.462646484375, 0.154541015625, 
179, 2845670726, 0.013678504154086113, 0.7425093650817871, 0.09946959465742111, 0.6622653603553772, 9.643620491027832, 1.6434800624847412, -1.1393048763275146, 0.5026921629905701, 0.4170125126838684, 0.1965252161026001, -0.71875, -0.459716796875, 0.15234375, 
180, 2845679059, 0.013665398582816124, 0.7424787878990173, 0.0994555875658989, 0.6623018980026245, 9.663311958312988, 1.6615052223205566, -1.1206430196762085, -0.13626772165298462, 0.12680324912071228, 0.05572376400232315, -0.718994140625, -0.46337890625, 0.1494140625, 
181, 2845687392, 0.013698654249310493, 0.7424728870391846, 0.0994153618812561, 0.6623139381408691, 9.696436882019043, 1.6632577180862427, -1.1166017055511475, -0.915939450263977, -0.4387975037097931, -0.056402549147605896, -0.72021484375, -0.460205078125, 0.1533203125, 
182, 2845695725, 0.013758854009211063, 0.7424775958061218, 0.09936192631721497, 0.6623153686523438, 9.720977783203125, 1.616950273513794, -1.0819389820098877, -1.2485146522521973, -0.6769329309463501, -0.15578576922416687, -0.71826171875, -0.460693359375, 0.155029296875, 
183, 2845704058, 0.01383153721690178, 0.7424840331077576, 0.09929492324590683, 0.6623168587684631, 9.760440826416016, 1.5672953128814697, -1.0930900573730469, -1.4401603937149048, -0.6964766383171082, -0.14192847907543182, -0.71728515625, -0.460205078125, 0.152099609375, 
184, 2845712391, 0.013885067775845528, 0.7424858212471008, 0.09923465549945831, 0.6623228192329407, 9.785139083862305, 1.511030912399292, -1.143560767173767, -1.255353569984436, -0.5967348217964172, -0.028406186029314995, -0.71630859375, -0.462158203125, 0.152587890625, 
185, 2845720724, 0.013913558796048164, 0.7424840927124023, 0.09918506443500519, 0.6623315215110779, 9.743803024291992, 1.4693655967712402, -1.2235867977142334, -0.8407617211341858, -0.48372483253479004, 0.0741916373372078, -0.72021484375, -0.459716796875, 0.15283203125, 
186, 2845729057, 0.013913129456341267, 0.742475152015686, 0.09917023032903671, 0.6623438000679016, 9.752622604370117, 1.4071286916732788, -1.2155612707138062, -0.22704456746578217, -0.3436405658721924, -0.022233154624700546, -0.72021484375, -0.458740234375, 0.1552734375, 
187, 2845737390, 0.01386597566306591, 0.7424600124359131, 0.09919192641973495, 0.6623584628105164, 9.738996505737305, 1.362194538116455, -1.2160404920578003, 0.5692891478538513, -0.1818866729736328, 0.018506284803152084, -0.7216796875, -0.463134765625, 0.15283203125, 
188, 2845745723, 0.013796667568385601, 0.7424435615539551, 0.09922578185796738, 0.6623733639717102, 9.721343040466309, 1.4158837795257568, -1.2418122291564941, 0.9212799668312073, -0.14413128793239594, 0.09688583761453629, -0.72021484375, -0.460693359375, 0.15283203125, 
189, 2845754056, 0.013704456388950348, 0.7424366474151611, 0.09926461428403854, 0.6623771786689758, 9.709282875061035, 1.4565119743347168, -1.204417109489441, 1.2023450136184692, -0.30258095264434814, 0.2624562382698059, -0.7197265625, -0.462890625, 0.15087890625, 
190, 2845762389, 0.013607200235128403, 0.7424243092536926, 0.09930475801229477, 0.6623868942260742, 9.6844482421875, 1.5146573781967163, -1.1930584907531738, 1.1136428117752075, -0.2163121998310089, 0.3066920340061188, -0.72314453125, -0.461669921875, 0.15478515625, 
191, 2845770722, 0.013544339686632156, 0.7424271106719971, 0.0992976650595665, 0.6623861193656921, 9.632454872131348, 1.629753828048706, -1.1853691339492798, 0.49201107025146484, -0.4867473542690277, 0.4762582778930664, -0.71923828125, -0.462646484375, 0.15283203125, 
192, 2845779055, 0.013526110909879208, 0.7424356341362, 0.09925615042448044, 0.6623831391334534, 9.653133392333984, 1.664058804512024, -1.1848398447036743, -0.36180105805397034, -0.6523433327674866, 0.4424475133419037, -0.71875, -0.459716796875, 0.15234375, 
193, 2845787388, 0.013543419539928436, 0.7424540519714355, 0.09917568415403366, 0.6623741984367371, 9.648069381713867, 1.6577142477035522, -1.1566861867904663, -0.9803335666656494, -0.8362792134284973, 0.5143978595733643, -0.71630859375, -0.460693359375, 0.152099609375, 
194, 2845795721, 0.01358704548329115, 0.7424765229225159, 0.09907510876655579, 0.6623631715774536, 9.649713516235352, 1.6338285207748413, -1.1500526666641235, -1.4290437698364258, -0.935355007648468, 0.48624783754348755, -0.71728515625, -0.463134765625, 0.153564453125, 
195, 2845804054, 0.01362459547817707, 0.7424951791763306, 0.09897257387638092, 0.6623569130897522, 9.688667297363281, 1.5890827178955078, -1.1978920698165894, -1.4642120599746704, -0.8640449643135071, 0.5690329670906067, -0.719970703125, -0.4638671875, 0.1513671875, 
196, 2845812387, 0.013668647035956383, 0.7424964904785156, 0.09886029362678528, 0.6623712778091431, 9.754772186279297, 1.545876383781433, -1.2261356115341187, -1.5744813680648804, -0.4923568069934845, 0.5839917659759521, -0.7177734375, -0.458740234375, 0.150390625, 
197, 2845820720, 0.01370832696557045, 0.7424727082252502, 0.09873441606760025, 0.6624159216880798, 9.792265892028809, 1.5014777183532715, -1.2377808094024658, -1.7029879093170166, 0.0545198991894722, 0.7264580726623535, -0.7197265625, -0.458740234375, 0.1533203125, 
198, 2845829053, 0.013727091252803802, 0.7424297332763672, 0.09862494468688965, 0.6624800562858582, 9.76156234741211, 1.4353209733963013, -1.2437679767608643, -1.528964877128601, 0.4289231598377228, 0.7494853138923645, -0.72021484375, -0.460693359375, 0.15283203125, 
199, 2845837386, 0.013715814799070358, 0.7423658967018127, 0.09853185713291168, 0.6625655889511108, 9.7158784866333, 1.3975870609283447, -1.2603451013565063, -0.9471120238304138, 0.9127505421638489, 0.8100886344909668, -0.72021484375, -0.461181640625, 0.15185546875, 
200, 2845845719, 0.013665346428751945, 0.7422866821289062, 0.09846199303865433, 0.6626656651496887, 9.721114158630371, 1.4522631168365479, -1.2922040224075317, -0.3950226902961731, 1.2456328868865967, 0.9226118326187134, -0.720703125, -0.460205078125, 0.15283203125, 
201, 2845854052, 0.013627518899738789, 0.742204487323761, 0.09838984906673431, 0.6627693176269531, 9.703004837036133, 1.540100336074829, -1.2425847053527832, -0.5129761695861816, 1.3040846586227417, 0.8159798383712769, -0.72314453125, -0.457763671875, 0.152587890625, 
202, 2845862385, 0.013601241633296013, 0.742125391960144, 0.09831599146127701, 0.6628693342208862, 9.649921417236328, 1.4965249300003052, -1.1682308912277222, -0.7090403437614441, 1.2051753997802734, 0.7454510927200317, -0.71826171875, -0.458740234375, 0.15185546875, 
203, 2845870718, 0.013558539561927319, 0.7420499920845032, 0.09824518114328384, 0.6629651784896851, 9.654192924499512, 1.435532808303833, -1.1145844459533691, -0.4398348033428192, 1.170801043510437, 0.8552848696708679, -0.717041015625, -0.461669921875, 0.149169921875, 
204, 2845879051, 0.013498594984412193, 0.7419881820678711, 0.09819908440113068, 0.663042426109314, 9.642848014831543, 1.4884566068649292, -1.0993919372558594, -0.2435145229101181, 0.8461021780967712, 0.8031471371650696, -0.72265625, -0.460693359375, 0.15087890625, 
205, 2845887384, 0.013457105495035648, 0.7419507503509521, 0.09813462197780609, 0.663094699382782, 9.644028663635254, 1.5111383199691772, -1.0832622051239014, -0.3273499310016632, 0.379359632730484, 0.8225627541542053, -0.72314453125, -0.456787109375, 0.151611328125, 
206, 2845895717, 0.013439327478408813, 0.7419347167015076, 0.09807568043470383, 0.6631216406822205, 9.676551818847656, 1.5088993310928345, -1.080930471420288, -0.5688408613204956, -0.1265086829662323, 0.5884230136871338, -0.7197265625, -0.460693359375, 0.14990234375, 
207, 2845904050, 0.013425223529338837, 0.7419179677963257, 0.0980319008231163, 0.6631471514701843, 9.706464767456055, 1.5209161043167114, -1.129004716873169, -0.37909066677093506, -0.11554580181837082, 0.3854045867919922, -0.72119140625, -0.459228515625, 0.15087890625, 
208, 2845912383, 0.013405116274952888, 0.7419111728668213, 0.09799250215291977, 0.6631610989570618, 9.75998306274414, 1.4976551532745361, -1.122002124786377, -0.3741471469402313, -0.3412840664386749, 0.42308309674263, -0.7216796875, -0.462158203125, 0.1513671875, 
209, 2845920716, 0.013386090286076069, 0.7419139742851257, 0.09795653074979782, 0.6631636023521423, 9.66972827911377, 1.514163851737976, -1.1359286308288574, -0.22256207466125488, -0.5201738476753235, 0.3716753423213959, -0.7216796875, -0.46240234375, 0.1484375, 
210, 2845929049, 0.013367611914873123, 0.741913914680481, 0.0979197695851326, 0.6631694436073303, 9.631360054016113, 1.5090996026992798, -1.1567505598068237, -0.20832057297229767, -0.46428361535072327, 0.3750307857990265, -0.720703125, -0.460693359375, 0.15234375, 
211, 2845937382, 0.013353596441447735, 0.7419142127037048, 0.09787530452013016, 0.6631760597229004, 9.654106140136719, 1.505573034286499, -1.149354338645935, -0.3579076826572418, -0.465692400932312, 0.40991735458374023, -0.7197265625, -0.4619140625, 0.1494140625, 
212, 2845945715, 0.013312182389199734, 0.7419062256813049, 0.09784591943025589, 0.6631901264190674, 9.637740135192871, 1.4497883319854736, -1.1444834470748901, -0.07589498162269592, -0.2983546257019043, 0.5140137076377869, -0.72021484375, -0.46044921875, 0.1474609375, 
213, 2845954048, 0.01325791236013174, 0.7419009208679199, 0.09783027321100235, 0.6631993055343628, 9.666438102722168, 1.471282720565796, -1.1608707904815674, 0.31189170479774475, -0.3267095386981964, 0.47689855098724365, -0.7197265625, -0.460693359375, 0.14990234375, 
214, 2845962381, 0.013174809515476227, 0.7418826818466187, 0.09783565998077393, 0.6632206439971924, 9.739432334899902, 1.4662824869155884, -1.1490392684936523, 0.6503582000732422, -0.07031107693910599, 0.5285369753837585, -0.72265625, -0.458984375, 0.148681640625, 
215, 2845970714, 0.013102374039590359, 0.7418579459190369, 0.09782333672046661, 0.6632515788078308, 9.769660949707031, 1.5078693628311157, -1.218815803527832, 0.4941113591194153, 0.0983714684844017, 0.5864506959915161, -0.72021484375, -0.458740234375, 0.14892578125, 
216, 2845979047, 0.013036705553531647, 0.7418311834335327, 0.09780175983905792, 0.6632859706878662, 9.787556648254395, 1.5314308404922485, -1.243171215057373, 0.3354312479496002, 0.13994337618350983, 0.6161120533943176, -0.71826171875, -0.459716796875, 0.15185546875, 
217, 2845987380, 0.0129832923412323, 0.7417960166931152, 0.0977841168642044, 0.6633289456367493, 9.82310676574707, 1.5603498220443726, -1.2753018140792847, 0.1642000377178192, 0.26939770579338074, 0.46665292978286743, -0.71826171875, -0.461181640625, 0.151611328125, 
218, 2845995713, 0.012972422875463963, 0.74175626039505, 0.09774544090032578, 0.663379430770874, 9.820381164550781, 1.6109061241149902, -1.2991994619369507, -0.5124896764755249, 0.32124093174934387, 0.2943972051143646, -0.72119140625, -0.459716796875, 0.1484375, 
219, 2846004046, 0.012994511984288692, 0.7417092323303223, 0.09769052267074585, 0.6634396314620972, 9.804887771606445, 1.5416598320007324, -1.2939136028289795, -0.9015185832977295, 0.4645013213157654, 0.13392402231693268, -0.72119140625, -0.458251953125, 0.14794921875, 
220, 2846012379, 0.01302481722086668, 0.7416476011276245, 0.097645103931427, 0.6635146141052246, 9.816189765930176, 1.4388086795806885, -1.268492341041565, -1.0683696269989014, 0.7105259895324707, -0.036807652562856674, -0.72021484375, -0.459716796875, 0.14794921875, 
221, 2846020712, 0.013025039806962013, 0.7415845394134521, 0.09761293232440948, 0.6635898351669312, 9.786620140075684, 1.3574665784835815, -1.25253427028656, -0.494124174118042, 0.79666668176651, 0.08261871337890625, -0.72021484375, -0.460205078125, 0.14892578125, 
222, 2846029045, 0.012994768097996712, 0.7415289878845215, 0.09760497510433197, 0.6636536121368408, 9.758630752563477, 1.2686711549758911, -1.176642656326294, 0.006390751805156469, 0.642853319644928, 0.13284823298454285, -0.718994140625, -0.4638671875, 0.1474609375, 
223, 2846037378, 0.0129309743642807, 0.7414820790290833, 0.09761307388544083, 0.6637060642242432, 9.730884552001953, 1.2796790599822998, -1.1325099468231201, 0.5592740178108215, 0.5091469883918762, 0.2733679413795471, -0.72021484375, -0.458740234375, 0.1494140625, 
224, 2846045711, 0.01284248661249876, 0.7414491176605225, 0.09762843698263168, 0.6637423634529114, 9.69953441619873, 1.3066169023513794, -1.0839778184890747, 0.8084749579429626, 0.23228269815444946, 0.45487043261528015, -0.720703125, -0.46044921875, 0.1474609375, 
225, 2846054044, 0.012725558131933212, 0.7414336204528809, 0.0976540595293045, 0.6637581586837769, 9.679463386535645, 1.3517299890518188, -1.0558884143829346, 1.3158674240112305, -0.07538270205259323, 0.6155741214752197, -0.720703125, -0.46240234375, 0.1494140625, 
226, 2846062377, 0.012561081908643246, 0.7414385080337524, 0.09772124141454697, 0.6637459993362427, 9.613624572753906, 1.4152580499649048, -1.0724602937698364, 2.1072959899902344, -0.49827367067337036, 0.6633958220481873, -0.7236328125, -0.45947265625, 0.147216796875, 
227, 2846070710, 0.012386512942612171, 0.7414773106575012, 0.09778821468353271, 0.6636960506439209, 9.54415512084961, 1.539069652557373, -1.1152844429016113, 2.37870454788208, -1.1588904857635498, 0.7813494205474854, -0.71875, -0.459228515625, 0.15234375, 
228, 2846079043, 0.012217119336128235, 0.7415343523025513, 0.09786113351583481, 0.66362464427948, 9.558012008666992, 1.560214638710022, -1.1106905937194824, 2.3612864017486572, -1.5620328187942505, 0.7038407325744629, -0.7216796875, -0.457275390625, 0.150390625, 
229, 2846087376, 0.012077228166162968, 0.7415919899940491, 0.09791433811187744, 0.6635550856590271, 9.616936683654785, 1.5696064233779907, -1.1054210662841797, 1.928918480873108, -1.5791945457458496, 0.628560483455658, -0.7236328125, -0.458740234375, 0.150634765625, 
230, 2846095709, 0.011954199522733688, 0.741643488407135, 0.09794700890779495, 0.6634947657585144, 9.64627742767334, 1.6226173639297485, -1.1210695505142212, 1.4306703805923462, -1.4786075353622437, 0.6926218271255493, -0.72119140625, -0.459228515625, 0.14990234375, 
231, 2846104042, 0.011835205368697643, 0.7416906952857971, 0.09797161817550659, 0.6634406447410583, 9.640769958496094, 1.5096029043197632, -1.1691259145736694, 1.4325144290924072, -1.357272744178772, 0.7172369956970215, -0.72119140625, -0.458251953125, 0.1494140625, 
232, 2846112375, 0.011723348870873451, 0.7417231202125549, 0.09801775217056274, 0.6633994579315186, 9.690568923950195, 1.5216147899627686, -1.1707254648208618, 1.4884816408157349, -1.1132971048355103, 0.4246712028980255, -0.7216796875, -0.457763671875, 0.1494140625, 
233, 2846120708, 0.011632930487394333, 0.7417239546775818, 0.09807383269071579, 0.6633918881416321, 9.811111450195312, 1.589053750038147, -1.196384310722351, 1.3578747510910034, -0.4921519458293915, 0.08097940683364868, -0.71826171875, -0.457763671875, 0.14990234375, 
234, 2846129041, 0.011537759564816952, 0.7416940331459045, 0.09814765304327011, 0.6634160876274109, 9.836575508117676, 1.5952484607696533, -1.2004473209381104, 1.3964751958847046, 0.09317177534103394, -0.07717568427324295, -0.72314453125, -0.460205078125, 0.150634765625, 
235, 2846137374, 0.01145112607628107, 0.7416445016860962, 0.09820351749658585, 0.6634647250175476, 9.75429630279541, 1.5245856046676636, -1.218336582183838, 1.233107566833496, 0.5346075296401978, -0.010962891392409801, -0.72412109375, -0.457275390625, 0.148681640625, 
236, 2846145707, 0.011358519084751606, 0.7415921092033386, 0.09826469421386719, 0.6635158658027649, 9.745748519897461, 1.4730063676834106, -1.239723563194275, 1.311794638633728, 0.5823523998260498, -0.005968116689473391, -0.72314453125, -0.458740234375, 0.149658203125, 
237, 2846154040, 0.011251559481024742, 0.7415292263031006, 0.0983281284570694, 0.6635785102844238, 9.786394119262695, 1.491948127746582, -1.2299834489822388, 1.4891732931137085, 0.8274295330047607, 0.08192713558673859, -0.7177734375, -0.458740234375, 0.15234375, 
238, 2846162373, 0.011172795668244362, 0.7414631247520447, 0.09838682413101196, 0.6636449694633484, 9.730585098266602, 1.6042972803115845, -1.1961770057678223, 1.0570098161697388, 0.8333719372749329, -0.11613493412733078, -0.7216796875, -0.46044921875, 0.14892578125, 
239, 2846170706, 0.01116333156824112, 0.7414060831069946, 0.09841439872980118, 0.6637048125267029, 9.627805709838867, 1.60320246219635, -1.1278173923492432, 0.17237098515033722, 0.6094778776168823, -0.4362615942955017, -0.72412109375, -0.459716796875, 0.151123046875, 
240, 2846179039, 0.011182251386344433, 0.7413549423217773, 0.0984264686703682, 0.663759708404541, 9.601776123046875, 1.5230834484100342, -1.095443606376648, -0.31712979078292847, 0.44521379470825195, -0.5160499215126038, -0.720703125, -0.458740234375, 0.150390625, 
241, 2846187372, 0.011204732581973076, 0.7413169145584106, 0.09843147546052933, 0.6638010144233704, 9.610638618469238, 1.5066248178482056, -1.0746288299560547, -0.3321782052516937, 0.19848468899726868, -0.4734150767326355, -0.72314453125, -0.45947265625, 0.149169921875, 
242, 2846195705, 0.011200142093002796, 0.7412943840026855, 0.09845507144927979, 0.6638227701187134, 9.632347106933594, 1.4568767547607422, -1.0614891052246094, 0.12991538643836975, -0.11297158151865005, -0.3895028531551361, -0.72119140625, -0.458740234375, 0.14990234375, 
243, 2846204038, 0.01119371596723795, 0.7412907481193542, 0.09846626222133636, 0.663825273513794, 9.637262344360352, 1.4516695737838745, -1.0781195163726807, 0.0774446353316307, -0.46897098422050476, -0.2336786538362503, -0.7216796875, -0.456787109375, 0.15185546875, 
244, 2846212371, 0.01116624753922224, 0.7413026094436646, 0.09848245978355408, 0.663810133934021, 9.662482261657715, 1.4134732484817505, -1.0933334827423096, 0.25915199518203735, -0.787509560585022, -0.056043945252895355, -0.7197265625, -0.458740234375, 0.15185546875, 
245, 2846220704, 0.011126221157610416, 0.7413179874420166, 0.09848586469888687, 0.6637932062149048, 9.697667121887207, 1.463078260421753, -1.0838345289230347, 0.37782275676727295, -0.7957574129104614, 0.1766485720872879, -0.72119140625, -0.456298828125, 0.148193359375, 
246, 2846229037, 0.011049648746848106, 0.7413095831871033, 0.09850864857435226, 0.6638004779815674, 9.763251304626465, 1.5038566589355469, -1.1320875883102417, 0.9412078857421875, -0.28511202335357666, 0.2851760685443878, -0.72216796875, -0.459716796875, 0.1494140625, 
247, 2846237370, 0.010944993235170841, 0.7412903308868408, 0.09853682667016983, 0.6638195514678955, 9.786140441894531, 1.5205727815628052, -1.1845251321792603, 1.2091583013534546, -0.022514911368489265, 0.47292837500572205, -0.72265625, -0.45947265625, 0.148681640625, 
248, 2846245703, 0.010846301913261414, 0.7412556409835815, 0.0985669270157814, 0.6638554334640503, 9.781076431274414, 1.5511441230773926, -1.2387365102767944, 1.1399486064910889, 0.28156447410583496, 0.3795645236968994, -0.7216796875, -0.4609375, 0.14794921875, 
249, 2846254036, 0.010775689966976643, 0.7412173748016357, 0.09856568276882172, 0.6638994812965393, 9.769009590148926, 1.561186671257019, -1.251783847808838, 0.5976697206497192, 0.3497239053249359, 0.44155097007751465, -0.72265625, -0.459228515625, 0.15087890625, 
250, 2846262369, 0.010725467465817928, 0.7411789894104004, 0.09856440126895905, 0.6639432907104492, 9.806197166442871, 1.5263737440109253, -1.1968566179275513, 0.2686549127101898, 0.3040025532245636, 0.269064724445343, -0.72314453125, -0.459228515625, 0.150146484375, 
251, 2846270702, 0.010687395930290222, 0.7411254048347473, 0.09854907542467117, 0.6640060544013977, 9.784374237060547, 1.5012458562850952, -1.2273849248886108, 0.06914561986923218, 0.6407272219657898, 0.2675534784793854, -0.7216796875, -0.455322265625, 0.150146484375, 
252, 2846279035, 0.010659176856279373, 0.7410545349121094, 0.09851299971342087, 0.6640909314155579, 9.75656509399414, 1.5143715143203735, -1.2340372800827026, -0.32927098870277405, 0.9854435920715332, 0.38386768102645874, -0.72314453125, -0.459228515625, 0.150634765625, 
253, 2846287368, 0.010655038990080357, 0.7409777641296387, 0.09844543039798737, 0.6641867756843567, 9.752923011779785, 1.5068683624267578, -1.2341586351394653, -0.802596390247345, 1.1339037418365479, 0.46237537264823914, -0.72412109375, -0.459228515625, 0.153076171875, 
254, 2846295701, 0.0106612304225564, 0.7408877611160278, 0.0983484536409378, 0.6643013954162598, 9.723752975463867, 1.483694314956665, -1.1951525211334229, -1.406887412071228, 1.3913267850875854, 0.6822735071182251, -0.720703125, -0.455322265625, 0.1494140625, 
255, 2846304034, 0.010688073933124542, 0.7407873272895813, 0.09825108200311661, 0.6644273400306702, 9.638626098632812, 1.4711581468582153, -1.1491336822509766, -1.4343715906143188, 1.611506700515747, 0.4563559889793396, -0.720703125, -0.455322265625, 0.146728515625, 
256, 2846312367, 0.01069951243698597, 0.7406811714172363, 0.09818094968795776, 0.6645557880401611, 9.64137077331543, 1.4431878328323364, -1.1316801309585571, -1.1121187210083008, 1.69321608543396, 0.3269016742706299, -0.72412109375, -0.457763671875, 0.149169921875, 
257, 2846320700, 0.010684795677661896, 0.7405645847320557, 0.09813494235277176, 0.664692759513855, 9.614065170288086, 1.3702858686447144, -1.0664401054382324, -0.5586976408958435, 1.9354500770568848, 0.2936543822288513, -0.7216796875, -0.455322265625, 0.146240234375, 
258, 2846329033, 0.010660495609045029, 0.7404529452323914, 0.09814435243606567, 0.6648162007331848, 9.634490966796875, 1.315365195274353, -1.030821681022644, -0.08314380049705505, 1.7430614233016968, -0.15819349884986877, -0.72119140625, -0.458251953125, 0.1494140625, 
259, 2846337366, 0.010637961328029633, 0.7403706312179565, 0.09818054735660553, 0.6649028658866882, 9.669269561767578, 1.250689148902893, -1.0416899919509888, 0.3452414274215698, 1.1318800449371338, -0.43359771370887756, -0.72216796875, -0.457763671875, 0.149658203125, 
260, 2846345699, 0.010601955465972424, 0.7403193712234497, 0.09826968610286713, 0.6649473905563354, 9.753573417663574, 1.1695399284362793, -1.0472549200057983, 0.9038112163543701, 0.419369101524353, -0.7943999171257019, -0.72314453125, -0.457275390625, 0.150146484375, 
261, 2846354032, 0.01051174383610487, 0.7402867674827576, 0.0983956903219223, 0.6649664044380188, 9.781538963317871, 1.0770801305770874, -1.1269456148147583, 1.9532777070999146, 0.09196791797876358, -0.6727579236030579, -0.72314453125, -0.45947265625, 0.147705078125, 
262, 2846362365, 0.010374315083026886, 0.7402575612068176, 0.0985327735543251, 0.6649807691574097, 9.789190292358398, 1.1063176393508911, -1.1762993335723877, 2.515791893005371, 0.06596945971250534, -0.3396703898906708, -0.72314453125, -0.456787109375, 0.149169921875, 
263, 2846370698, 0.010214980691671371, 0.7402441501617432, 0.09865730255842209, 0.6649795770645142, 9.778645515441895, 1.2172367572784424, -1.210183024406433, 2.674497604370117, -0.19466818869113922, -0.0008196556009352207, -0.7197265625, -0.457275390625, 0.14697265625, 
264, 2846379031, 0.010028386488556862, 0.7402417659759521, 0.0987926721572876, 0.6649650931358337, 9.775677680969238, 1.279949426651001, -1.2558281421661377, 3.0090837478637695, -0.4111725389957428, 0.16006337106227875, -0.72119140625, -0.457275390625, 0.1494140625, 
265, 2846387364, 0.00982041284441948, 0.7402369976043701, 0.0989404171705246, 0.664951503276825, 9.815180778503418, 1.3335301876068115, -1.2479852437973022, 3.399585723876953, -0.3297576904296875, 0.21775944530963898, -0.72216796875, -0.457763671875, 0.150390625, 
266, 2846395697, 0.009562626481056213, 0.7402304410934448, 0.0990973562002182, 0.6649393439292908, 9.844685554504395, 1.4318780899047852, -1.1965103149414062, 3.904364585876465, -0.25119876861572266, 0.5889607667922974, -0.72021484375, -0.457275390625, 0.14794921875, 
267, 2846404030, 0.009314803406596184, 0.7402136325836182, 0.09922708570957184, 0.6649421453475952, 9.789937019348145, 1.551383137702942, -1.1152303218841553, 3.6164352893829346, -0.0017673821421340108, 0.7505610585212708, -0.72314453125, -0.456298828125, 0.148193359375, 
268, 2846412363, 0.009121861308813095, 0.7401994466781616, 0.09929025918245316, 0.6649510860443115, 9.779712677001953, 1.630578637123108, -1.0761845111846924, 2.4258856773376465, -0.05957871302962303, 0.9373912811279297, -0.7216796875, -0.457275390625, 0.148681640625, 
269, 2846420696, 0.008971638977527618, 0.7401884198188782, 0.09929438680410385, 0.6649649143218994, 9.771933555603027, 1.6980940103530884, -1.0326555967330933, 1.460408329963684, -0.09126351773738861, 1.144431233406067, -0.7197265625, -0.455322265625, 0.14990234375, 
270, 2846429029, 0.008886096999049187, 0.7401870489120483, 0.09924881905317307, 0.6649743914604187, 9.758458137512207, 1.700452208518982, -1.0535706281661987, 0.35471874475479126, -0.3199986219406128, 1.0736335515975952, -0.72265625, -0.45654296875, 0.146240234375, 
271, 2846437362, 0.008830947801470757, 0.7401866316795349, 0.0991850271821022, 0.6649850606918335, 9.694540977478027, 1.6733288764953613, -1.057647943496704, -0.22507229447364807, -0.38213881850242615, 0.9967139363288879, -0.72265625, -0.456298828125, 0.148193359375, 
272, 2846445695, 0.008807852864265442, 0.740191638469696, 0.0991005226969719, 0.6649923324584961, 9.729676246643066, 1.5801059007644653, -1.0764814615249634, -0.7296983599662781, -0.5109527707099915, 0.9219202399253845, -0.72412109375, -0.452880859375, 0.149658203125, 
273, 2846454028, 0.008804503828287125, 0.7401913404464722, 0.09898197650909424, 0.6650103330612183, 9.761857032775879, 1.5395779609680176, -1.1090840101242065, -1.1612468957901, -0.36443933844566345, 1.0666152238845825, -0.72216796875, -0.454833984375, 0.145263671875, 
274, 2846462361, 0.00879383273422718, 0.7401846051216125, 0.0988631322979927, 0.6650357842445374, 9.750354766845703, 1.4953948259353638, -1.1192554235458374, -1.1672918796539307, -0.23603519797325134, 1.1403073072433472, -0.720703125, -0.453857421875, 0.148193359375, 
275, 2846470694, 0.008773131296038628, 0.7401717305183411, 0.09872458875179291, 0.6650710105895996, 9.727895736694336, 1.4829531908035278, -1.1514338254928589, -1.19144606590271, -0.050383199006319046, 1.412484049797058, -0.7255859375, -0.457275390625, 0.150634765625, 
276, 2846479027, 0.008733880706131458, 0.7401435971260071, 0.09860101342201233, 0.6651209592819214, 9.668292045593262, 1.496706247329712, -1.110517978668213, -0.9773622751235962, 0.24324558675289154, 1.4285186529159546, -0.7236328125, -0.455322265625, 0.146728515625, 
277, 2846487360, 0.00868324376642704, 0.7401083707809448, 0.0984758660197258, 0.6651794910430908, 9.624123573303223, 1.5241940021514893, -1.1294920444488525, -0.798703134059906, 0.43120285868644714, 1.5225486755371094, -0.72412109375, -0.45654296875, 0.146240234375, 
278, 2846495693, 0.00864379946142435, 0.7400655746459961, 0.0983353927731514, 0.6652483344078064, 9.634016036987305, 1.5595744848251343, -1.1130543947219849, -1.0518741607666016, 0.58150714635849, 1.5730340480804443, -0.72509765625, -0.456298828125, 0.149658203125, 
279, 2846504026, 0.008657969534397125, 0.7400261163711548, 0.09814054518938065, 0.6653208136558533, 9.628552436828613, 1.601360559463501, -1.0477864742279053, -2.115325927734375, 0.5175228118896484, 1.6361219882965088, -0.72119140625, -0.455322265625, 0.147216796875, 
280, 2846512359, 0.00872589647769928, 0.7399839162826538, 0.09791326522827148, 0.6654003858566284, 9.632326126098633, 1.5199507474899292, -0.9959980249404907, -2.9792685508728027, 0.5259243249893188, 1.4788508415222168, -0.7236328125, -0.456298828125, 0.150634765625, 
281, 2846520692, 0.008815010078251362, 0.7399452328681946, 0.09768307954072952, 0.6654760837554932, 9.647777557373047, 1.4799739122390747, -0.9636855125427246, -3.2055447101593018, 0.43832358717918396, 1.3120763301849365, -0.72412109375, -0.451904296875, 0.146240234375, 
282, 2846529025, 0.008884092792868614, 0.7399096488952637, 0.09747923910617828, 0.6655445694923401, 9.678352355957031, 1.3957152366638184, -1.0012553930282593, -2.8982250690460205, 0.33535438776016235, 1.2510119676589966, -0.72314453125, -0.452392578125, 0.145751953125, 
283, 2846537358, 0.008937935344874859, 0.7398829460144043, 0.09730733931064606, 0.6655986309051514, 9.73688793182373, 1.3378709554672241, -1.0670047998428345, -2.283099412918091, 0.16268882155418396, 1.0529627799987793, -0.72705078125, -0.455078125, 0.146484375, 
284, 2846545691, 0.008986005559563637, 0.7398770451545715, 0.09718006104230881, 0.665623128414154, 9.79465103149414, 1.3225525617599487, -1.1498008966445923, -1.8248350620269775, -0.33303630352020264, 0.6898810863494873, -0.72412109375, -0.451904296875, 0.148681640625, 
285, 2846554024, 0.00901908241212368, 0.7398893237113953, 0.09710454940795898, 0.6656201481819153, 9.854408264160156, 1.2601310014724731, -1.2125999927520752, -1.108327865600586, -0.7359482049942017, 0.30886924266815186, -0.7236328125, -0.453369140625, 0.144775390625, 
286, 2846562357, 0.009009608067572117, 0.7398937344551086, 0.0970720499753952, 0.6656200885772705, 9.850550651550293, 1.224588394165039, -1.2465187311172485, -0.33377906680107117, -0.5865916013717651, 0.26179027557373047, -0.7255859375, -0.45458984375, 0.142578125, 
287, 2846570690, 0.008958930149674416, 0.7398872971534729, 0.09704744070768356, 0.6656314730644226, 9.823836326599121, 1.2684136629104614, -1.23661208152771, 0.18781639635562897, -0.30017322301864624, 0.5349661707878113, -0.72216796875, -0.456787109375, 0.149169921875, 
288, 2846579023, 0.008854995481669903, 0.7398743629455566, 0.09705165773630142, 0.6656465530395508, 9.805546760559082, 1.3065955638885498, -1.2034872770309448, 0.8857530355453491, -0.151328906416893, 0.7364988327026367, -0.72607421875, -0.4541015625, 0.14453125, 
289, 2846587356, 0.008722743019461632, 0.739853024482727, 0.09704260528087616, 0.6656733751296997, 9.746142387390137, 1.426419973373413, -1.1387468576431274, 1.1374385356903076, 0.10280273109674454, 1.1050622463226318, -0.7216796875, -0.454833984375, 0.147216796875, 
290, 2846595689, 0.008582753129303455, 0.7398442625999451, 0.0970495343208313, 0.6656839847564697, 9.647821426391602, 1.5195045471191406, -1.104781150817871, 1.331594467163086, -0.17935088276863098, 1.0398995876312256, -0.724609375, -0.45263671875, 0.142578125, 
291, 2846604022, 0.00847446359694004, 0.7398545742034912, 0.09705105423927307, 0.6656737327575684, 9.624094009399414, 1.6095895767211914, -1.0593644380569458, 1.0442026853561401, -0.5945576429367065, 0.8154931664466858, -0.7255859375, -0.454833984375, 0.146484375, 
292, 2846612355, 0.008415394462645054, 0.7398830056190491, 0.09702885150909424, 0.665645956993103, 9.641331672668457, 1.709043025970459, -1.036253809928894, 0.2668618857860565, -1.0251585245132446, 0.6422385573387146, -0.72412109375, -0.452880859375, 0.147705078125, 
293, 2846620688, 0.008417881093919277, 0.7399083375930786, 0.09696479886770248, 0.6656272411346436, 9.668025970458984, 1.727976679801941, -1.0437214374542236, -0.6705549955368042, -0.9726492762565613, 0.4882969558238983, -0.72509765625, -0.454345703125, 0.145751953125, 
294, 2846629021, 0.008477925322949886, 0.7399246692657471, 0.09687373787164688, 0.6656215786933899, 9.7090425491333, 1.6837760210037231, -1.0821176767349243, -1.523329734802246, -0.8480361104011536, 0.2336658388376236, -0.724609375, -0.454833984375, 0.147705078125, 
295, 2846637354, 0.008576000109314919, 0.7399207353591919, 0.09676596522331238, 0.6656403541564941, 9.723462104797363, 1.6506259441375732, -1.1061722040176392, -2.096013069152832, -0.4540891647338867, 0.0238084327429533, -0.72509765625, -0.453857421875, 0.146728515625, 
296, 2846645687, 0.008697852492332458, 0.7398959398269653, 0.09664224088191986, 0.6656843423843384, 9.718759536743164, 1.5640627145767212, -1.1669703722000122, -2.605659246444702, -0.0624731183052063, -0.04182804375886917, -0.7236328125, -0.454833984375, 0.145263671875, 
297, 2846654020, 0.008820018731057644, 0.7398622035980225, 0.09650218486785889, 0.665740430355072, 9.707871437072754, 1.528950572013855, -1.1644138097763062, -2.690570592880249, 0.15992248058319092, 0.09657847881317139, -0.72314453125, -0.453369140625, 0.143798828125, 
298, 2846662353, 0.008932494558393955, 0.7398182153701782, 0.09637026488780975, 0.6658071279525757, 9.670411109924316, 1.4397201538085938, -1.1408082246780396, -2.600741147994995, 0.35815104842185974, 0.10270027816295624, -0.72412109375, -0.453369140625, 0.144287109375, 
299, 2846670686, 0.009020121768116951, 0.7397787570953369, 0.09626097232103348, 0.6658655405044556, 9.631195068359375, 1.3947526216506958, -1.0844967365264893, -2.060767889022827, 0.2868154048919678, 0.09281318634748459, -0.7255859375, -0.450927734375, 0.1455078125, 
300, 2846679019, 0.009057719260454178, 0.739749550819397, 0.0961935743689537, 0.6659071445465088, 9.574287414550781, 1.3537184000015259, -0.9959403872489929, -1.2502820491790771, 0.06855650246143341, 0.15211014449596405, -0.72216796875, -0.4541015625, 0.142333984375, 
301, 2846687352, 0.009061237797141075, 0.7397444248199463, 0.09615156799554825, 0.6659188270568848, 9.5830717086792, 1.3678309917449951, -0.9579159021377563, -0.5223254561424255, -0.38385486602783203, 0.21809236705303192, -0.72265625, -0.450927734375, 0.142333984375, 
302, 2846695685, 0.009068209677934647, 0.739763617515564, 0.09611248970031738, 0.6659031510353088, 9.61237621307373, 1.3323814868927002, -0.9314718246459961, -0.4920623004436493, -0.8897233605384827, 0.1841919869184494, -0.7236328125, -0.452392578125, 0.148681640625, 
303, 2846704018, 0.009128416888415813, 0.7398155927658081, 0.0960497260093689, 0.6658536195755005, 9.650992393493652, 1.3254791498184204, -0.9783846735954285, -1.1052541732788086, -1.602580189704895, -0.024615280330181122, -0.72509765625, -0.453369140625, 0.14453125, 
304, 2846712351, 0.00919428002089262, 0.739890456199646, 0.09600204974412918, 0.665776252746582, 9.724215507507324, 1.2437708377838135, -1.053514838218689, -1.1331226825714111, -2.1220884323120117, -0.1883671134710312, -0.72509765625, -0.453857421875, 0.14501953125, 
305, 2846720684, 0.009225313551723957, 0.7399743795394897, 0.09600120037794113, 0.6656827926635742, 9.817392349243164, 1.2058049440383911, -1.143170952796936, -0.2761726975440979, -2.2978529930114746, -0.3477644622325897, -0.72412109375, -0.453369140625, 0.146240234375, 
306, 2846729017, 0.009211050346493721, 0.7400464415550232, 0.09606637060642242, 0.6655933856964111, 9.945487976074219, 1.2379785776138306, -1.230995774269104, 0.7821691036224365, -2.0831546783447266, -0.6213757395744324, -0.72509765625, -0.45458984375, 0.1435546875, 
307, 2846737350, 0.009153044782578945, 0.7400939464569092, 0.09617631882429123, 0.6655255556106567, 10.001842498779297, 1.297772765159607, -1.308415174484253, 1.5325125455856323, -1.593205451965332, -0.6917123794555664, -0.7255859375, -0.454833984375, 0.148193359375, 
308, 2846745683, 0.009083406999707222, 0.7401100993156433, 0.0962749645113945, 0.6654943823814392, 10.004317283630371, 1.3644894361495972, -1.3673287630081177, 1.4830257892608643, -0.9202424883842468, -0.5070593953132629, -0.72265625, -0.453857421875, 0.144287109375, 
309, 2846754016, 0.009030517190694809, 0.7401008009910583, 0.09635841101408005, 0.6654932498931885, 9.889328002929688, 1.4528855085372925, -1.3532320261001587, 1.2156131267547607, -0.38628828525543213, -0.5493741631507874, -0.7265625, -0.454345703125, 0.1513671875, 
310, 2846762349, 0.008965721353888512, 0.7400693893432617, 0.09645973145961761, 0.6655142903327942, 9.801698684692383, 1.481747031211853, -1.3005445003509521, 1.1765002012252808, 0.013280980288982391, -0.6150490045547485, -0.72607421875, -0.45458984375, 0.142578125, 
311, 2846770682, 0.008910898119211197, 0.7400184273719788, 0.096552275121212, 0.6655584573745728, 9.735713005065918, 1.5198003053665161, -1.2396234273910522, 1.253496527671814, 0.4602237641811371, -0.676190197467804, -0.72412109375, -0.452880859375, 0.147216796875, 
312, 2846779015, 0.008863255381584167, 0.7399570941925049, 0.09663132578134537, 0.6656157374382019, 9.653290748596191, 1.5134202241897583, -1.1233971118927002, 0.9983276724815369, 0.6634983420372009, -0.6043422818183899, -0.72412109375, -0.454345703125, 0.145751953125, 
313, 2846787348, 0.008861592970788479, 0.739892840385437, 0.09665890038013458, 0.6656832098960876, 9.669999122619629, 1.5094002485275269, -0.9890378713607788, 0.0850776806473732, 0.7411350607872009, -0.5149229764938354, -0.724609375, -0.45654296875, 0.144287109375, 
314, 2846795681, 0.008891947567462921, 0.7398306727409363, 0.09665091335773468, 0.6657530069351196, 9.629772186279297, 1.4788860082626343, -0.9579588174819946, -0.6949397921562195, 0.6727451086044312, -0.4238899350166321, -0.7255859375, -0.455078125, 0.1455078125, 
315, 2846804014, 0.008941449224948883, 0.7397969365119934, 0.09662007540464401, 0.665794312953949, 9.611217498779297, 1.3823655843734741, -0.9471865892410278, -0.9311542510986328, 0.12247445434331894, -0.35263118147850037, -0.7236328125, -0.454345703125, 0.145263671875, 
316, 2846812347, 0.008989088237285614, 0.7397971749305725, 0.09658393263816833, 0.665798544883728, 9.589630126953125, 1.335478663444519, -1.0166980028152466, -0.9209085702896118, -0.5774985551834106, -0.23234671354293823, -0.72509765625, -0.453369140625, 0.1455078125, 
317, 2846820680, 0.009034087881445885, 0.7398262619972229, 0.09656189382076263, 0.6657687425613403, 9.608799934387207, 1.2810741662979126, -1.055122971534729, -0.7027266025543213, -1.171518325805664, -0.32394322752952576, -0.7255859375, -0.455322265625, 0.147705078125, 
318, 2846829013, 0.009053744375705719, 0.7398577332496643, 0.09658576548099518, 0.6657301783561707, 9.725506782531738, 1.2649445533752441, -1.1408569812774658, -0.06485524028539658, -1.259887456893921, -0.5449684858322144, -0.72216796875, -0.454833984375, 0.144775390625, 
319, 2846837346, 0.009023440070450306, 0.7398791313171387, 0.09664216637611389, 0.6656986474990845, 9.776476860046387, 1.2868467569351196, -1.20145583152771, 0.7831936478614807, -1.008867859840393, -0.4454827606678009, -0.7255859375, -0.4560546875, 0.142578125, 
320, 2846845679, 0.008968809619545937, 0.7398813366889954, 0.09671023488044739, 0.6656869649887085, 9.81865119934082, 1.3134478330612183, -1.2078219652175903, 1.16330885887146, -0.5993217825889587, -0.3611350655555725, -0.72412109375, -0.455322265625, 0.145751953125, 
321, 2846854012, 0.008904124610126019, 0.7398775815963745, 0.09675086289644241, 0.6656861901283264, 9.859600067138672, 1.325958251953125, -1.1750333309173584, 0.9443840384483337, -0.42155906558036804, 0.0007556198979727924, -0.72216796875, -0.450439453125, 0.145751953125, 
322, 2846862345, 0.008826658129692078, 0.7398746013641357, 0.09680017828941345, 0.665683388710022, 9.829508781433105, 1.341745138168335, -1.1091772317886353, 1.079268455505371, -0.45127156376838684, 0.042839810252189636, -0.7236328125, -0.453369140625, 0.146240234375, 
323, 2846870678, 0.008745542727410793, 0.7398770451545715, 0.09685173630714417, 0.6656742691993713, 9.757171630859375, 1.3773013353347778, -1.0345656871795654, 1.2235664129257202, -0.5400633811950684, 0.04784739762544632, -0.720703125, -0.452880859375, 0.144287109375, 
324, 2846879011, 0.008675377815961838, 0.7398916482925415, 0.096901074051857, 0.6656516194343567, 9.766369819641113, 1.374068260192871, -1.0160541534423828, 1.1184072494506836, -0.8126372694969177, -0.009400425478816032, -0.7265625, -0.45751953125, 0.147216796875, 
325, 2846887344, 0.008610432967543602, 0.739915132522583, 0.09695999324321747, 0.6656177639961243, 9.788436889648438, 1.3137695789337158, -1.026819109916687, 1.1619514226913452, -1.0047184228897095, -0.15061168372631073, -0.7275390625, -0.453125, 0.1455078125, 
326, 2846895677, 0.008531252853572369, 0.7399494647979736, 0.09702778607606888, 0.6655709147453308, 9.770041465759277, 1.2518086433410645, -1.0752835273742676, 1.3884323835372925, -1.2290478944778442, -0.08862525224685669, -0.72265625, -0.454345703125, 0.145751953125, 
327, 2846904010, 0.00841804500669241, 0.7399982810020447, 0.09710320085287094, 0.6655070781707764, 9.720446586608887, 1.2090964317321777, -1.1425970792770386, 1.846671223640442, -1.4764301776885986, 0.15395435690879822, -0.72216796875, -0.453857421875, 0.148193359375, 
328, 2846912343, 0.008259653113782406, 0.7400342226028442, 0.09722984582185745, 0.6654505729675293, 9.756643295288086, 1.2292369604110718, -1.2042326927185059, 2.6785449981689453, -1.2373981475830078, 0.04376192390918732, -0.7236328125, -0.451904296875, 0.147705078125, 
329, 2846920676, 0.008040768094360828, 0.7400336861610413, 0.09737472981214523, 0.6654326915740967, 9.844684600830078, 1.2757036685943604, -1.2097575664520264, 3.4904136657714844, -0.4062674343585968, 0.35354048013687134, -0.724609375, -0.452880859375, 0.147216796875, 
330, 2846929009, 0.0077135805040597916, 0.7399782538414001, 0.09756409376859665, 0.6654704213142395, 9.75947380065918, 1.3328139781951904, -1.1895859241485596, 4.871046543121338, 0.7941309213638306, 0.8348063826560974, -0.724609375, -0.451416015625, 0.149658203125, 
331, 2846937342, 0.007369067054241896, 0.7398874759674072, 0.09774364531040192, 0.665549099445343, 9.647534370422363, 1.4964438676834106, -1.2026194334030151, 4.947478771209717, 1.5724449157714844, 1.0396945476531982, -0.72607421875, -0.453857421875, 0.1455078125, 
332, 2846945675, 0.007120070978999138, 0.7397836446762085, 0.09785287082195282, 0.6656510829925537, 9.646559715270996, 1.7672841548919678, -1.1763561964035034, 3.36043381690979, 1.7946356534957886, 0.8659403920173645, -0.72265625, -0.454345703125, 0.150146484375, 
333, 2846954008, 0.006939359940588474, 0.7396736145019531, 0.0978909581899643, 0.665769636631012, 9.721646308898926, 1.8658599853515625, -1.1504158973693848, 1.9302759170532227, 1.9208754301071167, 0.9575241208076477, -0.72705078125, -0.454345703125, 0.1474609375, 
334, 2846962341, 0.006794258486479521, 0.7395639419555664, 0.09789993613958359, 0.6658915877342224, 9.687606811523438, 1.7684217691421509, -1.066089153289795, 1.2950685024261475, 1.8906762599945068, 0.9336260557174683, -0.72216796875, -0.452392578125, 0.148681640625, 
335, 2846970674, 0.0067545571364462376, 0.739481508731842, 0.09784383326768875, 0.6659919023513794, 9.717616081237793, 1.7821952104568481, -1.029558777809143, -0.33887630701065063, 1.2857192754745483, 0.6614491939544678, -0.72509765625, -0.452392578125, 0.149658203125, 
336, 2846979007, 0.006794601213186979, 0.7394227385520935, 0.09778246283531189, 0.6660656929016113, 9.66012191772461, 1.771058201789856, -1.04157555103302, -1.3040207624435425, 0.6597586870193481, 0.03387482836842537, -0.7265625, -0.451416015625, 0.14794921875, 
337, 2846987340, 0.0070029208436608315, 0.7394112944602966, 0.09767407923936844, 0.6660922169685364, 9.653669357299805, 1.7658714056015015, -1.0899286270141602, -3.234360694885254, -0.4544989764690399, -0.9917319416999817, -0.7265625, -0.451416015625, 0.14697265625, 
338, 2846995673, 0.007301385514438152, 0.7394413352012634, 0.09750709682703018, 0.6660800576210022, 9.650975227355957, 1.5377548933029175, -1.121168613433838, -4.631104946136475, -1.355659008026123, -1.168623924255371, -0.72265625, -0.451904296875, 0.144775390625, 
339, 2847004006, 0.007553911302238703, 0.7394710779190063, 0.0973268672823906, 0.6660705804824829, 9.695075988769531, 1.2346506118774414, -1.132682204246521, -4.326526165008545, -1.2790725231170654, -0.6021650433540344, -0.72265625, -0.454345703125, 0.146240234375, 
340, 2847012339, 0.007717469707131386, 0.7394663691520691, 0.09721321612596512, 0.6660904288291931, 9.818384170532227, 1.1711268424987793, -1.1830015182495117, -2.95037579536438, -0.5490923523902893, -0.498965322971344, -0.7255859375, -0.45458984375, 0.1455078125, 
341, 2847020672, 0.00779315922409296, 0.7394383549690247, 0.09714815765619278, 0.6661302447319031, 9.802842140197754, 1.1471586227416992, -1.1720935106277466, -1.5081148147583008, 0.012512553483247757, -0.23736710846424103, -0.72607421875, -0.452392578125, 0.14697265625, 
342, 2847029005, 0.0078072454780340195, 0.7393946051597595, 0.09711717069149017, 0.6661831140518188, 9.713088989257812, 1.139018177986145, -1.1431243419647217, -0.6494488716125488, 0.35835590958595276, -0.026100903749465942, -0.72509765625, -0.452880859375, 0.147705078125, 
343, 2847037338, 0.00778887327760458, 0.7393676042556763, 0.09708209335803986, 0.6662182211875916, 9.702888488769531, 1.2176785469055176, -1.09605872631073, -0.27110105752944946, 0.08515452593564987, 0.32142022252082825, -0.72314453125, -0.455078125, 0.143798828125, 
344, 2847045671, 0.007731583900749683, 0.739356279373169, 0.09707550704479218, 0.6662324666976929, 9.73469066619873, 1.2621978521347046, -1.039229393005371, 0.40553736686706543, -0.22589194774627686, 0.4130423069000244, -0.724609375, -0.4541015625, 0.144287109375, 
345, 2847054004, 0.007651070132851601, 0.7393597364425659, 0.09709746390581131, 0.6662263870239258, 9.778701782226562, 1.301295280456543, -1.003136157989502, 0.9426935315132141, -0.5226072669029236, 0.34562569856643677, -0.7275390625, -0.451904296875, 0.14501953125, 
346, 2847062337, 0.007565030828118324, 0.7393768429756165, 0.09712963551282883, 0.6662035584449768, 9.707494735717773, 1.3442552089691162, -1.0194731950759888, 1.1571358442306519, -0.8134568929672241, 0.3124552369117737, -0.7255859375, -0.452880859375, 0.14794921875, 
347, 2847070670, 0.007498195394873619, 0.7394004464149475, 0.09716834127902985, 0.6661726832389832, 9.65756893157959, 1.3894752264022827, -1.0862234830856323, 0.9918344020843506, -0.9774263501167297, 0.07430689036846161, -0.72509765625, -0.452880859375, 0.14404296875, 
348, 2847079003, 0.007438688538968563, 0.7394381165504456, 0.09722401946783066, 0.6661235094070435, 9.63484001159668, 1.40732741355896, -1.0928281545639038, 1.1544207334518433, -1.299512505531311, -0.14625726640224457, -0.724609375, -0.453369140625, 0.146240234375, 
349, 2847087336, 0.007381841540336609, 0.7394806742668152, 0.09730846434831619, 0.6660645604133606, 9.687658309936523, 1.3534163236618042, -1.1308444738388062, 1.3481155633926392, -1.4458723068237305, -0.4599035978317261, -0.72265625, -0.453369140625, 0.143798828125, 
350, 2847095669, 0.007332989014685154, 0.7395164370536804, 0.09741434454917908, 0.6660099029541016, 9.74062442779541, 1.4035260677337646, -1.1328186988830566, 1.4284675121307373, -1.358399748802185, -0.7507275938987732, -0.72607421875, -0.451904296875, 0.14599609375, 
351, 2847104002, 0.007268459070473909, 0.7395363450050354, 0.09752977639436722, 0.665971577167511, 9.7529878616333, 1.3962217569351196, -1.0967085361480713, 1.680204153060913, -1.0150152444839478, -0.7322084903717041, -0.72314453125, -0.453369140625, 0.145263671875, 
352, 2847112335, 0.007183464244008064, 0.7395418882369995, 0.0976622924208641, 0.665946900844574, 9.754230499267578, 1.3996751308441162, -1.0929760932922363, 1.9519199132919312, -0.730210542678833, -0.7240119576454163, -0.7255859375, -0.452880859375, 0.1474609375, 
353, 2847120668, 0.007086991798132658, 0.7395477890968323, 0.09780862182378769, 0.6659199595451355, 9.743152618408203, 1.404577374458313, -1.073337435722351, 2.2718417644500732, -0.7240118980407715, -0.7713214159011841, -0.72705078125, -0.452392578125, 0.1484375, 
354, 2847129001, 0.006993990857154131, 0.7395602464675903, 0.0979585275053978, 0.6658850312232971, 9.735957145690918, 1.490107536315918, -1.0897209644317627, 2.1949093341827393, -0.8902354836463928, -0.8175935745239258, -0.7265625, -0.455810546875, 0.149169921875, 
355, 2847137334, 0.006934726610779762, 0.7395755052566528, 0.09806467592716217, 0.6658531427383423, 9.785567283630371, 1.603826642036438, -1.113713264465332, 1.5328326225280762, -0.9114441275596619, -0.6915971636772156, -0.72265625, -0.450927734375, 0.147705078125, 
356, 2847145667, 0.00692357774823904, 0.739585816860199, 0.09811797738075256, 0.6658339500427246, 9.817370414733887, 1.6684650182724, -1.122931957244873, 0.4490046799182892, -0.8306440114974976, -0.5850803256034851, -0.724609375, -0.450927734375, 0.14697265625, 
357, 2847154000, 0.006971630733460188, 0.7395873069763184, 0.098108671605587, 0.665833055973053, 9.780253410339355, 1.6597740650177002, -1.122002363204956, -0.6587725877761841, -0.6281635165214539, -0.5161268711090088, -0.7236328125, -0.452880859375, 0.148681640625, 
358, 2847162333, 0.007041466888040304, 0.7395845055580139, 0.09806759655475616, 0.6658414006233215, 9.767936706542969, 1.6110490560531616, -1.1360362768173218, -1.2670338153839111, -0.5467614531517029, -0.3814215660095215, -0.72509765625, -0.451416015625, 0.1474609375, 
359, 2847170666, 0.007124577183276415, 0.7395774126052856, 0.09800971299409866, 0.6658569574356079, 9.755154609680176, 1.5047078132629395, -1.1182969808578491, -1.4832817316055298, -0.433969110250473, -0.35144007205963135, -0.72705078125, -0.453857421875, 0.1494140625, 
360, 2847178999, 0.007195624522864819, 0.7395606637001038, 0.09794288128614426, 0.6658846139907837, 9.726778984069824, 1.4509614706039429, -1.0993492603302002, -1.4598960876464844, -0.2075137048959732, -0.1638670563697815, -0.72216796875, -0.449462890625, 0.148193359375, 
361, 2847187332, 0.007274249568581581, 0.7395459413528442, 0.09786543995141983, 0.6659116148948669, 9.684163093566895, 1.4336583614349365, -1.0572535991668701, -1.7292553186416626, -0.2665545344352722, -0.10446765273809433, -0.7255859375, -0.452880859375, 0.1484375, 
362, 2847195665, 0.00735540222376585, 0.7395365238189697, 0.09779684245586395, 0.6659311056137085, 9.674332618713379, 1.362899661064148, -1.035333514213562, -1.66523277759552, -0.39184659719467163, -0.21067708730697632, -0.72607421875, -0.453369140625, 0.14892578125, 
363, 2847203998, 0.007422739639878273, 0.7395448088645935, 0.09774762392044067, 0.6659284830093384, 9.686415672302246, 1.2666325569152832, -0.9907760620117188, -1.217418909072876, -0.7383303046226501, -0.27786320447921753, -0.7236328125, -0.453857421875, 0.145263671875, 
364, 2847212331, 0.007495173253118992, 0.7395610809326172, 0.09768452495336533, 0.6659188270568848, 9.69699478149414, 1.265073299407959, -0.9961692690849304, -1.3436331748962402, -0.8945130705833435, -0.16865693032741547, -0.7275390625, -0.451416015625, 0.14697265625, 
365, 2847220664, 0.007544240914285183, 0.739579975605011, 0.09763489663600922, 0.6659046411514282, 9.73795223236084, 1.2385358810424805, -1.030996561050415, -1.018998384475708, -0.9271969199180603, -0.09242896735668182, -0.7255859375, -0.451416015625, 0.14697265625, 
366, 2847228997, 0.0075662401504814625, 0.739585280418396, 0.09763631224632263, 0.6658982038497925, 9.771034240722656, 1.191327452659607, -1.0953363180160522, -0.373993456363678, -0.7043147087097168, -0.3660787045955658, -0.7265625, -0.452392578125, 0.1455078125, 
367, 2847237330, 0.007544470019638538, 0.7395891547203064, 0.0976795181632042, 0.6658878326416016, 9.797242164611816, 1.1971856355667114, -1.1429671049118042, 0.5448532104492188, -0.6458629369735718, -0.4078298807144165, -0.7236328125, -0.451904296875, 0.145751953125, 
368, 2847245663, 0.007497773505747318, 0.7395915985107422, 0.09776891022920609, 0.6658725142478943, 9.82749080657959, 1.216834545135498, -1.1985946893692017, 1.203702449798584, -0.6577735543251038, -0.6422768831253052, -0.7255859375, -0.451416015625, 0.1474609375, 
369, 2847253996, 0.007442289497703314, 0.7395886778831482, 0.09787268191576004, 0.665861189365387, 9.827521324157715, 1.2677844762802124, -1.1794633865356445, 1.4434776306152344, -0.5428169369697571, -0.7248573303222656, -0.7255859375, -0.451416015625, 0.1474609375, 
370, 2847262329, 0.0073830438777804375, 0.7395846247673035, 0.09798744320869446, 0.6658493876457214, 9.76749324798584, 1.2792123556137085, -1.155016541481018, 1.5595868825912476, -0.5435853004455566, -0.7955269813537598, -0.72412109375, -0.454833984375, 0.145751953125, 
371, 2847270662, 0.007340151816606522, 0.7395902872085571, 0.09811758995056152, 0.6658244729042053, 9.714923858642578, 1.2971347570419312, -1.1007273197174072, 1.5763386487960815, -0.773370623588562, -1.0981847047805786, -0.7216796875, -0.453369140625, 0.149169921875, 
372, 2847278995, 0.007262430153787136, 0.7395983338356018, 0.09829434752464294, 0.6657903790473938, 9.709855079650879, 1.3685274124145508, -1.0624147653579712, 2.1997249126434326, -0.8704614043235779, -1.228983759880066, -0.72607421875, -0.453857421875, 0.14599609375, 
373, 2847287328, 0.007190251722931862, 0.7396108508110046, 0.09849788248538971, 0.6657471656799316, 9.681632041931152, 1.461277723312378, -1.0377260446548462, 2.571105718612671, -0.9747112393379211, -1.569268822669983, -0.72265625, -0.452880859375, 0.148193359375, 
374, 2847295661, 0.007138637360185385, 0.739621102809906, 0.09869343787431717, 0.6657073497772217, 9.686480522155762, 1.5185292959213257, -1.0475627183914185, 2.2190511226654053, -0.9663482904434204, -1.6658986806869507, -0.72412109375, -0.450927734375, 0.148681640625, 
375, 2847303994, 0.007105806842446327, 0.7396374940872192, 0.09887748956680298, 0.6656621694564819, 9.700248718261719, 1.5767747163772583, -1.0304127931594849, 1.9956692457199097, -1.0880415439605713, -1.7255284786224365, -0.72705078125, -0.453369140625, 0.146484375, 
376, 2847312327, 0.00707639567553997, 0.7396460771560669, 0.09903584420681, 0.6656293869018555, 9.745123863220215, 1.5677974224090576, -1.0320056676864624, 1.775309681892395, -0.8967030048370361, -1.5054253339767456, -0.72509765625, -0.453857421875, 0.14599609375, 
377, 2847320660, 0.00707261124625802, 0.7396553158760071, 0.09918972849845886, 0.6655964851379395, 9.760880470275879, 1.5469956398010254, -1.0792815685272217, 1.4072332382202148, -0.9393252730369568, -1.69366455078125, -0.7265625, -0.452392578125, 0.1494140625, 
378, 2847328993, 0.0070851328782737255, 0.7396524548530579, 0.09934721887111664, 0.6655758023262024, 9.771544456481934, 1.5659747123718262, -1.0761574506759644, 1.196594476699829, -0.743286669254303, -1.8814550638198853, -0.7255859375, -0.452880859375, 0.150146484375, 
379, 2847337326, 0.0071113440208137035, 0.739641010761261, 0.09948275238275528, 0.6655680537223816, 9.723763465881348, 1.5568889379501343, -1.0902429819107056, 0.8973818421363831, -0.5363364815711975, -1.8069818019866943, -0.7265625, -0.455810546875, 0.149169921875, 
380, 2847345659, 0.007145693525671959, 0.7396172881126404, 0.0995992049574852, 0.6655765771865845, 9.711775779724121, 1.5143311023712158, -1.0684810876846313, 0.5523709654808044, -0.29011961817741394, -1.6898607015609741, -0.72216796875, -0.454833984375, 0.149658203125, 
381, 2847353992, 0.007197516970336437, 0.7396124601364136, 0.0996822863817215, 0.6655689477920532, 9.678926467895508, 1.4878413677215576, -1.0503807067871094, 0.1566438525915146, -0.6359758377075195, -1.4992011785507202, -0.72509765625, -0.454833984375, 0.147705078125, 
382, 2847362325, 0.007271801587194204, 0.7396316528320312, 0.09974333643913269, 0.6655376553535461, 9.641176223754883, 1.494652509689331, -1.0162121057510376, -0.2061689794063568, -1.133301854133606, -1.4453089237213135, -0.724609375, -0.453369140625, 0.146728515625, 
383, 2847370658, 0.007356210146099329, 0.739668607711792, 0.09978821128606796, 0.6654889583587646, 9.640167236328125, 1.4549115896224976, -1.0147844552993774, -0.463566392660141, -1.4844985008239746, -1.3562992811203003, -0.7216796875, -0.453369140625, 0.147216796875, 
384, 2847378991, 0.007429143413901329, 0.7397009134292603, 0.09983662515878677, 0.6654449701309204, 9.734864234924316, 1.4659658670425415, -1.0385876893997192, -0.4166924059391022, -1.4006377458572388, -1.2758708000183105, -0.7236328125, -0.453857421875, 0.149169921875, 
385, 2847387324, 0.007503754459321499, 0.7397129535675049, 0.09984289854764938, 0.6654298901557922, 9.821053504943848, 1.4953233003616333, -1.04622483253479, -0.7652508616447449, -0.9047716856002808, -0.9040545225143433, -0.720703125, -0.453369140625, 0.147705078125, 
386, 2847395657, 0.007745110429823399, 0.7397496104240417, 0.09966502338647842, 0.665412962436676, 9.732887268066406, 2.0497195720672607, -1.2256420850753784, -4.20435905456543, -1.4156605005264282, -0.5086346864700317, -0.72412109375, -0.454345703125, 0.149169921875, 
387, 2847403990, 0.0080513134598732, 0.7397149205207825, 0.0994158610701561, 0.665485143661499, 10.0225191116333, 1.0024292469024658, -1.3021013736724854, -5.5846967697143555, 0.06466313451528549, -0.47985708713531494, -0.72265625, -0.455322265625, 0.148193359375, 
388, 2847412323, 0.008359172381460667, 0.7396606206893921, 0.09922019392251968, 0.665570855140686, 9.807967185974121, 0.9068720936775208, -1.3851858377456665, -5.189597129821777, 0.3699079155921936, -1.0499273538589478, -0.7236328125, -0.455810546875, 0.149658203125, 
389, 2847420656, 0.00836129579693079, 0.7396091222763062, 0.09919582307338715, 0.6656317710876465, 9.699626922607422, 1.3679168224334717, -1.3510934114456177, -0.41976606845855713, 0.5459033846855164, -0.007966026663780212, -0.72314453125, -0.455322265625, 0.148193359375, 
390, 2847428989, 0.008172220550477505, 0.7395423650741577, 0.09932461380958557, 0.6656891107559204, 9.88270092010498, 1.2641626596450806, -1.1805058717727661, 2.8588178157806396, 0.9069872498512268, 0.17921000719070435, -0.7236328125, -0.453857421875, 0.145263671875, 
391, 2847437322, 0.008026166819036007, 0.7394543886184692, 0.0994780883193016, 0.665765643119812, 9.75695514678955, 1.4951083660125732, -1.0186179876327515, 2.689558506011963, 1.2617700099945068, -0.5078021883964539, -0.72412109375, -0.45654296875, 0.145751953125, 
392, 2847445655, 0.008022389374673367, 0.7393495440483093, 0.09952102601528168, 0.6658757328987122, 9.760709762573242, 1.700232982635498, -0.9596006274223328, 0.18294969201087952, 1.5487264394760132, -0.7060564160346985, -0.724609375, -0.453369140625, 0.14404296875, 
393, 2847453988, 0.008114363998174667, 0.7392262816429138, 0.09949559718370438, 0.6660151481628418, 9.799531936645508, 1.4809439182281494, -1.0191583633422852, -1.3661351203918457, 1.8823002576828003, -0.9099968671798706, -0.7216796875, -0.455078125, 0.143310546875, 
394, 2847462321, 0.008178339339792728, 0.7391013503074646, 0.09947234392166138, 0.666156530380249, 9.709831237792969, 1.3984347581863403, -1.0535097122192383, -1.115679144859314, 1.947770357131958, -0.6742435097694397, -0.7216796875, -0.456298828125, 0.145263671875, 
395, 2847470654, 0.008161176927387714, 0.7389878034591675, 0.09948496520519257, 0.6662808060646057, 9.692706108093262, 1.426984190940857, -1.1132874488830566, 0.020606650039553642, 1.7880656719207764, -0.28511202335357666, -0.72216796875, -0.455810546875, 0.145263671875, 
396, 2847478987, 0.008117509074509144, 0.7388673424720764, 0.09949809312820435, 0.666412889957428, 9.707722663879395, 1.4999279975891113, -1.1277320384979248, 0.1885720193386078, 1.9452219009399414, -0.04086751490831375, -0.72607421875, -0.45849609375, 0.143310546875, 
397, 2847487320, 0.008078230544924736, 0.7387649416923523, 0.09946154057979584, 0.6665324568748474, 9.643101692199707, 1.5789425373077393, -1.083799123764038, -0.1981004923582077, 1.664041519165039, 0.43222740292549133, -0.720703125, -0.456298828125, 0.14697265625, 
398, 2847495653, 0.008096360601484776, 0.7386857867240906, 0.0993998572230339, 0.6666290163993835, 9.599287033081055, 1.571923017501831, -1.024530291557312, -1.0117111206054688, 1.1216857433319092, 0.2033386081457138, -0.72412109375, -0.453857421875, 0.144775390625, 
399, 2847503986, 0.008163823746144772, 0.7386561036109924, 0.0993306115269661, 0.6666715741157532, 9.58145523071289, 1.5953342914581299, -0.9551191329956055, -1.4683103561401367, 0.06407400220632553, -0.12384481728076935, -0.72216796875, -0.454833984375, 0.147705078125, 
400, 2847512319, 0.008226298727095127, 0.738658607006073, 0.09928394854068756, 0.6666749715805054, 9.587355613708496, 1.5661293268203735, -0.9354273676872253, -1.242264747619629, -0.6399973034858704, -0.24953386187553406, -0.72314453125, -0.45751953125, 0.145751953125, 
401, 2847520652, 0.008277829736471176, 0.738681972026825, 0.0992123931646347, 0.6666591167449951, 9.624995231628418, 1.5821807384490967, -0.9372012615203857, -1.2417268753051758, -0.9929870963096619, 0.11158842593431473, -0.72216796875, -0.453369140625, 0.145751953125, 
402, 2847528985, 0.008328667841851711, 0.7387195825576782, 0.09913864731788635, 0.6666277050971985, 9.637036323547363, 1.5845909118652344, -0.9638210535049438, -1.296080231666565, -1.3010237216949463, 0.1726783663034439, -0.7216796875, -0.454833984375, 0.146240234375, 
403, 2847537318, 0.008396275341510773, 0.7387742400169373, 0.09904661774635315, 0.6665800213813782, 9.677546501159668, 1.5805683135986328, -1.0142666101455688, -1.5448458194732666, -1.62611985206604, 0.21089482307434082, -0.72216796875, -0.456298828125, 0.148193359375, 
404, 2847545651, 0.008509439416229725, 0.7388426065444946, 0.09892214089632034, 0.6665211915969849, 9.675046920776367, 1.6050721406936646, -1.0939881801605225, -2.4820964336395264, -1.969145655632019, 0.1684008091688156, -0.72119140625, -0.4541015625, 0.141357421875, 
405, 2847553984, 0.008657638914883137, 0.7389034032821655, 0.09875769168138504, 0.6664763689041138, 9.727659225463867, 1.5509371757507324, -1.1636106967926025, -3.031444787979126, -1.7720698118209839, 0.21750329434871674, -0.7216796875, -0.4560546875, 0.141845703125, 
406, 2847562317, 0.008817467838525772, 0.7389577031135559, 0.09858357161283493, 0.6664398908615112, 9.73789119720459, 1.5244206190109253, -1.1870629787445068, -3.196195602416992, -1.6496078968048096, 0.20451684296131134, -0.724609375, -0.4580078125, 0.147216796875, 
407, 2847570650, 0.008957423269748688, 0.7389891743659973, 0.09843193739652634, 0.6664254069328308, 9.77777099609375, 1.4953181743621826, -1.2375702857971191, -2.8745830059051514, -1.1819945573806763, 0.12810960412025452, -0.7255859375, -0.45556640625, 0.145751953125, 
408, 2847578983, 0.00907378364354372, 0.7389952540397644, 0.09830380231142044, 0.6664360165596008, 9.759332656860352, 1.5089597702026367, -1.2141201496124268, -2.5322229862213135, -0.6808263063430786, 0.08799771219491959, -0.72314453125, -0.45703125, 0.142333984375, 
409, 2847587316, 0.00919552706182003, 0.7389885783195496, 0.098163902759552, 0.6664623618125916, 9.7252836227417, 1.4952391386032104, -1.1911914348602295, -2.6425435543060303, -0.39330655336380005, 0.12790466845035553, -0.7236328125, -0.453857421875, 0.147216796875, 
410, 2847595649, 0.009337056428194046, 0.73897784948349, 0.09801744669675827, 0.6664938926696777, 9.685089111328125, 1.4371302127838135, -1.1586447954177856, -3.0044217109680176, -0.35365575551986694, 0.026625998318195343, -0.7216796875, -0.4560546875, 0.143310546875, 
411, 2847603982, 0.009472073055803776, 0.7389817237854004, 0.09788208454847336, 0.6665076017379761, 9.678909301757812, 1.372037649154663, -1.1080385446548462, -2.7172348499298096, -0.6354891061782837, -0.027560919523239136, -0.7265625, -0.453857421875, 0.146484375, 
412, 2847612315, 0.009573178365826607, 0.7390048503875732, 0.09779444336891174, 0.6664934754371643, 9.651416778564453, 1.2929906845092773, -1.0909782648086548, -2.0113577842712402, -1.0681647062301636, -0.15847527980804443, -0.72265625, -0.4560546875, 0.144287109375, 
413, 2847620648, 0.009639490395784378, 0.7390449643135071, 0.09773828834295273, 0.6664562821388245, 9.683255195617676, 1.2804838418960571, -1.0972881317138672, -1.2195192575454712, -1.3808120489120483, -0.1604219675064087, -0.720703125, -0.455810546875, 0.144287109375, 
414, 2847628981, 0.009669505059719086, 0.7390996813774109, 0.09772667288780212, 0.6663968563079834, 9.701436042785645, 1.2580050230026245, -1.0819848775863647, -0.4106218218803406, -1.6871329545974731, -0.26400595903396606, -0.7177734375, -0.456787109375, 0.14453125, 
415, 2847637314, 0.009663238190114498, 0.7391794919967651, 0.09775137901306152, 0.6663047075271606, 9.656023979187012, 1.2294132709503174, -1.0903493165969849, 0.2788749635219574, -2.213146686553955, -0.25529706478118896, -0.72412109375, -0.45458984375, 0.142822265625, 
416, 2847645647, 0.009630270302295685, 0.739291787147522, 0.09780576080083847, 0.6661726236343384, 9.643131256103516, 1.2624858617782593, -1.0609216690063477, 0.9814990758895874, -2.8629541397094727, -0.28616222739219666, -0.7216796875, -0.4560546875, 0.143798828125, 
417, 2847653980, 0.009578733704984188, 0.7394404411315918, 0.09787838160991669, 0.6659976840019226, 9.667668342590332, 1.3235933780670166, -1.0122408866882324, 1.358668565750122, -3.6010794639587402, -0.2615981698036194, -0.72705078125, -0.455810546875, 0.1484375, 
418, 2847662313, 0.009504835121333599, 0.7396076917648315, 0.0979742705821991, 0.6657988429069519, 9.720048904418945, 1.3527603149414062, -0.9887613654136658, 1.6663469076156616, -4.0140838623046875, -0.24886789917945862, -0.7216796875, -0.45751953125, 0.144775390625, 
419, 2847670646, 0.009416277520358562, 0.7397847175598145, 0.09805929660797119, 0.6655910015106201, 9.801322937011719, 1.468557596206665, -1.0339285135269165, 1.896721363067627, -4.144024848937988, -0.015266085043549538, -0.72314453125, -0.45751953125, 0.147216796875, 
420, 2847678979, 0.009324822574853897, 0.7399715185165405, 0.09813714027404785, 0.6653730869293213, 9.760968208312988, 1.5800747871398926, -1.0819631814956665, 1.8753844499588013, -4.341587543487549, 0.10618381947278976, -0.72265625, -0.45703125, 0.143310546875, 
421, 2847687312, 0.009235883131623268, 0.740178644657135, 0.09819979220628738, 0.6651347875595093, 9.728761672973633, 1.6170401573181152, -1.1185342073440552, 1.7402950525283813, -4.731999397277832, 0.25215932726860046, -0.7216796875, -0.456787109375, 0.150146484375, 
422, 2847695645, 0.009159073233604431, 0.7403997778892517, 0.09823574125766754, 0.6648842096328735, 9.725316047668457, 1.626467227935791, -1.1255842447280884, 1.4783128499984741, -5.003075122833252, 0.4338923692703247, -0.7236328125, -0.455322265625, 0.145751953125, 
423, 2847703978, 0.009111561812460423, 0.7406002283096313, 0.09825101494789124, 0.6646595001220703, 9.783645629882812, 1.6655701398849487, -1.1248406171798706, 0.8661326169967651, -4.593375205993652, 0.3484688997268677, -0.7236328125, -0.454345703125, 0.148193359375, 
424, 2847712311, 0.00914160255342722, 0.7407610416412354, 0.09823442250490189, 0.6644821763038635, 9.769801139831543, 1.6849732398986816, -1.117634892463684, -0.3184617757797241, -3.873051643371582, -0.07113072276115417, -0.72314453125, -0.453369140625, 0.147216796875, 
425, 2847720644, 0.009230148047208786, 0.7408892512321472, 0.09819313883781433, 0.6643441915512085, 9.71328353881836, 1.5968650579452515, -1.1248441934585571, -1.163475513458252, -3.2414560317993164, -0.4053196907043457, -0.720703125, -0.456298828125, 0.1474609375, 
426, 2847728977, 0.009337373077869415, 0.7409864664077759, 0.09815379977226257, 0.6642399430274963, 9.662219047546387, 1.5187214612960815, -1.1534268856048584, -1.4635461568832397, -2.660473585128784, -0.6157662272453308, -0.72265625, -0.455810546875, 0.150634765625, 
427, 2847737310, 0.00943672563880682, 0.7410802841186523, 0.0981108620762825, 0.6641401648521423, 9.698197364807129, 1.4173601865768433, -1.1749223470687866, -1.34385085105896, -2.5516388416290283, -0.5291901230812073, -0.7236328125, -0.453857421875, 0.151123046875, 
428, 2847745643, 0.009498367086052895, 0.7411627769470215, 0.09807731956243515, 0.6640523076057434, 9.753069877624512, 1.3796167373657227, -1.1439129114151, -0.8917595148086548, -2.275465726852417, -0.29328298568725586, -0.72314453125, -0.455322265625, 0.149658203125, 
429, 2847753976, 0.009538180194795132, 0.7412339448928833, 0.0980682522058487, 0.6639735698699951, 9.771928787231445, 1.378563642501831, -1.1495742797851562, -0.5187907218933105, -2.066018581390381, -0.34182196855545044, -0.72265625, -0.454833984375, 0.150146484375, 
430, 2847762309, 0.009576619602739811, 0.7412869930267334, 0.09804493933916092, 0.6639171838760376, 9.812740325927734, 1.468949794769287, -1.1616506576538086, -0.6674044132232666, -1.6731985807418823, -0.2067837119102478, -0.72216796875, -0.45263671875, 0.152587890625, 
431, 2847770642, 0.009603756479918957, 0.741323709487915, 0.09799280762672424, 0.6638835072517395, 9.85042953491211, 1.5286916494369507, -1.19856595993042, -0.7883549928665161, -1.2596569061279297, 0.15679752826690674, -0.72314453125, -0.458740234375, 0.151123046875, 
432, 2847778975, 0.009652918204665184, 0.7413485050201416, 0.0979241132736206, 0.6638652682304382, 9.834529876708984, 1.5761080980300903, -1.2239514589309692, -1.2295089960098267, -1.0433446168899536, 0.12413939833641052, -0.720703125, -0.456298828125, 0.14697265625, 
433, 2847787308, 0.009715616703033447, 0.7413583993911743, 0.09786640107631683, 0.6638618111610413, 9.832691192626953, 1.5407291650772095, -1.2077791690826416, -1.247029185295105, -0.7576947808265686, -0.14372149109840393, -0.7216796875, -0.451904296875, 0.150146484375, 
434, 2847795641, 0.009797395206987858, 0.74135422706604, 0.09779303520917892, 0.6638760566711426, 9.784161567687988, 1.5336267948150635, -1.1590619087219238, -1.6457403898239136, -0.4922544062137604, -0.1608573943376541, -0.7236328125, -0.457275390625, 0.147705078125, 
435, 2847803974, 0.009890856221318245, 0.7413575053215027, 0.0976703017950058, 0.6638891100883484, 9.721490859985352, 1.5101568698883057, -1.1111218929290771, -2.1767232418060303, -0.5763714909553528, 0.23218022286891937, -0.72509765625, -0.453857421875, 0.152099609375, 
436, 2847812307, 0.010016239248216152, 0.7413657307624817, 0.09751342236995697, 0.6639010310173035, 9.711506843566895, 1.4824371337890625, -1.0820530652999878, -2.776275873184204, -0.690739095211029, 0.30259376764297485, -0.72314453125, -0.456787109375, 0.148681640625, 
437, 2847820640, 0.010135289281606674, 0.741378664970398, 0.09734393656253815, 0.6639096736907959, 9.686017036437988, 1.4995163679122925, -1.057520866394043, -2.857395887374878, -0.7511630058288574, 0.48781031370162964, -0.7255859375, -0.455810546875, 0.150146484375, 
438, 2847828973, 0.010278613306581974, 0.7414011359214783, 0.09717082232236862, 0.6639078855514526, 9.635476112365723, 1.5263466835021973, -1.0648009777069092, -3.1955299377441406, -0.9984685182571411, 0.3304876983165741, -0.7216796875, -0.457275390625, 0.147705078125, 
439, 2847837306, 0.010470313020050526, 0.7414451837539673, 0.09697240591049194, 0.6638846397399902, 9.570992469787598, 1.5265562534332275, -1.071568250656128, -3.815521240234375, -1.4635459184646606, 0.15707927942276, -0.71923828125, -0.455810546875, 0.15087890625, 
440, 2847845639, 0.01067278254777193, 0.7414990067481995, 0.09677168726921082, 0.6638504862785339, 9.56684398651123, 1.4585212469100952, -1.098839521408081, -3.9549403190612793, -1.692537546157837, 0.10541539639234543, -0.7236328125, -0.456787109375, 0.150634765625, 
441, 2847853972, 0.010874144732952118, 0.7415529489517212, 0.09659213572740555, 0.6638132929801941, 9.63293743133545, 1.3645448684692383, -1.087442398071289, -3.721466541290283, -1.7060359716415405, -0.11272824555635452, -0.72265625, -0.456298828125, 0.148193359375, 
442, 2847862305, 0.011037761345505714, 0.7415963411331177, 0.09645690023899078, 0.6637817025184631, 9.669647216796875, 1.3116575479507446, -1.142357349395752, -3.0063681602478027, -1.514236569404602, -0.2166195660829544, -0.72119140625, -0.456787109375, 0.146728515625, 
443, 2847870638, 0.011162372305989265, 0.7416336536407471, 0.09634583443403244, 0.6637540459632874, 9.733846664428711, 1.245953917503357, -1.18770432472229, -2.3287949562072754, -1.3434666395187378, -0.131862074136734, -0.72216796875, -0.459716796875, 0.14990234375, 
444, 2847878971, 0.011220716871321201, 0.7416494488716125, 0.09628544002771378, 0.6637441515922546, 9.803665161132812, 1.2515186071395874, -1.2241089344024658, -1.2621670961380005, -0.8894543051719666, -0.055813416838645935, -0.72021484375, -0.453369140625, 0.148193359375, 
