sep=,
PacketCounter,SampleTimeFine,Quat_W,Quat_X,Quat_Y,Quat_Z,Acc_X,Acc_Y,Acc_Z,Gyr_X,Gyr_Y,Gyr_Z,Mag_X,Mag_Y,Mag_Z,
0, 2927284128, -0.13710765540599823, 0.7657588124275208, -0.6261398792266846, -0.052560675889253616, 0, 0, 0, 0, 0, 0, 0.092529296875, 0.283447265625, 0.731689453125, 
1, 2927292461, -0.1371740847826004, 0.7657424807548523, -0.626143753528595, -0.052578430622816086, -2.387211322784424, -1.3586682081222534, -9.485836029052734, 0.5398456454277039, -1.333003282546997, -0.008363048546016216, 0.094482421875, 0.284912109375, 0.732666015625, 
2, 2927300794, -0.1372416615486145, 0.7657340168952942, -0.6261366009712219, -0.05261107534170151, -2.4242630004882812, -1.2949650287628174, -9.436631202697754, 0.3560122549533844, -1.4917346239089966, -0.1494462490081787, 0.094482421875, 0.284423828125, 0.732177734375, 
3, 2927309127, -0.1372942328453064, 0.7657268643379211, -0.6261308789253235, -0.05264541134238243, -2.436222553253174, -1.282869577407837, -9.423233985900879, 0.22801794111728668, -1.399087905883789, -0.14824238419532776, 0.091064453125, 0.284912109375, 0.72998046875, 
4, 2927317460, -0.1373308151960373, 0.7657269239425659, -0.626121461391449, -0.0526605099439621, -2.4284117221832275, -1.2810813188552856, -9.413627624511719, 0.1622149497270584, -1.0402581691741943, -0.25653937458992004, 0.091552734375, 0.283935546875, 0.73193359375, 
5, 2927325793, -0.1373174488544464, 0.7657312750816345, -0.6261206269264221, -0.052641838788986206, -2.433189630508423, -1.2670116424560547, -9.401532173156738, -0.028649521991610527, -0.25666743516921997, -0.24836841225624084, 0.093994140625, 0.283935546875, 0.731201171875, 
6, 2927334126, -0.13726447522640228, 0.7657397985458374, -0.626125156879425, -0.05260336399078369, -2.431373357772827, -1.2314975261688232, -9.375173568725586, -0.3238535523414612, 0.32916852831840515, -0.21962924301624298, 0.095703125, 0.281005859375, 0.729736328125, 
7, 2927342459, -0.13718032836914062, 0.7657570838928223, -0.6261272430419922, -0.05254619941115379, -2.381932497024536, -1.2827837467193604, -9.389608383178711, -0.46416839957237244, 0.773806095123291, -0.34939098358154297, 0.091552734375, 0.285888671875, 0.73486328125, 
8, 2927350792, -0.13709549605846405, 0.765768826007843, -0.6261391639709473, -0.05245453119277954, -2.380838394165039, -1.3614723682403564, -9.41551685333252, -0.20326174795627594, 1.1778961420059204, -0.24803544580936432, 0.092041015625, 0.285888671875, 0.732421875, 
9, 2927359125, -0.13699686527252197, 0.765777587890625, -0.6261599063873291, -0.05233696475625038, -2.3970391750335693, -1.3584250211715698, -9.413813591003418, -0.06704525649547577, 1.5635185241699219, -0.18446090817451477, 0.092529296875, 0.285400390625, 0.731689453125, 
10, 2927367458, -0.13688944280147552, 0.7657856941223145, -0.6261842250823975, -0.05220833048224449, -2.451798439025879, -1.3467870950698853, -9.433180809020996, -0.10756698995828629, 1.7836474180221558, -0.13909812271595, 0.09375, 0.282470703125, 0.729736328125, 
11, 2927375791, -0.13676364719867706, 0.7657903432846069, -0.626214861869812, -0.05210322141647339, -2.5257811546325684, -1.3186928033828735, -9.489530563354492, -0.4438049793243408, 1.681548833847046, -0.0010886050295084715, 0.09423828125, 0.283935546875, 0.729736328125, 
12, 2927384124, -0.1366632580757141, 0.7657880187034607, -0.626247763633728, -0.05200623720884323, -2.6023619174957275, -1.3793113231658936, -9.502209663391113, -0.2801557183265686, 1.3975895643234253, 0.09623268991708755, 0.091552734375, 0.283447265625, 0.7314453125, 
13, 2927392457, -0.1365935504436493, 0.7657813429832458, -0.6262781620025635, -0.05191904678940773, -2.6594555377960205, -1.4294956922531128, -9.531213760375977, 0.01296080183237791, 1.0022850036621094, 0.08749821782112122, 0.093017578125, 0.284912109375, 0.730224609375, 
14, 2927400790, -0.1365594118833542, 0.7657801508903503, -0.6262938976287842, -0.051838070154190063, -2.614743232727051, -1.4521701335906982, -9.54516887664795, 0.2656196057796478, 0.6268315315246582, -0.11163963377475739, 0.0947265625, 0.285888671875, 0.727783203125, 
15, 2927409123, -0.13652420043945312, 0.7657914757728577, -0.6262933611869812, -0.05176914110779762, -2.5716967582702637, -1.410826325416565, -9.548521995544434, 0.1621125042438507, 0.4668706953525543, -0.385199636220932, 0.09130859375, 0.281494140625, 0.818359375, 
16, 2927417456, -0.1365034133195877, 0.7658010721206665, -0.626295268535614, -0.051659855991601944, -2.4169387817382812, -1.4790005683898926, -9.580690383911133, 0.62091463804245, 0.7936058044433594, -0.41258126497268677, 0.09326171875, 0.283935546875, 0.81982421875, 
17, 2927425789, -0.13646475970745087, 0.7658028602600098, -0.6263112425804138, -0.05154192075133324, -2.411909818649292, -1.394675612449646, -9.5955228805542, 0.577242374420166, 1.0369666814804077, -0.2172471284866333, 0.0947265625, 0.285400390625, 0.8203125, 
18, 2927434122, -0.1364341527223587, 0.7658036947250366, -0.6263284087181091, -0.05140211433172226, -2.3585426807403564, -1.4187949895858765, -9.620488166809082, 0.8068996071815491, 1.221593976020813, -0.2269548922777176, 0.09033203125, 0.2822265625, 0.81689453125, 
19, 2927442455, -0.13640201091766357, 0.7658072710037231, -0.6263419985771179, -0.051266975700855255, -2.313429594039917, -1.4426997900009155, -9.634278297424316, 0.7893283367156982, 1.1579684019088745, -0.2940642833709717, 0.09130859375, 0.284423828125, 0.81884765625, 
20, 2927450788, -0.13637931644916534, 0.7657961845397949, -0.6263710856437683, -0.05113654583692551, -2.3174355030059814, -1.3992321491241455, -9.633498191833496, 0.8412994742393494, 1.068343997001648, 0.013165716081857681, 0.0927734375, 0.285888671875, 0.8193359375, 
21, 2927459121, -0.13636328279972076, 0.7657838463783264, -0.62639981508255, -0.05101172626018524, -2.363213539123535, -1.4019501209259033, -9.639392852783203, 0.9097663760185242, 0.9275683164596558, 0.009502881206572056, 0.09326171875, 0.280029296875, 0.81787109375, 
22, 2927467454, -0.13634809851646423, 0.765784740447998, -0.6264095902442932, -0.050920937210321426, -2.4092633724212646, -1.2741144895553589, -9.589509010314941, 0.5424838662147522, 0.5586208701133728, -0.22393247485160828, 0.09375, 0.285888671875, 0.81787109375, 
23, 2927475787, -0.136319100856781, 0.7657629251480103, -0.6264477372169495, -0.050856444984674454, -2.4418303966522217, -1.3999830484390259, -9.575989723205566, 0.27945131063461304, 0.4140796959400177, 0.31326210498809814, 0.090087890625, 0.285400390625, 0.818115234375, 
24, 2927484120, -0.13628947734832764, 0.7657477259635925, -0.6264737248420715, -0.050844959914684296, -2.5363192558288574, -1.3029688596725464, -9.573244094848633, -0.2524154484272003, -0.13254085183143616, 0.24400119483470917, 0.09326171875, 0.285400390625, 0.818359375, 
25, 2927492453, -0.1362742781639099, 0.7657510042190552, -0.626474916934967, -0.050820134580135345, -2.4300496578216553, -1.2892427444458008, -9.550776481628418, 0.010809206403791904, -0.17462503910064697, -0.2263401746749878, 0.089599609375, 0.282958984375, 0.8212890625, 
26, 2927500786, -0.13625600934028625, 0.7657610177993774, -0.626468300819397, -0.05080030858516693, -2.501849889755249, -1.2650161981582642, -9.555854797363281, -0.13190048933029175, -0.1857416033744812, -0.34180912375450134, 0.092529296875, 0.285400390625, 0.8203125, 
27, 2927509119, -0.1362054944038391, 0.765778660774231, -0.6264600157737732, -0.05077114328742027, -2.4271740913391113, -1.3017748594284058, -9.526849746704102, -0.3564348816871643, 0.167440265417099, -0.43599265813827515, 0.09130859375, 0.284912109375, 0.81787109375, 
28, 2927517452, -0.13616296648979187, 0.7657885551452637, -0.6264605522155762, -0.050730470567941666, -2.4768364429473877, -1.4278361797332764, -9.54699993133545, -0.20187857747077942, 0.2554763853549957, -0.2855859100818634, 0.08984375, 0.286376953125, 0.816162109375, 
29, 2927525785, -0.13613730669021606, 0.7658134698867798, -0.6264392733573914, -0.0506863109767437, -2.4859633445739746, -1.4328503608703613, -9.554181098937988, 0.010476221330463886, 0.09392739832401276, -0.6803780794143677, 0.089111328125, 0.286376953125, 0.816650390625, 
30, 2927534118, -0.13611871004104614, 0.7658437490463257, -0.6264093518257141, -0.05064858868718147, -2.4349136352539062, -1.3861708641052246, -9.540512084960938, -0.033157624304294586, -0.025319667533040047, -0.7931574583053589, 0.091796875, 0.285888671875, 0.81787109375, 
31, 2927542451, -0.1361013948917389, 0.7658682465553284, -0.626385509967804, -0.05061990022659302, -2.4550702571868896, -1.3842110633850098, -9.529396057128906, -0.035565365105867386, -0.14744833111763, -0.6800707578659058, 0.091796875, 0.286376953125, 0.81787109375, 
32, 2927550784, -0.13608649373054504, 0.7658841013908386, -0.6263723373413086, -0.050583064556121826, -2.447960138320923, -1.3973292112350464, -9.565267562866211, 0.03632098436355591, -0.04388999566435814, -0.4940601885318756, 0.091796875, 0.285888671875, 0.81689453125, 
33, 2927559117, -0.1360800713300705, 0.7658920288085938, -0.6263659596443176, -0.050559189170598984, -2.46366810798645, -1.355170488357544, -9.56041145324707, 0.08009570837020874, -0.27075526118278503, -0.3529769480228424, 0.090576171875, 0.287353515625, 0.816650390625, 
34, 2927567450, -0.13609081506729126, 0.7658952474594116, -0.6263612508773804, -0.05053930729627609, -2.4746618270874023, -1.355041742324829, -9.516535758972168, 0.19016006588935852, -0.43727338314056396, -0.2810521721839905, 0.09375, 0.284912109375, 0.8154296875, 
35, 2927575783, -0.13607150316238403, 0.7658969163894653, -0.6263632774353027, -0.050539903342723846, -2.421473503112793, -1.2804522514343262, -9.549753189086914, -0.24747192859649658, -0.40461522340774536, -0.15608033537864685, 0.090576171875, 0.286376953125, 0.81787109375, 
36, 2927584116, -0.1360253095626831, 0.7659171223640442, -0.6263481378555298, -0.05054608732461929, -2.406895399093628, -1.2476203441619873, -9.545090675354004, -0.6746405363082886, -0.2290552854537964, -0.44938895106315613, 0.09228515625, 0.285888671875, 0.8173828125, 
37, 2927592449, -0.13595913350582123, 0.7659424543380737, -0.6263318657875061, -0.05054156854748726, -2.3801162242889404, -1.2518045902252197, -9.554280281066895, -0.7538653016090393, 0.03365710377693176, -0.5289979577064514, 0.087646484375, 0.2861328125, 0.814697265625, 
38, 2927600782, -0.1358974277973175, 0.7659661769866943, -0.6263172030448914, -0.05052996426820755, -2.3434219360351562, -1.2200744152069092, -9.547212600708008, -0.6901370882987976, 0.09454213827848434, -0.49756932258605957, 0.089111328125, 0.286376953125, 0.817626953125, 
39, 2927609115, -0.13582046329975128, 0.7659996747970581, -0.6262944936752319, -0.05051112547516823, -2.3253180980682373, -1.2987843751907349, -9.532014846801758, -0.7632145285606384, 0.27189508080482483, -0.6872683167457581, 0.088134765625, 0.284912109375, 0.816650390625, 
40, 2927617448, -0.1357502043247223, 0.7660307288169861, -0.6262733936309814, -0.05049082264304161, -2.3314552307128906, -1.2670758962631226, -9.567922592163086, -0.722564697265625, 0.2533760070800781, -0.6380890011787415, 0.086669921875, 0.2861328125, 0.814208984375, 
41, 2927625781, -0.13568292558193207, 0.7660507559776306, -0.6262639760971069, -0.05048416554927826, -2.398026466369629, -1.3431107997894287, -9.549660682678223, -0.7311198115348816, 0.07579251378774643, -0.4138363301753998, 0.091796875, 0.283935546875, 0.8173828125, 
42, 2927634114, -0.13560640811920166, 0.7660821080207825, -0.6262434720993042, -0.050470806658267975, -2.417081594467163, -1.3452352285385132, -9.55296516418457, -0.8496113419532776, 0.2344982922077179, -0.6184172630310059, 0.0927734375, 0.285400390625, 0.8193359375, 
43, 2927642447, -0.1355254203081131, 0.7661091089248657, -0.6262295842170715, -0.05044930800795555, -2.4650988578796387, -1.4270634651184082, -9.531722068786621, -0.762830376625061, 0.34520307183265686, -0.5386033654212952, 0.08740234375, 0.2841796875, 0.816650390625, 
44, 2927650780, -0.13543738424777985, 0.7661367058753967, -0.6262166500091553, -0.05042680352926254, -2.527578592300415, -1.4309405088424683, -9.55113410949707, -0.8812960982322693, 0.4438946545124054, -0.5163957476615906, 0.086181640625, 0.284423828125, 0.819091796875, 
45, 2927659113, -0.13534529507160187, 0.7661517262458801, -0.6262212991714478, -0.05038772523403168, -2.5331647396087646, -1.4482792615890503, -9.542229652404785, -0.6923655271530151, 0.6516773104667664, -0.2653762698173523, 0.09130859375, 0.283447265625, 0.818359375, 
46, 2927667446, -0.13526524603366852, 0.7661604881286621, -0.6262325048446655, -0.05032937601208687, -2.5428860187530518, -1.4531147480010986, -9.563445091247559, -0.4363768994808197, 0.7845384478569031, -0.17116715013980865, 0.092041015625, 0.287841796875, 0.81689453125, 
47, 2927675779, -0.13521023094654083, 0.7661628127098083, -0.6262477040290833, -0.050251297652721405, -2.508837938308716, -1.4519768953323364, -9.571703910827637, 0.0638306736946106, 0.753878116607666, -0.14442585408687592, 0.091064453125, 0.287353515625, 0.817138671875, 
48, 2927684112, -0.13517971336841583, 0.7661676406860352, -0.6262540221214294, -0.05018119141459465, -2.4942750930786133, -1.4379146099090576, -9.591154098510742, 0.19231165945529938, 0.4702517092227936, -0.24316871166229248, 0.09033203125, 0.283935546875, 0.8173828125, 
49, 2927692445, -0.1351582407951355, 0.766172468662262, -0.6262580156326294, -0.050113826990127563, -2.431959390640259, -1.4038598537445068, -9.600116729736328, 0.3108287453651428, 0.33449625968933105, -0.28722521662712097, 0.087646484375, 0.286376953125, 0.816650390625, 
50, 2927700778, -0.13516415655612946, 0.7661823630332947, -0.626248836517334, -0.0500619113445282, -2.388591766357422, -1.4006482362747192, -9.620451927185059, 0.39894169569015503, -0.06222978234291077, -0.44196078181266785, 0.09033203125, 0.285400390625, 0.81689453125, 
51, 2927709111, -0.13517031073570251, 0.7661895751953125, -0.62624192237854, -0.05002328380942345, -2.314523935317993, -1.3957988023757935, -9.613821983337402, 0.3433331847190857, -0.22398367524147034, -0.38691580295562744, 0.09130859375, 0.284912109375, 0.81494140625, 
52, 2927717444, -0.13518190383911133, 0.7661875486373901, -0.626244843006134, -0.04998702183365822, -2.3247382640838623, -1.3782670497894287, -9.625444412231445, 0.35509011149406433, -0.26138046383857727, -0.18727844953536987, 0.0888671875, 0.286376953125, 0.814208984375, 
53, 2927725777, -0.13517406582832336, 0.7661869525909424, -0.6262483596801758, -0.04997212067246437, -2.335832357406616, -1.3160587549209595, -9.60040283203125, 0.013012032024562359, -0.34088703989982605, -0.15689998865127563, 0.089111328125, 0.287353515625, 0.818115234375, 
54, 2927734110, -0.13515251874923706, 0.7661858201026917, -0.6262551546096802, -0.04996231943368912, -2.358027696609497, -1.3430678844451904, -9.592842102050781, -0.22172962129116058, -0.24547401070594788, -0.08228572458028793, 0.089111328125, 0.285888671875, 0.817626953125, 
55, 2927742443, -0.1351311355829239, 0.7661771774291992, -0.6262723207473755, -0.049940064549446106, -2.3679847717285156, -1.3322386741638184, -9.599445343017578, -0.04194331541657448, -0.12836575508117676, 0.052124977111816406, 0.09033203125, 0.285400390625, 0.81787109375, 
56, 2927750776, -0.1351158767938614, 0.7661677598953247, -0.6262893676757812, -0.049910321831703186, -2.3747010231018066, -1.3339265584945679, -9.59831428527832, 0.03936908021569252, -0.07616393268108368, 0.056043948978185654, 0.08837890625, 0.284423828125, 0.817626953125, 
57, 2927759109, -0.13510029017925262, 0.7661663889884949, -0.626297116279602, -0.04987563565373421, -2.4481892585754395, -1.354705572128296, -9.594552040100098, 0.10727240890264511, -0.05892554298043251, -0.13630615174770355, 0.088134765625, 0.288330078125, 0.815673828125, 
58, 2927767442, -0.13507474958896637, 0.7661699652671814, -0.6263003349304199, -0.04984825849533081, -2.3822827339172363, -1.3068602085113525, -9.576955795288086, -0.12493343651294708, -0.030468130484223366, -0.19158166646957397, 0.090576171875, 0.287353515625, 0.8203125, 
59, 2927775775, -0.13503023982048035, 0.7661688923835754, -0.6263124942779541, -0.04983527585864067, -2.3472840785980225, -1.3121248483657837, -9.600397109985352, -0.38084521889686584, -0.03151831403374672, -0.032542884349823, 0.087646484375, 0.285888671875, 0.817138671875, 
60, 2927784108, -0.13499388098716736, 0.7661679983139038, -0.6263221502304077, -0.049826160073280334, -2.3683922290802, -1.3515297174453735, -9.576275825500488, -0.38192102313041687, -0.12014356255531311, -0.04186646640300751, 0.091064453125, 0.287353515625, 0.818359375, 
61, 2927792441, -0.13498838245868683, 0.766164243221283, -0.6263287663459778, -0.04981473088264465, -2.360588312149048, -1.3783886432647705, -9.594480514526367, 0.01734083704650402, -0.39488181471824646, -0.0927107185125351, 0.091064453125, 0.286376953125, 0.822265625, 
62, 2927800774, -0.1350046843290329, 0.7661778330802917, -0.6263086795806885, -0.04981370270252228, -2.3477561473846436, -1.3639112710952759, -9.576998710632324, 0.054327789694070816, -0.7052494883537292, -0.5015907287597656, 0.090576171875, 0.287353515625, 0.815673828125, 
63, 2927809107, -0.13501504063606262, 0.7661927342414856, -0.6262874603271484, -0.04982367530465126, -2.3447306156158447, -1.3782596588134766, -9.548788070678711, -0.05321357026696205, -0.7967947721481323, -0.5178301334381104, 0.087646484375, 0.284912109375, 0.817626953125, 
64, 2927817440, -0.13502231240272522, 0.7662010788917542, -0.6262732148170471, -0.049854621291160583, -2.379164218902588, -1.3327105045318604, -9.517930030822754, -0.30087757110595703, -0.9558846950531006, -0.3297191858291626, 0.08984375, 0.28466796875, 0.814697265625, 
65, 2927825773, -0.13505114614963531, 0.7661986947059631, -0.626268208026886, -0.04987647756934166, -2.3818609714508057, -1.4246031045913696, -9.510019302368164, 0.08115871250629425, -1.0629138946533203, -0.18831585347652435, 0.091552734375, 0.285400390625, 0.81982421875, 
66, 2927834106, -0.13508588075637817, 0.7661967873573303, -0.6262629628181458, -0.04987756162881851, -2.4400994777679443, -1.392608404159546, -9.5235595703125, 0.2715877294540405, -0.8696929216384888, -0.2203976809978485, 0.087158203125, 0.286865234375, 0.816162109375, 
67, 2927842439, -0.13510851562023163, 0.7661983966827393, -0.6262571215629578, -0.049864720553159714, -2.4830164909362793, -1.4063490629196167, -9.53015422821045, 0.30783188343048096, -0.6420080065727234, -0.2914516031742096, 0.084716796875, 0.28369140625, 0.816650390625, 
68, 2927850772, -0.1351005733013153, 0.7662152051925659, -0.6262390613555908, -0.04985673353075981, -2.4868075847625732, -1.3273028135299683, -9.519876480102539, -0.14509184658527374, -0.41667959094047546, -0.5055609941482544, 0.089599609375, 0.285400390625, 0.82080078125, 
69, 2927859105, -0.1350601762533188, 0.7662333846092224, -0.6262254118919373, -0.04985661432147026, -2.435321092605591, -1.2976758480072021, -9.499176025390625, -0.5020005106925964, -0.23691882193088531, -0.44951701164245605, 0.089111328125, 0.287841796875, 0.816650390625, 
70, 2927867438, -0.13502435386180878, 0.7662420868873596, -0.6262223720550537, -0.04985945671796799, -2.4377028942108154, -1.3977584838867188, -9.536707878112793, -0.5061244964599609, -0.2682451009750366, -0.2380715310573578, 0.089111328125, 0.285400390625, 0.818603515625, 
71, 2927875771, -0.1349996030330658, 0.7662416696548462, -0.6262282729148865, -0.04985662177205086, -2.4212229251861572, -1.4195677042007446, -9.521963119506836, -0.26629844307899475, -0.3201395571231842, -0.10059991478919983, 0.089599609375, 0.285888671875, 0.819091796875, 
72, 2927884104, -0.13499903678894043, 0.7662490606307983, -0.6262214183807373, -0.049831148236989975, -2.355409622192383, -1.4085021018981934, -9.517186164855957, 0.10868119448423386, -0.282025545835495, -0.3425007164478302, 0.09033203125, 0.285888671875, 0.817138671875, 
73, 2927892437, -0.13500535488128662, 0.7662688493728638, -0.6261979341506958, -0.04980470612645149, -2.3355748653411865, -1.4199323654174805, -9.525190353393555, 0.2067837119102478, -0.3780789077281952, -0.6476174592971802, 0.09130859375, 0.283935546875, 0.81640625, 
74, 2927900770, -0.13499189913272858, 0.7662966847419739, -0.6261684894561768, -0.04978175088763237, -2.37266206741333, -1.3594622611999512, -9.504168510437012, -0.10083043575286865, -0.22523877024650574, -0.7432097792625427, 0.08935546875, 0.283447265625, 0.8173828125, 
75, 2927909103, -0.13499708473682404, 0.7663196325302124, -0.6261400580406189, -0.049775466322898865, -2.3769824504852295, -1.373396396636963, -9.514453887939453, 0.011603248305618763, -0.5881412625312805, -0.6877549886703491, 0.088134765625, 0.284912109375, 0.818603515625, 
76, 2927917436, -0.13501882553100586, 0.7663242220878601, -0.6261305212974548, -0.04976349696516991, -2.390258312225342, -1.3928158283233643, -9.525398254394531, 0.23060496151447296, -0.6228741407394409, -0.33773648738861084, 0.08984375, 0.285400390625, 0.815185546875, 
77, 2927925769, -0.13503138720989227, 0.7663293480873108, -0.62612384557724, -0.049733057618141174, -2.429548501968384, -1.359140396118164, -9.570124626159668, 0.34656062722206116, -0.3696006238460541, -0.3551797866821289, 0.086181640625, 0.28662109375, 0.814697265625, 
78, 2927934102, -0.13504847884178162, 0.766332745552063, -0.626120924949646, -0.04967283457517624, -2.4344773292541504, -1.3219741582870483, -9.566054344177246, 0.6044703125953674, -0.0626908391714096, -0.34519022703170776, 0.0908203125, 0.28515625, 0.812255859375, 
79, 2927942435, -0.13501957058906555, 0.7663390040397644, -0.626120924949646, -0.049653310328722, -2.5154545307159424, -1.2051324844360352, -9.572399139404297, -0.1827191561460495, -0.1144828200340271, -0.24703647196292877, 0.09130859375, 0.285888671875, 0.814453125, 
80, 2927950768, -0.13495856523513794, 0.7663683295249939, -0.626097559928894, -0.04966233670711517, -2.4321811199188232, -1.2478063106536865, -9.582771301269531, -0.877044141292572, -0.14045563340187073, -0.6010764241218567, 0.08984375, 0.286376953125, 0.815673828125, 
81, 2927959101, -0.13491269946098328, 0.766381561756134, -0.6260911226272583, -0.04966359958052635, -2.4492478370666504, -1.3841824531555176, -9.585403442382812, -0.5568918585777283, -0.19450166821479797, -0.32390478253364563, 0.08984375, 0.283447265625, 0.81787109375, 
82, 2927967434, -0.13489176332950592, 0.7663886547088623, -0.6260888576507568, -0.04964061826467514, -2.418268918991089, -1.4328432083129883, -9.605037689208984, -0.1232685074210167, -0.12460044771432877, -0.27377772331237793, 0.089111328125, 0.288330078125, 0.820068359375, 
83, 2927975767, -0.1348724216222763, 0.7664003372192383, -0.6260824203491211, -0.04959414154291153, -2.3826186656951904, -1.468671441078186, -9.582141876220703, 0.13660070300102234, 0.07843078672885895, -0.41739675402641296, 0.088623046875, 0.283935546875, 0.818603515625, 
84, 2927984100, -0.13486437499523163, 0.7663974165916443, -0.6260920166969299, -0.04953868314623833, -2.369779586791992, -1.3919286727905273, -9.586782455444336, 0.31981930136680603, 0.12274341285228729, -0.13177242875099182, 0.088623046875, 0.283935546875, 0.819091796875, 
85, 2927992433, -0.13484402000904083, 0.7663912773132324, -0.6261070370674133, -0.04950070008635521, -2.3576271533966064, -1.389890432357788, -9.557671546936035, 0.09861480444669724, 0.025895992293953896, -0.022502107545733452, 0.090087890625, 0.287353515625, 0.817138671875, 
86, 2928000766, -0.1348523050546646, 0.766389012336731, -0.6261101365089417, -0.04947367310523987, -2.3554954528808594, -1.4294742345809937, -9.596569061279297, 0.24105554819107056, -0.32948872447013855, -0.16338041424751282, 0.089111328125, 0.286376953125, 0.816162109375, 
87, 2928009099, -0.1348762959241867, 0.7663934826850891, -0.6261006593704224, -0.049459461122751236, -2.355438232421875, -1.3993107080459595, -9.583930015563965, 0.3271962106227875, -0.6445437669754028, -0.3578692674636841, 0.08984375, 0.285400390625, 0.815673828125, 
88, 2928017432, -0.13490448892116547, 0.7664036154747009, -0.626083254814148, -0.04944593459367752, -2.3597371578216553, -1.3898617029190063, -9.584938049316406, 0.29704827070236206, -0.6723608374595642, -0.4739273488521576, 0.087890625, 0.284912109375, 0.815673828125, 
89, 2928025765, -0.1349259465932846, 0.7664036750793457, -0.62607741355896, -0.049460917711257935, -2.353278160095215, -1.313633918762207, -9.53036880493164, 0.059527479112148285, -0.9273248910903931, -0.22462403774261475, 0.087646484375, 0.286865234375, 0.818603515625, 
90, 2928034098, -0.13493984937667847, 0.7664011716842651, -0.6260760426521301, -0.04947774112224579, -2.3726770877838135, -1.3384040594100952, -9.55534839630127, -0.0812099277973175, -0.8493039608001709, -0.1320541799068451, 0.08984375, 0.283447265625, 0.8173828125, 
91, 2928042431, -0.13494974374771118, 0.7663941979408264, -0.6260824203491211, -0.04947904124855995, -2.3618905544281006, -1.3550488948822021, -9.547930717468262, 0.07561321556568146, -0.665060818195343, -0.05311111360788345, 0.090576171875, 0.286865234375, 0.818115234375, 
92, 2928050764, -0.13496361672878265, 0.7663857340812683, -0.6260902881622314, -0.049472738057374954, -2.403813123703003, -1.410590648651123, -9.548215866088867, 0.13639579713344574, -0.5917271971702576, -0.025037912651896477, 0.086181640625, 0.285888671875, 0.815673828125, 
93, 2928059097, -0.13496707379817963, 0.7663884162902832, -0.6260879635810852, -0.049449484795331955, -2.4218456745147705, -1.3634103536605835, -9.515863418579102, 0.19625626504421234, -0.3611222803592682, -0.2699868381023407, 0.087646484375, 0.285888671875, 0.819580078125, 
94, 2928067430, -0.13496768474578857, 0.7663934230804443, -0.6260848045349121, -0.049410879611968994, -2.376553535461426, -1.3797833919525146, -9.526328086853027, 0.2412092536687851, -0.14903642237186432, -0.3090485632419586, 0.088623046875, 0.286376953125, 0.815673828125, 
95, 2928075763, -0.1349557340145111, 0.7664000988006592, -0.6260838508605957, -0.04935300350189209, -2.383928060531616, -1.3788890838623047, -9.530291557312012, 0.32688888907432556, 0.14238953590393066, -0.3426544666290283, 0.091064453125, 0.290283203125, 0.815185546875, 
96, 2928084096, -0.13494524359703064, 0.7664092183113098, -0.6260803937911987, -0.0492837019264698, -2.419692277908325, -1.3991032838821411, -9.546920776367188, 0.38116538524627686, 0.2728171944618225, -0.3972127139568329, 0.087646484375, 0.287841796875, 0.820068359375, 
97, 2928092429, -0.13492147624492645, 0.7664188146591187, -0.6260777711868286, -0.049234166741371155, -2.4434468746185303, -1.3890820741653442, -9.539167404174805, 0.12177008390426636, 0.15437699854373932, -0.3617626428604126, 0.08935546875, 0.284912109375, 0.817138671875, 
98, 2928100762, -0.13490232825279236, 0.7664291858673096, -0.6260700225830078, -0.04922313243150711, -2.4298923015594482, -1.314234733581543, -9.576261520385742, -0.21747764945030212, -0.27341917157173157, -0.33888915181159973, 0.088623046875, 0.288818359375, 0.817626953125, 
99, 2928109095, -0.13488826155662537, 0.7664399147033691, -0.6260603666305542, -0.04921536147594452, -2.3891496658325195, -1.3911564350128174, -9.588542938232422, -0.14119845628738403, -0.3824845552444458, -0.3757736086845398, 0.091552734375, 0.289794921875, 0.818115234375, 
100, 2928117428, -0.13488493859767914, 0.7664405703544617, -0.6260606646537781, -0.04921118915081024, -2.4423954486846924, -1.4350391626358032, -9.600566864013672, -0.0849752351641655, -0.4742603898048401, -0.16819587349891663, 0.090087890625, 0.287353515625, 0.820068359375, 
101, 2928125761, -0.13487672805786133, 0.7664607763290405, -0.6260359883308411, -0.049234382808208466, -2.511284589767456, -1.3444554805755615, -9.605466842651367, -0.3748515248298645, -0.7791209816932678, -0.56224524974823, 0.089599609375, 0.287841796875, 0.819091796875, 
102, 2928134094, -0.13492321968078613, 0.7664336562156677, -0.6260595321655273, -0.04922887682914734, -2.387397289276123, -1.494135856628418, -9.613835334777832, 0.5179198384284973, -0.8648262619972229, 0.28093692660331726, 0.088623046875, 0.285400390625, 0.817138671875, 
103, 2928142427, -0.13496562838554382, 0.7664090394973755, -0.6260786652565002, -0.049250900745391846, -2.5081515312194824, -1.3729453086853027, -9.666609764099121, 0.28257623314857483, -1.152064323425293, 0.2496875673532486, 0.088134765625, 0.286865234375, 0.817138671875, 
104, 2928150760, -0.13502635061740875, 0.766395628452301, -0.6260809302330017, -0.04926469922065735, -2.4255075454711914, -1.4607893228530884, -9.631660461425781, 0.4622088372707367, -1.2207871675491333, -0.03559097647666931, 0.087158203125, 0.284912109375, 0.816162109375, 
105, 2928159093, -0.13509613275527954, 0.7663788795471191, -0.6260863542556763, -0.04926692694425583, -2.438218116760254, -1.3814643621444702, -9.606847763061523, 0.7166991233825684, -1.1987718343734741, -0.019364360719919205, 0.0908203125, 0.286376953125, 0.81689453125, 
106, 2928167426, -0.13516955077648163, 0.7663549780845642, -0.6261000633239746, -0.049263615161180496, -2.4322171211242676, -1.4238234758377075, -9.576404571533203, 0.7702968716621399, -1.1353893280029297, 0.1354224681854248, 0.088623046875, 0.285888671875, 0.819091796875, 
107, 2928175759, -0.1352413296699524, 0.7663358449935913, -0.6261102557182312, -0.04923330247402191, -2.4096713066101074, -1.3652344942092896, -9.567992210388184, 1.026618480682373, -0.8665935397148132, -0.009771830402314663, 0.089599609375, 0.286865234375, 0.818115234375, 
108, 2928184092, -0.13530953228473663, 0.7663255929946899, -0.6261112093925476, -0.04919368028640747, -2.3646798133850098, -1.3892179727554321, -9.5289888381958, 0.9928589463233948, -0.7225134968757629, -0.181976318359375, 0.091064453125, 0.287841796875, 0.817138671875, 
109, 2928192425, -0.13535229861736298, 0.7663130164146423, -0.6261197924613953, -0.04916198179125786, -2.3725621700286865, -1.2996504306793213, -9.507974624633789, 0.7190171480178833, -0.5998982191085815, -0.06558524817228317, 0.089111328125, 0.287841796875, 0.818603515625, 
110, 2928200758, -0.13537061214447021, 0.7663118243217468, -0.6261207461357117, -0.049118850380182266, -2.3513612747192383, -1.272855520248413, -9.455063819885254, 0.4824185073375702, -0.2489575743675232, -0.23351216316223145, 0.09033203125, 0.285400390625, 0.81689453125, 
111, 2928209091, -0.1353786438703537, 0.7663176655769348, -0.6261144876480103, -0.04908621311187744, -2.364229679107666, -1.2425990104675293, -9.463726043701172, 0.3169505298137665, -0.3074604272842407, -0.3582790791988373, 0.088134765625, 0.286376953125, 0.818115234375, 
112, 2928217424, -0.13538089394569397, 0.7663289308547974, -0.626102089881897, -0.049061261117458344, -2.351789951324463, -1.2102826833724976, -9.47154426574707, 0.12343499064445496, -0.3189612329006195, -0.4364280700683594, 0.088134765625, 0.287841796875, 0.818603515625, 
113, 2928225757, -0.13535255193710327, 0.7663392424583435, -0.6260973811149597, -0.049038417637348175, -2.34312105178833, -1.2296953201293945, -9.428348541259766, -0.15771964192390442, -0.09127632528543472, -0.3394526541233063, 0.088134765625, 0.287841796875, 0.813720703125, 
114, 2928234090, -0.13533252477645874, 0.7663449048995972, -0.6260957717895508, -0.0490264818072319, -2.433332681655884, -1.3089630603790283, -9.450614929199219, -0.205413356423378, -0.24918806552886963, -0.23307670652866364, 0.088623046875, 0.286865234375, 0.817626953125, 
115, 2928242423, -0.13531461358070374, 0.7663584351539612, -0.6260848045349121, -0.04900505766272545, -2.435478687286377, -1.3513437509536743, -9.451223373413086, -0.06855649501085281, -0.20528526604175568, -0.4374014735221863, 0.089599609375, 0.286376953125, 0.819580078125, 
116, 2928250756, -0.13530926406383514, 0.7663778066635132, -0.6260650157928467, -0.04896913841366768, -2.374328374862671, -1.3451207876205444, -9.479168891906738, 0.11841460317373276, -0.145757794380188, -0.5984125137329102, 0.087646484375, 0.285400390625, 0.819091796875, 
117, 2928259089, -0.13527661561965942, 0.7663953900337219, -0.626055121421814, -0.04890717938542366, -2.368499994277954, -1.3254152536392212, -9.505470275878906, 0.11633986979722977, 0.35355329513549805, -0.5270512700080872, 0.087646484375, 0.286376953125, 0.816650390625, 
118, 2928267422, -0.13524208962917328, 0.7664178609848022, -0.6260418891906738, -0.0488211065530777, -2.363063097000122, -1.3612288236618042, -9.515850067138672, 0.2422594428062439, 0.6472461819648743, -0.6295595169067383, 0.088623046875, 0.285888671875, 0.817138671875, 
119, 2928275755, -0.1352018415927887, 0.7664451599121094, -0.6260247230529785, -0.048725880682468414, -2.370816946029663, -1.3821653127670288, -9.51278018951416, 0.30073675513267517, 0.7613575458526611, -0.7429025769233704, 0.088623046875, 0.286865234375, 0.818603515625, 
120, 2928284088, -0.13517853617668152, 0.7664706110954285, -0.6260064244270325, -0.04862595349550247, -2.370023488998413, -1.383989691734314, -9.544081687927246, 0.47032853960990906, 0.6901499032974243, -0.7422364354133606, 0.087646484375, 0.289794921875, 0.818115234375, 
121, 2928292421, -0.1351374238729477, 0.7665163278579712, -0.6259672045707703, -0.04852510243654251, -2.314517021179199, -1.3542048931121826, -9.561820030212402, 0.29046541452407837, 0.8008802533149719, -1.145430088043213, 0.086181640625, 0.28564453125, 0.815185546875, 
122, 2928300754, -0.13510075211524963, 0.7665479779243469, -0.6259451508522034, -0.04841093719005585, -2.3161838054656982, -1.3981163501739502, -9.576447486877441, 0.43759357929229736, 0.9512358903884888, -0.8516348600387573, 0.089599609375, 0.287841796875, 0.818115234375, 
123, 2928309087, -0.13506430387496948, 0.7665731310844421, -0.6259304881095886, -0.04830339923501015, -2.377225399017334, -1.3451277017593384, -9.564308166503906, 0.4534488022327423, 0.8616372346878052, -0.7238966226577759, 0.088623046875, 0.287841796875, 0.818115234375, 
124, 2928317420, -0.13502821326255798, 0.7665928602218628, -0.6259225010871887, -0.04819400608539581, -2.3322203159332275, -1.3730454444885254, -9.57505989074707, 0.43336722254753113, 0.9149916768074036, -0.5933665633201599, 0.084716796875, 0.288818359375, 0.81396484375, 
125, 2928325753, -0.13499611616134644, 0.7666125297546387, -0.6259124279022217, -0.048103172332048416, -2.3297879695892334, -1.427049160003662, -9.585260391235352, 0.36815345287323, 0.6525483131408691, -0.6019729971885681, 0.087158203125, 0.290283203125, 0.816650390625, 
126, 2928334086, -0.13498887419700623, 0.7666319012641907, -0.6258960962295532, -0.04802829027175903, -2.3633852005004883, -1.4179939031600952, -9.56184196472168, 0.4369020462036133, 0.2873660922050476, -0.6319672465324402, 0.086669921875, 0.290771484375, 0.8154296875, 
127, 2928342419, -0.1350116729736328, 0.7666527628898621, -0.6258708238601685, -0.04795939102768898, -2.3573267459869385, -1.4624416828155518, -9.587441444396973, 0.745937705039978, -0.0789046511054039, -0.7665187120437622, 0.084228515625, 0.288818359375, 0.818359375, 
128, 2928350752, -0.13503137230873108, 0.7666732668876648, -0.6258447766304016, -0.04791592061519623, -2.3572838306427, -1.394675612449646, -9.5996732711792, 0.44051358103752136, -0.292885959148407, -0.7051213979721069, 0.085693359375, 0.286865234375, 0.819580078125, 
129, 2928359085, -0.1350274384021759, 0.7667044997215271, -0.6258088946342468, -0.04789365455508232, -2.3066632747650146, -1.358760952949524, -9.594823837280273, 0.03696134313941002, -0.3530025780200958, -0.8638272285461426, 0.088623046875, 0.289794921875, 0.816650390625, 
130, 2928367418, -0.13501740992069244, 0.7667324542999268, -0.6257787346839905, -0.04786882549524307, -2.3324778079986572, -1.4419702291488647, -9.594158172607422, -0.04975564777851105, -0.2367139458656311, -0.7585014700889587, 0.085693359375, 0.288818359375, 0.818359375, 
131, 2928375751, -0.13500654697418213, 0.7667645812034607, -0.6257444620132446, -0.047830626368522644, -2.3424344062805176, -1.4726630449295044, -9.622018814086914, 0.10040779411792755, -0.12134743481874466, -0.8794006705284119, 0.086181640625, 0.291259765625, 0.81689453125, 
132, 2928384084, -0.13500124216079712, 0.766806960105896, -0.6256970763206482, -0.047787975519895554, -2.4160516262054443, -1.457162857055664, -9.641803741455078, 0.11498229950666428, -0.11386807262897491, -1.1008613109588623, 0.087158203125, 0.289794921875, 0.817138671875, 
133, 2928392417, -0.13499103486537933, 0.7668476104736328, -0.6256536841392517, -0.04773163050413132, -2.405501127243042, -1.4771908521652222, -9.641889572143555, 0.24177277088165283, 0.052739713340997696, -1.0824449062347412, 0.083251953125, 0.288818359375, 0.81787109375, 
134, 2928400750, -0.134967640042305, 0.7668725252151489, -0.6256331205368042, -0.04766828939318657, -2.3802449703216553, -1.4236879348754883, -9.619315147399902, 0.15317311882972717, 0.3004293441772461, -0.6944146752357483, 0.087646484375, 0.288330078125, 0.818115234375, 
135, 2928409083, -0.134926900267601, 0.7668905258178711, -0.6256255507469177, -0.04759431257843971, -2.3908019065856934, -1.441233515739441, -9.6306734085083, 0.13622929155826569, 0.5529984831809998, -0.5214545726776123, 0.086669921875, 0.288330078125, 0.814697265625, 
136, 2928417416, -0.13489697873592377, 0.7668960690498352, -0.6256295442581177, -0.047537025064229965, -2.3949291706085205, -1.4489156007766724, -9.611861228942871, 0.08383540064096451, 0.3248653709888458, -0.253158301115036, 0.088134765625, 0.288330078125, 0.816650390625, 
137, 2928425749, -0.1348780393600464, 0.7669022679328918, -0.6256293654441833, -0.04749457910656929, -2.3843207359313965, -1.4483145475387573, -9.614794731140137, 0.1215907633304596, 0.03757608309388161, -0.2983674108982086, 0.087158203125, 0.291259765625, 0.819580078125, 
138, 2928434082, -0.13488201797008514, 0.7669095993041992, -0.6256203651428223, -0.04748399183154106, -2.3606173992156982, -1.4383718967437744, -9.604795455932617, 0.02791951783001423, -0.48235446214675903, -0.34006741642951965, 0.087158203125, 0.289306640625, 0.817138671875, 
139, 2928442415, -0.13489533960819244, 0.7669185996055603, -0.6256048679351807, -0.04750389978289604, -2.3902368545532227, -1.397629737854004, -9.591047286987305, -0.0898931547999382, -0.9227656126022339, -0.38996389508247375, 0.087158203125, 0.289794921875, 0.820068359375, 
140, 2928450748, -0.13492055237293243, 0.766930341720581, -0.6255819797515869, -0.04754228889942169, -2.4085195064544678, -1.4481860399246216, -9.58558177947998, -0.18676617741584778, -1.2039586305618286, -0.4472629427909851, 0.087158203125, 0.288818359375, 0.816162109375, 
141, 2928459081, -0.13494694232940674, 0.7669433355331421, -0.6255572438240051, -0.047585032880306244, -2.398019313812256, -1.4811606407165527, -9.585939407348633, -0.161049485206604, -1.2903298139572144, -0.48781031370162964, 0.088134765625, 0.288330078125, 0.820556640625, 
142, 2928467414, -0.13497483730316162, 0.766961932182312, -0.6255260109901428, -0.04761652275919914, -2.3979549407958984, -1.472298264503479, -9.579201698303223, -0.11760776489973068, -1.1657167673110962, -0.6088888645172119, 0.087646484375, 0.288818359375, 0.820068359375, 
143, 2928475747, -0.1349908709526062, 0.7669671177864075, -0.6255142092704773, -0.04764174297451973, -2.3661603927612305, -1.4962602853775024, -9.597098350524902, -0.09798724949359894, -0.998045802116394, -0.3096632957458496, 0.090576171875, 0.289306640625, 0.817626953125, 
144, 2928484080, -0.13500061631202698, 0.7669599056243896, -0.6255202889442444, -0.04765096306800842, -2.386066436767578, -1.492161750793457, -9.569744110107422, -0.04483771324157715, -0.7222060561180115, -0.024167029187083244, 0.086669921875, 0.286865234375, 0.816162109375, 
145, 2928492413, -0.13501892983913422, 0.7669574618339539, -0.6255194544792175, -0.04765048250555992, -2.385723114013672, -1.456454873085022, -9.54639720916748, 0.16954059898853302, -0.731785774230957, -0.17708401381969452, 0.088623046875, 0.286865234375, 0.817626953125, 
146, 2928500746, -0.13504862785339355, 0.7669522762298584, -0.6255199909210205, -0.04764378070831299, -2.3810527324676514, -1.4571771621704102, -9.543910026550293, 0.2954089939594269, -0.735346257686615, -0.1419925093650818, 0.088623046875, 0.288330078125, 0.819580078125, 
147, 2928509079, -0.1350630223751068, 0.7669426202774048, -0.6255297660827637, -0.04762842878699303, -2.3708529472351074, -1.382430076599121, -9.495593070983887, 0.27453336119651794, -0.5254632234573364, -0.03031444363296032, 0.089599609375, 0.288818359375, 0.819580078125, 
148, 2928517412, -0.13506363332271576, 0.7669292092323303, -0.6255486011505127, -0.04759526252746582, -2.356797456741333, -1.3725876808166504, -9.497780799865723, 0.24369381368160248, -0.17687907814979553, 0.0919807106256485, 0.087158203125, 0.291259765625, 0.818115234375, 
149, 2928525745, -0.1350482553243637, 0.7669192552566528, -0.6255667209625244, -0.04756364971399307, -2.389228582382202, -1.3811204433441162, -9.497457504272461, 0.10732365399599075, -0.08305416256189346, 0.051126014441251755, 0.084716796875, 0.288330078125, 0.81982421875, 
150, 2928534078, -0.13503523170948029, 0.7669112086296082, -0.6255813241004944, -0.04753665253520012, -2.4140777587890625, -1.3764431476593018, -9.504698753356934, 0.03329850360751152, -0.1294415295124054, 0.022156309336423874, 0.086181640625, 0.288818359375, 0.81640625, 
151, 2928542411, -0.1350269317626953, 0.7669121623039246, -0.6255818009376526, -0.04753851890563965, -2.428926944732666, -1.4198105335235596, -9.488998413085938, -0.1384577453136444, -0.5223382711410522, -0.17042429745197296, 0.090087890625, 0.290771484375, 0.818115234375, 
152, 2928550744, -0.1350332349538803, 0.7669246196746826, -0.6255634427070618, -0.04755953326821327, -2.385866641998291, -1.3656922578811646, -9.500870704650879, -0.2344086468219757, -0.8483562469482422, -0.4263361096382141, 0.086669921875, 0.28564453125, 0.815185546875, 
153, 2928559077, -0.13501842319965363, 0.7669433951377869, -0.6255414485931396, -0.04758772999048233, -2.3468477725982666, -1.3301068544387817, -9.503825187683105, -0.4810481369495392, -0.7747666239738464, -0.5098129510879517, 0.090576171875, 0.288330078125, 0.819580078125, 
154, 2928567410, -0.1349932998418808, 0.7669562101364136, -0.6255298852920532, -0.04760480672121048, -2.3242876529693604, -1.3454784154891968, -9.506056785583496, -0.5276148319244385, -0.5245923399925232, -0.34175795316696167, 0.084716796875, 0.287841796875, 0.8173828125, 
155, 2928575743, -0.13496316969394684, 0.7669669985771179, -0.6255228519439697, -0.047608520835638046, -2.3430066108703613, -1.371092677116394, -9.530190467834473, -0.40776580572128296, -0.3617626130580902, -0.31931987404823303, 0.088134765625, 0.287353515625, 0.820556640625, 
156, 2928584076, -0.13493451476097107, 0.7669785022735596, -0.6255156397819519, -0.047601617872714996, -2.341704845428467, -1.3960132598876953, -9.55465316772461, -0.35387346148490906, -0.23302549123764038, -0.3287202715873718, 0.084228515625, 0.288330078125, 0.8203125, 
157, 2928592409, -0.13491828739643097, 0.7669808268547058, -0.6255187392234802, -0.04756644740700722, -2.332628011703491, -1.3684675693511963, -9.564316749572754, 0.09643758833408356, -0.05795220285654068, -0.21973170340061188, 0.088623046875, 0.289794921875, 0.819091796875, 
158, 2928600742, -0.1349060982465744, 0.7669898271560669, -0.6255134344100952, -0.04752558842301369, -2.361088991165161, -1.4085450172424316, -9.575096130371094, 0.1163654699921608, -0.01635468751192093, -0.36263349652290344, 0.086669921875, 0.287841796875, 0.819091796875, 
159, 2928609075, -0.13490891456604004, 0.7670018672943115, -0.6255016326904297, -0.04747828096151352, -2.4078900814056396, -1.4266202449798584, -9.564895629882812, 0.37424957752227783, -0.1148926392197609, -0.49493104219436646, 0.088134765625, 0.290283203125, 0.817626953125, 
160, 2928617408, -0.13491426408290863, 0.7670198678970337, -0.6254825592041016, -0.047424133867025375, -2.4127755165100098, -1.3803627490997314, -9.58006763458252, 0.39120620489120483, -0.046707555651664734, -0.6201333999633789, 0.085205078125, 0.288330078125, 0.818359375, 
161, 2928625741, -0.13491199910640717, 0.767039954662323, -0.6254613399505615, -0.04738524556159973, -2.4012088775634766, -1.3781596422195435, -9.583049774169922, 0.22724948823451996, -0.17226853966712952, -0.6458244919776917, 0.085693359375, 0.288330078125, 0.819580078125, 
162, 2928634074, -0.13491418957710266, 0.7670484781265259, -0.6254535913467407, -0.047343138605356216, -2.400343894958496, -1.3841681480407715, -9.568201065063477, 0.2778119742870331, -0.13003066182136536, -0.39457446336746216, 0.088134765625, 0.287841796875, 0.819580078125, 
163, 2928642407, -0.1349254995584488, 0.767048180103302, -0.6254531741142273, -0.04732174053788185, -2.3968889713287354, -1.3453282117843628, -9.556062698364258, 0.27235615253448486, -0.44949138164520264, -0.22462403774261475, 0.087646484375, 0.288818359375, 0.818603515625, 
164, 2928650740, -0.1349199265241623, 0.7670519948005676, -0.6254492998123169, -0.04732636362314224, -2.3763961791992188, -1.3010520935058594, -9.60915756225586, -0.19409187138080597, -0.5534083247184753, -0.22254927456378937, 0.085205078125, 0.287841796875, 0.8173828125, 
165, 2928659073, -0.13489075005054474, 0.767065703868866, -0.6254370212554932, -0.047352056950330734, -2.3267483711242676, -1.312181830406189, -9.574258804321289, -0.5941862463951111, -0.6088375449180603, -0.35912442207336426, 0.085205078125, 0.285888671875, 0.817626953125, 
166, 2928667406, -0.13488496840000153, 0.7670796513557434, -0.6254184246063232, -0.04738568887114525, -2.3422555923461914, -1.3620514869689941, -9.58551025390625, -0.47397851943969727, -0.8771978616714478, -0.41045525670051575, 0.086181640625, 0.287841796875, 0.817138671875, 
167, 2928675739, -0.13488371670246124, 0.7670916318893433, -0.6254010200500488, -0.047426506876945496, -2.394228458404541, -1.4154971837997437, -9.605281829833984, -0.42835962772369385, -1.0206120014190674, -0.3868646025657654, 0.087158203125, 0.288818359375, 0.819091796875, 
168, 2928684072, -0.1349298357963562, 0.7671090364456177, -0.6253692507743835, -0.04743334650993347, -2.395136594772339, -1.4290450811386108, -9.553823471069336, 0.2887492775917053, -1.0635414123535156, -0.6627812385559082, 0.087646484375, 0.292236328125, 0.818115234375, 
169, 2928692405, -0.1350661814212799, 0.767108678817749, -0.6253474354743958, -0.047336019575595856, -2.3561089038848877, -1.5037516355514526, -9.555546760559082, 2.229719400405884, -0.7622668147087097, -0.6759725213050842, 0.088623046875, 0.292236328125, 0.817626953125, 
170, 2928700738, -0.1351512372493744, 0.7671087980270386, -0.6253350973129272, -0.0472562313079834, -2.404456853866577, -1.4965678453445435, -9.596818923950195, 1.4894932508468628, -0.4617862105369568, -0.49446994066238403, 0.086669921875, 0.289794921875, 0.817138671875, 
171, 2928709071, -0.1351873129606247, 0.7671124935150146, -0.6253266334533691, -0.04720088094472885, -2.3894360065460205, -1.3002794981002808, -9.628206253051758, 0.8115102052688599, -0.31524717807769775, -0.4254396855831146, 0.088623046875, 0.288330078125, 0.816650390625, 
172, 2928717404, -0.13521531224250793, 0.767122745513916, -0.625312089920044, -0.04714925214648247, -2.3682987689971924, -1.4940358400344849, -9.554251670837402, 0.6269852519035339, -0.26294293999671936, -0.5151919722557068, 0.088134765625, 0.289306640625, 0.817626953125, 
173, 2928725737, -0.13520723581314087, 0.7671250104904175, -0.6253145337104797, -0.04710308089852333, -2.4709348678588867, -1.4482216835021973, -9.561406135559082, 0.2761470675468445, -0.014433620497584343, -0.2518519461154938, 0.087158203125, 0.289306640625, 0.817626953125, 
174, 2928734070, -0.13520373404026031, 0.767146110534668, -0.6252915859222412, -0.047074899077415466, -2.409893035888672, -1.407844066619873, -9.574724197387695, 0.066340871155262, -0.24872702360153198, -0.6350665092468262, 0.086669921875, 0.288818359375, 0.817626953125, 
175, 2928742403, -0.13519801199436188, 0.7671607136726379, -0.6252740025520325, -0.047086555510759354, -2.399685859680176, -1.4111915826797485, -9.566899299621582, -0.2306434065103531, -0.6730268001556396, -0.4638098180294037, 0.087646484375, 0.288330078125, 0.817138671875, 
176, 2928750736, -0.1351858228445053, 0.7671632766723633, -0.6252725124359131, -0.04709943011403084, -2.3453099727630615, -1.4395886659622192, -9.5643949508667, -0.33148661255836487, -0.5797397494316101, -0.1659674346446991, 0.085693359375, 0.288330078125, 0.81591796875, 
177, 2928759069, -0.1351783722639084, 0.7671666145324707, -0.6252678036689758, -0.04712868854403496, -2.362734317779541, -1.4676918983459473, -9.601625442504883, -0.37154728174209595, -0.8267378211021423, -0.19760100543498993, 0.085693359375, 0.29296875, 0.81982421875, 
178, 2928767402, -0.13520319759845734, 0.7671692371368408, -0.6252598762512207, -0.04712057113647461, -2.2823503017425537, -1.413924217224121, -9.572054862976074, 0.2367011159658432, -0.6875500679016113, -0.29621580243110657, 0.086181640625, 0.288818359375, 0.81494140625, 
179, 2928775735, -0.13521568477153778, 0.7671591639518738, -0.625267505645752, -0.047147635370492935, -2.3272628784179688, -1.404632329940796, -9.563592910766602, -0.10912944376468658, -0.9620577692985535, 0.031095679849386215, 0.087158203125, 0.288818359375, 0.816650390625, 
180, 2928784068, -0.13522611558437347, 0.7671512961387634, -0.6252743005752563, -0.04715518280863762, -2.339430332183838, -1.4689149856567383, -9.562700271606445, -0.02168244682252407, -0.7089635729789734, -0.01358835119754076, 0.087158203125, 0.287353515625, 0.818115234375, 
181, 2928792401, -0.13523168861865997, 0.7671546339988708, -0.6252691149711609, -0.04715456813573837, -2.339630603790283, -1.4778846502304077, -9.569245338439941, 0.022847894579172134, -0.6244622468948364, -0.2648639976978302, 0.086181640625, 0.288818359375, 0.8154296875, 
182, 2928800734, -0.13524974882602692, 0.7671488523483276, -0.6252749562263489, -0.04711991548538208, -2.351604461669922, -1.4572272300720215, -9.54399585723877, 0.4180755317211151, -0.3302827477455139, -0.12408814579248428, 0.085205078125, 0.288818359375, 0.8173828125, 
183, 2928809067, -0.1352502703666687, 0.7671372890472412, -0.6252924203872681, -0.04707244783639908, -2.341132640838623, -1.4442663192749023, -9.554073333740234, 0.4139004349708557, -0.05562131479382515, 0.01562468335032463, 0.088134765625, 0.292236328125, 0.816650390625, 
184, 2928817400, -0.13525301218032837, 0.767137348651886, -0.6252973079681396, -0.04699772596359253, -2.4046430587768555, -1.519314169883728, -9.534353256225586, 0.5889480710029602, 0.2277105301618576, -0.2492648959159851, 0.086181640625, 0.289306640625, 0.81787109375, 
185, 2928825733, -0.13525643944740295, 0.7671339511871338, -0.6253056526184082, -0.04693247750401497, -2.370495080947876, -1.4116493463516235, -9.533860206604004, 0.5762434005737305, 0.09566916525363922, -0.18382054567337036, 0.084716796875, 0.286376953125, 0.81689453125, 
186, 2928834066, -0.1352366954088211, 0.767119824886322, -0.625331461429596, -0.04687722027301788, -2.352433919906616, -1.3463149070739746, -9.53242301940918, 0.22509784996509552, 0.2436169683933258, 0.14446428418159485, 0.084716796875, 0.289306640625, 0.81591796875, 
187, 2928842399, -0.13520210981369019, 0.767106831073761, -0.6253564953804016, -0.04685872420668602, -2.3538007736206055, -1.378889560699463, -9.508102416992188, -0.19780592620372772, -0.04463279992341995, 0.186471626162529, 0.086181640625, 0.290771484375, 0.81396484375, 
188, 2928850732, -0.13517722487449646, 0.7670959830284119, -0.6253750324249268, -0.046858977526426315, -2.344337224960327, -1.4502675533294678, -9.523187637329102, -0.31888440251350403, -0.3096376657485962, 0.1450534164905548, 0.089111328125, 0.289306640625, 0.814697265625, 
189, 2928859065, -0.13516558706760406, 0.7670848965644836, -0.6253900527954102, -0.04687289148569107, -2.3436789512634277, -1.4692082405090332, -9.538802146911621, -0.2434249073266983, -0.6013326644897461, 0.11003876477479935, 0.086669921875, 0.291748046875, 0.81591796875, 
190, 2928867398, -0.1351507604122162, 0.7670687437057495, -0.625413179397583, -0.04687211662530899, -2.3132364749908447, -1.4478572607040405, -9.526700019836426, -0.19124867022037506, -0.37982067465782166, 0.230861097574234, 0.084716796875, 0.287841796875, 0.81640625, 
191, 2928875731, -0.1351437121629715, 0.7670570611953735, -0.6254308223724365, -0.046847324818372726, -2.3323991298675537, -1.4522345066070557, -9.525476455688477, 0.13934144377708435, -0.2281331717967987, 0.06780087202787399, 0.087646484375, 0.289794921875, 0.818115234375, 
192, 2928884064, -0.13514213263988495, 0.7670525908470154, -0.625439465045929, -0.04680723696947098, -2.3439223766326904, -1.450911283493042, -9.522236824035645, 0.2560911178588867, -0.09939603507518768, -0.10390414297580719, 0.085693359375, 0.289306640625, 0.8173828125, 
193, 2928892397, -0.1351422667503357, 0.7670425772666931, -0.6254560947418213, -0.04674924537539482, -2.3435144424438477, -1.4557539224624634, -9.532001495361328, 0.4975052773952484, 0.05883589759469032, -0.0226557869464159, 0.086669921875, 0.291259765625, 0.81591796875, 
194, 2928900730, -0.13514350354671478, 0.7670329213142395, -0.6254733204841614, -0.04667392745614052, -2.347377061843872, -1.4711538553237915, -9.533659934997559, 0.6036763191223145, 0.2628789246082306, -0.03702538087964058, 0.085205078125, 0.290771484375, 0.81787109375, 
195, 2928909063, -0.13513381779193878, 0.7670295834541321, -0.6254850029945374, -0.04660136252641678, -2.359872817993164, -1.4038382768630981, -9.513745307922363, 0.5041393637657166, 0.29115697741508484, -0.15321151912212372, 0.087646484375, 0.289306640625, 0.817138671875, 
196, 2928917396, -0.13510450720787048, 0.7670295834541321, -0.625495970249176, -0.04653919115662575, -2.3170132637023926, -1.3640543222427368, -9.51308822631836, 0.14625726640224457, 0.38149839639663696, -0.14183881878852844, 0.085693359375, 0.291259765625, 0.8154296875, 
197, 2928925729, -0.13503879308700562, 0.7670289874076843, -0.6255137324333191, -0.04650230333209038, -2.3131721019744873, -1.3502206802368164, -9.522086143493652, -0.3965980112552643, 0.41028881072998047, -0.010386571288108826, 0.085205078125, 0.290283203125, 0.818359375, 
198, 2928934062, -0.13496874272823334, 0.7670270800590515, -0.6255334615707397, -0.046471234411001205, -2.276921510696411, -1.366064429283142, -9.559209823608398, -0.5399608612060547, 0.41738393902778625, 0.052201807498931885, 0.084716796875, 0.290771484375, 0.81787109375, 
199, 2928942395, -0.1348848193883896, 0.7670292854309082, -0.625549852848053, -0.04645716771483421, -2.32926607131958, -1.310644268989563, -9.565913200378418, -0.7901864051818848, 0.3258899450302124, 0.004815476946532726, 0.082763671875, 0.291259765625, 0.8193359375, 
200, 2928950728, -0.13482148945331573, 0.7670313119888306, -0.6255620121955872, -0.04644479230046272, -2.390744686126709, -1.3012666702270508, -9.597763061523438, -0.6438522338867188, 0.1520717293024063, -0.0336955264210701, 0.085205078125, 0.291259765625, 0.81591796875, 
201, 2928959061, -0.1347646266222, 0.7670316696166992, -0.6255742907524109, -0.04643874242901802, -2.3876190185546875, -1.3168811798095703, -9.619227409362793, -0.5729263424873352, -0.002061945851892233, -0.025191599503159523, 0.084716796875, 0.289306640625, 0.8154296875, 
202, 2928967394, -0.13473016023635864, 0.767038881778717, -0.6255729794502258, -0.04643794894218445, -2.4344842433929443, -1.325600504875183, -9.619638442993164, -0.4566633701324463, -0.23999257385730743, -0.21542851626873016, 0.085693359375, 0.290283203125, 0.81494140625, 
203, 2928975727, -0.13471466302871704, 0.7670533061027527, -0.6255598664283752, -0.046422991901636124, -2.4928228855133057, -1.4146678447723389, -9.62282657623291, -0.1010865792632103, -0.3007495403289795, -0.4566633701324463, 0.084228515625, 0.289306640625, 0.81689453125, 
204, 2928984060, -0.13471849262714386, 0.7670741677284241, -0.6255346536636353, -0.046404894441366196, -2.481442928314209, -1.4597307443618774, -9.62151050567627, 0.056351322680711746, -0.42390280961990356, -0.6414957642555237, 0.085693359375, 0.290283203125, 0.81689453125, 
205, 2928992393, -0.13474325835704803, 0.7670808434486389, -0.625524640083313, -0.04635806754231453, -2.454390287399292, -1.4912461042404175, -9.61088752746582, 0.6139732003211975, -0.3090229332447052, -0.44301098585128784, 0.087646484375, 0.289794921875, 0.816650390625, 
206, 2929000726, -0.1347728669643402, 0.7670847177505493, -0.6255185008049011, -0.046289317309856415, -2.4005727767944336, -1.529006004333496, -9.604050636291504, 0.8071558475494385, -0.08664015680551529, -0.40453845262527466, 0.084228515625, 0.292236328125, 0.81787109375, 
207, 2929009059, -0.13479380309581757, 0.7670783400535583, -0.6255261301994324, -0.04623284190893173, -2.3620262145996094, -1.434838891029358, -9.59380054473877, 0.6913281679153442, -0.1494462490081787, -0.16158738732337952, 0.084228515625, 0.291748046875, 0.8173828125, 
208, 2929017392, -0.13479414582252502, 0.7670731544494629, -0.6255344748497009, -0.04620479419827461, -2.3159685134887695, -1.3539044857025146, -9.558385848999023, 0.1732034534215927, -0.24332241714000702, -0.08031343668699265, 0.085205078125, 0.289794921875, 0.81689453125, 
209, 2929025725, -0.1347912847995758, 0.7670714259147644, -0.6255384683609009, -0.04618668928742409, -2.3030009269714355, -1.3873440027236938, -9.55277156829834, 0.10007481276988983, -0.3545394241809845, -0.1521613597869873, 0.086181640625, 0.292724609375, 0.818359375, 
210, 2929034058, -0.1347808688879013, 0.7670685052871704, -0.6255443096160889, -0.04618857428431511, -2.224520206451416, -1.3017386198043823, -9.527573585510254, -0.20285190641880035, -0.4691886901855469, -0.06361294537782669, 0.084228515625, 0.289794921875, 0.81591796875, 
211, 2929042391, -0.13474592566490173, 0.7670736312866211, -0.6255450248718262, -0.04619363322854042, -2.202038526535034, -1.312181830406189, -9.512544631958008, -0.4528212249279022, -0.3237767219543457, -0.18412794172763824, 0.088134765625, 0.291748046875, 0.818115234375, 
212, 2929050724, -0.13469696044921875, 0.767083466053009, -0.6255432367324829, -0.04619656130671501, -2.250720500946045, -1.2890712022781372, -9.481781005859375, -0.6462599635124207, -0.1550045609474182, -0.2263401746749878, 0.084716796875, 0.289794921875, 0.818359375, 
213, 2929059057, -0.1346338987350464, 0.7670939564704895, -0.6255448460578918, -0.04618631303310394, -2.2952756881713867, -1.3091633319854736, -9.486050605773926, -0.6268956065177917, 0.08383539319038391, -0.23102757334709167, 0.086181640625, 0.288818359375, 0.818603515625, 
214, 2929067390, -0.13459870219230652, 0.7671051621437073, -0.6255397200584412, -0.04617071524262428, -2.3834846019744873, -1.3863139152526855, -9.479283332824707, -0.34621483087539673, -0.08305417001247406, -0.31578510999679565, 0.086669921875, 0.293701171875, 0.8154296875, 
215, 2929075723, -0.13456065952777863, 0.7671217322349548, -0.6255300641059875, -0.04613800346851349, -2.419813871383667, -1.4059127569198608, -9.482831001281738, -0.18645881116390228, 0.08744699507951736, -0.45853322744369507, 0.085205078125, 0.291259765625, 0.8154296875, 
216, 2929084056, -0.13454669713974, 0.7671301364898682, -0.6255277395248413, -0.04607177898287773, -2.4624598026275635, -1.4971976280212402, -9.49637222290039, 0.31951192021369934, 0.2725866734981537, -0.37131673097610474, 0.085693359375, 0.291748046875, 0.818359375, 
217, 2929092389, -0.1345241516828537, 0.7671365737915039, -0.625531792640686, -0.04597209393978119, -2.4758636951446533, -1.5334265232086182, -9.5086030960083, 0.57970130443573, 0.6806214451789856, -0.3612247109413147, 0.084716796875, 0.290771484375, 0.8173828125, 
218, 2929100722, -0.1345183551311493, 0.767137885093689, -0.6255403757095337, -0.04585092514753342, -2.478410005569458, -1.5651493072509766, -9.560311317443848, 0.8975738286972046, 0.797012448310852, -0.30215829610824585, 0.086669921875, 0.292724609375, 0.81640625, 
219, 2929109055, -0.13453255593776703, 0.7671346664428711, -0.6255509853363037, -0.04571825638413429, -2.4547626972198486, -1.4998939037322998, -9.555554389953613, 1.273232340812683, 0.71873539686203, -0.2933982312679291, 0.086669921875, 0.290771484375, 0.81787109375, 
220, 2929117388, -0.13454745709896088, 0.7671371102333069, -0.6255537867546082, -0.04559744521975517, -2.3507320880889893, -1.4210554361343384, -9.562878608703613, 1.1075081825256348, 0.6056997776031494, -0.3833042085170746, 0.084228515625, 0.292724609375, 0.81640625, 
221, 2929125721, -0.13455721735954285, 0.7671404480934143, -0.6255565881729126, -0.04547259584069252, -2.2390329837799072, -1.3995180130004883, -9.564208984375, 1.1409348249435425, 0.6646894216537476, -0.4156550168991089, 0.084228515625, 0.292724609375, 0.81689453125, 
222, 2929134054, -0.13455860316753387, 0.7671358585357666, -0.6255706548690796, -0.045351527631282806, -2.1926324367523193, -1.3640257120132446, -9.545884132385254, 0.9873262643814087, 0.7409685254096985, -0.19657644629478455, 0.085205078125, 0.290283203125, 0.8173828125, 
223, 2929142387, -0.13451966643333435, 0.767133355140686, -0.6255887746810913, -0.04526058956980705, -2.2250421047210693, -1.353267788887024, -9.567549705505371, 0.3565245270729065, 0.7491907477378845, -0.1105126142501831, 0.083740234375, 0.292236328125, 0.81640625, 
224, 2929150720, -0.13446815311908722, 0.7671332359313965, -0.6256052255630493, -0.04518817737698555, -2.2358710765838623, -1.4398671388626099, -9.572662353515625, 0.004636176396161318, 0.6909695267677307, -0.08651207387447357, 0.083251953125, 0.292724609375, 0.81689453125, 
225, 2929159053, -0.13440947234630585, 0.7671464681625366, -0.6256048679351807, -0.045143011957407, -2.252709150314331, -1.30241060256958, -9.561532974243164, -0.2862262725830078, 0.4116975963115692, -0.3423214256763458, 0.080810546875, 0.290771484375, 0.82080078125, 
226, 2929167386, -0.13433124125003815, 0.767158567905426, -0.625609278678894, -0.04510827362537384, -2.2376885414123535, -1.4680204391479492, -9.552613258361816, -0.6315317153930664, 0.5073667168617249, -0.23312793672084808, 0.082763671875, 0.290283203125, 0.81640625, 
227, 2929175719, -0.13426092267036438, 0.7671644687652588, -0.6256199479103088, -0.04506813734769821, -2.313250780105591, -1.5141781568527222, -9.592713356018066, -0.43309831619262695, 0.474273145198822, -0.14711536467075348, 0.082275390625, 0.289794921875, 0.81787109375, 
228, 2929184052, -0.13421155512332916, 0.7671905755996704, -0.6256020069122314, -0.04502018168568611, -2.2672009468078613, -1.344233751296997, -9.608485221862793, -0.2522873878479004, 0.36682143807411194, -0.6322745680809021, 0.085205078125, 0.291259765625, 0.81591796875, 
229, 2929192385, -0.13417181372642517, 0.7672278881072998, -0.6255689859390259, -0.04496326670050621, -2.2778513431549072, -1.445146083831787, -9.619407653808594, -0.04955073818564415, 0.3269144892692566, -0.9280165433883667, 0.085205078125, 0.291748046875, 0.81787109375, 
230, 2929200718, -0.13414566218852997, 0.7672680020332336, -0.6255307793617249, -0.044887740164995193, -2.2469005584716797, -1.3859916925430298, -9.619501113891602, 0.18980146944522858, 0.42983245849609375, -1.0318310260772705, 0.081787109375, 0.296142578125, 0.816650390625, 
231, 2929209051, -0.1341211497783661, 0.7673162221908569, -0.6254816651344299, -0.04482061788439751, -2.265735149383545, -1.3973511457443237, -9.607677459716797, 0.16738903522491455, 0.2801685333251953, -1.2184563875198364, 0.086181640625, 0.290771484375, 0.820556640625, 
232, 2929217384, -0.1341053992509842, 0.7673640251159668, -0.6254294514656067, -0.044777482748031616, -2.2565577030181885, -1.385069489479065, -9.609014511108398, 0.0002561423752922565, -0.02403895929455757, -1.1922787427902222, 0.085205078125, 0.293212890625, 0.81494140625, 
233, 2929225717, -0.1340535432100296, 0.7674057483673096, -0.6253925561904907, -0.044731851667165756, -2.2453560829162598, -1.3448270559310913, -9.62844181060791, -0.28489431738853455, 0.30760133266448975, -0.9773750901222229, 0.082275390625, 0.293212890625, 0.81787109375, 
234, 2929234050, -0.133985698223114, 0.7674406170845032, -0.6253671050071716, -0.04469267651438713, -2.3054540157318115, -1.3340842723846436, -9.61098861694336, -0.5452374815940857, 0.4243766665458679, -0.7597823143005371, 0.083251953125, 0.292236328125, 0.81689453125, 
235, 2929242383, -0.13390770554542542, 0.7674832940101624, -0.6253329515457153, -0.04467262327671051, -2.373692274093628, -1.3403784036636353, -9.589251518249512, -0.7813494205474854, 0.2663367986679077, -0.8946667313575745, 0.082763671875, 0.292724609375, 0.8154296875, 
236, 2929250716, -0.13383015990257263, 0.7675379514694214, -0.6252840757369995, -0.04464896023273468, -2.3083441257476807, -1.3168312311172485, -9.603950500488281, -0.8306311368942261, 0.3134414255619049, -1.1422539949417114, 0.081298828125, 0.294189453125, 0.815185546875, 
237, 2929259049, -0.1337527483701706, 0.7676022052764893, -0.6252217888832092, -0.04464898258447647, -2.3071138858795166, -1.2831840515136719, -9.598271369934082, -1.0036553144454956, 0.010988506488502026, -1.3408154249191284, 0.081787109375, 0.294189453125, 0.817138671875, 
238, 2929267382, -0.13369081914424896, 0.7676728367805481, -0.6251466274261475, -0.0446736142039299, -2.3230690956115723, -1.3192553520202637, -9.600717544555664, -1.126757264137268, -0.36985671520233154, -1.475853681564331, 0.082763671875, 0.291748046875, 0.81884765625, 
239, 2929275715, -0.13363739848136902, 0.767742395401001, -0.625071108341217, -0.04469670355319977, -2.31095814704895, -1.3783011436462402, -9.605321884155273, -0.9660793542861938, -0.45830270648002625, -1.4993165731430054, 0.085205078125, 0.293701171875, 0.81591796875, 
240, 2929284048, -0.13359305262565613, 0.7677953243255615, -0.6250138878822327, -0.044718507677316666, -2.3474841117858887, -1.452978253364563, -9.598142623901367, -0.8742266297340393, -0.4697522521018982, -1.1503480672836304, 0.081787109375, 0.293212890625, 0.819580078125, 
241, 2929292381, -0.13356013596057892, 0.7678343653678894, -0.624972939491272, -0.044719599187374115, -2.4329464435577393, -1.488342046737671, -9.617948532104492, -0.48289239406585693, -0.3573057949542999, -0.9243537187576294, 0.083740234375, 0.292236328125, 0.81884765625, 
242, 2929300714, -0.13355205953121185, 0.7678659558296204, -0.6249369978904724, -0.0447019599378109, -2.425414562225342, -1.5244497060775757, -9.620094299316406, -0.09939604252576828, -0.33794140815734863, -0.8381105661392212, 0.081787109375, 0.288818359375, 0.8193359375, 
243, 2929309047, -0.13353358209133148, 0.7678859829902649, -0.6249179244041443, -0.04467903822660446, -2.4428603649139404, -1.5316239595413208, -9.632089614868164, -0.07588217407464981, -0.20077717304229736, -0.5824804902076721, 0.085693359375, 0.290771484375, 0.81640625, 
244, 2929317380, -0.13352644443511963, 0.7678985595703125, -0.6249057054519653, -0.04465683177113533, -2.4624876976013184, -1.5657787322998047, -9.618477821350098, -0.000448249134933576, -0.2659398317337036, -0.43381547927856445, 0.082275390625, 0.294677734375, 0.816162109375, 
245, 2929325713, -0.13351939618587494, 0.7679042220115662, -0.6249009966850281, -0.04464326798915863, -2.4473023414611816, -1.5102012157440186, -9.596383094787598, -0.0027279157657176256, -0.377848356962204, -0.2981624901294708, 0.084716796875, 0.293212890625, 0.8193359375, 
246, 2929334046, -0.133534774184227, 0.767909824848175, -0.6248916387557983, -0.04463212937116623, -2.4631099700927734, -1.5522316694259644, -9.571763038635254, 0.1581166833639145, -0.5761794447898865, -0.33686563372612, 0.081787109375, 0.291259765625, 0.81640625, 
247, 2929342379, -0.13356022536754608, 0.7679166793823242, -0.6248791217803955, -0.04461292549967766, -2.3979907035827637, -1.587873935699463, -9.537958145141602, 0.38283035159111023, -0.6118600368499756, -0.42029115557670593, 0.083251953125, 0.290283203125, 0.8173828125, 
248, 2929350712, -0.1336139291524887, 0.7679109573364258, -0.6248763203620911, -0.04458992928266525, -2.34568190574646, -1.5681105852127075, -9.528580665588379, 0.6873835921287537, -0.7740237712860107, -0.21435272693634033, 0.085693359375, 0.29296875, 0.81982421875, 
249, 2929359045, -0.13365162909030914, 0.7679029703140259, -0.6248794794082642, -0.044569455087184906, -2.3485219478607178, -1.5391343832015991, -9.519683837890625, 0.559056282043457, -0.6833493113517761, -0.1376124769449234, 0.083740234375, 0.290771484375, 0.8173828125, 
250, 2929367378, -0.13368257880210876, 0.7678974270820618, -0.6248812079429626, -0.04454854875802994, -2.300046682357788, -1.5238630771636963, -9.500005722045898, 0.4332391917705536, -0.5933666229248047, -0.1499585509300232, 0.081298828125, 0.293701171875, 0.820556640625, 
251, 2929375711, -0.13371476531028748, 0.7678900957107544, -0.6248836517333984, -0.04454455524682999, -2.3002185821533203, -1.4953447580337524, -9.499234199523926, 0.3565245270729065, -0.8109338283538818, -0.11694179475307465, 0.084716796875, 0.291748046875, 0.81884765625, 
252, 2929384044, -0.13374260067939758, 0.7678846716880798, -0.624884843826294, -0.04453856870532036, -2.276749849319458, -1.506524682044983, -9.490656852722168, 0.2707936465740204, -0.7244089841842651, -0.1285962611436844, 0.086181640625, 0.289794921875, 0.818359375, 
253, 2929392377, -0.13377037644386292, 0.7678701281547546, -0.624898374080658, -0.04451682046055794, -2.2560853958129883, -1.4762609004974365, -9.476465225219727, 0.484134703874588, -0.5690330266952515, 0.03542448952794075, 0.07958984375, 0.295166015625, 0.818115234375, 
254, 2929400710, -0.1337958723306656, 0.7678484320640564, -0.6249229311943054, -0.04447199031710625, -2.25024151802063, -1.4100255966186523, -9.463125228881836, 0.6233223676681519, -0.26186710596084595, 0.18734250962734222, 0.082763671875, 0.293212890625, 0.81689453125, 
255, 2929409043, -0.1337875872850418, 0.7678195834159851, -0.6249645352363586, -0.04440739005804062, -2.2715001106262207, -1.3846259117126465, -9.477946281433105, 0.513386070728302, 0.23590707778930664, 0.39673885703086853, 0.083740234375, 0.291748046875, 0.8193359375, 
256, 2929417376, -0.1337697058916092, 0.7677966356277466, -0.6250011920928955, -0.044341981410980225, -2.27295184135437, -1.3294062614440918, -9.506585121154785, 0.3523494303226471, 0.3512992262840271, 0.31418418884277344, 0.082275390625, 0.291748046875, 0.81689453125, 
257, 2929425709, -0.13370898365974426, 0.7677786350250244, -0.6250407695770264, -0.0442812517285347, -2.2340404987335205, -1.2938846349716187, -9.532251358032227, -0.09373529255390167, 0.6488597393035889, 0.32004985213279724, 0.084228515625, 0.290771484375, 0.818359375, 
258, 2929434042, -0.13363893330097198, 0.7677664756774902, -0.6250759959220886, -0.044205836951732635, -2.239612102508545, -1.3411509990692139, -9.536561965942383, -0.13256646692752838, 0.9084855914115906, 0.22084592282772064, 0.083251953125, 0.289306640625, 0.81689453125, 
259, 2929442375, -0.13355091214179993, 0.7677711844444275, -0.6250948905944824, -0.04412092640995979, -2.242673873901367, -1.316609501838684, -9.539917945861816, -0.2294907569885254, 1.1132203340530396, -0.12175727635622025, 0.080322265625, 0.293212890625, 0.816650390625, 
260, 2929450708, -0.13346216082572937, 0.7677861452102661, -0.6251015663146973, -0.04403500631451607, -2.266035318374634, -1.2996217012405396, -9.552665710449219, -0.3070506155490875, 1.1444696187973022, -0.32216304540634155, 0.081787109375, 0.293701171875, 0.819091796875, 
261, 2929459041, -0.13336090743541718, 0.7677916884422302, -0.6251218914985657, -0.04395749792456627, -2.2240476608276367, -1.2890138626098633, -9.574166297912598, -0.4315358102321625, 1.1521538496017456, -0.09073842316865921, 0.082275390625, 0.291259765625, 0.81787109375, 
262, 2929467374, -0.13326162099838257, 0.7678003907203674, -0.6251364946365356, -0.04389979690313339, -2.2565863132476807, -1.3191633224487305, -9.577665328979492, -0.6440571546554565, 0.9476242065429688, -0.12552255392074585, 0.08203125, 0.294189453125, 0.820556640625, 
263, 2929475707, -0.1331760287284851, 0.7678186893463135, -0.6251363754272461, -0.04383881017565727, -2.279052734375, -1.4521913528442383, -9.596932411193848, -0.4447783827781677, 0.8135337233543396, -0.3980836570262909, 0.082763671875, 0.294189453125, 0.814697265625, 
264, 2929484040, -0.13309669494628906, 0.7678436040878296, -0.6251250505447388, -0.04380609095096588, -2.2843966484069824, -1.3964132070541382, -9.616474151611328, -0.6941841840744019, 0.47347918152809143, -0.5059452056884766, 0.081787109375, 0.293701171875, 0.818603515625, 
265, 2929492373, -0.1330248862504959, 0.7678655982017517, -0.6251161694526672, -0.04376625269651413, -2.2959837913513184, -1.4518274068832397, -9.607090950012207, -0.49080708622932434, 0.45736777782440186, -0.49106329679489136, 0.081787109375, 0.293701171875, 0.819091796875, 
266, 2929500706, -0.13297633826732635, 0.7678834199905396, -0.6251080632209778, -0.043715015053749084, -2.3040881156921387, -1.4025938510894775, -9.629471778869629, -0.1958848536014557, 0.40795788168907166, -0.46291324496269226, 0.08203125, 0.29638671875, 0.818603515625, 
267, 2929509039, -0.13292951881885529, 0.7678981423377991, -0.6251040101051331, -0.04365607351064682, -2.3162407875061035, -1.4555104970932007, -9.638097763061523, -0.04852616414427757, 0.44876137375831604, -0.42720699310302734, 0.082763671875, 0.291259765625, 0.81787109375, 
268, 2929517372, -0.13289384543895721, 0.7679171562194824, -0.6250929832458496, -0.04359162971377373, -2.3352744579315186, -1.403137445449829, -9.663691520690918, 0.05125408619642258, 0.4301398992538452, -0.5361443758010864, 0.082275390625, 0.292236328125, 0.81787109375, 
269, 2929525705, -0.13286902010440826, 0.7679314613342285, -0.6250854134559631, -0.04351991042494774, -2.3177216053009033, -1.4098541736602783, -9.648734092712402, 0.29376962780952454, 0.38838863372802734, -0.49756932258605957, 0.080810546875, 0.292724609375, 0.819091796875, 
270, 2929534038, -0.13285599648952484, 0.7679433226585388, -0.6250784993171692, -0.04345184937119484, -2.312922716140747, -1.4002623558044434, -9.643970489501953, 0.33610999584198, 0.2778375744819641, -0.4520784318447113, 0.079833984375, 0.291259765625, 0.819580078125, 
271, 2929542371, -0.13284191489219666, 0.7679439783096313, -0.6250853538513184, -0.04337945207953453, -2.2929797172546387, -1.4423993825912476, -9.667696952819824, 0.4463280141353607, 0.32153546810150146, -0.23563814163208008, 0.080322265625, 0.292236328125, 0.818115234375, 
272, 2929550704, -0.13282835483551025, 0.7679372429847717, -0.6251025795936584, -0.04329642653465271, -2.272637128829956, -1.439509630203247, -9.625008583068848, 0.5075204372406006, 0.4722496271133423, -0.06348488479852676, 0.07763671875, 0.294677734375, 0.818603515625, 
273, 2929559037, -0.13281165063381195, 0.7679396867752075, -0.6251077651977539, -0.043229084461927414, -2.2780230045318604, -1.4474421739578247, -9.612290382385254, 0.37079164385795593, 0.28887733817100525, -0.256052702665329, 0.081787109375, 0.292724609375, 0.816650390625, 
274, 2929567370, -0.13280275464057922, 0.7679435014724731, -0.6251082420349121, -0.043181370943784714, -2.2653839588165283, -1.4241811037063599, -9.604351043701172, 0.22412455081939697, 0.036756426095962524, -0.2712419331073761, 0.080322265625, 0.292724609375, 0.817626953125, 
275, 2929575703, -0.1327928602695465, 0.7679497599601746, -0.6251038312911987, -0.04316447675228119, -2.2973716259002686, -1.459365963935852, -9.587427139282227, -0.003265814855694771, -0.31826967000961304, -0.3016716241836548, 0.078369140625, 0.293701171875, 0.814697265625, 
276, 2929584036, -0.1328061819076538, 0.7679547071456909, -0.6250952482223511, -0.043158333748579025, -2.2682738304138184, -1.4717830419540405, -9.595024108886719, 0.09300528466701508, -0.6109123229980469, -0.3131211996078491, 0.0810546875, 0.296142578125, 0.818603515625, 
277, 2929592369, -0.13281528651714325, 0.7679522037506104, -0.6250976920127869, -0.04313892498612404, -2.279189109802246, -1.4443235397338867, -9.602090835571289, 0.2380843162536621, -0.44718608260154724, -0.1709878295660019, 0.080810546875, 0.292236328125, 0.816650390625, 
278, 2929600702, -0.1328272968530655, 0.7679613828659058, -0.6250852942466736, -0.04311875253915787, -2.290454864501953, -1.39017653465271, -9.59242057800293, 0.19195307791233063, -0.45387139916419983, -0.4136570990085602, 0.079833984375, 0.293212890625, 0.819091796875, 
279, 2929609035, -0.13282376527786255, 0.7679787278175354, -0.6250650882720947, -0.04311531409621239, -2.3049750328063965, -1.4173787832260132, -9.594552040100098, -0.0824650228023529, -0.5385521650314331, -0.5450325012207031, 0.083251953125, 0.294189453125, 0.8154296875, 
280, 2929617368, -0.13285045325756073, 0.7680008411407471, -0.6250333786010742, -0.04309847950935364, -2.295010805130005, -1.4436802864074707, -9.585009574890137, 0.28216642141342163, -0.643263041973114, -0.7308126091957092, 0.082763671875, 0.292724609375, 0.81689453125, 
281, 2929625701, -0.1328878253698349, 0.7680312991142273, -0.6249909400939941, -0.04305622726678848, -2.28481125831604, -1.4300178289413452, -9.587498664855957, 0.6460679173469543, -0.5117852091789246, -0.9870830774307251, 0.082275390625, 0.29345703125, 0.8212890625, 
282, 2929634034, -0.13293112814426422, 0.7680593729019165, -0.624951183795929, -0.04300055652856827, -2.245241641998291, -1.3805630207061768, -9.594494819641113, 0.7763929963111877, -0.3891570568084717, -0.9492123126983643, 0.07861328125, 0.292724609375, 0.819580078125, 
283, 2929642367, -0.13295944035053253, 0.7680743932723999, -0.6249304413795471, -0.04294390603899956, -2.2305495738983154, -1.4025294780731201, -9.576913833618164, 0.715200662612915, -0.2506480813026428, -0.647438108921051, 0.0791015625, 0.296142578125, 0.816650390625, 
284, 2929650700, -0.13298629224300385, 0.7680770754814148, -0.6249255537986755, -0.04288404807448387, -2.259826183319092, -1.4664829969406128, -9.555476188659668, 0.70426344871521, -0.15344208478927612, -0.35963666439056396, 0.080078125, 0.296630859375, 0.817626953125, 
285, 2929659033, -0.13299499452114105, 0.7680677175521851, -0.624938428401947, -0.042836278676986694, -2.28971791267395, -1.4529355764389038, -9.557127952575684, 0.4980175495147705, -0.12990258634090424, -0.05408445745706558, 0.080810546875, 0.293701171875, 0.819091796875, 
286, 2929667366, -0.13298550248146057, 0.7680517435073853, -0.624962568283081, -0.04280151054263115, -2.2898824214935303, -1.4402320384979248, -9.547063827514648, 0.15568332374095917, -0.06394593417644501, 0.1737157255411148, 0.081298828125, 0.293701171875, 0.819091796875, 
287, 2929675699, -0.13296020030975342, 0.7680394649505615, -0.6249842643737793, -0.04278400167822838, -2.275061845779419, -1.4730921983718872, -9.51165771484375, -0.11233122646808624, -0.14250478148460388, 0.13800950348377228, 0.07861328125, 0.294677734375, 0.819580078125, 
288, 2929684032, -0.13295558094978333, 0.768032968044281, -0.6249934434890747, -0.04278094321489334, -2.320561408996582, -1.4501030445098877, -9.565340995788574, -0.0900980681180954, -0.4630413055419922, -0.00849111843854189, 0.082275390625, 0.294189453125, 0.815673828125, 
289, 2929692365, -0.1329667866230011, 0.7680349946022034, -0.6249886751174927, -0.04277924448251724, -2.3201534748077393, -1.4261696338653564, -9.553108215332031, 0.09592530131340027, -0.6622687578201294, -0.256052702665329, 0.079345703125, 0.292724609375, 0.816650390625, 
290, 2929700698, -0.13298074901103973, 0.7680476903915405, -0.6249712705612183, -0.04276411607861519, -2.2681808471679688, -1.42526113986969, -9.552721977233887, 0.15829597413539886, -0.5334804654121399, -0.4880664348602295, 0.0810546875, 0.296630859375, 0.818115234375, 
291, 2929709031, -0.13297955691814423, 0.7680690884590149, -0.6249463558197021, -0.042747702449560165, -2.255119800567627, -1.3426458835601807, -9.549088478088379, 0.04492736980319023, -0.42543962597846985, -0.6554298400878906, 0.077880859375, 0.292236328125, 0.818115234375, 
292, 2929717364, -0.13299283385276794, 0.7681013345718384, -0.624905526638031, -0.042723141610622406, -2.3044960498809814, -1.4027224779129028, -9.550919532775879, 0.18255263566970825, -0.45796969532966614, -0.9207934141159058, 0.080322265625, 0.293212890625, 0.819580078125, 
293, 2929725697, -0.13298852741718292, 0.7681261897087097, -0.6248782873153687, -0.04268801212310791, -2.260305643081665, -1.4398601055145264, -9.54662036895752, 0.1645970642566681, -0.20559264719486237, -0.7418267130851746, 0.079345703125, 0.293701171875, 0.816650390625, 
294, 2929734030, -0.13297457993030548, 0.7681528925895691, -0.624851405620575, -0.042644254863262177, -2.263538360595703, -1.406255841255188, -9.567872047424316, 0.07930166274309158, 0.0021259814966470003, -0.7442343831062317, 0.08056640625, 0.296142578125, 0.817138671875, 
295, 2929742363, -0.13295243680477142, 0.7681981921195984, -0.6248021125793457, -0.04262019693851471, -2.2499053478240967, -1.3495912551879883, -9.592827796936035, -0.17029622197151184, -0.19647398591041565, -1.1207636594772339, 0.07958984375, 0.295654296875, 0.817626953125, 
296, 2929750696, -0.13290970027446747, 0.7682661414146423, -0.6247279644012451, -0.0426158681511879, -2.2009012699127197, -1.3516227006912231, -9.554445266723633, -0.6667000651359558, -0.23120689392089844, -1.5099718570709229, 0.080078125, 0.29638671875, 0.820068359375, 
297, 2929759029, -0.13284361362457275, 0.7683252692222595, -0.6246678233146667, -0.04263588786125183, -2.176710367202759, -1.3557140827178955, -9.550375938415527, -1.0429987907409668, -0.29693299531936646, -1.2469393014907837, 0.081787109375, 0.292236328125, 0.816650390625, 
298, 2929767362, -0.13273754715919495, 0.7683907747268677, -0.6246086359024048, -0.0426529161632061, -2.1735589504241943, -1.3660060167312622, -9.501015663146973, -1.5078202486038208, 0.11441878229379654, -1.2544955015182495, 0.08154296875, 0.29443359375, 0.821044921875, 
299, 2929775695, -0.13263115286827087, 0.7684325575828552, -0.6245793700218201, -0.042659640312194824, -2.194577932357788, -1.4735002517700195, -9.602563858032227, -1.3045457601547241, 0.23677797615528107, -0.771769642829895, 0.0791015625, 0.296630859375, 0.817138671875, 
300, 2929784028, -0.13259121775627136, 0.7684759497642517, -0.6245331168174744, -0.042680248618125916, -2.2744178771972656, -1.3438259363174438, -9.543916702270508, -0.7899301648139954, -0.48120182752609253, -0.9597014784812927, 0.080322265625, 0.294189453125, 0.818115234375, 
301, 2929792361, -0.13267448544502258, 0.7685183882713318, -0.6244708895683289, -0.04256872832775116, -2.2613635063171387, -1.5903220176696777, -9.55420207977295, 1.6946889162063599, -0.2039533257484436, -1.45146906375885, 0.07763671875, 0.294189453125, 0.820556640625, 
302, 2929800694, -0.13264024257659912, 0.7685841917991638, -0.6243956685066223, -0.04259256273508072, -2.3126909732818604, -1.362468957901001, -9.633769035339355, -0.8163385391235352, -0.6042270064353943, -1.4568225145339966, 0.07861328125, 0.295654296875, 0.818115234375, 
303, 2929809027, -0.13261418044567108, 0.7686727046966553, -0.6242929697036743, -0.04257878661155701, -2.323254108428955, -1.3113092184066772, -9.671685218811035, -0.4087904393672943, -0.3432435691356659, -2.033219814300537, 0.081787109375, 0.293212890625, 0.817138671875, 
304, 2929817360, -0.13257776200771332, 0.7687054872512817, -0.6242605447769165, -0.042576227337121964, -2.1582343578338623, -1.6046901941299438, -9.574115753173828, -0.5267695188522339, -0.24872702360153198, -0.7673896551132202, 0.0791015625, 0.294189453125, 0.819091796875, 
305, 2929825693, -0.1325526386499405, 0.7687324285507202, -0.6242363452911377, -0.04252281039953232, -2.3902153968811035, -1.5531611442565918, -9.676165580749512, 0.0991014763712883, 0.1742279976606369, -0.7482045888900757, 0.078857421875, 0.293701171875, 0.814697265625, 
306, 2929834026, -0.13252808153629303, 0.7687698006629944, -0.624197781085968, -0.042489953339099884, -2.345066785812378, -1.5927163362503052, -9.620616912841797, -0.1537494659423828, -0.037691351026296616, -0.9348556995391846, 0.0791015625, 0.294677734375, 0.818115234375, 
307, 2929842359, -0.13251103460788727, 0.7687889337539673, -0.6241806745529175, -0.042443860322237015, -2.2418010234832764, -1.485237717628479, -9.625401496887207, 0.1403404027223587, 0.03580869734287262, -0.5979003310203552, 0.07958984375, 0.296630859375, 0.816162109375, 
308, 2929850692, -0.1324755996465683, 0.7687922120094299, -0.6241862177848816, -0.04241452366113663, -2.276557207107544, -1.485087275505066, -9.61473560333252, -0.2100239098072052, 0.0796346589922905, -0.16268880665302277, 0.08154296875, 0.296142578125, 0.817138671875, 
309, 2929859025, -0.13243307173252106, 0.7687985897064209, -0.6241891980171204, -0.04238741099834442, -2.23688006401062, -1.5194998979568481, -9.610845565795898, -0.2569235861301422, 0.08240099251270294, -0.22618649899959564, 0.080322265625, 0.296630859375, 0.815185546875, 
310, 2929867358, -0.13239511847496033, 0.768795907497406, -0.6242021322250366, -0.04236428067088127, -2.2048637866973877, -1.4764827489852905, -9.580403327941895, -0.27569881081581116, 0.044824909418821335, -0.01927471160888672, 0.07861328125, 0.294677734375, 0.818115234375, 
311, 2929875691, -0.13235892355442047, 0.7687956690788269, -0.6242106556892395, -0.042356349527835846, -2.2868714332580566, -1.5064316987991333, -9.565109252929688, -0.34119439125061035, -0.16760674118995667, -0.07913517206907272, 0.080810546875, 0.293701171875, 0.816650390625, 
312, 2929884024, -0.1323397010564804, 0.7687888145446777, -0.6242243051528931, -0.04234039783477783, -2.21541428565979, -1.5021899938583374, -9.556570053100586, -0.13095277547836304, -0.19311851263046265, 0.025050722062587738, 0.078369140625, 0.295166015625, 0.815185546875, 
313, 2929892357, -0.1323348432779312, 0.7687772512435913, -0.6242411136627197, -0.04231646656990051, -2.255784749984741, -1.5130406618118286, -9.555917739868164, 0.1537366509437561, -0.25938257575035095, 0.0587078295648098, 0.07958984375, 0.29541015625, 0.822509765625, 
314, 2929900690, -0.13234908878803253, 0.768767774105072, -0.6242530345916748, -0.04226831719279289, -2.266542911529541, -1.4962176084518433, -9.546056747436523, 0.5035502314567566, -0.14447708427906036, -0.047962650656700134, 0.078125, 0.295654296875, 0.818115234375, 
315, 2929909023, -0.1323499232530594, 0.7687558531761169, -0.6242702603340149, -0.04222683981060982, -2.2389042377471924, -1.4379289150238037, -9.549796104431152, 0.36538705229759216, -0.12173164635896683, 0.031556736677885056, 0.081787109375, 0.294677734375, 0.816650390625, 
316, 2929917356, -0.1323571354150772, 0.7687357068061829, -0.6242976188659668, -0.04216713085770607, -2.298387289047241, -1.4960814714431763, -9.566905975341797, 0.5557519793510437, 0.0598604641854763, 0.18905867636203766, 0.083740234375, 0.292236328125, 0.81640625, 
317, 2929925689, -0.13235892355442047, 0.7687048316001892, -0.6243384480476379, -0.04212285578250885, -2.267773151397705, -1.4429072141647339, -9.604608535766602, 0.44627681374549866, -0.06806982308626175, 0.43651777505874634, 0.080078125, 0.295654296875, 0.819091796875, 
318, 2929934022, -0.1323479861021042, 0.7686712741851807, -0.6243841648101807, -0.04209242761135101, -2.2970998287200928, -1.4191887378692627, -9.598735809326172, 0.14851133525371552, -0.06842843443155289, 0.5625142455101013, 0.079345703125, 0.292236328125, 0.817138671875, 
319, 2929942355, -0.13231487572193146, 0.7686271667480469, -0.6244468688964844, -0.042070869356393814, -2.2740747928619385, -1.4562830924987793, -9.632640838623047, -0.08039027452468872, 0.023360179737210274, 0.8437840938568115, 0.07861328125, 0.295166015625, 0.819091796875, 
320, 2929950688, -0.1322561353445053, 0.7685807347297668, -0.6245187520980835, -0.04203824698925018, -2.2370517253875732, -1.451819658279419, -9.675872802734375, -0.2987772524356842, 0.4046536684036255, 0.9738019704818726, 0.07958984375, 0.294677734375, 0.818115234375, 
321, 2929959021, -0.13217678666114807, 0.7685365676879883, -0.6245912313461304, -0.04201794043183327, -2.256671905517578, -1.4595662355422974, -9.768251419067383, -0.5744376182556152, 0.4246840178966522, 0.9777977466583252, 0.07763671875, 0.293701171875, 0.820556640625, 
322, 2929967354, -0.132106751203537, 0.7684985995292664, -0.6246529817581177, -0.042015884071588516, -2.248553991317749, -1.4796298742294312, -9.885329246520996, -0.7034820914268494, 0.165544793009758, 0.8549007177352905, 0.08056640625, 0.294677734375, 0.820068359375, 
323, 2929975687, -0.13205111026763916, 0.7684691548347473, -0.624699592590332, -0.042036209255456924, -2.2509355545043945, -1.5142427682876587, -10.04592514038086, -0.7124215364456177, -0.24734385311603546, 0.6376407742500305, 0.0791015625, 0.295166015625, 0.818603515625, 
324, 2929984020, -0.13201281428337097, 0.7684508562088013, -0.6247273087501526, -0.04207732900977135, -2.1933834552764893, -1.5152511596679688, -10.283327102661133, -0.7950529456138611, -0.6123210191726685, 0.38641631603240967, 0.0771484375, 0.295166015625, 0.81787109375, 
325, 2929992353, -0.13195359706878662, 0.7684565782546997, -0.6247280240058899, -0.042148664593696594, -2.1351094245910645, -1.5752633810043335, -10.62415885925293, -1.2796231508255005, -0.818848729133606, -0.05523709952831268, 0.078369140625, 0.293212890625, 0.817138671875, 
326, 2930000686, -0.13188031315803528, 0.7684731483459473, -0.624711811542511, -0.04231603443622589, -2.1622042655944824, -1.6283692121505737, -10.93678092956543, -2.3377983570098877, -1.7074576616287231, -0.12793028354644775, 0.07666015625, 0.296142578125, 0.81787109375, 
327, 2930009019, -0.13187327980995178, 0.7684682607650757, -0.6246982216835022, -0.04262642189860344, -2.281259536743164, -1.756954550743103, -11.220512390136719, -2.7705509662628174, -3.8268051147460938, 0.2897738516330719, 0.078369140625, 0.291259765625, 0.816650390625, 
328, 2930017352, -0.13198675215244293, 0.7684271931648254, -0.6246874332427979, -0.0431726910173893, -2.4341156482696533, -1.8415776491165161, -11.446651458740234, -3.511519432067871, -7.3403096199035645, 1.0013116598129272, 0.077880859375, 0.290771484375, 0.815673828125, 
329, 2930025685, -0.13221262395381927, 0.7683337330818176, -0.6246960163116455, -0.04400913417339325, -2.4662277698516846, -1.8451591730117798, -11.66211223602295, -4.655912399291992, -11.400115966796875, 2.100956678390503, 0.077880859375, 0.290771484375, 0.818115234375, 
330, 2930034018, -0.13254927098751068, 0.7682120203971863, -0.624694287776947, -0.04513183981180191, -2.43546199798584, -1.837205171585083, -11.791460037231445, -5.951737403869629, -15.378905296325684, 2.7046844959259033, 0.080322265625, 0.2861328125, 0.81787109375, 
331, 2930042351, -0.13296422362327576, 0.7680660486221313, -0.6246819496154785, -0.04654419794678688, -2.4951729774475098, -1.7714663743972778, -11.820112228393555, -7.524477958679199, -19.181442260742188, 3.262998580932617, 0.084716796875, 0.287841796875, 0.818359375, 
332, 2930050684, -0.13346920907497406, 0.7678929567337036, -0.624662458896637, -0.04818883165717125, -2.464148998260498, -1.7647196054458618, -11.843955993652344, -8.575329780578613, -22.401901245117188, 3.805201292037964, 0.082275390625, 0.2841796875, 0.81884765625, 
333, 2930059017, -0.1340896040201187, 0.7676883339881897, -0.6246334910392761, -0.05006485804915428, -2.508030414581299, -1.7423865795135498, -11.852197647094727, -9.240636825561523, -25.91346549987793, 4.307754039764404, 0.083740234375, 0.2802734375, 0.820556640625, 
334, 2930067350, -0.1348506212234497, 0.7674333453178406, -0.6246109008789062, -0.0521695576608181, -2.5426666736602783, -1.8284497261047363, -11.859868049621582, -9.675517082214355, -29.52100944519043, 5.147441387176514, 0.0849609375, 0.27685546875, 0.822998046875, 
335, 2930075683, -0.13574747741222382, 0.7671576142311096, -0.6245570778846741, -0.05448950454592705, -2.491867780685425, -1.7468674182891846, -11.894384384155273, -10.022310256958008, -33.07099533081055, 5.280251979827881, 0.08935546875, 0.2734375, 0.81982421875, 
336, 2930084016, -0.1368292272090912, 0.7668288350105286, -0.624498188495636, -0.05702822282910347, -2.5236876010894775, -1.7557142972946167, -11.890192031860352, -9.908303260803223, -36.977230072021484, 5.971454620361328, 0.090576171875, 0.269775390625, 0.817138671875, 
337, 2930092349, -0.1380598098039627, 0.7664443254470825, -0.6244423389434814, -0.059776671230793, -2.5946991443634033, -1.8183718919754028, -11.96273422241211, -9.979691505432129, -40.547332763671875, 6.743751525878906, 0.096435546875, 0.264404296875, 0.82080078125, 
338, 2930100682, -0.1394185870885849, 0.7659974098205566, -0.6243961453437805, -0.0627594068646431, -2.5316009521484375, -1.6544796228408813, -11.982657432556152, -10.566108703613281, -44.107421875, 7.7364091873168945, 0.101318359375, 0.261474609375, 0.818115234375, 
339, 2930109015, -0.14089737832546234, 0.7654666900634766, -0.6243823766708374, -0.06598632037639618, -2.5000603199005127, -1.769871711730957, -11.904736518859863, -11.16067123413086, -47.76487350463867, 9.144172668457031, 0.1044921875, 0.257568359375, 0.82080078125, 
340, 2930117348, -0.1425248682498932, 0.764884352684021, -0.6243431568145752, -0.06952129304409027, -2.679351329803467, -1.6290055513381958, -11.87523078918457, -12.213295936584473, -52.33671951293945, 9.799776077270508, 0.109375, 0.248779296875, 0.8203125, 
341, 2930125681, -0.14421555399894714, 0.7642837762832642, -0.624258816242218, -0.07329446822404861, -2.5270352363586426, -1.674572229385376, -11.976113319396973, -13.55029010772705, -55.539794921875, 9.870396614074707, 0.112548828125, 0.245361328125, 0.822021484375, 
342, 2930134014, -0.1459670215845108, 0.7636547684669495, -0.6241416931152344, -0.07727276533842087, -2.508652925491333, -1.6031845808029175, -11.878670692443848, -14.700632095336914, -58.26167297363281, 10.133023262023926, 0.121337890625, 0.240478515625, 0.823974609375, 
343, 2930142347, -0.14786942303180695, 0.762941837310791, -0.624032735824585, -0.08146430552005768, -2.757179021835327, -1.6674295663833618, -11.703989028930664, -14.716981887817383, -61.92180633544922, 11.189567565917969, 0.1259765625, 0.234130859375, 0.8232421875, 
344, 2930150680, -0.1499604880809784, 0.7621439099311829, -0.6239126324653625, -0.0859106034040451, -2.878021001815796, -1.6149851083755493, -11.603128433227539, -14.81609058380127, -66.27916717529297, 12.123651504516602, 0.131591796875, 0.22607421875, 0.82177734375, 
345, 2930159013, -0.15223653614521027, 0.7612972259521484, -0.6237382888793945, -0.09055342525243759, -2.796576499938965, -1.5015475749969482, -11.417263984680176, -14.476219177246094, -70.15216064453125, 12.144430160522461, 0.138427734375, 0.2236328125, 0.821044921875, 
346, 2930167346, -0.1546463519334793, 0.7603927850723267, -0.6235259771347046, -0.09540284425020218, -2.889598846435547, -1.3829423189163208, -11.166842460632324, -14.823863983154297, -73.5565414428711, 12.526217460632324, 0.1474609375, 0.212646484375, 0.8203125, 
347, 2930175679, -0.15717121958732605, 0.7594449520111084, -0.6232669949531555, -0.10038699954748154, -2.9051833152770996, -1.3614379167556763, -11.0628080368042, -14.697338104248047, -76.17007446289062, 12.526787757873535, 0.154541015625, 0.206787109375, 0.819580078125, 
348, 2930184012, -0.15982933342456818, 0.7584748864173889, -0.6229188442230225, -0.10555250942707062, -2.9636049270629883, -1.1221492290496826, -10.730198860168457, -14.982610702514648, -79.37008666992188, 12.012711524963379, 0.16064453125, 0.200439453125, 0.818603515625, 
349, 2930192345, -0.16259559988975525, 0.7574350237846375, -0.6225394606590271, -0.11089757084846497, -3.142803192138672, -1.3398358821868896, -10.50705337524414, -15.236968994140625, -82.40148162841797, 12.5033597946167, 0.173095703125, 0.194091796875, 0.81884765625, 
350, 2930200678, -0.16539119184017181, 0.7563762664794922, -0.6220846176147461, -0.11640506982803345, -2.9993276596069336, -1.1516886949539185, -10.320806503295898, -16.441911697387695, -84.4782485961914, 12.216854095458984, 0.1826171875, 0.186279296875, 0.8173828125, 
351, 2930209011, -0.16818414628505707, 0.7553077340126038, -0.6215578317642212, -0.12202025204896927, -3.0924534797668457, -1.0010992288589478, -10.038180351257324, -17.43791961669922, -85.82416534423828, 11.782474517822266, 0.1884765625, 0.1787109375, 0.818359375, 
352, 2930217344, -0.17101719975471497, 0.7541835308074951, -0.6210275888442993, -0.12760800123214722, -3.0673680305480957, -1.1808079481124878, -9.939922332763672, -16.710826873779297, -85.91515350341797, 12.10982608795166, 0.197998046875, 0.17236328125, 0.8173828125, 
353, 2930225677, -0.1738203912973404, 0.7530162930488586, -0.6204883456230164, -0.1332140564918518, -3.1368284225463867, -1.1243644952774048, -9.645058631896973, -17.046815872192383, -86.0192642211914, 12.458390235900879, 0.20703125, 0.1630859375, 0.8212890625, 
354, 2930234010, -0.1767074465751648, 0.7517500519752502, -0.6199663877487183, -0.13887737691402435, -3.4503014087677, -0.8959685564041138, -9.382403373718262, -16.441625595092773, -87.39493560791016, 13.488245964050293, 0.218505859375, 0.15771484375, 0.817138671875, 
355, 2930242343, -0.17966710031032562, 0.7504403591156006, -0.6193907260894775, -0.1446133404970169, -3.630319356918335, -1.0329090356826782, -9.160234451293945, -16.263662338256836, -89.05522918701172, 13.318398475646973, 0.23095703125, 0.1494140625, 0.818115234375, 
356, 2930250676, -0.18270394206047058, 0.7490905523300171, -0.6187794804573059, -0.1503112018108368, -3.560596466064453, -0.8916682004928589, -8.99518871307373, -15.15975570678711, -89.40925598144531, 13.067172050476074, 0.239013671875, 0.140869140625, 0.81689453125, 
357, 2930259009, -0.1857004165649414, 0.7477356195449829, -0.6181176900863647, -0.15600091218948364, -3.5829155445098877, -0.648232638835907, -8.838445663452148, -15.555266380310059, -89.20003509521484, 12.630265235900879, 0.24853515625, 0.136474609375, 0.814453125, 
358, 2930267342, -0.18873447179794312, 0.7463136911392212, -0.6174602508544922, -0.16166970133781433, -3.902340888977051, -0.8021714091300964, -8.62986946105957, -14.851025581359863, -89.35676574707031, 13.133898735046387, 0.259765625, 0.132080078125, 0.8134765625, 
359, 2930275675, -0.19182652235031128, 0.7448490858078003, -0.6167646050453186, -0.16733889281749725, -4.188851356506348, -0.6878842115402222, -8.50597858428955, -14.193939208984375, -90.1312026977539, 12.951704025268555, 0.27197265625, 0.123291015625, 0.811767578125, 
360, 2930284008, -0.19491957128047943, 0.7433632612228394, -0.6160265803337097, -0.17299573123455048, -4.093726634979248, -0.6369694471359253, -8.414520263671875, -14.160282135009766, -90.09083557128906, 12.687516212463379, 0.2763671875, 0.11865234375, 0.8095703125, 
361, 2930292341, -0.19794851541519165, 0.7418628931045532, -0.6152732968330383, -0.1785871982574463, -4.110994338989258, -0.5790172219276428, -8.368948936462402, -14.220602035522461, -89.03976440429688, 12.604113578796387, 0.290283203125, 0.111083984375, 0.811279296875, 
362, 2930300674, -0.20087409019470215, 0.7403649091720581, -0.6144891381263733, -0.18415038287639618, -4.275376796722412, -0.4824446141719818, -8.274374008178711, -15.157164573669434, -87.86845397949219, 12.47447681427002, 0.30029296875, 0.10400390625, 0.808837890625, 
363, 2930309007, -0.20379646122455597, 0.7388379573822021, -0.6137044429779053, -0.18960748612880707, -4.409111022949219, -0.5752227306365967, -8.311675071716309, -14.174979209899902, -86.92411041259766, 12.399604797363281, 0.308837890625, 0.09912109375, 0.805908203125, 
364, 2930317340, -0.2067098766565323, 0.7372384071350098, -0.6129605174064636, -0.19500930607318878, -4.5247955322265625, -0.6714858412742615, -8.135947227478027, -13.529545783996582, -86.27496337890625, 13.324310302734375, 0.3212890625, 0.0908203125, 0.802734375, 
365, 2930325673, -0.20974881947040558, 0.7355691194534302, -0.6122034788131714, -0.20037226378917694, -4.696990966796875, -0.5032117366790771, -7.997722148895264, -11.726369857788086, -87.25347137451172, 13.301206588745117, 0.328369140625, 0.087646484375, 0.801025390625, 
366, 2930334006, -0.2128392457962036, 0.7338899970054626, -0.6113724708557129, -0.20573648810386658, -4.8037896156311035, -0.5115941762924194, -7.9628005027771, -11.432469367980957, -87.85047149658203, 12.527602195739746, 0.3388671875, 0.079345703125, 0.79931640625, 
367, 2930342339, -0.21585829555988312, 0.7322282791137695, -0.6105049252510071, -0.2110200673341751, -4.592530250549316, -0.5280935764312744, -7.922482967376709, -11.589789390563965, -86.58354949951172, 11.94863510131836, 0.353271484375, 0.076416015625, 0.79638671875, 
368, 2930350672, -0.2189023196697235, 0.7305118441581726, -0.6096485257148743, -0.21624541282653809, -4.9603800773620605, -0.5393186211585999, -7.773786544799805, -10.693105697631836, -86.24335479736328, 12.304240226745605, 0.362060546875, 0.071533203125, 0.7939453125, 
369, 2930359005, -0.221964031457901, 0.728755533695221, -0.6087954044342041, -0.2213919758796692, -5.075772285461426, -0.5059964656829834, -7.757061004638672, -9.68932819366455, -85.8011474609375, 12.350447654724121, 0.3720703125, 0.066162109375, 0.79052734375, 
370, 2930367338, -0.22501249611377716, 0.7269794940948486, -0.6078897714614868, -0.22658143937587738, -5.278267860412598, -0.3941054046154022, -7.654599666595459, -10.317188262939453, -86.2483139038086, 12.19301986694336, 0.381591796875, 0.05859375, 0.787841796875, 
371, 2930375671, -0.2280728965997696, 0.7251613736152649, -0.606970489025116, -0.23175311088562012, -5.398743152618408, -0.5206252336502075, -7.599496364593506, -9.92428970336914, -86.43678283691406, 12.283004760742188, 0.39111328125, 0.05615234375, 0.78515625, 
372, 2930384004, -0.23112787306308746, 0.7233041524887085, -0.6060389280319214, -0.23691107332706451, -5.496592998504639, -0.4292151927947998, -7.518716335296631, -9.81729793548584, -86.32466888427734, 12.493581771850586, 0.401123046875, 0.048828125, 0.781005859375, 
373, 2930392337, -0.23421743512153625, 0.7213672399520874, -0.6051409840583801, -0.24202227592468262, -5.708921432495117, -0.5079320669174194, -7.332940101623535, -8.686602592468262, -86.39401245117188, 13.196876525878906, 0.41064453125, 0.04541015625, 0.779541015625, 
374, 2930400670, -0.2372645139694214, 0.7193876504898071, -0.6042739748954773, -0.24706023931503296, -5.7149810791015625, -0.6416119337081909, -7.1545491218566895, -8.293240547180176, -85.26219940185547, 13.797353744506836, 0.419189453125, 0.039306640625, 0.7734375, 
375, 2930409003, -0.24029384553432465, 0.7173687219619751, -0.6034436821937561, -0.25198301672935486, -5.772462368011475, -0.5755547881126404, -7.00848388671875, -7.225168228149414, -84.08483123779297, 14.138967514038086, 0.433349609375, 0.037109375, 0.774658203125, 
376, 2930417336, -0.24333079159259796, 0.7153552174568176, -0.6025872826576233, -0.25679677724838257, -5.822304725646973, -0.5167223811149597, -6.982699394226074, -6.385194301605225, -83.04491424560547, 13.484158515930176, 0.4404296875, 0.034423828125, 0.767578125, 
377, 2930425669, -0.24632667005062103, 0.7133721113204956, -0.6016910672187805, -0.2615150511264801, -5.862185955047607, -0.4189782738685608, -6.987788677215576, -6.211246490478516, -81.88595581054688, 12.630199432373047, 0.449462890625, 0.030029296875, 0.76611328125, 
378, 2930434002, -0.2493608593940735, 0.7113564610481262, -0.6007801294326782, -0.2661830484867096, -6.082350254058838, -0.4449412524700165, -6.896383762359619, -5.391713619232178, -81.7808837890625, 12.483504295349121, 0.46044921875, 0.024169921875, 0.75927734375, 
379, 2930442335, -0.2524188458919525, 0.7093144655227661, -0.5998328328132629, -0.2708449959754944, -6.293577671051025, -0.4871513247489929, -6.885037899017334, -5.123300552368164, -82.23916625976562, 12.20138931274414, 0.471923828125, 0.022705078125, 0.756103515625, 
380, 2930450668, -0.255437970161438, 0.7072656154632568, -0.5988782048225403, -0.2754459083080292, -6.201220512390137, -0.49252983927726746, -6.915550231933594, -5.0315752029418945, -81.2740249633789, 12.15438461303711, 0.48046875, 0.01513671875, 0.7509765625, 
381, 2930459001, -0.25836464762687683, 0.7051796317100525, -0.597964346408844, -0.2800120711326599, -6.394198894500732, -0.40594637393951416, -6.776240348815918, -5.330801486968994, -80.2696304321289, 13.049887657165527, 0.49267578125, 0.014892578125, 0.748291015625, 
382, 2930467334, -0.26128166913986206, 0.7030749917030334, -0.5970268249511719, -0.2845621109008789, -6.588241100311279, -0.4315178692340851, -6.777449131011963, -5.345324993133545, -80.09326171875, 12.988260269165039, 0.494384765625, 0.00830078125, 0.744384765625, 
383, 2930475667, -0.2641241252422333, 0.7009927034378052, -0.5960491299629211, -0.28908810019493103, -6.563803672790527, -0.36822932958602905, -6.747832775115967, -6.081020355224609, -79.4034194946289, 12.587137222290039, 0.5068359375, 0.00732421875, 0.739013671875, 
384, 2930484000, -0.26693156361579895, 0.6989064812660217, -0.5950403809547424, -0.29360365867614746, -6.7149786949157715, -0.3969685733318329, -6.703498363494873, -6.468053340911865, -79.04630279541016, 12.456809997558594, 0.518310546875, 0.00341796875, 0.7353515625, 
385, 2930492333, -0.2697564661502838, 0.6967920064926147, -0.5939894914627075, -0.2981403172016144, -6.786996364593506, -0.36684438586235046, -6.664456367492676, -6.513673305511475, -79.7585678100586, 12.255149841308594, 0.52734375, -0.005615234375, 0.72802734375, 
386, 2930500666, -0.27271488308906555, 0.6946032047271729, -0.5928993821144104, -0.3026916980743408, -6.977634906768799, -0.3815578520298004, -6.41669225692749, -5.266178131103516, -81.34168243408203, 12.027339935302734, 0.53564453125, -0.00634765625, 0.723388671875, 
387, 2930508999, -0.27571210265159607, 0.6923691034317017, -0.5918300747871399, -0.3071545958518982, -6.874874591827393, -0.6222114562988281, -6.412429332733154, -3.8929641246795654, -81.0228042602539, 12.070344924926758, 0.544677734375, -0.01123046875, 0.717529296875, 
388, 2930517332, -0.27873581647872925, 0.6900659799575806, -0.5907773375511169, -0.311602920293808, -6.873008728027344, -0.31963878870010376, -6.438137531280518, -3.213696002960205, -81.22958374023438, 12.653173446655273, 0.5537109375, -0.0107421875, 0.7109375, 
389, 2930525665, -0.28178420662879944, 0.6877235174179077, -0.5896589159965515, -0.31612518429756165, -7.1313581466674805, -0.27043917775154114, -6.150915622711182, -3.688920736312866, -82.65089416503906, 12.496134757995605, 0.563232421875, -0.0146484375, 0.7099609375, 
390, 2930533998, -0.2847481369972229, 0.6853913068771362, -0.5885465145111084, -0.3205763101577759, -7.025723457336426, -0.41289323568344116, -6.1030049324035645, -3.947727680206299, -81.12718200683594, 12.592570304870605, 0.569580078125, -0.017333984375, 0.701904296875, 
391, 2930542331, -0.28755077719688416, 0.6831073760986328, -0.5874389410018921, -0.32495105266571045, -6.924082279205322, -0.2057395726442337, -6.055908203125, -4.997404098510742, -78.96815490722656, 12.627274513244629, 0.58056640625, -0.021728515625, 0.697998046875, 
392, 2930550664, -0.29026347398757935, 0.6808716058731079, -0.5862089395523071, -0.32942208647727966, -7.369173049926758, -0.04673248529434204, -5.900569438934326, -7.375264644622803, -79.31674194335938, 11.90477180480957, 0.587646484375, -0.025146484375, 0.693603515625, 
393, 2930558997, -0.29279565811157227, 0.6786777973175049, -0.5849504470825195, -0.33391448855400085, -7.359736442565918, -0.027710095047950745, -5.816302299499512, -9.519083976745605, -78.08544158935547, 12.168673515319824, 0.59619140625, -0.029296875, 0.6884765625, 
394, 2930567330, -0.2951897084712982, 0.6765091419219971, -0.5836759209632874, -0.3384075164794922, -7.3117146492004395, -0.05809762701392174, -5.57476282119751, -11.005228996276855, -76.82684326171875, 12.487007141113281, 0.603271484375, -0.033203125, 0.6806640625, 
395, 2930575663, -0.2975214123725891, 0.6743393540382385, -0.5823987722396851, -0.34286731481552124, -7.545760154724121, -0.24198339879512787, -5.257564067840576, -11.309475898742676, -76.13592529296875, 12.592257499694824, 0.610595703125, -0.0341796875, 0.677001953125, 
396, 2930583996, -0.299875408411026, 0.6721175312995911, -0.5811243057250977, -0.34731265902519226, -7.610854148864746, -0.3001497685909271, -4.9670281410217285, -10.777899742126465, -76.31254577636719, 12.90475082397461, 0.61865234375, -0.039306640625, 0.672119140625, 
397, 2930592329, -0.30226078629493713, 0.6698557138442993, -0.579885721206665, -0.3516577482223511, -7.436873435974121, -0.22226931154727936, -4.75241231918335, -9.333966255187988, -75.77914428710938, 12.958642959594727, 0.631591796875, -0.041259765625, 0.663330078125, 
398, 2930600662, -0.30470073223114014, 0.6675888299942017, -0.5786637663841248, -0.35585102438926697, -7.526573181152344, -0.05923771858215332, -4.504132270812988, -7.535271167755127, -74.67295837402344, 12.292024612426758, 0.63818359375, -0.04296875, 0.65673828125, 
399, 2930608995, -0.3071387708187103, 0.6653217077255249, -0.5774868130683899, -0.35988953709602356, -7.7511305809021, 0.008735029958188534, -4.24235725402832, -6.087521553039551, -73.1454086303711, 12.034061431884766, 0.642333984375, -0.05029296875, 0.654541015625, 
400, 2930617328, -0.30949485301971436, 0.6630746722221375, -0.576442301273346, -0.36367321014404297, -7.623702526092529, -0.03244428336620331, -4.334561347961426, -4.254709720611572, -69.40816497802734, 12.447421073913574, 0.651611328125, -0.0517578125, 0.650634765625, 
401, 2930625661, -0.3118113577365875, 0.6608750820159912, -0.5753583908081055, -0.36739516258239746, -7.8663105964660645, 0.3312511146068573, -4.196595668792725, -4.511928558349609, -68.55460357666016, 11.615771293640137, 0.658203125, -0.054443359375, 0.64013671875, 
402, 2930633994, -0.31408604979515076, 0.6587594747543335, -0.5742142796516418, -0.37102898955345154, -8.11894416809082, 0.4054516851902008, -4.11298942565918, -4.874395847320557, -67.16378021240234, 10.26981258392334, 0.662841796875, -0.05712890625, 0.63330078125, 
403, 2930642327, -0.31617817282676697, 0.6567116975784302, -0.5731087327003479, -0.3745749294757843, -7.981990337371826, 0.26677507162094116, -4.0652618408203125, -5.916615962982178, -64.50411224365234, 10.601719856262207, 0.671630859375, -0.05712890625, 0.630859375, 
404, 2930650660, -0.31818100810050964, 0.6547211408615112, -0.5720536112785339, -0.3779614269733429, -8.064269065856934, 0.321119487285614, -3.9766693115234375, -5.467006206512451, -61.756351470947266, 10.406922340393066, 0.67822265625, -0.065185546875, 0.62451171875, 
405, 2930658993, -0.3200371265411377, 0.6528246402740479, -0.5710179209709167, -0.381226509809494, -8.088963508605957, 0.4265158474445343, -3.9357657432556152, -6.133540630340576, -59.01960372924805, 10.038046836853027, 0.683349609375, -0.064697265625, 0.6181640625, 
406, 2930667326, -0.32180100679397583, 0.6509810090065002, -0.5699783563613892, -0.3844365179538727, -8.287483215332031, 0.4019262194633484, -3.7920475006103516, -6.793440818786621, -57.45668029785156, 9.86363697052002, 0.686767578125, -0.070068359375, 0.615966796875, 
407, 2930675659, -0.32352539896965027, 0.6491480469703674, -0.5689600706100464, -0.38758420944213867, -8.46899127960205, 0.24202892184257507, -3.649458169937134, -6.581481456756592, -56.51982879638672, 9.86758041381836, 0.69482421875, -0.068359375, 0.60693359375, 
408, 2930683992, -0.3252180218696594, 0.64730304479599, -0.5679945349693298, -0.3906572163105011, -8.390181541442871, 0.18796876072883606, -3.600498914718628, -5.957259654998779, -55.35254669189453, 10.305787086486816, 0.6982421875, -0.0712890625, 0.604248046875, 
409, 2930692325, -0.32691559195518494, 0.645491898059845, -0.5671094059944153, -0.3935125172138214, -8.244482040405273, 0.13099399209022522, -3.541722536087036, -3.921356678009033, -52.987648010253906, 9.721573829650879, 0.703369140625, -0.074951171875, 0.60009765625, 
410, 2930700658, -0.32861387729644775, 0.6436647772789001, -0.5663248896598816, -0.3962116837501526, -8.423516273498535, 0.35975274443626404, -3.3225789070129395, -2.093315839767456, -51.16629409790039, 10.069365501403809, 0.70751953125, -0.078369140625, 0.595947265625, 
411, 2930708991, -0.33033475279808044, 0.6418227553367615, -0.5656019449234009, -0.3987927734851837, -8.668133735656738, 0.3566080331802368, -3.1355655193328857, -0.5594801902770996, -50.17144012451172, 10.035806655883789, 0.71484375, -0.078857421875, 0.59033203125, 
412, 2930717324, -0.33210355043411255, 0.6399849057197571, -0.5649535655975342, -0.40118932723999023, -8.593724250793457, 0.32125332951545715, -2.93690824508667, 1.6784533262252808, -48.480926513671875, 9.598724365234375, 0.71630859375, -0.08056640625, 0.58544921875, 
413, 2930725657, -0.333904892206192, 0.6381949782371521, -0.5643751621246338, -0.4033539593219757, -8.47170639038086, 0.6209636926651001, -2.96158504486084, 3.9443438053131104, -46.17667770385742, 8.566851615905762, 0.719482421875, -0.08154296875, 0.583740234375, 
414, 2930733990, -0.33567917346954346, 0.6365043520927429, -0.5638654232025146, -0.40526098012924194, -8.50873851776123, 0.8455214500427246, -2.684102773666382, 5.620207786560059, -42.77085876464844, 7.403166770935059, 0.72705078125, -0.084228515625, 0.57470703125, 
415, 2930742323, -0.3372010588645935, 0.6350052952766418, -0.5633572340011597, -0.40705186128616333, -8.777259826660156, 0.8059174418449402, -2.7216057777404785, 3.445324659347534, -38.785709381103516, 6.7623209953308105, 0.7294921875, -0.0810546875, 0.57421875, 
416, 2930750656, -0.3385275900363922, 0.6336653828620911, -0.5629137754440308, -0.4086490571498871, -8.454769134521484, 0.838485598564148, -2.992997169494629, 2.856656074523926, -34.32814407348633, 6.328797340393066, 0.734375, -0.088134765625, 0.571044921875, 
417, 2930758989, -0.33957386016845703, 0.6325340270996094, -0.5624698400497437, -0.41014209389686584, -8.575765609741211, 0.8867722749710083, -3.0332112312316895, 0.2556559443473816, -30.135574340820312, 5.75875186920166, 0.7373046875, -0.087158203125, 0.568359375, 
418, 2930767322, -0.34043771028518677, 0.6315219402313232, -0.562061071395874, -0.41154369711875916, -8.633879661560059, 0.6873878836631775, -3.1207783222198486, -0.9919503331184387, -27.038084030151367, 5.7866435050964355, 0.740966796875, -0.084716796875, 0.56396484375, 
419, 2930775655, -0.341245174407959, 0.6305387020111084, -0.5616803765296936, -0.41290023922920227, -8.927194595336914, 0.4316304922103882, -3.2272143363952637, -1.099786400794983, -25.968791961669922, 5.871682167053223, 0.741455078125, -0.086181640625, 0.5625, 
420, 2930783988, -0.34209784865379333, 0.6295449137687683, -0.5613372325897217, -0.4141758680343628, -8.869952201843262, 0.2987317740917206, -3.402086019515991, 0.17025789618492126, -25.44684600830078, 5.685466289520264, 0.743408203125, -0.088134765625, 0.558837890625, 
421, 2930792321, -0.34301528334617615, 0.6284891963005066, -0.5610783696174622, -0.41536960005760193, -8.95164680480957, 0.35554182529449463, -3.4856414794921875, 2.144937038421631, -25.2428035736084, 6.095781326293945, 0.74658203125, -0.08935546875, 0.555908203125, 
422, 2930800654, -0.3439982831478119, 0.6273621320724487, -0.5608904361724854, -0.41651248931884766, -8.999155044555664, 0.3985830545425415, -3.55971622467041, 3.8348896503448486, -25.332714080810547, 6.687112808227539, 0.748046875, -0.09130859375, 0.554443359375, 
423, 2930808987, -0.3450262248516083, 0.626194953918457, -0.5607479214668274, -0.41760897636413574, -9.034491539001465, 0.4166283905506134, -3.5365419387817383, 5.040884971618652, -25.341215133666992, 6.870228290557861, 0.75048828125, -0.09228515625, 0.55126953125, 
424, 2930817320, -0.34608960151672363, 0.6250472664833069, -0.5606215596199036, -0.41861701011657715, -8.97232723236084, 0.5074527263641357, -3.6066970825195312, 6.017503261566162, -24.619888305664062, 6.2783589363098145, 0.7529296875, -0.09228515625, 0.5517578125, 
425, 2930825653, -0.34706124663352966, 0.6240149140357971, -0.5604754686355591, -0.41954725980758667, -8.908757209777832, 0.6374413371086121, -3.7667737007141113, 5.17579460144043, -22.714500427246094, 5.33401346206665, 0.755615234375, -0.093017578125, 0.545654296875, 
426, 2930833986, -0.34788551926612854, 0.6231344938278198, -0.5602468252182007, -0.42047783732414246, -9.113911628723145, 0.6828781366348267, -3.749454975128174, 2.698741912841797, -21.05655860900879, 4.348273754119873, 0.756103515625, -0.0927734375, 0.546630859375, 
427, 2930842319, -0.34862974286079407, 0.6223497986793518, -0.5599344372749329, -0.42143839597702026, -9.291553497314453, 0.47589224576950073, -3.686342477798462, 0.8479340076446533, -20.587026596069336, 3.457615852355957, 0.759033203125, -0.0927734375, 0.544189453125, 
428, 2930850652, -0.3493092656135559, 0.6216526627540588, -0.5595468282699585, -0.42241817712783813, -9.131548881530762, 0.3509117066860199, -3.727628707885742, -0.7183130383491516, -20.063085556030273, 2.649460554122925, 0.759521484375, -0.093994140625, 0.544189453125, 
429, 2930858985, -0.34994155168533325, 0.6209972500801086, -0.5591225028038025, -0.4234197437763214, -8.915253639221191, 0.4448617696762085, -3.747790575027466, -1.6944206953048706, -19.86109161376953, 2.3494410514831543, 0.760009765625, -0.093017578125, 0.542724609375, 
430, 2930867318, -0.3505188226699829, 0.6203633546829224, -0.5586650967597961, -0.4244738817214966, -9.071969032287598, 0.3008674085140228, -3.653252124786377, -2.873521327972412, -19.878921508789062, 2.5196478366851807, 0.760986328125, -0.094970703125, 0.54052734375, 
431, 2930875651, -0.3510584533214569, 0.6196940541267395, -0.5582085847854614, -0.4256047308444977, -9.079651832580566, 0.22272731363773346, -3.5865206718444824, -3.5993778705596924, -20.49002456665039, 3.3430943489074707, 0.7646484375, -0.096435546875, 0.5361328125, 
432, 2930883984, -0.35164955258369446, 0.6189627647399902, -0.5578435659408569, -0.42665818333625793, -8.95207405090332, 0.12527181208133698, -3.5884387493133545, -1.7415251731872559, -20.10342788696289, 3.969618797302246, 0.76513671875, -0.098876953125, 0.5361328125, 
433, 2930892317, -0.35220983624458313, 0.6182153820991516, -0.5574944615364075, -0.4277341067790985, -8.988961219787598, 0.3703324794769287, -3.580601215362549, -1.9943890571594238, -20.1155948638916, 4.474423885345459, 0.76513671875, -0.09716796875, 0.5341796875, 
434, 2930900650, -0.35281050205230713, 0.6174361705780029, -0.5571647882461548, -0.4287930727005005, -9.064168930053711, 0.28079885244369507, -3.5806453227996826, -1.2634867429733276, -20.3354434967041, 4.607592582702637, 0.76904296875, -0.099609375, 0.527099609375, 
435, 2930908983, -0.35340890288352966, 0.6166673898696899, -0.5568416118621826, -0.42982518672943115, -9.052740097045898, 0.284934401512146, -3.692506790161133, -1.0808058977127075, -20.034168243408203, 4.422120094299316, 0.7724609375, -0.099609375, 0.529296875, 
436, 2930917316, -0.3540201783180237, 0.6159103512763977, -0.5565087795257568, -0.4308375418186188, -9.177480697631836, 0.39980819821357727, -3.6818392276763916, -0.9411568641662598, -19.905658721923828, 4.121792316436768, 0.77197265625, -0.10107421875, 0.52978515625, 
437, 2930925649, -0.3546181619167328, 0.6151495575904846, -0.5561699271202087, -0.4318688213825226, -9.332991600036621, 0.38702675700187683, -3.630995988845825, -1.2106444835662842, -20.052459716796875, 4.227682590484619, 0.774658203125, -0.1025390625, 0.525390625, 
438, 2930933982, -0.3551730811595917, 0.6143931746482849, -0.5558300614356995, -0.4329259693622589, -9.244056701660156, 0.3790957033634186, -3.578178644180298, -1.806867241859436, -19.88386344909668, 4.610025882720947, 0.774169921875, -0.104736328125, 0.51953125, 
439, 2930942315, -0.3557046055793762, 0.6136665940284729, -0.5554541349411011, -0.4340011775493622, -9.151951789855957, 0.4856380224227905, -3.4589946269989014, -2.4964282512664795, -19.89280128479004, 4.262312412261963, 0.780517578125, -0.09912109375, 0.519287109375, 
