sep=,
PacketCounter,SampleTimeFine,Quat_W,Quat_X,Quat_Y,Quat_Z,Acc_X,Acc_Y,Acc_Z,Gyr_X,Gyr_Y,Gyr_Z,Mag_X,Mag_Y,Mag_Z,
0, 3080636327, -0.8162566423416138, 0.17850302159786224, -0.1034265011548996, 0.5395971536636353, 0, 0, 0, 0, 0, 0, -0.1328125, 0.549072265625, -0.77734375, 
1, 3080644660, -0.8162670135498047, 0.1783648282289505, -0.10342169553041458, 0.5396280288696289, 0.2733456492424011, -4.044975280761719, 9.009683609008789, 1.574455976486206, 0.48802807927131653, -0.24181118607521057, -0.132568359375, 0.549072265625, -0.77978515625, 
2, 3080652993, -0.816281795501709, 0.17822346091270447, -0.10343223810195923, 0.5396502017974854, 0.2299424409866333, -4.009311676025391, 9.092028617858887, 1.472741723060608, 0.7329769134521484, -0.04004785791039467, -0.13427734375, 0.550537109375, -0.775146484375, 
3, 3080661326, -0.8162962198257446, 0.17810872197151184, -0.10349346697330475, 0.5396546721458435, 0.21836914122104645, -3.983017683029175, 9.116477012634277, 0.7937850952148438, 0.9831255078315735, 0.21582554280757904, -0.13134765625, 0.548583984375, -0.7763671875, 
4, 3080669659, -0.816304087638855, 0.1780460774898529, -0.10359746217727661, 0.5396434664726257, 0.24017101526260376, -3.9910287857055664, 9.109774589538574, -0.16845200955867767, 1.1253358125686646, 0.39917221665382385, -0.13232421875, 0.549560546875, -0.7763671875, 
5, 3080677992, -0.8163124918937683, 0.1779971718788147, -0.10376109927892685, 0.5396153926849365, 0.2524992525577545, -4.008787155151367, 9.102005958557129, -0.7666212320327759, 1.5742766857147217, 0.6915332078933716, -0.1328125, 0.547607421875, -0.775390625, 
6, 3080686325, -0.8163273334503174, 0.17794546484947205, -0.1039528176188469, 0.5395734310150146, 0.22798886895179749, -3.9714112281799316, 9.039224624633789, -0.9694603085517883, 1.942173719406128, 0.9949337244033813, -0.132568359375, 0.547607421875, -0.77734375, 
7, 3080694658, -0.8163447380065918, 0.1778927743434906, -0.10415001958608627, 0.5395263433456421, 0.21772520244121552, -3.9921157360076904, 9.016261100769043, -0.9786303639411926, 1.9197615385055542, 1.059814691543579, -0.132080078125, 0.547119140625, -0.77783203125, 
8, 3080702991, -0.8163523077964783, 0.17787416279315948, -0.10434336960315704, 0.5394836068153381, 0.1949128359556198, -3.9379045963287354, 8.977210998535156, -1.3709635734558105, 1.7242733240127563, 0.9084343910217285, -0.13232421875, 0.548095703125, -0.77587890625, 
9, 3080711324, -0.8163498640060425, 0.1778823733329773, -0.1045304611325264, 0.5394485592842102, 0.22370603680610657, -3.878488063812256, 8.91447639465332, -1.6185762882232666, 1.4119335412979126, 0.6632294058799744, -0.129150390625, 0.547607421875, -0.77734375, 
10, 3080719657, -0.8163319826126099, 0.1779366284608841, -0.10471034049987793, 0.5394228100776672, 0.23977555334568024, -3.829707622528076, 8.902217864990234, -2.1274802684783936, 1.1086353063583374, 0.3933834433555603, -0.13037109375, 0.548095703125, -0.77294921875, 
11, 3080727990, -0.8163217306137085, 0.1779925525188446, -0.1048901304602623, 0.5393849611282349, 0.24210825562477112, -3.8709216117858887, 8.931095123291016, -2.1228182315826416, 0.9810509085655212, 0.5523965954780579, -0.130859375, 0.549560546875, -0.775390625, 
12, 3080736323, -0.8163229823112488, 0.17799903452396393, -0.10501694679260254, 0.539355993270874, 0.2516370117664337, -3.960500478744507, 9.014177322387695, -1.154625654220581, 0.8317710757255554, 0.5081095695495605, -0.1298828125, 0.552490234375, -0.7783203125, 
13, 3080744656, -0.816328763961792, 0.17797596752643585, -0.10512100905179977, 0.5393346548080444, 0.1952940672636032, -4.031170845031738, 9.11775016784668, -0.6125516295433044, 0.7333611845970154, 0.41428467631340027, -0.1318359375, 0.548095703125, -0.77685546875, 
14, 3080752989, -0.8163221478462219, 0.17794521152973175, -0.1051982045173645, 0.539339542388916, 0.20721785724163055, -3.963290214538574, 9.164844512939453, -0.3385049104690552, 0.6457347869873047, 0.002894408069550991, -0.127685546875, 0.547607421875, -0.777099609375, 
15, 3080761322, -0.8163049817085266, 0.1779177486896515, -0.10529133677482605, 0.539356529712677, 0.24188798666000366, -3.9692416191101074, 9.163355827331543, -0.4825081527233124, 0.7700151801109314, -0.20508037507534027, -0.129150390625, 0.549072265625, -0.77978515625, 
16, 3080769655, -0.8162896037101746, 0.17790204286575317, -0.10540517419576645, 0.5393628478050232, 0.23497089743614197, -3.9747133255004883, 9.148306846618652, -0.8000221848487854, 0.961532711982727, -0.010514643974602222, -0.130126953125, 0.548583984375, -0.77880859375, 
17, 3080777988, -0.8162826895713806, 0.17788492143154144, -0.10552333295345306, 0.5393558740615845, 0.23494943976402283, -4.000070095062256, 9.083917617797852, -0.7934906482696533, 0.9007502198219299, 0.18437126278877258, -0.1298828125, 0.549560546875, -0.77685546875, 
18, 3080786321, -0.8162655234336853, 0.1779169887304306, -0.1056235209107399, 0.5393514633178711, 0.20904891192913055, -3.940458297729492, 9.023762702941895, -1.2552896738052368, 0.42921775579452515, -0.006185838021337986, -0.12744140625, 0.54931640625, -0.773681640625, 
19, 3080794654, -0.8162401914596558, 0.17797698080539703, -0.10572027415037155, 0.5393509864807129, 0.2533608376979828, -3.901003122329712, 8.945838928222656, -1.5363032817840576, 0.13199013471603394, -0.19009603559970856, -0.129150390625, 0.549072265625, -0.77734375, 
20, 3080802987, -0.8162076473236084, 0.17808903753757477, -0.10581687837839127, 0.5393444895744324, 0.21554630994796753, -3.907081127166748, 8.9074068069458, -2.167181968688965, -0.18697111308574677, -0.2218576818704605, -0.12939453125, 0.5498046875, -0.7744140625, 
21, 3080811320, -0.8161563873291016, 0.17826105654239655, -0.10591594129800797, 0.5393456220626831, 0.23278596997261047, -3.8571455478668213, 8.90602970123291, -2.8718550205230713, -0.6326331496238708, -0.556456446647644, -0.128173828125, 0.548583984375, -0.776123046875, 
22, 3080819653, -0.8160903453826904, 0.1784777194261551, -0.10602495819330215, 0.5393527150154114, 0.25332966446876526, -3.8744192123413086, 8.915031433105469, -3.4952542781829834, -0.7406483888626099, -0.7452332973480225, -0.127685546875, 0.550537109375, -0.77880859375, 
23, 3080827986, -0.8160300850868225, 0.17866753041744232, -0.10613422840833664, 0.5393596887588501, 0.24753886461257935, -4.008697986602783, 8.964363098144531, -3.1621670722961426, -0.6224899291992188, -0.6909311413764954, -0.1298828125, 0.5517578125, -0.7734375, 
24, 3080836319, -0.8160051107406616, 0.17873288691043854, -0.10616504400968552, 0.5393695831298828, 0.2514510452747345, -4.2127885818481445, 9.03619384765625, -1.1128233671188354, -0.5503858923912048, -0.44219133257865906, -0.13134765625, 0.55126953125, -0.77490234375, 
25, 3080844652, -0.816003143787384, 0.17866778373718262, -0.10613159090280533, 0.5394006967544556, 0.22669504582881927, -4.222416400909424, 9.092114448547363, 0.9373016357421875, -0.35815104842185974, -0.5077124834060669, -0.1279296875, 0.55126953125, -0.77587890625, 
26, 3080852985, -0.8160223364830017, 0.17853470146656036, -0.10608197748661041, 0.5394254922866821, 0.21076034009456635, -4.08647346496582, 9.091703414916992, 1.84230375289917, -0.007543392013758421, -0.1922220140695572, -0.1318359375, 0.552490234375, -0.7783203125, 
27, 3080861318, -0.8160402774810791, 0.17841829359531403, -0.10608319938182831, 0.5394366383552551, 0.24886886775493622, -3.956101417541504, 9.075605392456055, 1.2741800546646118, 0.3320629298686981, 0.025358092039823532, -0.12890625, 0.55078125, -0.77587890625, 
28, 3080869651, -0.8160489797592163, 0.17837637662887573, -0.10614275932312012, 0.5394256114959717, 0.2012881487607956, -3.918978214263916, 9.032302856445312, -0.06783930212259293, 0.4690222144126892, 0.26679787039756775, -0.12939453125, 0.550048828125, -0.7763671875, 
29, 3080877984, -0.8160322904586792, 0.17842444777488708, -0.10625533014535904, 0.5394129157066345, 0.1902298629283905, -3.9163460731506348, 8.962376594543457, -1.5163753032684326, 0.353886216878891, 0.06780087202787399, -0.12939453125, 0.55224609375, -0.77734375, 
30, 3080886317, -0.8159935474395752, 0.1785462498664856, -0.10637465119361877, 0.5394076108932495, 0.18677812814712524, -3.95253586769104, 8.921310424804688, -2.4585185050964355, 0.006659701932221651, -0.24229787290096283, -0.1279296875, 0.55078125, -0.774169921875, 
31, 3080894650, -0.8159387111663818, 0.1787039339542389, -0.10649324208498001, 0.5394149422645569, 0.1925388127565384, -3.958437919616699, 8.889598846435547, -2.8558719158172607, -0.2858676314353943, -0.5835050344467163, -0.12939453125, 0.55224609375, -0.77587890625, 
32, 3080902983, -0.8158908486366272, 0.17884570360183716, -0.1065623015165329, 0.5394267439842224, 0.1818457394838333, -3.9801528453826904, 8.892040252685547, -2.305985689163208, -0.6503583192825317, -0.6531758308410645, -0.12890625, 0.55029296875, -0.7744140625, 
33, 3080911316, -0.8158445358276367, 0.178950697183609, -0.10656958818435669, 0.5394605398178101, 0.19054090976715088, -4.079414367675781, 8.897550582885742, -1.379211187362671, -1.0927928686141968, -1.0147463083267212, -0.13037109375, 0.55078125, -0.77294921875, 
34, 3080919649, -0.8158059120178223, 0.17900218069553375, -0.10649708658456802, 0.5395160913467407, 0.18603841960430145, -4.115638256072998, 8.954168319702148, -0.1548764556646347, -1.4747779369354248, -1.2947865724563599, -0.12744140625, 0.55029296875, -0.776123046875, 
35, 3080927982, -0.8157828450202942, 0.1789831966161728, -0.10638456791639328, 0.5395795702934265, 0.20567971467971802, -4.112149715423584, 8.999966621398926, 1.0010554790496826, -1.4769039154052734, -1.287563443183899, -0.1279296875, 0.5537109375, -0.77587890625, 
36, 3080936315, -0.8157752156257629, 0.1789071261882782, -0.10624007880687714, 0.5396448969841003, 0.20988978445529938, -4.102708339691162, 9.05052375793457, 1.9003968238830566, -1.3561840057373047, -1.1651787757873535, -0.12646484375, 0.55078125, -0.774169921875, 
37, 3080944648, -0.8157855272293091, 0.17880158126354218, -0.10611675679683685, 0.5396884083747864, 0.2361612468957901, -4.1128034591674805, 9.076303482055664, 2.1051316261291504, -1.0543715953826904, -0.7174163460731506, -0.126953125, 0.55029296875, -0.774658203125, 
38, 3080952981, -0.8158136010169983, 0.17868022620677948, -0.10602837800979614, 0.5397036075592041, 0.2388370931148529, -4.085957050323486, 9.05799388885498, 2.0091803073883057, -0.5671887993812561, -0.13569140434265137, -0.1318359375, 0.550537109375, -0.7744140625, 
39, 3080961314, -0.8158540725708008, 0.1785520762205124, -0.10599098354578018, 0.5396921634674072, 0.2239590734243393, -4.020212173461914, 9.064765930175781, 1.7142071723937988, -0.10103535652160645, 0.36843517422676086, -0.12841796875, 0.55224609375, -0.7744140625, 
40, 3080969647, -0.8158930540084839, 0.1784488707780838, -0.10599930584430695, 0.5396658182144165, 0.22058652341365814, -3.9707648754119873, 9.006874084472656, 1.0527962446212769, 0.2653122842311859, 0.6254228949546814, -0.12744140625, 0.55322265625, -0.77734375, 
41, 3080977980, -0.8159139752388, 0.17840400338172913, -0.10603014379739761, 0.5396428108215332, 0.1863955557346344, -3.927490711212158, 8.985694885253906, 0.20988303422927856, 0.04526035115122795, 0.3987111747264862, -0.12744140625, 0.55126953125, -0.772705078125, 
42, 3080986313, -0.8159157037734985, 0.17842839658260345, -0.1060594916343689, 0.5396263599395752, 0.19742561876773834, -3.898242235183716, 8.950681686401367, -0.6118600368499756, -0.368652880191803, 0.1041218638420105, -0.12744140625, 0.55029296875, -0.775634765625, 
43, 3080994646, -0.8159075379371643, 0.17848694324493408, -0.1060771718621254, 0.53961580991745, 0.2155151516199112, -3.8960461616516113, 8.924022674560547, -0.906193196773529, -0.7948225736618042, -0.14130094647407532, -0.128173828125, 0.550537109375, -0.77685546875, 
44, 3081002979, -0.8158882260322571, 0.17857709527015686, -0.10606410354375839, 0.5396178960800171, 0.21953240036964417, -3.9032833576202393, 8.916035652160645, -1.0596481561660767, -1.256852149963379, -0.4602237939834595, -0.12890625, 0.552001953125, -0.77734375, 
45, 3081011312, -0.8158697485923767, 0.1786513477563858, -0.10600228607654572, 0.5396334528923035, 0.24278122186660767, -3.9820737838745117, 8.943747520446777, -0.4798186719417572, -1.725695013999939, -0.7295830845832825, -0.12646484375, 0.55322265625, -0.774169921875, 
46, 3081019645, -0.8158692121505737, 0.17862987518310547, -0.10585644096136093, 0.5396698713302612, 0.2569310665130615, -4.098209381103516, 8.993422508239746, 1.273719072341919, -1.860912799835205, -0.8678743839263916, -0.13134765625, 0.549560546875, -0.775390625, 
47, 3081027978, -0.8158918619155884, 0.17849501967430115, -0.10565763711929321, 0.5397193431854248, 0.23432190716266632, -4.1109113693237305, 9.060688972473145, 3.0339548587799072, -1.686735987663269, -0.8367018699645996, -0.126708984375, 0.550537109375, -0.778564453125, 
48, 3081036311, -0.8159167766571045, 0.1783294826745987, -0.10542010515928268, 0.5397826433181763, 0.21353992819786072, -3.998809576034546, 9.088037490844727, 3.6738500595092773, -1.7923691272735596, -0.9964578151702881, -0.1337890625, 0.551025390625, -0.775634765625, 
49, 3081044644, -0.8159283399581909, 0.1782158464193344, -0.1052413210272789, 0.5398375988006592, 0.23098230361938477, -3.8725061416625977, 9.102435111999512, 2.6268680095672607, -1.5888893604278564, -0.9628520011901855, -0.127685546875, 0.550048828125, -0.777099609375, 
50, 3081052977, -0.8159165978431702, 0.17820721864700317, -0.10511887818574905, 0.5398820638656616, 0.22373256087303162, -3.8365211486816406, 9.058609962463379, 0.9405289888381958, -1.658278226852417, -1.0056788921356201, -0.130126953125, 0.547607421875, -0.7763671875, 
51, 3081061310, -0.8158807754516602, 0.17829105257987976, -0.1050620749592781, 0.5399196147918701, 0.2281382828950882, -3.8742990493774414, 9.009462356567383, -0.6353995203971863, -1.6612496376037598, -1.1018602848052979, -0.1318359375, 0.550048828125, -0.77685546875, 
52, 3081069643, -0.8158381581306458, 0.17841584980487823, -0.10502082109451294, 0.5399508476257324, 0.24538880586624146, -3.902599334716797, 8.981143951416016, -1.2546749114990234, -1.7266939878463745, -1.0803955793380737, -0.129638671875, 0.548095703125, -0.7744140625, 
53, 3081077976, -0.8157990574836731, 0.17852112650871277, -0.10497365891933441, 0.5399842262268066, 0.25527480244636536, -3.9466545581817627, 8.940961837768555, -0.9617503881454468, -1.7173703908920288, -1.087977409362793, -0.13037109375, 0.55126953125, -0.7734375, 
54, 3081086309, -0.8157685399055481, 0.1785890758037567, -0.10490017384290695, 0.5400221347808838, 0.2566426396369934, -3.9854602813720703, 8.983440399169922, -0.33817192912101746, -1.6680885553359985, -1.0594431161880493, -0.132080078125, 0.546630859375, -0.77783203125, 
55, 3081094642, -0.8157503008842468, 0.1786043494939804, -0.10479803383350372, 0.5400645732879639, 0.24410788714885712, -4.027048110961914, 9.04236888885498, 0.5204300284385681, -1.6749275922775269, -1.0403605699539185, -0.132080078125, 0.548583984375, -0.7783203125, 
56, 3081102975, -0.8157402873039246, 0.1786058247089386, -0.10465678572654724, 0.5401065945625305, 0.23582416772842407, -4.0522780418396, 9.086766242980957, 0.9668092131614685, -1.9537643194198608, -1.025888442993164, -0.1318359375, 0.55078125, -0.7734375, 
57, 3081111308, -0.8157321810722351, 0.17861881852149963, -0.10453589260578156, 0.5401378870010376, 0.24938170611858368, -4.021263599395752, 9.071436882019043, 0.6945043206214905, -1.9096052646636963, -0.8819108605384827, -0.1318359375, 0.549560546875, -0.77587890625, 
58, 3081119641, -0.8157195448875427, 0.17864665389060974, -0.1044568344950676, 0.540162980556488, 0.3135734796524048, -4.014955043792725, 9.060613632202148, 0.17953017354011536, -1.4892756938934326, -0.7403666973114014, -0.13037109375, 0.550537109375, -0.775390625, 
59, 3081127974, -0.8157176971435547, 0.17862467467784882, -0.10443723946809769, 0.5401768684387207, 0.3481360077857971, -4.044882774353027, 9.108895301818848, 0.3249421715736389, -0.5653189420700073, -0.34191158413887024, -0.13427734375, 0.548583984375, -0.77587890625, 
60, 3081136307, -0.8157252669334412, 0.17855259776115417, -0.10446178913116455, 0.5401843190193176, 0.27667197585105896, -4.094902515411377, 9.141325950622559, 0.5545225739479065, 0.3395678997039795, 0.009554109536111355, -0.129150390625, 0.546630859375, -0.776123046875, 
61, 3081144640, -0.815726101398468, 0.17848528921604156, -0.10452719032764435, 0.5401928424835205, 0.2174820899963379, -4.0414347648620605, 9.1369047164917, 0.20058508217334747, 0.7091044783592224, 0.011142192408442497, -0.1298828125, 0.548095703125, -0.7734375, 
62, 3081152973, -0.8157212138175964, 0.1784597784280777, -0.1046048104763031, 0.5401934385299683, 0.20692448318004608, -3.9578254222869873, 9.106792449951172, -0.4012085199356079, 0.5934561491012573, 0.051740750670433044, -0.132080078125, 0.545166015625, -0.7783203125, 
63, 3081161306, -0.815718948841095, 0.17845436930656433, -0.10469111800193787, 0.5401820540428162, 0.21751081943511963, -3.9371888637542725, 9.024755477905273, -0.6856802701950073, 0.43759363889694214, 0.17448419332504272, -0.12939453125, 0.548583984375, -0.77490234375, 
64, 3081169639, -0.8157172203063965, 0.17845988273620605, -0.10475598275661469, 0.5401702523231506, 0.20748251676559448, -3.97450590133667, 8.97954273223877, -0.6663159132003784, 0.18352600932121277, 0.1409551501274109, -0.130859375, 0.548095703125, -0.775390625, 
65, 3081177972, -0.8157168626785278, 0.1784692108631134, -0.10480300337076187, 0.5401586294174194, 0.2084481567144394, -3.945422410964966, 8.94222640991211, -0.5544841289520264, -0.11504634469747543, 0.07287251204252243, -0.1298828125, 0.549072265625, -0.77587890625, 
66, 3081186305, -0.8157122135162354, 0.17848244309425354, -0.10481762140989304, 0.5401585102081299, 0.2123822122812271, -3.8730642795562744, 8.938142776489258, -0.370343416929245, -0.40507635474205017, -0.1456809639930725, -0.13232421875, 0.546630859375, -0.7734375, 
67, 3081194638, -0.8156956434249878, 0.17852595448493958, -0.10480539500713348, 0.5401715636253357, 0.20498616993427277, -3.857921838760376, 8.963099479675293, -0.5004124641418457, -0.9514791965484619, -0.5174203515052795, -0.13232421875, 0.550048828125, -0.7763671875, 
68, 3081202971, -0.8156620264053345, 0.17861726880073547, -0.10479177534580231, 0.5401946902275085, 0.24231696128845215, -3.9179961681365967, 8.978267669677734, -1.0743250846862793, -1.2023193836212158, -0.8060415387153625, -0.12890625, 0.548095703125, -0.773681640625, 
69, 3081211304, -0.8156219720840454, 0.17871181666851044, -0.10479019582271576, 0.5402241349220276, 0.28133320808410645, -3.9425833225250244, 8.99764347076416, -1.1865665912628174, -1.1363370418548584, -0.9231241941452026, -0.13330078125, 0.546142578125, -0.7734375, 
70, 3081219637, -0.8155883550643921, 0.1787809133529663, -0.10477414727210999, 0.5402552485466003, 0.29351696372032166, -4.009661674499512, 9.036579132080078, -0.797102153301239, -1.0462006330490112, -0.8692063093185425, -0.130859375, 0.55224609375, -0.7763671875, 
71, 3081227970, -0.8155621290206909, 0.17879833281040192, -0.10476884990930557, 0.5402902960777283, 0.293230801820755, -4.039553642272949, 9.063231468200684, -0.2518519461154938, -0.6097084283828735, -0.7808883190155029, -0.13232421875, 0.549560546875, -0.77490234375, 
72, 3081236303, -0.8155463337898254, 0.17877031862735748, -0.10476797074079514, 0.5403234362602234, 0.26756638288497925, -4.039052963256836, 9.096585273742676, 0.22829966247081757, -0.17662294209003448, -0.5814303159713745, -0.129638671875, 0.549560546875, -0.77685546875, 
73, 3081244636, -0.8155310750007629, 0.17875468730926514, -0.10480507463216782, 0.5403444766998291, 0.23861168324947357, -3.9881677627563477, 9.09318733215332, -0.19106939435005188, 0.060014158487319946, -0.38998955488204956, -0.1298828125, 0.549560546875, -0.77587890625, 
74, 3081252969, -0.8155150413513184, 0.17877215147018433, -0.10486428439617157, 0.540351390838623, 0.2237910032272339, -3.981093645095825, 9.050277709960938, -0.767440915107727, 0.09671935439109802, -0.20861513912677765, -0.1328125, 0.548583984375, -0.7763671875, 
75, 3081261302, -0.8154920339584351, 0.1788298338651657, -0.1049574762582779, 0.5403489470481873, 0.23252461850643158, -3.973597288131714, 9.030056953430176, -1.4810022115707397, 0.0982562005519867, -0.15385189652442932, -0.131591796875, 0.547607421875, -0.7763671875, 
76, 3081269635, -0.8154711723327637, 0.1788957417011261, -0.10505988448858261, 0.5403386354446411, 0.25364625453948975, -3.9727673530578613, 9.023720741271973, -1.6687290668487549, 0.18588250875473022, -0.012179569341242313, -0.12939453125, 0.549560546875, -0.775390625, 
77, 3081277968, -0.8154516220092773, 0.17894506454467773, -0.10518476366996765, 0.5403275489807129, 0.23325875401496887, -4.006921291351318, 9.03370475769043, -1.6262861490249634, 0.4885658919811249, 0.060090985149145126, -0.1328125, 0.549072265625, -0.7744140625, 
78, 3081286301, -0.8154513239860535, 0.1789509654045105, -0.1052861139178276, 0.5403060913085938, 0.2590402066707611, -4.048981189727783, 9.028196334838867, -0.9531952738761902, 0.5644352436065674, 0.3437430262565613, -0.130859375, 0.55126953125, -0.7734375, 
79, 3081294634, -0.8154556155204773, 0.1789400577545166, -0.10539193451404572, 0.5402827858924866, 0.23950575292110443, -4.007723808288574, 9.054533004760742, -0.7698742151260376, 0.6572612524032593, 0.41244038939476013, -0.13232421875, 0.552001953125, -0.77587890625, 
80, 3081302967, -0.8154615163803101, 0.17893216013908386, -0.10549759119749069, 0.5402557849884033, 0.2285333275794983, -3.9985251426696777, 9.067537307739258, -0.8213332295417786, 0.6911231875419617, 0.48631182312965393, -0.13330078125, 0.551025390625, -0.777099609375, 
81, 3081311300, -0.8154647350311279, 0.17893275618553162, -0.10564622282981873, 0.5402217507362366, 0.25888556241989136, -4.041514873504639, 9.080044746398926, -1.2358739376068115, 1.0280529260635376, 0.6143060922622681, -0.1328125, 0.551025390625, -0.775390625, 
82, 3081319633, -0.8154764771461487, 0.17894239723682404, -0.10580970346927643, 0.5401688814163208, 0.26554960012435913, -4.050836563110352, 9.046531677246094, -1.471960425376892, 1.1354533433914185, 0.9372504353523254, -0.13232421875, 0.552734375, -0.775390625, 
83, 3081327966, -0.815488338470459, 0.1789408177137375, -0.10598807036876678, 0.5401167869567871, 0.2443619817495346, -4.080333232879639, 9.034026145935059, -1.4361517429351807, 1.3214128017425537, 0.9585615396499634, -0.13330078125, 0.548583984375, -0.77392578125, 
84, 3081336299, -0.8154935836791992, 0.17894569039344788, -0.10618852078914642, 0.5400676727294922, 0.25355657935142517, -4.042168140411377, 9.02447509765625, -1.703615665435791, 1.6038867235183716, 0.9427063465118408, -0.12939453125, 0.551513671875, -0.77685546875, 
85, 3081344632, -0.8155046105384827, 0.1789364069700241, -0.10640137642621994, 0.5400122404098511, 0.2529454827308655, -4.028244972229004, 8.976449966430664, -1.6131205558776855, 1.7587246894836426, 1.0841994285583496, -0.1318359375, 0.551513671875, -0.7763671875, 
86, 3081352965, -0.8155120611190796, 0.17891478538513184, -0.10659675300121307, 0.5399696230888367, 0.22768405079841614, -4.049815654754639, 8.96056842803955, -1.3519322872161865, 1.7563426494598389, 0.9162724614143372, -0.12890625, 0.55322265625, -0.77783203125, 
87, 3081361298, -0.8155187964439392, 0.17890994250774384, -0.10677196085453033, 0.5399265885353088, 0.19482548534870148, -3.997753143310547, 8.941912651062012, -1.376752257347107, 1.3400598764419556, 0.8141740560531616, -0.1279296875, 0.5517578125, -0.775390625, 
88, 3081369631, -0.8155168890953064, 0.17893028259277344, -0.1069076806306839, 0.5398955941200256, 0.17765136063098907, -3.9699132442474365, 8.929274559020996, -1.3860247135162354, 0.8189384341239929, 0.5053176879882812, -0.128662109375, 0.550048828125, -0.77685546875, 
89, 3081377964, -0.8155102133750916, 0.1789669394493103, -0.10700930655002594, 0.5398736000061035, 0.18108852207660675, -4.004175662994385, 8.898151397705078, -1.297066330909729, 0.2777351438999176, 0.23782815039157867, -0.1328125, 0.552001953125, -0.77587890625, 
90, 3081386297, -0.815506100654602, 0.17898467183113098, -0.10704352706670761, 0.5398669838905334, 0.19006533920764923, -3.9972589015960693, 8.896856307983398, -0.5730544328689575, -0.23673956096172333, -0.03502746671438217, -0.12939453125, 0.5517578125, -0.7763671875, 
91, 3081394630, -0.8155056238174438, 0.17895936965942383, -0.10702606290578842, 0.5398796796798706, 0.19814090430736542, -4.041148662567139, 8.922735214233398, 0.3483535647392273, -0.5211344361305237, -0.3083057105541229, -0.12890625, 0.549560546875, -0.775390625, 
92, 3081402963, -0.8155142068862915, 0.1789216697216034, -0.106965571641922, 0.5398913025856018, 0.20838379859924316, -4.01365327835083, 8.952726364135742, 0.8095378279685974, -0.8616500496864319, -0.29178452491760254, -0.126220703125, 0.55126953125, -0.776611328125, 
93, 3081411296, -0.8155220150947571, 0.17891155183315277, -0.10690411925315857, 0.5398948788642883, 0.16828493773937225, -3.953526496887207, 8.967984199523926, 0.511669933795929, -1.1622587442398071, -0.27441808581352234, -0.125732421875, 0.54931640625, -0.776611328125, 
94, 3081419629, -0.8155149817466736, 0.17897145450115204, -0.10686106979846954, 0.5398941040039062, 0.184128537774086, -3.896289587020874, 8.987641334533691, -0.46921440958976746, -1.4000357389450073, -0.36855044960975647, -0.12890625, 0.5517578125, -0.7763671875, 
95, 3081427962, -0.8154932856559753, 0.17911896109580994, -0.10686808079481125, 0.5398765802383423, 0.21878716349601746, -3.8632023334503174, 9.009310722351074, -1.8693909645080566, -1.5730085372924805, -0.3218044340610504, -0.129150390625, 0.550537109375, -0.77783203125, 
96, 3081436295, -0.8154613971710205, 0.17931734025478363, -0.10691981017589569, 0.5398486852645874, 0.21928013861179352, -3.9451723098754883, 9.027621269226074, -2.8285927772521973, -1.3974231481552124, -0.2169397473335266, -0.12841796875, 0.5498046875, -0.775390625, 
97, 3081444628, -0.8154233694076538, 0.1795249730348587, -0.10702230036258698, 0.5398167967796326, 0.22561229765415192, -3.961759090423584, 9.041549682617188, -3.3111140727996826, -0.9593427777290344, -0.13400088250637054, -0.1298828125, 0.55224609375, -0.771484375, 
98, 3081452961, -0.8153945803642273, 0.17972123622894287, -0.10712505877017975, 0.5397747159004211, 0.1923789530992508, -4.053675174713135, 9.052013397216797, -3.1976938247680664, -0.8430284857749939, 0.08186309039592743, -0.13037109375, 0.55322265625, -0.77392578125, 
99, 3081461294, -0.81536865234375, 0.17987589538097382, -0.10722653567790985, 0.5397422313690186, 0.2065582275390625, -4.0818047523498535, 9.033940315246582, -2.6830785274505615, -0.5978490710258484, 0.037627313286066055, -0.12744140625, 0.5517578125, -0.774658203125, 
100, 3081469627, -0.8153507113456726, 0.18000715970993042, -0.10733865946531296, 0.5397030115127563, 0.24113912880420685, -4.034494876861572, 9.03863525390625, -2.5065195560455322, -0.26834753155708313, 0.25875502824783325, -0.1259765625, 0.55078125, -0.774169921875, 
101, 3081477960, -0.8153325915336609, 0.18013721704483032, -0.10748902708292007, 0.5396571159362793, 0.23947246372699738, -4.017688274383545, 9.009507179260254, -2.769731283187866, 0.08847156912088394, 0.40357789397239685, -0.12890625, 0.552734375, -0.771484375, 
102, 3081486293, -0.815316915512085, 0.18027836084365845, -0.10764665901660919, 0.5396023988723755, 0.2052510380744934, -4.052145004272461, 8.997651100158691, -2.972468137741089, 0.1256890445947647, 0.548170268535614, -0.12744140625, 0.55126953125, -0.772705078125, 
103, 3081494626, -0.8152925372123718, 0.18042096495628357, -0.10780748724937439, 0.5395593047142029, 0.18365289270877838, -4.061708927154541, 8.961749076843262, -2.999465227127075, 0.12889082729816437, 0.33293381333351135, -0.12744140625, 0.552734375, -0.772216796875, 
104, 3081502959, -0.8152640461921692, 0.18054167926311493, -0.10794133692979813, 0.5395352840423584, 0.2270590215921402, -4.103902816772461, 8.945798873901367, -2.5534956455230713, 0.10655523091554642, 0.07679147273302078, -0.130859375, 0.5537109375, -0.76953125, 
105, 3081511292, -0.8152384757995605, 0.1806260049343109, -0.1080453023314476, 0.5395248532295227, 0.22084109485149384, -4.091635704040527, 8.924205780029297, -1.8774081468582153, 0.005814431235194206, -0.09693706780672073, -0.12890625, 0.55224609375, -0.76953125, 
106, 3081519625, -0.8152267932891846, 0.1807040572166443, -0.10810869932174683, 0.5395037531852722, 0.17466527223587036, -4.079466819763184, 8.94183349609375, -1.5068727731704712, -0.38389334082603455, 0.057145364582538605, -0.12841796875, 0.55419921875, -0.77392578125, 
107, 3081527958, -0.8152120113372803, 0.1808081716299057, -0.10814052075147629, 0.5394848585128784, 0.15950702130794525, -4.064106464385986, 8.935739517211914, -1.5497764348983765, -0.9870061874389648, -0.12908293306827545, -0.12890625, 0.55322265625, -0.771484375, 
108, 3081536291, -0.8151909112930298, 0.18093647062778473, -0.10815072804689407, 0.5394716262817383, 0.17509272694587708, -4.030482769012451, 8.946196556091309, -1.686146855354309, -1.3219635486602783, -0.30699941515922546, -0.1259765625, 0.5546875, -0.771728515625, 
109, 3081544624, -0.8151708841323853, 0.1810692697763443, -0.10817359387874603, 0.5394529104232788, 0.2171146273612976, -4.035478591918945, 8.968951225280762, -1.8191869258880615, -1.2904579639434814, -0.23415252566337585, -0.13037109375, 0.55615234375, -0.771484375, 
110, 3081552957, -0.8151597380638123, 0.18117742240428925, -0.10819344222545624, 0.5394291281700134, 0.20827922224998474, -4.105815887451172, 9.004142761230469, -1.5212935209274292, -1.1037815809249878, -0.06619999557733536, -0.12841796875, 0.55322265625, -0.77294921875, 
111, 3081561290, -0.8151537775993347, 0.1812758594751358, -0.1082121878862381, 0.5394014120101929, 0.14957652986049652, -4.118083953857422, 9.016496658325195, -1.380517601966858, -1.1250157356262207, 0.010322537273168564, -0.12890625, 0.55419921875, -0.771484375, 
112, 3081569623, -0.8151416778564453, 0.18139368295669556, -0.10823489725589752, 0.5393754243850708, 0.1634451150894165, -4.006807804107666, 9.00085735321045, -1.6586369276046753, -1.147965908050537, -0.05272689834237099, -0.1279296875, 0.556396484375, -0.771484375, 
113, 3081577956, -0.815119206905365, 0.18158572912216187, -0.1083264946937561, 0.5393264293670654, 0.21443091332912445, -3.972114086151123, 9.001601219177246, -3.0432400703430176, -1.0314724445343018, 0.1676451712846756, -0.1279296875, 0.5556640625, -0.77197265625, 
114, 3081586289, -0.8150997161865234, 0.18178460001945496, -0.10847730189561844, 0.5392586588859558, 0.2844773232936859, -4.007712364196777, 9.01769733428955, -3.5966098308563232, -0.4078938663005829, 0.5615408420562744, -0.126953125, 0.55517578125, -0.7744140625, 
115, 3081594622, -0.8150901198387146, 0.1819196343421936, -0.10866768658161163, 0.5391892790794373, 0.2644217312335968, -4.198775291442871, 9.066866874694824, -3.1362712383270264, 0.42837244272232056, 0.8240867257118225, -0.13037109375, 0.557861328125, -0.7705078125, 
116, 3081602955, -0.8150909543037415, 0.18196895718574524, -0.10882755368947983, 0.5391392111778259, 0.17776159942150116, -4.2602219581604, 9.098081588745117, -1.9095540046691895, 0.820475161075592, 0.7513678669929504, -0.130859375, 0.556884765625, -0.7705078125, 
117, 3081611288, -0.8150926232337952, 0.18194201588630676, -0.10896729677915573, 0.5391175150871277, 0.21816173195838928, -4.210399627685547, 9.056049346923828, -0.8454106450080872, 1.1635522842407227, 0.4897185266017914, -0.12841796875, 0.557861328125, -0.76953125, 
118, 3081619621, -0.8150944709777832, 0.18186739087104797, -0.10908713936805725, 0.5391156673431396, 0.2536970376968384, -4.139922618865967, 8.998369216918945, -0.14844727516174316, 1.4047613143920898, 0.3159259855747223, -0.12744140625, 0.557373046875, -0.77197265625, 
119, 3081627954, -0.8151100873947144, 0.1817808896303177, -0.10923366993665695, 0.5390917062759399, 0.2720658481121063, -4.072729587554932, 8.974678993225098, -0.19701188802719116, 1.655243158340454, 0.7224494218826294, -0.12744140625, 0.55712890625, -0.7734375, 
120, 3081636287, -0.8151156902313232, 0.18173407018184662, -0.10940459370613098, 0.5390640497207642, 0.21614617109298706, -4.056321144104004, 8.954312324523926, -0.8677461743354797, 1.697813868522644, 0.7262659668922424, -0.1279296875, 0.555419921875, -0.76953125, 
121, 3081644620, -0.8151143789291382, 0.18171526491641998, -0.10957235842943192, 0.539038360118866, 0.21900534629821777, -4.059853553771973, 8.941234588623047, -1.1567260026931763, 1.412855625152588, 0.5687128901481628, -0.12548828125, 0.559814453125, -0.77099609375, 
122, 3081652953, -0.8151074647903442, 0.18168120086193085, -0.1097031980752945, 0.5390337705612183, 0.23577195405960083, -4.101382732391357, 8.915761947631836, -0.7121142148971558, 1.2352977991104126, 0.24223384261131287, -0.126953125, 0.557373046875, -0.77197265625, 
123, 3081661286, -0.8150916695594788, 0.18164104223251343, -0.10979348421096802, 0.5390528440475464, 0.2415085881948471, -4.036077499389648, 8.90164852142334, -0.3113282024860382, 0.8356388211250305, -0.2003929615020752, -0.1259765625, 0.557373046875, -0.7734375, 
124, 3081669619, -0.8150783777236938, 0.18162323534488678, -0.1098523885011673, 0.539066731929779, 0.19030138850212097, -3.9606292247772217, 8.889796257019043, -0.3465989828109741, 0.36684703826904297, -0.22062820196151733, -0.12548828125, 0.556396484375, -0.769775390625, 
125, 3081677952, -0.8150447607040405, 0.18170739710330963, -0.10990851372480392, 0.5390779972076416, 0.17364956438541412, -3.889622926712036, 8.890089988708496, -1.5107147693634033, -0.4619143307209015, -0.518957257270813, -0.125, 0.555908203125, -0.770751953125, 
126, 3081686285, -0.8149816393852234, 0.1819220632314682, -0.10996322333812714, 0.5390899777412415, 0.19785062968730927, -3.86411452293396, 8.903088569641113, -3.050079345703125, -1.3363332748413086, -0.9233037233352661, -0.12548828125, 0.556396484375, -0.770263671875, 
127, 3081694618, -0.8148984909057617, 0.18218126893043518, -0.11001244187355042, 0.5391181707382202, 0.23256370425224304, -4.017642974853516, 8.88626766204834, -3.5177693367004395, -1.718497395515442, -1.358668565750122, -0.12744140625, 0.560791015625, -0.771484375, 
128, 3081702951, -0.8148210048675537, 0.18237489461898804, -0.1099974662065506, 0.5391725301742554, 0.24879302084445953, -4.15590238571167, 8.930624008178711, -2.2697925567626953, -1.8391917943954468, -1.6354304552078247, -0.12548828125, 0.558837890625, -0.770751953125, 
129, 3081711284, -0.8147786855697632, 0.18244101107120514, -0.10990151017904282, 0.5392338037490845, 0.2356310337781906, -4.246647357940674, 8.987857818603516, -0.12544572353363037, -1.8929306268692017, -1.4970111846923828, -0.1259765625, 0.554931640625, -0.770751953125, 
130, 3081719617, -0.8147664070129395, 0.18239040672779083, -0.10972701013088226, 0.5393047332763672, 0.21752652525901794, -4.213864803314209, 9.009629249572754, 1.8383080959320068, -1.8727720975875854, -1.3681460618972778, -0.12841796875, 0.556884765625, -0.7685546875, 
131, 3081727950, -0.8147644400596619, 0.18227967619895935, -0.10957755893468857, 0.5393757820129395, 0.23817647993564606, -4.075316905975342, 9.065275192260742, 2.36765193939209, -1.2175086736679077, -1.1747328042984009, -0.12646484375, 0.555908203125, -0.767822265625, 
132, 3081736283, -0.8147490620613098, 0.18219570815563202, -0.10950744897127151, 0.5394415855407715, 0.2407662719488144, -3.9607372283935547, 9.097667694091797, 1.4229217767715454, -0.46393781900405884, -1.0230965614318848, -0.12890625, 0.559326171875, -0.76953125, 
133, 3081744616, -0.8147037625312805, 0.1822071075439453, -0.10955221951007843, 0.5394970774650574, 0.21346229314804077, -3.932210922241211, 9.103559494018555, -0.5728752017021179, 0.07889185100793839, -1.0182043313980103, -0.126953125, 0.557861328125, -0.7705078125, 
134, 3081752949, -0.8146253228187561, 0.18230047821998596, -0.10968591272830963, 0.5395567417144775, 0.17261521518230438, -3.933363437652588, 9.077775955200195, -2.242769718170166, 0.5881285071372986, -1.1884108781814575, -0.12841796875, 0.558349609375, -0.76806640625, 
135, 3081761282, -0.8145320415496826, 0.1824532449245453, -0.10986661165952682, 0.539609432220459, 0.1320488005876541, -4.0423102378845215, 9.01435375213623, -3.290443181991577, 0.6189936995506287, -1.2165865898132324, -0.13037109375, 0.557861328125, -0.7685546875, 
136, 3081769615, -0.8144431710243225, 0.1825919896364212, -0.1100136935710907, 0.539666473865509, 0.13216125965118408, -4.121856212615967, 8.950831413269043, -2.883305072784424, 0.4237107038497925, -1.3029577732086182, -0.12841796875, 0.559326171875, -0.76904296875, 
137, 3081777948, -0.8143740296363831, 0.18266749382019043, -0.11010260134935379, 0.5397272706031799, 0.1369975209236145, -4.171442985534668, 8.905221939086914, -1.6703684329986572, 0.14720501005649567, -1.2402541637420654, -0.1259765625, 0.558349609375, -0.769287109375, 
138, 3081786281, -0.8143265247344971, 0.18267451226711273, -0.11011446267366409, 0.5397940278053284, 0.1486360728740692, -4.227129936218262, 8.905396461486816, -0.2849711775779724, -0.16012738645076752, -1.2247318029403687, -0.12841796875, 0.555419921875, -0.7685546875, 
139, 3081794614, -0.8142964839935303, 0.18265196681022644, -0.11008588969707489, 0.5398527383804321, 0.14965178072452545, -4.231864929199219, 8.904316902160645, 0.39561188220977783, -0.5051767826080322, -1.0723016262054443, -0.1279296875, 0.558349609375, -0.7685546875, 
140, 3081802947, -0.814271867275238, 0.1826423853635788, -0.11002615094184875, 0.539905309677124, 0.18186818063259125, -4.197910308837891, 8.88525390625, 0.4681257903575897, -0.9240463972091675, -1.0216110944747925, -0.12646484375, 0.557861328125, -0.7705078125, 
141, 3081811280, -0.8142536878585815, 0.1826542764902115, -0.10997264087200165, 0.5399396419525146, 0.22504989802837372, -4.156188011169434, 8.888916969299316, 0.1885719895362854, -1.1188424825668335, -0.8281465768814087, -0.125, 0.557861328125, -0.768310546875, 
142, 3081819613, -0.8142446279525757, 0.18266808986663818, -0.10993856191635132, 0.5399554967880249, 0.23966315388679504, -4.205907344818115, 8.924823760986328, 0.002868794370442629, -0.9251478314399719, -0.4673701524734497, -0.12890625, 0.557373046875, -0.7705078125, 
143, 3081827946, -0.814241886138916, 0.1826995611190796, -0.10990164428949356, 0.5399565100669861, 0.19581623375415802, -4.221443176269531, 8.945323944091797, -0.16745305061340332, -1.1855676174163818, -0.3300521969795227, -0.12841796875, 0.558349609375, -0.7734375, 
144, 3081836279, -0.8142355680465698, 0.1827424019575119, -0.10986156016588211, 0.5399596691131592, 0.1958591490983963, -4.163326740264893, 8.94726276397705, -0.29075998067855835, -1.2297521829605103, -0.3945232331752777, -0.130126953125, 0.560791015625, -0.76904296875, 
145, 3081844612, -0.814239501953125, 0.18277829885482788, -0.10982578247785568, 0.5399487614631653, 0.25872549414634705, -4.107813358306885, 8.961482048034668, -0.22564858198165894, -1.2454794645309448, -0.14895957708358765, -0.12890625, 0.556884765625, -0.7666015625, 
146, 3081852945, -0.8142558336257935, 0.18278881907463074, -0.10978823155164719, 0.5399281978607178, 0.2629814147949219, -4.15120267868042, 8.963135719299316, 0.07389705628156662, -1.055677890777588, 0.09589969366788864, -0.12890625, 0.558837890625, -0.77001953125, 
147, 3081861278, -0.814275860786438, 0.18276381492614746, -0.10973899066448212, 0.5399165749549866, 0.21238936483860016, -4.175722599029541, 9.004878044128418, 0.595582127571106, -0.9703825116157532, 0.03580869734287262, -0.1279296875, 0.558349609375, -0.7685546875, 
148, 3081869611, -0.814296543598175, 0.18273256719112396, -0.10966819524765015, 0.5399104356765747, 0.1719471961259842, -4.150157928466797, 8.978584289550781, 0.821884036064148, -1.0945603847503662, -0.04202015697956085, -0.126953125, 0.557373046875, -0.766845703125, 
149, 3081877944, -0.8143081068992615, 0.1827177107334137, -0.10958537459373474, 0.5399148464202881, 0.19846993684768677, -4.079953193664551, 8.95653247833252, 0.734180748462677, -1.3689398765563965, -0.3053344488143921, -0.12841796875, 0.558837890625, -0.7705078125, 
150, 3081886277, -0.8143264651298523, 0.18269884586334229, -0.1094963550567627, 0.5399116277694702, 0.21364825963974, -4.070647239685059, 8.928500175476074, 0.8161976337432861, -1.3773415088653564, -0.1591796725988388, -0.126953125, 0.557861328125, -0.76806640625, 
151, 3081894610, -0.8143555521965027, 0.18265746533870697, -0.10941889137029648, 0.539897620677948, 0.22432030737400055, -4.080296516418457, 8.9370698928833, 1.0085605382919312, -1.1852346658706665, 0.08373294025659561, -0.12841796875, 0.557373046875, -0.77001953125, 
152, 3081902943, -0.8143921494483948, 0.18259283900260925, -0.10934063792228699, 0.5398797988891602, 0.21899859607219696, -4.0644025802612305, 8.999678611755371, 1.2728992700576782, -0.9851361513137817, 0.2418239712715149, -0.130859375, 0.557861328125, -0.76904296875, 
153, 3081911276, -0.8144217729568481, 0.18256060779094696, -0.10927879065275192, 0.5398584604263306, 0.17741179466247559, -4.065139293670654, 9.001795768737793, 0.7802607417106628, -1.097505807876587, 0.19694784283638, -0.1298828125, 0.558837890625, -0.76904296875, 
154, 3081919609, -0.8144419193267822, 0.18257105350494385, -0.10921390354633331, 0.5398377180099487, 0.19392073154449463, -4.012401580810547, 9.01522159576416, 0.28667452931404114, -1.360026240348816, 0.04100839048624039, -0.13037109375, 0.558837890625, -0.77099609375, 
155, 3081927942, -0.8144477009773254, 0.18260835111141205, -0.10918162018060684, 0.5398229360580444, 0.22305415570735931, -3.9972660541534424, 8.997359275817871, -0.2689622640609741, -1.229957103729248, -0.08369451016187668, -0.130615234375, 0.558349609375, -0.76708984375, 
156, 3081936275, -0.8144479393959045, 0.1826346516609192, -0.10917585343122482, 0.539814829826355, 0.2766505181789398, -4.00949764251709, 9.043339729309082, -0.3606868088245392, -0.7690033316612244, -0.09283879399299622, -0.12646484375, 0.555908203125, -0.768798828125, 
157, 3081944608, -0.8144461512565613, 0.18264071643352509, -0.10920310765504837, 0.539810061454773, 0.2603563368320465, -4.03887414932251, 9.06005573272705, -0.36432406306266785, -0.29483264684677124, -0.05751676484942436, -0.12744140625, 0.555908203125, -0.76904296875, 
158, 3081952941, -0.8144312500953674, 0.18266801536083221, -0.10924406349658966, 0.5398151278495789, 0.22640179097652435, -4.047536373138428, 9.052824020385742, -0.7388297915458679, -0.16069090366363525, -0.31537526845932007, -0.1279296875, 0.556884765625, -0.7705078125, 
159, 3081961274, -0.8144022226333618, 0.18270479142665863, -0.10928675532341003, 0.5398377776145935, 0.2098999172449112, -4.060018062591553, 9.01090145111084, -0.8505591154098511, -0.24009501934051514, -0.5730544328689575, -0.12939453125, 0.556640625, -0.77099609375, 
160, 3081969607, -0.8143789172172546, 0.18273869156837463, -0.10930940508842468, 0.5398570895195007, 0.22523586452007294, -4.131410598754883, 8.967340469360352, -0.6771506667137146, -0.3949586749076843, -0.5329168438911438, -0.1318359375, 0.556884765625, -0.76953125, 
161, 3081977940, -0.8143607974052429, 0.18272718787193298, -0.1093132495880127, 0.5398873090744019, 0.2299567461013794, -4.1548075675964355, 8.920989990234375, 0.01854470558464527, -0.313812792301178, -0.6018192172050476, -0.130859375, 0.557373046875, -0.76806640625, 
162, 3081986273, -0.814346432685852, 0.18271471560001373, -0.109309121966362, 0.5399140119552612, 0.23517106473445892, -4.07777738571167, 8.899667739868164, 0.0769195482134819, -0.3561531603336334, -0.5239264369010925, -0.12646484375, 0.555908203125, -0.770751953125, 
163, 3081994606, -0.8143260478973389, 0.18274375796318054, -0.10932989418506622, 0.5399308204650879, 0.19095230102539062, -4.027772903442383, 8.90282154083252, -0.5883461236953735, -0.45548510551452637, -0.48791274428367615, -0.12744140625, 0.55517578125, -0.77197265625, 
164, 3082002939, -0.8142912983894348, 0.18283545970916748, -0.10934259742498398, 0.5399495363235474, 0.16097432374954224, -4.0220513343811035, 8.890403747558594, -1.2788034677505493, -0.9256600141525269, -0.7113201022148132, -0.131591796875, 0.557861328125, -0.767578125, 
165, 3082011272, -0.8142483234405518, 0.18298664689064026, -0.10933562368154526, 0.5399644374847412, 0.15077926218509674, -4.074432849884033, 8.901015281677246, -1.8088902235031128, -1.6440370082855225, -0.8865982890129089, -0.12890625, 0.559326171875, -0.77099609375, 
166, 3082019605, -0.8142130970954895, 0.18316733837127686, -0.10928706079721451, 0.5399661660194397, 0.190682515501976, -4.1337995529174805, 8.909939765930176, -1.8474394083023071, -2.3182036876678467, -0.8064770102500916, -0.12890625, 0.555908203125, -0.76806640625, 
167, 3082027938, -0.8141897320747375, 0.18330860137939453, -0.1092137023806572, 0.5399683117866516, 0.21959327161312103, -4.1887407302856445, 8.936639785766602, -1.1737339496612549, -2.3754258155822754, -0.7504842877388, -0.12841796875, 0.560302734375, -0.76953125, 
168, 3082036271, -0.814176082611084, 0.183390811085701, -0.10912580788135529, 0.5399786829948425, 0.2603379487991333, -4.1915459632873535, 8.971763610839844, -0.38461053371429443, -2.0287883281707764, -0.7123190760612488, -0.12890625, 0.558349609375, -0.76708984375, 
169, 3082044604, -0.8141797184944153, 0.18341273069381714, -0.10904067009687424, 0.5399829745292664, 0.2624707818031311, -4.180688858032227, 9.052816390991211, 0.31815439462661743, -1.6564853191375732, -0.42410770058631897, -0.13037109375, 0.55517578125, -0.76904296875, 
170, 3082052937, -0.8141936659812927, 0.1834193915128708, -0.108980692923069, 0.5399717688560486, 0.23605811595916748, -4.138971328735352, 9.107614517211914, 0.2936415374279022, -1.2646644115447998, -0.054929718375205994, -0.130859375, 0.556884765625, -0.76953125, 
171, 3082061270, -0.8141865730285645, 0.18345734477043152, -0.10898350924253464, 0.5399690866470337, 0.23615826666355133, -4.1024556159973145, 9.091864585876465, -0.5500016212463379, -0.7913645505905151, -0.22872230410575867, -0.131591796875, 0.561279296875, -0.766845703125, 
172, 3082069603, -0.814167857170105, 0.1835213303565979, -0.10905011743307114, 0.5399620532989502, 0.2671372890472412, -4.060383319854736, 9.093331336975098, -1.3645087480545044, -0.2494954764842987, -0.03331131488084793, -0.13037109375, 0.558349609375, -0.77001953125, 
173, 3082077936, -0.8141561150550842, 0.1835956573486328, -0.1091959998011589, 0.539925217628479, 0.27322009205818176, -4.108524799346924, 9.042731285095215, -2.083346366882324, 0.460671991109848, 0.42575979232788086, -0.129150390625, 0.560791015625, -0.76708984375, 
174, 3082086269, -0.8141527771949768, 0.18364258110523224, -0.10937480628490448, 0.5398778319358826, 0.25647667050361633, -4.134002208709717, 9.041267395019531, -2.0319132804870605, 1.0877597332000732, 0.6728858351707458, -0.13134765625, 0.558349609375, -0.7685546875, 
175, 3082094602, -0.8141466975212097, 0.18366965651512146, -0.10955683887004852, 0.5398410558700562, 0.1913749724626541, -4.173628807067871, 9.000574111938477, -1.8081728219985962, 1.2074036598205566, 0.6297003626823425, -0.13134765625, 0.557861328125, -0.76904296875, 
176, 3082102935, -0.8141317963600159, 0.18369872868061066, -0.10971860587596893, 0.5398205518722534, 0.1997542381286621, -4.149384498596191, 8.955690383911133, -1.6889897584915161, 1.0220078229904175, 0.4687148630619049, -0.130615234375, 0.560302734375, -0.76513671875, 
177, 3082111268, -0.8141224980354309, 0.18371129035949707, -0.10986283421516418, 0.5398010611534119, 0.24164451658725739, -4.1283488273620605, 8.912670135498047, -1.3475008010864258, 0.9407852292060852, 0.33961912989616394, -0.1279296875, 0.559814453125, -0.76953125, 
178, 3082119601, -0.8141159415245056, 0.18371237814426422, -0.11002044379711151, 0.5397786498069763, 0.27101925015449524, -4.114365100860596, 8.893444061279297, -1.3284438848495483, 1.1792024374008179, 0.5549323558807373, -0.129638671875, 0.559326171875, -0.76806640625, 
179, 3082127934, -0.8141162395477295, 0.18369416892528534, -0.1102077066898346, 0.5397463440895081, 0.2481304258108139, -4.155498504638672, 8.953861236572266, -1.3165075778961182, 1.603322982788086, 0.7099497318267822, -0.12646484375, 0.559814453125, -0.7685546875, 
180, 3082136267, -0.8141286969184875, 0.18364381790161133, -0.11038792133331299, 0.5397076606750488, 0.2466433048248291, -4.185216903686523, 9.01184368133545, -0.8973050117492676, 1.7923048734664917, 0.9067951440811157, -0.130126953125, 0.560791015625, -0.76806640625, 
181, 3082144600, -0.8141419291496277, 0.1835561990737915, -0.11057831346988678, 0.5396786332130432, 0.20602865517139435, -4.228096961975098, 9.034547805786133, -0.527307391166687, 2.1428356170654297, 0.8811808824539185, -0.128173828125, 0.56298828125, -0.76708984375, 
182, 3082152933, -0.8141506910324097, 0.1834600269794464, -0.11077218502759933, 0.5396581888198853, 0.17558449506759644, -4.162867069244385, 9.00625228881836, -0.4657052457332611, 2.3100454807281494, 0.8390712141990662, -0.128173828125, 0.560791015625, -0.76513671875, 
183, 3082161266, -0.8141632676124573, 0.18337759375572205, -0.11099889129400253, 0.5396206378936768, 0.2092975229024887, -4.0802812576293945, 8.971543312072754, -0.8672083020210266, 2.4904720783233643, 1.0550246238708496, -0.12890625, 0.557861328125, -0.767578125, 
184, 3082169599, -0.8141788244247437, 0.18332909047603607, -0.11126933991909027, 0.5395581126213074, 0.20303916931152344, -4.0759477615356445, 8.956287384033203, -1.6147340536117554, 2.6826813220977783, 1.5100616216659546, -0.1259765625, 0.559814453125, -0.77001953125, 
185, 3082177932, -0.8142006397247314, 0.1832900196313858, -0.11156471073627472, 0.539477527141571, 0.16162626445293427, -4.1186089515686035, 8.929010391235352, -1.905814290046692, 2.815208911895752, 1.7110049724578857, -0.1240234375, 0.56005859375, -0.766845703125, 
186, 3082186265, -0.8142200112342834, 0.18321427702903748, -0.11182942986488342, 0.5394192934036255, 0.13871954381465912, -4.16217041015625, 8.903905868530273, -1.2502179145812988, 2.791592836380005, 1.5925906896591187, -0.126708984375, 0.56201171875, -0.76611328125, 
187, 3082194598, -0.8142604827880859, 0.18306882679462433, -0.11201740801334381, 0.5393685698509216, 0.10742141306400299, -4.1262736320495605, 8.872787475585938, 0.17589294910430908, 2.44779896736145, 1.4088854789733887, -0.12255859375, 0.558837890625, -0.766845703125, 
188, 3082202931, -0.8143044710159302, 0.1829008162021637, -0.11213146895170212, 0.5393351912498474, 0.08707776665687561, -4.054152011871338, 8.848917961120605, 0.9974182844161987, 1.9152787923812866, 1.0387084484100342, -0.12353515625, 0.56201171875, -0.767822265625, 
189, 3082211264, -0.8143310546875, 0.18275193870067596, -0.11220143735408783, 0.5393311977386475, 0.056072864681482315, -3.9920620918273926, 8.859965324401855, 1.1260273456573486, 1.2901889085769653, 0.49207499623298645, -0.126220703125, 0.56298828125, -0.767578125, 
190, 3082219597, -0.8143373727798462, 0.18269357085227966, -0.11220382153987885, 0.5393406748771667, 0.021208180114626884, -3.9242570400238037, 8.816015243530273, 0.5670478940010071, 0.08199116587638855, -0.309227854013443, -0.12353515625, 0.559326171875, -0.770263671875, 
191, 3082227930, -0.8142733573913574, 0.18280227482318878, -0.112122543156147, 0.5394173860549927, -0.03070828877389431, -3.887702226638794, 8.760849952697754, -0.7401105165481567, -1.9708999395370483, -1.860451579093933, -0.12451171875, 0.560302734375, -0.768798828125, 
192, 3082236263, -0.8141676783561707, 0.18305669724941254, -0.11190652847290039, 0.5395354628562927, -0.018825966864824295, -3.921341896057129, 8.698604583740234, -1.430004358291626, -4.276719093322754, -3.31329083442688, -0.1240234375, 0.561767578125, -0.769287109375, 
193, 3082244596, -0.8140077590942383, 0.1834319829940796, -0.11154847592115402, 0.5397234559059143, 0.020167164504528046, -3.9679954051971436, 8.592549324035645, -1.7403463125228882, -6.6187310218811035, -4.926910877227783, -0.127197265625, 0.5625, -0.765625, 
194, 3082252929, -0.8138461112976074, 0.183897003531456, -0.11092090606689453, 0.5399380922317505, -0.06429307162761688, -4.052119731903076, 8.484411239624023, -0.7242555022239685, -10.168123245239258, -6.063825607299805, -0.126708984375, 0.56103515625, -0.765625, 
195, 3082261262, -0.8136624097824097, 0.1845400482416153, -0.10985103249549866, 0.5402144193649292, -0.25053414702415466, -4.086427688598633, 8.280719757080078, 0.6220929622650146, -16.314285278320312, -8.29818058013916, -0.127685546875, 0.560302734375, -0.7666015625, 
196, 3082269595, -0.8134193420410156, 0.1855272501707077, -0.10803795605897903, 0.5406076312065125, -0.42680245637893677, -4.160233497619629, 8.090852737426758, 2.3079469203948975, -26.815654754638672, -12.299593925476074, -0.133544921875, 0.560791015625, -0.766357421875, 
197, 3082277928, -0.813056230545044, 0.18704155087471008, -0.10527487099170685, 0.5411770939826965, -0.5768225789070129, -4.120787620544434, 7.942943572998047, 3.4375131130218506, -40.7183952331543, -18.52300453186035, -0.136962890625, 0.556396484375, -0.764892578125, 
198, 3082286261, -0.8125393986701965, 0.18908561766147614, -0.10152211785316467, 0.5419595837593079, -0.533545196056366, -3.9008843898773193, 7.779959678649902, 4.782679557800293, -54.87697219848633, -25.422327041625977, -0.142822265625, 0.55859375, -0.76611328125, 
199, 3082294594, -0.811913788318634, 0.1916646808385849, -0.09689866006374359, 0.5428369045257568, -0.6373845934867859, -3.823648691177368, 7.577437400817871, 5.155478477478027, -68.272216796875, -30.2445011138916, -0.150634765625, 0.55517578125, -0.7646484375, 
200, 3082302927, -0.8111499547958374, 0.19439123570919037, -0.09052150696516037, 0.5441085696220398, -0.9860068559646606, -4.021147727966309, 6.820917129516602, 16.760099411010742, -87.7592544555664, -40.34290313720703, -0.162109375, 0.55712890625, -0.759765625, 
201, 3082311260, -0.810229480266571, 0.1974201500415802, -0.08181765675544739, 0.5457653403282166, -1.1034749746322632, -3.9473767280578613, 6.5220842361450195, 30.85976791381836, -114.72349548339844, -52.56184005737305, -0.17578125, 0.549072265625, -0.757568359375, 
202, 3082319593, -0.8090177178382874, 0.20125937461853027, -0.07039408385753632, 0.547749936580658, -1.8886994123458862, -3.189094305038452, 5.616077423095703, 41.819087982177734, -149.8719940185547, -66.67206573486328, -0.193359375, 0.543212890625, -0.76123046875, 
203, 3082327926, -0.8072750568389893, 0.206136092543602, -0.0556209497153759, 0.5502013564109802, -2.052456855773926, -2.304691791534424, 4.175603866577148, 54.49323654174805, -193.1703643798828, -86.16451263427734, -0.217529296875, 0.53662109375, -0.75244140625, 
204, 3082336259, -0.8048934936523438, 0.21209122240543365, -0.0373600572347641, 0.5529631972312927, -1.0705280303955078, -1.4685403108596802, 2.8118889331817627, 67.33280944824219, -238.66366577148438, -105.18929290771484, -0.248046875, 0.524169921875, -0.75, 
205, 3082344592, -0.8018226623535156, 0.21901506185531616, -0.016367338597774506, 0.5557385683059692, 0.46732836961746216, -0.44626426696777344, 2.0469231605529785, 75.38927459716797, -275.9046325683594, -119.02001190185547, -0.280029296875, 0.511474609375, -0.740478515625, 
206, 3082352925, -0.7980185747146606, 0.22662249207496643, 0.006483016069978476, 0.5583609938621521, 1.7967649698257446, -0.021881185472011566, 1.8251490592956543, 79.80492401123047, -301.90924072265625, -128.6871795654297, -0.31982421875, 0.49560546875, -0.7314453125, 
207, 3082361258, -0.7934831380844116, 0.23466013371944427, 0.030685890465974808, 0.56069415807724, 2.8820745944976807, -0.21250535547733307, 1.7537856101989746, 83.21696472167969, -321.0329284667969, -135.308837890625, -0.364990234375, 0.4794921875, -0.718017578125, 
208, 3082369591, -0.7882325649261475, 0.24300998449325562, 0.056035175919532776, 0.5625799298286438, 3.757192373275757, -0.38330715894699097, 2.1259982585906982, 86.53028869628906, -337.6831970214844, -139.5063934326172, -0.39794921875, 0.4658203125, -0.700439453125, 
209, 3082377924, -0.7821317315101624, 0.25165584683418274, 0.08244048804044724, 0.5640422105789185, 4.623584747314453, -0.5933778882026672, 3.0406253337860107, 88.97808074951172, -353.5132141113281, -144.80113220214844, -0.4423828125, 0.44384765625, -0.684326171875, 
210, 3082386257, -0.774784505367279, 0.26092225313186646, 0.10986890643835068, 0.5652941465377808, 5.647006988525391, -0.6799269318580627, 4.336930274963379, 86.16133880615234, -371.4424743652344, -155.03599548339844, -0.486572265625, 0.423828125, -0.661376953125, 
211, 3082394590, -0.7658456563949585, 0.2710430920124054, 0.1381574273109436, 0.566506028175354, 7.01600456237793, -0.21367071568965912, 5.6122565269470215, 78.09782409667969, -389.8411560058594, -168.79403686523438, -0.531005859375, 0.4033203125, -0.630859375, 
212, 3082402923, -0.7550547122955322, 0.2822393774986267, 0.16700881719589233, 0.5677515864372253, 8.465341567993164, -0.03665545955300331, 6.965551853179932, 64.17459869384766, -407.4921875, -183.6148681640625, -0.572998046875, 0.378662109375, -0.599365234375, 
213, 3082411256, -0.7425875067710876, 0.2944277226924896, 0.19586442410945892, 0.56878262758255, 9.747098922729492, 0.12863381206989288, 7.619784832000732, 47.90597915649414, -420.0293273925781, -192.2366943359375, -0.615966796875, 0.35693359375, -0.560302734375, 
214, 3082419589, -0.728776752948761, 0.30723971128463745, 0.22423885762691498, 0.5693906545639038, 10.810550689697266, 0.06691331416368484, 7.703929901123047, 33.44192123413086, -425.248779296875, -194.76321411132812, -0.656982421875, 0.332275390625, -0.517822265625, 
215, 3082427922, -0.7141495943069458, 0.3201322555541992, 0.2515016496181488, 0.5694323778152466, 11.94064998626709, -0.32738375663757324, 7.748649597167969, 22.254112243652344, -419.7225341796875, -190.57115173339844, -0.69580078125, 0.308349609375, -0.475830078125, 
216, 3082436255, -0.6993235349655151, 0.33274105191230774, 0.2770870327949524, 0.5687292218208313, 12.238167762756348, -0.5176137685775757, 7.8216872215271, 13.567012786865234, -404.8906555175781, -178.3486328125, -0.726806640625, 0.28857421875, -0.424072265625, 
217, 3082444588, -0.6847596168518066, 0.34475910663604736, 0.300608366727829, 0.5673450231552124, 12.413773536682129, -0.6349846720695496, 7.828485488891602, 6.935778617858887, -382.6235046386719, -162.6065673828125, -0.75732421875, 0.264892578125, -0.381591796875, 
218, 3082452921, -0.6708732843399048, 0.3560847342014313, 0.3218763470649719, 0.5652685165405273, 13.057123184204102, -1.1320176124572754, 7.850064754486084, 1.9056650400161743, -356.36376953125, -142.90480041503906, -0.7783203125, 0.24609375, -0.337646484375, 
219, 3082461254, -0.657874345779419, 0.36707639694213867, 0.34036582708358765, 0.5626791715621948, 13.163714408874512, -1.232011079788208, 8.032732963562012, -9.954458236694336, -326.81494140625, -119.21002197265625, -0.797607421875, 0.227783203125, -0.29248046875, 
220, 3082469587, -0.6462904810905457, 0.377379447221756, 0.3560815751552582, 0.5595530867576599, 13.348318099975586, -1.7164188623428345, 7.873871326446533, -15.571355819702148, -292.3597106933594, -92.5450439453125, -0.808349609375, 0.214111328125, -0.252197265625, 
221, 3082477920, -0.6360592842102051, 0.38701674342155457, 0.36897924542427063, 0.5563284158706665, 13.385299682617188, -2.8103065490722656, 8.175464630126953, -23.79876708984375, -256.17889404296875, -69.97039031982422, -0.8203125, 0.202392578125, -0.217529296875, 
222, 3082486253, -0.627466082572937, 0.39576080441474915, 0.3790695369243622, 0.5531423091888428, 13.241368293762207, -3.3813419342041016, 8.27027416229248, -28.97319793701172, -216.16725158691406, -47.29102325439453, -0.828369140625, 0.195068359375, -0.184814453125, 
223, 3082494586, -0.6206629276275635, 0.40329307317733765, 0.3867943286895752, 0.5500208139419556, 13.313815116882324, -4.291846752166748, 8.039026260375977, -27.070209503173828, -176.95187377929688, -27.74793243408203, -0.833984375, 0.19140625, -0.16064453125, 
224, 3082502919, -0.6157309412956238, 0.4094657897949219, 0.39281874895095825, 0.5467239618301392, 12.816569328308105, -5.290375232696533, 6.975167751312256, -17.04146385192871, -143.08885192871094, -9.839761734008789, -0.836669921875, 0.18798828125, -0.13427734375, 
225, 3082511252, -0.6123819947242737, 0.414404958486557, 0.39739060401916504, 0.5434500575065613, 11.80947208404541, -4.816821575164795, 6.0858988761901855, -8.704379081726074, -112.9178466796875, 3.3243937492370605, -0.83837890625, 0.189453125, -0.120361328125, 
226, 3082519585, -0.6101210117340088, 0.41832393407821655, 0.40073269605636597, 0.5405285954475403, 10.613872528076172, -3.897588014602661, 5.146453857421875, -5.040236949920654, -86.91230773925781, 9.952069282531738, -0.839599609375, 0.189697265625, -0.105224609375, 
227, 3082527918, -0.6086987257003784, 0.421476274728775, 0.4033285081386566, 0.5377456545829773, 9.805235862731934, -3.4304490089416504, 4.281658172607422, -0.08167136460542679, -69.60332489013672, 15.060956954956055, -0.837646484375, 0.18896484375, -0.09716796875, 
228, 3082536251, -0.6077584028244019, 0.4242752492427826, 0.4057724177837372, 0.5347610712051392, 8.886202812194824, -2.9856297969818115, 3.1264922618865967, 5.658668041229248, -64.15198516845703, 19.246074676513672, -0.83837890625, 0.194091796875, -0.087158203125, 
229, 3082544584, -0.6067036986351013, 0.4273078143596649, 0.40854060649871826, 0.5314260125160217, 8.26029109954834, -1.6377012729644775, 2.0410666465759277, 7.386642932891846, -71.32552337646484, 20.731674194335938, -0.83984375, 0.1953125, -0.079345703125, 
230, 3082552917, -0.6051254868507385, 0.4309743046760559, 0.4118182361125946, 0.5277218818664551, 7.749444961547852, -0.8724051713943481, 1.3275716304779053, 4.8151373863220215, -85.2553482055664, 20.555627822875977, -0.836181640625, 0.201416015625, -0.0703125, 
231, 3082561250, -0.6028190851211548, 0.4354076385498047, 0.41567546129226685, 0.5236827731132507, 7.493465900421143, -0.534468948841095, 0.7797114253044128, 0.22133469581604004, -101.81675720214844, 18.966033935546875, -0.83984375, 0.201416015625, -0.0537109375, 
232, 3082569583, -0.599943995475769, 0.44053807854652405, 0.41998836398124695, 0.5192337036132812, 7.690232753753662, -0.4700604975223541, 0.5719824433326721, -3.336909770965576, -116.24846649169922, 19.52570343017578, -0.8359375, 0.203125, -0.042724609375, 
233, 3082577916, -0.5966575741767883, 0.4461890757083893, 0.42449507117271423, 0.5145089626312256, 8.283745765686035, -0.5153297185897827, 0.7537475228309631, -7.147217273712158, -125.68146514892578, 20.693538665771484, -0.834228515625, 0.20703125, -0.02392578125, 
234, 3082586249, -0.5931085348129272, 0.4520568549633026, 0.42897528409957886, 0.5097523927688599, 9.5043306350708, -0.5122019648551941, 1.4462616443634033, -10.538060188293457, -128.64492797851562, 20.529003143310547, -0.83544921875, 0.208984375, -0.005859375, 
235, 3082594582, -0.589704692363739, 0.457665354013443, 0.43334630131721497, 0.5049774646759033, 10.734545707702637, -1.349640130996704, 2.0672483444213867, -8.178230285644531, -125.27552032470703, 20.842178344726562, -0.835205078125, 0.21142578125, 0.010498046875, 
236, 3082602915, -0.5868056416511536, 0.46245816349983215, 0.437522828578949, 0.5003657937049866, 11.615218162536621, -1.3208653926849365, 2.71161150932312, -0.7107776999473572, -113.91307067871094, 19.39177894592285, -0.830078125, 0.21484375, 0.02783203125, 
237, 3082611248, -0.5847047567367554, 0.46611839532852173, 0.4413566291332245, 0.49604323506355286, 12.446120262145996, -1.2588022947311401, 3.114699602127075, 9.408700942993164, -96.79844665527344, 17.911392211914062, -0.829833984375, 0.21923828125, 0.04052734375, 
238, 3082619581, -0.5835514664649963, 0.4685804545879364, 0.444848895072937, 0.4919450283050537, 12.040761947631836, -1.4896210432052612, 3.009937286376953, 21.42583656311035, -78.60771942138672, 17.49138832092285, -0.826904296875, 0.220458984375, 0.053955078125, 
239, 3082627914, -0.5831729769706726, 0.47013258934020996, 0.44799360632896423, 0.48804405331611633, 11.252937316894531, -0.6929051280021667, 2.652306318283081, 30.158966064453125, -63.7354736328125, 17.819637298583984, -0.826416015625, 0.21875, 0.06005859375, 
240, 3082636247, -0.5831818580627441, 0.4712900221347809, 0.4506497383117676, 0.484458327293396, 10.31827163696289, -0.20924483239650726, 2.0799975395202637, 30.610309600830078, -52.66848373413086, 18.624547958374023, -0.8232421875, 0.223876953125, 0.06396484375, 
241, 3082644580, -0.5832698941230774, 0.4724699854850769, 0.4529650807380676, 0.48103174567222595, 9.369967460632324, -0.10240790247917175, 1.61013662815094, 27.684093475341797, -48.63764190673828, 20.216495513916016, -0.8212890625, 0.2255859375, 0.071533203125, 
242, 3082652913, -0.5830633044242859, 0.4740371108055115, 0.4551052153110504, 0.47770872712135315, 8.895392417907715, 0.24548745155334473, 1.1472121477127075, 20.86351203918457, -50.88319396972656, 21.000574111938477, -0.8232421875, 0.22998046875, 0.07568359375, 
243, 3082661246, -0.5823730230331421, 0.47616109251976013, 0.4572172462940216, 0.4744103252887726, 8.836762428283691, 0.24596761167049408, 1.0027955770492554, 12.90256118774414, -57.25376892089844, 21.28110694885254, -0.820068359375, 0.234375, 0.085205078125, 
244, 3082669579, -0.5812340974807739, 0.47872576117515564, 0.4593883454799652, 0.47111690044403076, 9.182517051696777, -0.08590568602085114, 1.0883667469024658, 6.792294502258301, -63.31938552856445, 20.719680786132812, -0.816162109375, 0.237060546875, 0.093505859375, 
245, 3082677912, -0.5798054337501526, 0.4813881516456604, 0.46156972646713257, 0.4680222272872925, 9.730621337890625, -0.3053794503211975, 1.404025673866272, 2.914898633956909, -64.6292724609375, 17.78289222717285, -0.81494140625, 0.23828125, 0.10107421875, 
246, 3082686245, -0.5783355832099915, 0.48375990986824036, 0.4636492431163788, 0.46533218026161194, 10.41696834564209, -0.6712380051612854, 1.7142302989959717, 1.7341276407241821, -59.45641326904297, 13.148021697998047, -0.810546875, 0.241943359375, 0.108154296875, 
247, 3082694578, -0.5771944522857666, 0.4853971302509308, 0.46562865376472473, 0.4630621671676636, 10.73200511932373, -1.2348641157150269, 1.8768362998962402, 6.445414066314697, -49.14193344116211, 7.866672992706299, -0.80859375, 0.240234375, 0.114013671875, 
248, 3082702911, -0.5764721035957336, 0.48619234561920166, 0.4674761891365051, 0.46126291155815125, 10.662819862365723, -1.2624874114990234, 1.9080311059951782, 12.070940971374512, -36.843509674072266, 2.314697265625, -0.810302734375, 0.245361328125, 0.118408203125, 
249, 3082711244, -0.576026201248169, 0.4863300025463104, 0.4690608084201813, 0.46006450057029724, 10.533571243286133, -0.9734081029891968, 1.8130196332931519, 13.599566459655762, -24.860015869140625, -3.193328857421875, -0.808349609375, 0.244873046875, 0.119873046875, 
250, 3082719577, -0.5758452415466309, 0.4859406352043152, 0.47041743993759155, 0.4593169093132019, 10.112091064453125, -1.1370805501937866, 1.5942007303237915, 15.196685791015625, -14.936075210571289, -6.932366847991943, -0.808349609375, 0.242431640625, 0.12158203125, 
251, 3082727910, -0.5758882761001587, 0.48521244525909424, 0.471630334854126, 0.45878875255584717, 9.915291786193848, -1.1338279247283936, 1.2478196620941162, 17.04823875427246, -8.801643371582031, -8.517375946044922, -0.808349609375, 0.241455078125, 0.12451171875, 
252, 3082736243, -0.5759764313697815, 0.4844934046268463, 0.4727809429168701, 0.45825281739234924, 9.717270851135254, -1.0936129093170166, 0.765065610408783, 16.935049057006836, -8.070792198181152, -7.664063930511475, -0.807861328125, 0.242431640625, 0.126953125, 
253, 3082744576, -0.5758991837501526, 0.4841361343860626, 0.4738481044769287, 0.4576250910758972, 9.585992813110352, -1.0336040258407593, 0.5598592758178711, 13.038020133972168, -11.432276725769043, -5.103765964508057, -0.809814453125, 0.241943359375, 0.12841796875, 
254, 3082752909, -0.5756340026855469, 0.48428621888160706, 0.4747031033039093, 0.4569132328033447, 9.745850563049316, -1.2725777626037598, 0.5692173838615417, 6.981840133666992, -14.672680854797363, -0.867784857749939, -0.808837890625, 0.244384765625, 0.1279296875, 
255, 3082761242, -0.5753287076950073, 0.48490241169929504, 0.4752320349216461, 0.4560936391353607, 9.96816635131836, -1.5233086347579956, 0.5850578546524048, 1.679999589920044, -16.054338455200195, 4.913464069366455, -0.809326171875, 0.241455078125, 0.130859375, 
256, 3082769575, -0.5751140117645264, 0.4859062135219574, 0.4753071069717407, 0.4552169144153595, 10.275907516479492, -1.5358601808547974, 0.8163079023361206, -3.256415843963623, -14.627654075622559, 11.525321006774902, -0.808837890625, 0.241943359375, 0.1298828125, 
257, 3082777908, -0.5750826001167297, 0.487175852060318, 0.4747743606567383, 0.4544551372528076, 10.543440818786621, -1.403897762298584, 1.1243194341659546, -8.690529823303223, -9.576168060302734, 17.529891967773438, -0.806396484375, 0.2490234375, 0.13232421875, 
258, 3082786241, -0.57528156042099, 0.48854508996009827, 0.4736408293247223, 0.453916072845459, 10.697219848632812, -1.2902634143829346, 1.310990333557129, -13.141263008117676, -2.394547939300537, 21.915281295776367, -0.805419921875, 0.248779296875, 0.134765625, 
259, 3082794574, -0.575715184211731, 0.48981016874313354, 0.4720747768878937, 0.4536343514919281, 10.762777328491211, -1.1422741413116455, 1.3871513605117798, -15.117865562438965, 4.878093242645264, 23.5396671295166, -0.807373046875, 0.248046875, 0.1337890625, 
260, 3082802907, -0.5763988494873047, 0.4906996190547943, 0.47026675939559937, 0.4536825716495514, 10.615311622619629, -1.0009948015213013, 1.3585469722747803, -14.111302375793457, 13.03328800201416, 21.710601806640625, -0.80224609375, 0.251708984375, 0.135986328125, 
261, 3082811240, -0.5773130655288696, 0.49099165201187134, 0.46839639544487, 0.45413893461227417, 10.450610160827637, -0.866843044757843, 1.2762089967727661, -10.848686218261719, 21.450000762939453, 16.440288543701172, -0.8037109375, 0.253662109375, 0.1298828125, 
262, 3082819573, -0.5784710049629211, 0.4906046986579895, 0.4666719436645508, 0.4548584222793579, 10.143572807312012, -0.9976956844329834, 0.8962522745132446, -4.597860813140869, 27.924850463867188, 10.550600051879883, -0.8046875, 0.255126953125, 0.1279296875, 
263, 3082827906, -0.5797010064125061, 0.4896651804447174, 0.46536922454833984, 0.45563897490501404, 9.711040496826172, -1.0462621450424194, 0.5139608383178711, 2.5326991081237793, 28.853830337524414, 4.088252544403076, -0.8046875, 0.258544921875, 0.127197265625, 
264, 3082836239, -0.5807585120201111, 0.488470196723938, 0.46452587842941284, 0.45643484592437744, 9.390973091125488, -0.9302636981010437, 0.3517763614654541, 6.186442852020264, 25.838359832763672, -1.8043957948684692, -0.804931640625, 0.25634765625, 0.122802734375, 
265, 3082844572, -0.5815156698226929, 0.4872923791408539, 0.46400099992752075, 0.45726278424263, 9.162928581237793, -1.0407416820526123, 0.2879953980445862, 5.827254295349121, 21.438932418823242, -6.012330055236816, -0.803955078125, 0.2578125, 0.119873046875, 
266, 3082852905, -0.5820388793945312, 0.486291766166687, 0.46366453170776367, 0.45800286531448364, 9.149124145507812, -1.403369426727295, 0.3186229467391968, 4.586191654205322, 16.78645896911621, -6.873325824737549, -0.803955078125, 0.25390625, 0.116943359375, 
267, 3082861238, -0.5824270844459534, 0.48557761311531067, 0.4633471965789795, 0.45858800411224365, 9.32317066192627, -1.4656058549880981, 0.47546225786209106, 2.498605251312256, 12.881082534790039, -4.8255438804626465, -0.804443359375, 0.255126953125, 0.113037109375, 
268, 3082869571, -0.5827440023422241, 0.4852198660373688, 0.46287965774536133, 0.4590362310409546, 9.663257598876953, -1.5601996183395386, 0.8088878989219666, -0.9071027040481567, 10.52229118347168, -0.8665041327476501, -0.806884765625, 0.253662109375, 0.10888671875, 
269, 3082877904, -0.5831038355827332, 0.48515722155570984, 0.46207940578460693, 0.45945146679878235, 9.972052574157715, -1.6466344594955444, 1.1618775129318237, -4.874850749969482, 11.323811531066895, 3.7294459342956543, -0.805419921875, 0.256591796875, 0.112548828125, 
270, 3082886237, -0.5836347341537476, 0.485232949256897, 0.4608856439590454, 0.4598957896232605, 10.219910621643066, -1.6797558069229126, 1.3918439149856567, -7.513989448547363, 14.940518379211426, 8.118114471435547, -0.807373046875, 0.256591796875, 0.10986328125, 
271, 3082894570, -0.5844009518623352, 0.48532524704933167, 0.45940056443214417, 0.4603112041950226, 10.279485702514648, -1.7578929662704468, 1.3435144424438477, -7.737936019897461, 18.418346405029297, 11.850418090820312, -0.806884765625, 0.258544921875, 0.10693359375, 
272, 3082902903, -0.5853374004364014, 0.48539119958877563, 0.4578514099121094, 0.4605953097343445, 10.112998962402344, -1.7258541584014893, 1.1783150434494019, -5.964815139770508, 19.351165771484375, 14.280391693115234, -0.805908203125, 0.259033203125, 0.10546875, 
273, 3082911236, -0.5862176418304443, 0.48552030324935913, 0.4563271999359131, 0.46085208654403687, 9.866000175476074, -1.315904140472412, 1.0529552698135376, -6.516878604888916, 18.162025451660156, 14.33935546875, -0.807373046875, 0.260986328125, 0.10302734375, 
274, 3082919569, -0.5869596600532532, 0.485706090927124, 0.45486581325531006, 0.46115657687187195, 9.579087257385254, -1.3352605104446411, 0.897340714931488, -7.80120325088501, 16.797143936157227, 13.050395965576172, -0.805908203125, 0.260498046875, 0.1015625, 
275, 3082927902, -0.5876061320304871, 0.4858369827270508, 0.45357006788253784, 0.46147170662879944, 9.378180503845215, -1.3687031269073486, 0.7785224914550781, -7.008134365081787, 15.232983589172363, 10.87392520904541, -0.806884765625, 0.262451171875, 0.100830078125, 
276, 3082936235, -0.58819580078125, 0.48584237694740295, 0.45249053835868835, 0.4617745876312256, 9.430874824523926, -1.369279146194458, 0.7962767481803894, -4.927692413330078, 13.89809513092041, 8.423075675964355, -0.806884765625, 0.262939453125, 0.099365234375, 
277, 3082944568, -0.5887175798416138, 0.4857073426246643, 0.45160412788391113, 0.4621191918849945, 9.560935974121094, -1.2832117080688477, 0.9507120251655579, -3.27713680267334, 13.030538558959961, 5.45238733291626, -0.803955078125, 0.26220703125, 0.09423828125, 
278, 3082952901, -0.5891825556755066, 0.48547765612602234, 0.4507909417152405, 0.462561696767807, 9.756865501403809, -1.202968955039978, 1.233770489692688, -3.0360305309295654, 13.394878387451172, 3.2587337493896484, -0.805419921875, 0.26513671875, 0.092529296875, 
279, 3082961234, -0.5896621942520142, 0.48516279458999634, 0.44989386200904846, 0.46315398812294006, 9.9583101272583, -1.1439470052719116, 1.4506614208221436, -3.7068159580230713, 15.65330982208252, 2.1327309608459473, -0.805908203125, 0.266845703125, 0.094970703125, 
280, 3082969567, -0.5902273654937744, 0.48478883504867554, 0.4487415850162506, 0.46394288539886475, 10.110739707946777, -1.1230573654174805, 1.694223165512085, -5.500838279724121, 19.99449348449707, 2.4610297679901123, -0.804931640625, 0.267578125, 0.090087890625, 
281, 3082977900, -0.5909762978553772, 0.48430538177490234, 0.4471700191497803, 0.46501094102859497, 10.283254623413086, -1.1294958591461182, 1.9050344228744507, -7.783044338226318, 27.03703498840332, 3.4465384483337402, -0.804443359375, 0.26611328125, 0.088134765625, 
282, 3082986233, -0.5920178890228271, 0.4835782051086426, 0.4449966847896576, 0.46652454137802124, 10.4402494430542, -1.1534719467163086, 2.2981925010681152, -10.446012496948242, 38.30152130126953, 4.249471187591553, -0.8056640625, 0.267822265625, 0.080322265625, 
283, 3082994566, -0.5934815406799316, 0.4824552834033966, 0.4419881999492645, 0.4686826467514038, 10.670080184936523, -1.0211060047149658, 2.6590330600738525, -13.713051795959473, 54.45863723754883, 4.798827171325684, -0.80810546875, 0.267333984375, 0.0791015625, 
284, 3083002899, -0.5955085158348083, 0.4808806777000427, 0.43814799189567566, 0.47132810950279236, 11.024577140808105, -1.249545693397522, 2.7586560249328613, -14.618524551391602, 70.85720825195312, 7.273490905761719, -0.8095703125, 0.268310546875, 0.073486328125, 
285, 3083011232, -0.5984683036804199, 0.47875306010246277, 0.4336049556732178, 0.4739392101764679, 10.780142784118652, -2.0097732543945312, 2.4853639602661133, -8.26559066772461, 85.54964447021484, 14.867766380310059, -0.8125, 0.270263671875, 0.0625, 
286, 3083019565, -0.6020636558532715, 0.47621864080429077, 0.42844969034194946, 0.4766198992729187, 10.607206344604492, -1.6277340650558472, 2.402930736541748, -5.144510746002197, 97.52245330810547, 20.092405319213867, -0.8095703125, 0.272216796875, 0.05029296875, 
287, 3083027898, -0.6061006188392639, 0.47340571880340576, 0.42254990339279175, 0.47956353425979614, 10.680012702941895, -1.6223163604736328, 2.4461252689361572, -6.368447780609131, 109.80200958251953, 23.995655059814453, -0.809814453125, 0.270263671875, 0.037109375, 
288, 3083036231, -0.610668420791626, 0.4702061712741852, 0.4161151647567749, 0.48253369331359863, 10.442364692687988, -2.194499969482422, 2.4226348400115967, -3.379523754119873, 120.10018920898438, 28.56107521057129, -0.810302734375, 0.278564453125, 0.02099609375, 
289, 3083044564, -0.6156319379806519, 0.46665823459625244, 0.4094671607017517, 0.4853498935699463, 10.139719009399414, -2.3291096687316895, 2.10701322555542, 1.576297640800476, 125.4377670288086, 31.813838958740234, -0.80908203125, 0.281005859375, 0.00390625, 
290, 3083052897, -0.6205320954322815, 0.4631054103374481, 0.40293940901756287, 0.48796892166137695, 9.976560592651367, -2.2598514556884766, 2.017796516418457, 3.1168484687805176, 122.8640365600586, 32.30883026123047, -0.80810546875, 0.28564453125, -0.010986328125, 
291, 3083061230, -0.6251857876777649, 0.4597574770450592, 0.397004634141922, 0.4900546967983246, 9.822635650634766, -2.593327045440674, 1.7903249263763428, 6.741209506988525, 111.63375854492188, 32.51740264892578, -0.807373046875, 0.291015625, -0.0234375, 
292, 3083069563, -0.6293930411338806, 0.45689913630485535, 0.3915325403213501, 0.49174219369888306, 9.450434684753418, -2.300058603286743, 1.811521053314209, 4.992032527923584, 99.43616485595703, 32.72242736816406, -0.803955078125, 0.293701171875, -0.0400390625, 
293, 3083077896, -0.6329833269119263, 0.4548363983631134, 0.3861868381500244, 0.4932709038257599, 8.650994300842285, -1.5023449659347534, 1.773371696472168, -4.050680160522461, 88.60846710205078, 33.37300109863281, -0.806396484375, 0.2978515625, -0.052490234375, 
294, 3083086229, -0.6361254453659058, 0.4534895122051239, 0.3806482255458832, 0.4947718381881714, 8.28493595123291, -1.6051684617996216, 1.8613879680633545, -14.254018783569336, 82.9192886352539, 35.62368392944336, -0.8017578125, 0.302001953125, -0.062255859375, 
295, 3083094562, -0.6392058730125427, 0.4523632228374481, 0.37466463446617126, 0.49639713764190674, 8.407797813415527, -2.0381977558135986, 2.226383924484253, -20.23797035217285, 85.72180938720703, 38.006107330322266, -0.80078125, 0.308349609375, -0.076171875, 
296, 3083102895, -0.6424389481544495, 0.4510504901409149, 0.3679571747779846, 0.49843111634254456, 8.957225799560547, -2.378687620162964, 2.7565877437591553, -24.70808982849121, 96.73096466064453, 39.03667449951172, -0.8017578125, 0.314697265625, -0.082763671875, 
297, 3083111228, -0.6461372971534729, 0.44894498586654663, 0.3603796660900116, 0.5010806918144226, 9.717177391052246, -2.6508994102478027, 3.511173725128174, -23.887380599975586, 115.9792251586914, 38.13294219970703, -0.796142578125, 0.314453125, -0.09423828125, 
298, 3083119561, -0.6508622765541077, 0.4452781081199646, 0.35199883580207825, 0.5041853785514832, 10.529305458068848, -3.444183349609375, 4.462013244628906, -11.474590301513672, 141.8222198486328, 38.42280578613281, -0.791748046875, 0.322021484375, -0.111572265625, 
299, 3083127894, -0.6568109393119812, 0.4396511912345886, 0.34298843145370483, 0.5076078772544861, 11.313841819763184, -4.270926475524902, 5.504279136657715, 7.666876316070557, 168.8697052001953, 38.39216613769531, -0.78955078125, 0.328125, -0.131103515625, 
300, 3083136227, -0.6640264987945557, 0.43205419182777405, 0.33348336815834045, 0.511064887046814, 11.83825969696045, -4.0937910079956055, 5.949957370758057, 29.498210906982422, 193.319091796875, 40.65336990356445, -0.784423828125, 0.33154296875, -0.15478515625, 
301, 3083144560, -0.6723306775093079, 0.4228377342224121, 0.323461651802063, 0.5143468976020813, 11.738625526428223, -3.67219614982605, 6.304549217224121, 47.93446731567383, 213.3296356201172, 45.51594161987305, -0.77978515625, 0.336181640625, -0.18115234375, 
302, 3083152893, -0.6810254454612732, 0.41299018263816833, 0.3123999238014221, 0.5177356004714966, 11.310402870178223, -2.869661569595337, 6.696286201477051, 48.20339584350586, 229.80838012695312, 50.55717849731445, -0.773681640625, 0.340087890625, -0.211181640625, 
303, 3083161226, -0.6901169419288635, 0.40281394124031067, 0.3000917136669159, 0.5209845900535583, 10.476710319519043, -2.1504673957824707, 6.967519760131836, 45.26729965209961, 244.69761657714844, 60.331260681152344, -0.76171875, 0.348876953125, -0.248291015625, 
304, 3083169559, -0.6994293332099915, 0.39311015605926514, 0.2859848737716675, 0.5239047408103943, 9.624268531799316, -2.042585611343384, 6.892276763916016, 30.466995239257812, 257.5063171386719, 76.97888946533203, -0.751953125, 0.358642578125, -0.277587890625, 
305, 3083177892, -0.7085199952125549, 0.3839845359325409, 0.2698708176612854, 0.526996910572052, 9.3601655960083, -1.3571739196777344, 6.789353847503662, 8.579338073730469, 272.6767578125, 86.82312774658203, -0.742919921875, 0.36669921875, -0.308349609375, 
306, 3083186225, -0.7171829342842102, 0.37596219778060913, 0.25159314274787903, 0.5300967693328857, 9.158804893493652, -1.2504366636276245, 6.121853351593018, -20.157981872558594, 284.2440185546875, 99.20467376708984, -0.724609375, 0.376953125, -0.34375, 
307, 3083194558, -0.7254167795181274, 0.36897772550582886, 0.23128584027290344, 0.5330416560173035, 8.978188514709473, -1.5901600122451782, 5.747073173522949, -46.85572814941406, 294.38702392578125, 111.65727996826172, -0.69970703125, 0.3896484375, -0.376953125, 
308, 3083202891, -0.7333381772041321, 0.3626953363418579, 0.2092486172914505, 0.5356144309043884, 8.883188247680664, -2.564638137817383, 6.297121524810791, -66.97007751464844, 303.65380859375, 124.13294982910156, -0.681884765625, 0.408203125, -0.404541015625, 
309, 3083211224, -0.7413218021392822, 0.35617536306381226, 0.1863546073436737, 0.5374508500099182, 9.051238059997559, -4.194233417510986, 6.847844123840332, -68.4277572631836, 310.5175476074219, 135.56781005859375, -0.65625, 0.42529296875, -0.433837890625, 
310, 3083219557, -0.7496007084846497, 0.34876638650894165, 0.16326993703842163, 0.5383347868919373, 9.294662475585938, -5.888886451721191, 7.595520973205566, -56.91595458984375, 315.16839599609375, 146.1591033935547, -0.630126953125, 0.4443359375, -0.4638671875, 
311, 3083227890, -0.757942259311676, 0.3404777944087982, 0.1401299238204956, 0.538481593132019, 8.971786499023438, -6.121684551239014, 7.696094512939453, -46.274539947509766, 318.8142395019531, 152.47146606445312, -0.5986328125, 0.461181640625, -0.490478515625, 
312, 3083236223, -0.76646488904953, 0.33087003231048584, 0.11744365096092224, 0.5378329753875732, 7.956932067871094, -5.439014911651611, 7.082831382751465, -26.799373626708984, 320.5350341796875, 157.472900390625, -0.56884765625, 0.47900390625, -0.51806640625, 
313, 3083244556, -0.7751671671867371, 0.3199253976345062, 0.09510378539562225, 0.5363946557044983, 7.074409008026123, -5.282164096832275, 7.233852863311768, -8.035308837890625, 323.4132080078125, 163.35354614257812, -0.533935546875, 0.49365234375, -0.54541015625, 
314, 3083252889, -0.7837351560592651, 0.30806440114974976, 0.0724516212940216, 0.534421980381012, 6.540248870849609, -4.844595432281494, 8.212026596069336, -0.46963009238243103, 331.0480651855469, 168.27159118652344, -0.497314453125, 0.508056640625, -0.5751953125, 
315, 3083261222, -0.7919543385505676, 0.29601332545280457, 0.04854559898376465, 0.5318161249160767, 6.1192755699157715, -4.353155612945557, 9.293405532836914, -8.474930763244629, 342.86199951171875, 177.6251983642578, -0.456787109375, 0.5234375, -0.60302734375, 
316, 3083269555, -0.7994996905326843, 0.28458815813064575, 0.0227856133133173, 0.5284801721572876, 5.493378639221191, -3.8734848499298096, 9.762670516967773, -31.11747169494629, 355.13958740234375, 188.64991760253906, -0.412353515625, 0.540771484375, -0.627685546875, 
317, 3083277888, -0.806108832359314, 0.2744707465171814, -0.004629239439964294, 0.52424556016922, 4.776862621307373, -3.6042771339416504, 9.034640312194824, -60.900718688964844, 359.9444885253906, 198.5808868408203, -0.366943359375, 0.556396484375, -0.64794921875, 
318, 3083286221, -0.8116337060928345, 0.26590868830680847, -0.03332819789648056, 0.5190693736076355, 4.267630577087402, -3.256399154663086, 8.092436790466309, -91.57190704345703, 359.5702819824219, 205.99253845214844, -0.31982421875, 0.57568359375, -0.6640625, 
319, 3083294554, -0.816166877746582, 0.2584344148635864, -0.06264375150203705, 0.5129907727241516, 4.008803367614746, -3.776279926300049, 6.550385475158691, -112.14238739013672, 355.755859375, 210.70199584960938, -0.267822265625, 0.59814453125, -0.671875, 
320, 3083302887, -0.82007896900177, 0.2503616213798523, -0.09132754802703857, 0.5064082145690918, 3.8160085678100586, -4.743990421295166, 5.883261203765869, -103.62398529052734, 351.72760009765625, 210.29714965820312, -0.21923828125, 0.6181640625, -0.677490234375, 
321, 3083311220, -0.8234933018684387, 0.24100707471370697, -0.11907581984996796, 0.49959588050842285, 3.811136484146118, -5.459672927856445, 5.928192138671875, -84.63804626464844, 349.83770751953125, 207.7599639892578, -0.1650390625, 0.6318359375, -0.684326171875, 
322, 3083319553, -0.8265267610549927, 0.22966398298740387, -0.14577633142471313, 0.49280601739883423, 3.1308584213256836, -5.917876720428467, 6.576595783233643, -56.146053314208984, 352.44903564453125, 204.72955322265625, -0.108642578125, 0.6494140625, -0.6884765625, 
323, 3083327886, -0.8291404843330383, 0.21645501255989075, -0.1711995005607605, 0.48617327213287354, 1.9157114028930664, -6.246372699737549, 7.4987616539001465, -27.284582138061523, 351.7935485839844, 199.74432373046875, -0.058837890625, 0.654541015625, -0.689697265625, 
324, 3083336219, -0.8311161398887634, 0.20259161293506622, -0.1954803317785263, 0.4795730710029602, 0.20322708785533905, -5.698958396911621, 8.142481803894043, -13.998558044433594, 344.8722229003906, 193.31565856933594, -0.004638671875, 0.6630859375, -0.6923828125, 
325, 3083344552, -0.8322237133979797, 0.18951043486595154, -0.21904468536376953, 0.47276780009269714, -0.5275247097015381, -4.306116104125977, 7.400374412536621, -21.190628051757812, 333.149658203125, 185.76351928710938, 0.046630859375, 0.664306640625, -0.693603515625, 
326, 3083352885, -0.8325095772743225, 0.1773403435945511, -0.24250946938991547, 0.4654758870601654, 0.6805458068847656, -3.50620698928833, 5.95717191696167, -34.572208404541016, 327.4296875, 183.060546875, 0.09619140625, 0.6708984375, -0.69140625, 
327, 3083361218, -0.8321746587753296, 0.16414009034633636, -0.26583337783813477, 0.45812273025512695, 1.344551920890808, -3.9411394596099854, 6.212529182434082, -23.6001033782959, 334.1952819824219, 182.8055877685547, 0.150390625, 0.673828125, -0.687255859375, 
328, 3083369551, -0.8312332630157471, 0.15037140250205994, -0.2883128225803375, 0.45090585947036743, -0.44412916898727417, -5.141415119171143, 6.359457969665527, -12.637699127197266, 330.790771484375, 177.6798553466797, 0.201171875, 0.671630859375, -0.679931640625, 
329, 3083377884, -0.8295806050300598, 0.13716065883636475, -0.3097200095653534, 0.443911075592041, -2.8268561363220215, -3.992027759552002, 5.809981346130371, -12.963726043701172, 318.1934814453125, 166.21397399902344, 0.2490234375, 0.67041015625, -0.67236328125, 
330, 3083386217, -0.8273581266403198, 0.12430234998464584, -0.3300485908985138, 0.43714484572410583, -2.7315917015075684, -2.9059362411499023, 5.567968845367432, -10.490242958068848, 306.75006103515625, 156.68031311035156, 0.296142578125, 0.668701171875, -0.661865234375, 
331, 3083394550, -0.8247693777084351, 0.1112154871225357, -0.3490026295185089, 0.43079498410224915, -3.031327486038208, -3.587719202041626, 5.150670528411865, 1.6257890462875366, 294.69903564453125, 148.33712768554688, 0.344482421875, 0.6640625, -0.653564453125, 
332, 3083402883, -0.8219190239906311, 0.09857525676488876, -0.36632153391838074, 0.4249010384082794, -4.462778091430664, -2.898374557495117, 4.810338973999023, 8.044949531555176, 275.6109924316406, 137.05899047851562, 0.384033203125, 0.66064453125, -0.638427734375, 
333, 3083411216, -0.8190510869026184, 0.08679535239934921, -0.38179153203964233, 0.41935378313064575, -5.0335164070129395, -2.289316415786743, 3.7629001140594482, 10.839106559753418, 250.0825958251953, 126.10579681396484, 0.42041015625, 0.6552734375, -0.6298828125, 
334, 3083419549, -0.816246747970581, 0.07516119629144669, -0.3953306972980499, 0.414495050907135, -4.508786678314209, -1.8241798877716064, 3.448270797729492, 24.028575897216797, 228.1260223388672, 115.72924041748047, 0.4541015625, 0.6455078125, -0.619140625, 
335, 3083427882, -0.8135121464729309, 0.06410107761621475, -0.4072236716747284, 0.4101933240890503, -5.07125997543335, -1.7173269987106323, 3.8152949810028076, 30.063491821289062, 206.4209747314453, 104.96660614013672, 0.488037109375, 0.638671875, -0.608154296875, 
336, 3083436215, -0.8108969330787659, 0.05451629310846329, -0.4175882339477539, 0.4063182473182678, -6.7619218826293945, -1.7674331665039062, 3.8174095153808594, 24.674482345581055, 180.846923828125, 91.33068084716797, 0.513671875, 0.631103515625, -0.6005859375, 
337, 3083444548, -0.8085124492645264, 0.046514056622982025, -0.4263738691806793, 0.402926504611969, -7.516742706298828, -1.6025396585464478, 3.7158756256103516, 18.79752540588379, 153.29034423828125, 76.88411712646484, 0.540283203125, 0.624267578125, -0.5927734375, 
338, 3083452881, -0.8064020872116089, 0.039661914110183716, -0.4337664842605591, 0.3999868929386139, -7.425789833068848, -1.763426661491394, 3.57252836227417, 16.552051544189453, 130.23440551757812, 65.80108642578125, 0.5595703125, 0.62255859375, -0.58837890625, 
339, 3083461214, -0.8042598962783813, 0.03339557349681854, -0.4397684335708618, 0.3983150124549866, -6.143187999725342, -2.5219452381134033, 4.133450031280518, 25.252676010131836, 112.34739685058594, 47.253143310546875, 0.574462890625, 0.616455078125, -0.577880859375, 
340, 3083469547, -0.8021942973136902, 0.0274507999420166, -0.4449886083602905, 0.39713507890701294, -6.6735429763793945, -2.341193199157715, 4.579843521118164, 28.981115341186523, 101.81433868408203, 39.97929382324219, 0.588623046875, 0.60888671875, -0.572021484375, 
341, 3083477880, -0.8000727891921997, 0.021723659709095955, -0.4497147798538208, 0.3964451551437378, -7.403661251068115, -2.536848783493042, 5.089775085449219, 32.263526916503906, 95.58978271484375, 32.69961166381836, 0.59716796875, 0.6064453125, -0.567138671875, 
342, 3083486213, -0.7978097200393677, 0.01654753088951111, -0.45402318239212036, 0.3963443338871002, -7.890825271606445, -2.8121464252471924, 5.768665790557861, 32.0679817199707, 89.14745330810547, 21.955703735351562, 0.609375, 0.602783203125, -0.565673828125, 
343, 3083494546, -0.7958632111549377, 0.01228401344269514, -0.4578542709350586, 0.396005779504776, -9.338495254516602, -2.3086798191070557, 5.7052412033081055, 23.256196975708008, 76.800048828125, 20.439664840698242, 0.616455078125, 0.601318359375, -0.561767578125, 
344, 3083502879, -0.7937716245651245, 0.008557151071727276, -0.4621158242225647, 0.3953514099121094, -7.309650897979736, -2.937150001525879, 5.435888767242432, 13.00947093963623, 79.5464096069336, 19.831096649169922, 0.625732421875, 0.59423828125, -0.554443359375, 
345, 3083511212, -0.7916482090950012, 0.004785612225532532, -0.46580085158348083, 0.39534837007522583, -7.344727993011475, -3.843587875366211, 5.492428302764893, 20.781347274780273, 73.677734375, 12.734696388244629, 0.634521484375, 0.593017578125, -0.550537109375, 
346, 3083519545, -0.789355993270874, 0.001111295074224472, -0.4693825840950012, 0.39572253823280334, -7.499289035797119, -3.4919185638427734, 5.4030890464782715, 22.673940658569336, 73.22542572021484, 7.108473300933838, 0.6416015625, 0.589599609375, -0.549072265625, 
347, 3083527878, -0.7871080040931702, -0.001960993744432926, -0.4730949401855469, 0.39577627182006836, -7.392792701721191, -2.7602572441101074, 5.258278846740723, 13.377070426940918, 70.98184967041016, 6.91536283493042, 0.650390625, 0.59033203125, -0.5458984375, 
348, 3083536211, -0.7850784063339233, -0.00464913435280323, -0.4765794277191162, 0.39560437202453613, -7.3853325843811035, -4.001229763031006, 4.703719615936279, 8.966963768005371, 65.10279846191406, 8.07637882232666, 0.6552734375, 0.58837890625, -0.5419921875, 
349, 3083544544, -0.7833352088928223, -0.007567283697426319, -0.47968968749046326, 0.39525556564331055, -7.532902717590332, -4.030297756195068, 4.301222324371338, 12.32686710357666, 60.35561752319336, 13.052751541137695, 0.6611328125, 0.586669921875, -0.533447265625, 
350, 3083552877, -0.7819240689277649, -0.010556508786976337, -0.48254358768463135, 0.39450663328170776, -7.677241802215576, -3.521117925643921, 4.377243995666504, 11.797187805175781, 55.92018508911133, 19.68783187866211, 0.666748046875, 0.583251953125, -0.5361328125, 
351, 3083561210, -0.7807213068008423, -0.013463295996189117, -0.48508962988853455, 0.3936772048473358, -6.89516544342041, -3.893801689147949, 4.2849040031433105, 12.03029727935791, 50.702980041503906, 21.156339645385742, 0.671142578125, 0.58203125, -0.530029296875, 
352, 3083569543, -0.7796500325202942, -0.016499454155564308, -0.487194299697876, 0.3930848240852356, -7.7277116775512695, -3.9281444549560547, 4.24094820022583, 17.353919982910156, 45.826873779296875, 20.295207977294922, 0.677978515625, 0.580078125, -0.524658203125, 
353, 3083577876, -0.7786386609077454, -0.019164394587278366, -0.4892195463180542, 0.3924529552459717, -7.867492198944092, -3.508855104446411, 4.5120673179626465, 13.537612915039062, 42.49369430541992, 18.545665740966797, 0.679931640625, 0.5771484375, -0.52490234375, 
354, 3083586209, -0.7778239250183105, -0.021315451711416245, -0.4913145899772644, 0.3913387358188629, -7.72913932800293, -3.220560073852539, 4.66581392288208, 4.352814197540283, 39.35009002685547, 21.32265853881836, 0.68505859375, 0.5732421875, -0.523681640625, 
355, 3083594542, -0.777030348777771, -0.023310856893658638, -0.49346300959587097, 0.39009636640548706, -7.750854015350342, -3.9457345008850098, 4.65682315826416, 1.5376250743865967, 38.89828109741211, 21.713632583618164, 0.69384765625, 0.573974609375, -0.516357421875, 
356, 3083602875, -0.7761787176132202, -0.025556424632668495, -0.49565085768699646, 0.388875275850296, -7.7102813720703125, -3.93599796295166, 4.702025413513184, 4.153331279754639, 41.1239128112793, 22.888568878173828, 0.6953125, 0.573486328125, -0.516845703125, 
357, 3083611208, -0.7752228379249573, -0.027753466740250587, -0.4979728162288666, 0.3876632750034332, -8.15131950378418, -3.526836395263672, 4.710345268249512, 3.0248677730560303, 42.93010711669922, 21.827444076538086, 0.703125, 0.567138671875, -0.514404296875, 
358, 3083619541, -0.7742043733596802, -0.029688125476241112, -0.5003941059112549, 0.38643574714660645, -8.606891632080078, -3.6037445068359375, 4.608819484710693, -0.3887864351272583, 43.09703063964844, 19.851301193237305, 0.70361328125, 0.56689453125, -0.506591796875, 
359, 3083627874, -0.7732831239700317, -0.03158056363463402, -0.5026151537895203, 0.38524582982063293, -7.8804144859313965, -3.8074183464050293, 4.383271217346191, 0.4505295157432556, 39.98329162597656, 19.73236846923828, 0.71435546875, 0.566650390625, -0.50244140625, 
360, 3083636207, -0.7724123597145081, -0.03374591842293739, -0.5045130252838135, 0.3843272924423218, -8.190593719482422, -3.824713945388794, 4.187305927276611, 6.913805961608887, 37.59566116333008, 19.17064666748047, 0.715087890625, 0.561767578125, -0.5009765625, 
361, 3083644540, -0.7716112732887268, -0.03589729219675064, -0.50634765625, 0.3833276629447937, -8.007913589477539, -2.9944610595703125, 4.272263050079346, 6.509355545043945, 36.33466720581055, 20.301464080810547, 0.720947265625, 0.557373046875, -0.49853515625, 
362, 3083652873, -0.7710176706314087, -0.03780817985534668, -0.5080279111862183, 0.38211318850517273, -7.692976951599121, -3.0556070804595947, 4.087840557098389, 3.1712512969970703, 32.15507507324219, 22.10565185546875, 0.728271484375, 0.557861328125, -0.497802734375, 
363, 3083661206, -0.7706232070922852, -0.0395524799823761, -0.5093593597412109, 0.38095784187316895, -7.945194721221924, -3.225925922393799, 3.821993350982666, 3.5500853061676025, 26.091554641723633, 21.516054153442383, 0.732177734375, 0.556640625, -0.494140625, 
364, 3083669539, -0.770311176776886, -0.04091396927833557, -0.510364294052124, 0.38009899854660034, -8.276490211486816, -2.9288463592529297, 3.7808585166931152, 3.2330563068389893, 19.95209312438965, 16.32790756225586, 0.734375, 0.552978515625, -0.495361328125, 
365, 3083677872, -0.7701005935668945, -0.04168540611863136, -0.511256992816925, 0.3792414367198944, -7.8424458503723145, -2.5518250465393066, 3.8842692375183105, -2.4768588542938232, 14.903544425964355, 12.740189552307129, 0.736083984375, 0.5546875, -0.490478515625, 
366, 3083686205, -0.7699183821678162, -0.042298607528209686, -0.5119929313659668, 0.3785502016544342, -7.552414894104004, -3.0285534858703613, 4.020328044891357, -2.182474136352539, 12.179033279418945, 10.128151893615723, 0.7392578125, 0.55126953125, -0.490234375, 
367, 3083694538, -0.7697023153305054, -0.04282129555940628, -0.5126453638076782, 0.3780476748943329, -8.04443645477295, -2.957421064376831, 4.2454633712768555, -1.3574135303497314, 10.897626876831055, 7.340066909790039, 0.73779296875, 0.55078125, -0.4892578125, 
368, 3083702871, -0.7694761753082275, -0.043303437530994415, -0.5132190585136414, 0.37767425179481506, -8.260265350341797, -2.879946231842041, 4.367684364318848, -0.4614020586013794, 9.901311874389648, 5.707671642303467, 0.74267578125, 0.55029296875, -0.486083984375, 
369, 3083711204, -0.7692485451698303, -0.043835170567035675, -0.5136688947677612, 0.37746506929397583, -8.48869800567627, -3.0581777095794678, 4.49708890914917, 1.8666375875473022, 8.706254005432129, 4.360106468200684, 0.73974609375, 0.5498046875, -0.486328125, 
370, 3083719537, -0.7690663933753967, -0.04421233385801315, -0.5139846205711365, 0.37736278772354126, -8.571576118469238, -2.84600567817688, 4.571954727172852, 1.6545515060424805, 6.152180194854736, 2.476947546005249, 0.7412109375, 0.550048828125, -0.482421875, 
371, 3083727870, -0.768977165222168, -0.044414620846509933, -0.5141726732254028, 0.3772642910480499, -8.399409294128418, -2.883254051208496, 4.4113898277282715, 0.4381827116012573, 3.183541774749756, 1.7394882440567017, 0.74169921875, 0.55224609375, -0.48681640625, 
372, 3083736203, -0.768993616104126, -0.044559258967638016, -0.5141862034797668, 0.3771953880786896, -8.218987464904785, -2.8984999656677246, 4.3437299728393555, 0.8774155974388123, 0.3237895369529724, 1.6925629377365112, 0.7431640625, 0.550537109375, -0.484619140625, 
373, 3083744536, -0.7691567540168762, -0.04452429339289665, -0.5139728784561157, 0.3771578371524811, -8.01291561126709, -2.8185784816741943, 4.121185302734375, 0.28846752643585205, -4.114248275756836, 0.9712406396865845, 0.7431640625, 0.54736328125, -0.484130859375, 
374, 3083752869, -0.7693871855735779, -0.044373199343681335, -0.5135566592216492, 0.3772721290588379, -7.851134777069092, -2.8526504039764404, 4.068081855773926, 1.1429840326309204, -7.383419036865234, -0.9632105827331543, 0.74462890625, 0.54931640625, -0.486083984375, 
375, 3083761202, -0.7695875763893127, -0.04406650364398956, -0.5130694508552551, 0.3775622248649597, -7.853921890258789, -2.845458507537842, 4.1450934410095215, 1.1266422271728516, -8.88366985321045, -4.053696155548096, 0.74365234375, 0.55078125, -0.486572265625, 
376, 3083769535, -0.7698140740394592, -0.04335516318678856, -0.5124835968017578, 0.37797823548316956, -7.979756832122803, -2.8072667121887207, 4.181910037994385, -1.773593783378601, -12.243130683898926, -8.029102325439453, 0.7431640625, 0.55078125, -0.4892578125, 
377, 3083777868, -0.7700792551040649, -0.04234880581498146, -0.5118326544761658, 0.3784339129924774, -7.943386077880859, -2.9544448852539062, 4.302177906036377, -4.2985944747924805, -14.809450149536133, -10.304518699645996, 0.7392578125, 0.55126953125, -0.48828125, 
378, 3083786201, -0.7703391909599304, -0.04149022698402405, -0.5111165642738342, 0.37896743416786194, -7.847121238708496, -3.3327112197875977, 4.431127071380615, -1.8475679159164429, -14.694314002990723, -10.062131881713867, 0.735595703125, 0.55029296875, -0.486572265625, 
379, 3083794534, -0.7705234289169312, -0.04119045287370682, -0.5104308724403381, 0.3795492649078369, -7.927985191345215, -3.482012987136841, 4.794396877288818, 4.299196720123291, -10.997102737426758, -7.076536655426025, 0.735107421875, 0.5537109375, -0.492919921875, 
380, 3083802867, -0.770596981048584, -0.04119378700852394, -0.5100276470184326, 0.37994149327278137, -8.314446449279785, -3.3073534965515137, 5.26696252822876, 4.767629623413086, -5.496854305267334, -3.657316207885742, 0.736083984375, 0.55615234375, -0.490478515625, 
381, 3083811200, -0.7706860303878784, -0.04114416241645813, -0.5097984671592712, 0.3800741136074066, -8.714263916015625, -3.539536714553833, 5.094788074493408, 1.468233585357666, -3.933181047439575, -1.3147403001785278, 0.733642578125, 0.55419921875, -0.49365234375, 
382, 3083819533, -0.7707910537719727, -0.04122495651245117, -0.509548008441925, 0.3801880478858948, -8.582292556762695, -3.7075390815734863, 4.895627975463867, 2.8208959102630615, -3.534726142883301, -0.08797208964824677, 0.734375, 0.550537109375, -0.494873046875, 
383, 3083827866, -0.7708126306533813, -0.04151178151369095, -0.5093601942062378, 0.38036495447158813, -8.285158157348633, -3.4117965698242188, 4.851334095001221, 5.167620658874512, -1.287819743156433, 0.19812610745429993, 0.73486328125, 0.552490234375, -0.496826171875, 
384, 3083836199, -0.7708114385604858, -0.04173022508621216, -0.5092372298240662, 0.38050785660743713, -8.130460739135742, -3.135709762573242, 4.62227725982666, 3.8771495819091797, -0.7376771569252014, -0.05756799131631851, 0.7333984375, 0.551025390625, -0.4951171875, 
385, 3083844532, -0.7708912491798401, -0.04178242012858391, -0.5090498924255371, 0.3805910348892212, -7.929436683654785, -3.111673593521118, 4.318565368652344, 1.986153244972229, -2.8634536266326904, -0.1460907757282257, 0.73046875, 0.549560546875, -0.49560546875, 
386, 3083852865, -0.7710810303688049, -0.041753944009542465, -0.5086628198623657, 0.380727082490921, -7.794365406036377, -3.02864670753479, 4.123533248901367, 2.4855284690856934, -6.164308547973633, -0.561809778213501, 0.734375, 0.552001953125, -0.494384765625, 
387, 3083861198, -0.7713633179664612, -0.04162738472223282, -0.5081026554107666, 0.38091689348220825, -7.722175121307373, -2.9814257621765137, 4.099788665771484, 2.6725635528564453, -9.230792999267578, -1.2540857791900635, 0.73095703125, 0.552978515625, -0.49853515625, 
388, 3083869531, -0.7716724872589111, -0.041438452899456024, -0.5074378252029419, 0.3811975121498108, -7.820534706115723, -3.106808662414551, 4.216999530792236, 3.180366277694702, -10.867620468139648, -2.434645891189575, 0.7333984375, 0.551513671875, -0.5009765625, 
389, 3083877864, -0.772004246711731, -0.04113912954926491, -0.5066384077072144, 0.3816213309764862, -8.062899589538574, -3.1290829181671143, 4.287929058074951, 3.699336051940918, -13.154382705688477, -4.546795845031738, 0.7333984375, 0.552001953125, -0.498046875, 
390, 3083886197, -0.7723891735076904, -0.04057009890675545, -0.5057040452957153, 0.3821426033973694, -8.248859405517578, -3.130514144897461, 4.43582820892334, 2.1967287063598633, -16.391054153442383, -7.08908748626709, 0.73095703125, 0.55078125, -0.50244140625, 
391, 3083894530, -0.7727817296981812, -0.03983340412378311, -0.5047145485877991, 0.38273411989212036, -8.175877571105957, -3.2780892848968506, 4.6242899894714355, 1.1869127750396729, -17.987001419067383, -8.946248054504395, 0.72802734375, 0.55517578125, -0.503662109375, 
392, 3083902863, -0.7731008529663086, -0.03932219743728638, -0.5038121938705444, 0.3833305537700653, -7.916385650634766, -3.3583579063415527, 4.8772406578063965, 3.2002170085906982, -15.332592964172363, -7.850725173950195, 0.72705078125, 0.55126953125, -0.504638671875, 
393, 3083911196, -0.7732752561569214, -0.03920485079288483, -0.5031426548957825, 0.38386988639831543, -7.911821365356445, -3.323528289794922, 5.136833667755127, 5.841250419616699, -9.78265380859375, -5.421189785003662, 0.72509765625, 0.5537109375, -0.50634765625, 
394, 3083919529, -0.7733824849128723, -0.039131928235292435, -0.5026430487632751, 0.38431549072265625, -8.36420726776123, -3.280548572540283, 5.068932056427002, 4.806203365325928, -7.189774990081787, -4.545181751251221, 0.7236328125, 0.55322265625, -0.50634765625, 
395, 3083927862, -0.7734976410865784, -0.03890324383974075, -0.5022189021110535, 0.3846617341041565, -8.415081024169922, -3.2550301551818848, 4.987094879150391, 2.058436870574951, -7.247586250305176, -4.5813493728637695, 0.72265625, 0.55517578125, -0.5087890625, 
396, 3083936195, -0.7735840082168579, -0.03872961923480034, -0.5018709897994995, 0.38495951890945435, -8.159432411193848, -3.2860257625579834, 4.941651344299316, 1.9226558208465576, -5.885754585266113, -3.861359119415283, 0.72216796875, 0.55419921875, -0.5068359375, 
397, 3083944528, -0.7736906409263611, -0.03866482153534889, -0.501524806022644, 0.3852028250694275, -8.060479164123535, -3.1727797985076904, 4.770313262939453, 2.683629274368286, -5.436711311340332, -2.442765712738037, 0.7197265625, 0.55322265625, -0.506591796875, 
398, 3083952861, -0.7738335132598877, -0.03851727768778801, -0.5011235475540161, 0.3854525685310364, -8.053439140319824, -3.0842971801757812, 4.547674179077148, 2.1214990615844727, -6.68058967590332, -2.841912269592285, 0.7216796875, 0.5546875, -0.509521484375, 
399, 3083961194, -0.7740610837936401, -0.03813702613115311, -0.5005258321762085, 0.38581013679504395, -8.051371574401855, -3.033553123474121, 4.292255878448486, 1.3816832304000854, -10.677589416503906, -5.05920934677124, 0.71728515625, 0.554931640625, -0.511474609375, 
400, 3083969527, -0.7743921279907227, -0.03742752969264984, -0.49960026144981384, 0.3864145278930664, -7.9915547370910645, -2.9106264114379883, 4.0871148109436035, 1.2635505199432373, -16.72688102722168, -9.21547794342041, 0.72021484375, 0.553955078125, -0.512939453125, 
401, 3083977860, -0.7748130559921265, -0.036340706050395966, -0.49828729033470154, 0.38736844062805176, -8.100435256958008, -2.785491943359375, 3.915661334991455, 1.6572932004928589, -23.685562133789062, -14.86818790435791, 0.7138671875, 0.554443359375, -0.51416015625, 
402, 3083986193, -0.7753850221633911, -0.03480507433414459, -0.4964020550251007, 0.38878288865089417, -8.315459251403809, -2.6722402572631836, 3.7150866985321045, 3.0063726902008057, -33.41472625732422, -21.74563217163086, 0.7158203125, 0.556396484375, -0.5166015625, 
403, 3083994526, -0.7762740254402161, -0.032559335231781006, -0.49362173676490784, 0.3907388150691986, -8.548018455505371, -2.3789517879486084, 3.389679431915283, 3.7618966102600098, -49.202049255371094, -30.258731842041016, 0.708251953125, 0.5615234375, -0.521484375, 
404, 3084002859, -0.7776598334312439, -0.029538605362176895, -0.48956945538520813, 0.3933126926422119, -8.798608779907227, -2.17797589302063, 2.9257354736328125, 6.29783296585083, -70.58007049560547, -38.86635208129883, 0.698486328125, 0.5615234375, -0.5244140625, 
405, 3084011192, -0.7796298861503601, -0.025955013930797577, -0.4839516878128052, 0.3966042995452881, -8.447142601013184, -2.3587896823883057, 2.020496129989624, 13.339641571044922, -94.60508728027344, -46.546714782714844, 0.690185546875, 0.566650390625, -0.53271484375, 
406, 3084019525, -0.7823470234870911, -0.022504957392811775, -0.4766865670681, 0.40024587512016296, -6.6954026222229, -2.267136812210083, 1.1459496021270752, 25.82156753540039, -116.64168548583984, -44.74332046508789, 0.6796875, 0.5673828125, -0.5419921875, 
407, 3084027858, -0.7855506539344788, -0.0193942803889513, -0.46787595748901367, 0.40450751781463623, -5.614548683166504, -1.9816087484359741, 2.2516541481018066, 41.890586853027344, -134.77781677246094, -46.03813171386719, 0.66748046875, 0.5703125, -0.55810546875, 
408, 3084036191, -0.7890017032623291, -0.015885140746831894, -0.45843705534935, 0.408729612827301, -6.434724807739258, -1.8202399015426636, 4.020742893218994, 40.7655143737793, -145.3827362060547, -46.6317253112793, 0.6474609375, 0.567138671875, -0.572265625, 
409, 3084044524, -0.7923411726951599, -0.011196081526577473, -0.4487973153591156, 0.413099467754364, -8.18558406829834, -2.548222780227661, 5.249741077423096, 30.043848037719727, -153.50450134277344, -56.255035400390625, 0.63232421875, 0.571044921875, -0.583740234375, 
410, 3084052857, -0.7957243323326111, -0.00498583260923624, -0.43845880031585693, 0.4177941083908081, -10.185317993164062, -3.0035881996154785, 5.236085891723633, 19.436765670776367, -170.1063995361328, -68.8347396850586, 0.6162109375, 0.572021484375, -0.599853515625, 
411, 3084061190, -0.7995091676712036, 0.0028681056573987007, -0.42660877108573914, 0.42282646894454956, -11.311561584472656, -2.9037117958068848, 4.539008140563965, 12.141432762145996, -198.5093994140625, -80.02401733398438, 0.591552734375, 0.576416015625, -0.61572265625, 
412, 3084069523, -0.8036149740219116, 0.01303915772587061, -0.41290807723999023, 0.4284161329269409, -10.621813774108887, -1.6814496517181396, 4.0330281257629395, 0.7104511260986328, -234.24942016601562, -97.97188568115234, 0.564208984375, 0.5830078125, -0.63427734375, 
413, 3084077856, -0.808103621006012, 0.025868190452456474, -0.39810696244239807, 0.4333711266517639, -7.309744358062744, 0.2526036202907562, 3.779729127883911, -25.717754364013672, -264.30999755859375, -103.97421264648438, 0.53173828125, 0.58740234375, -0.646240234375, 
414, 3084086189, -0.8127756714820862, 0.04021337628364563, -0.3824452757835388, 0.43762385845184326, -4.604711532592773, -1.2235510349273682, 3.0285651683807373, -41.2257194519043, -284.2446594238281, -103.72583770751953, 0.4970703125, 0.594970703125, -0.6611328125, 
415, 3084094522, -0.8172630667686462, 0.055025942623615265, -0.36614400148391724, 0.44157931208610535, -2.3679752349853516, -3.7153799533843994, 2.5174100399017334, -44.26070022583008, -293.32257080078125, -104.28520202636719, 0.45849609375, 0.607421875, -0.671142578125, 
416, 3084102855, -0.8212577700614929, 0.06826728582382202, -0.3493351638317108, 0.4459155797958374, 0.27566105127334595, -5.201578617095947, 1.226516604423523, -21.976171493530273, -286.8000793457031, -104.0705337524414, 0.418212890625, 0.611083984375, -0.682861328125, 
417, 3084111188, -0.824675977230072, 0.0779220387339592, -0.3315965235233307, 0.4515329897403717, 1.6343989372253418, -4.537392616271973, 3.431455373764038, 29.85021209716797, -271.24688720703125, -105.6764907836914, 0.3828125, 0.61474609375, -0.6943359375, 
418, 3084119521, -0.8274528980255127, 0.08486415445804596, -0.3138861656188965, 0.45781612396240234, 0.21939566731452942, -4.2041707038879395, 7.623448848724365, 62.8060417175293, -250.51158142089844, -104.8279800415039, 0.347412109375, 0.61376953125, -0.712158203125, 
419, 3084127854, -0.8294135332107544, 0.09161730110645294, -0.2971349358558655, 0.46410199999809265, -4.010488510131836, -4.9634881019592285, 12.705772399902344, 57.96009063720703, -234.81076049804688, -108.04203033447266, 0.310791015625, 0.610595703125, -0.72802734375, 
420, 3084136187, -0.8304474949836731, 0.09946388006210327, -0.2818712890148163, 0.47011998295783997, -7.645341396331787, -5.872403144836426, 15.213155746459961, 33.74263381958008, -221.41566467285156, -113.50809478759766, 0.276123046875, 0.613037109375, -0.732666015625, 
421, 3084144520, -0.8308303952217102, 0.10772846639156342, -0.2684387266635895, 0.4754539132118225, -6.485726356506348, -6.004605770111084, 14.713773727416992, 13.577021598815918, -201.57200622558594, -109.00735473632812, 0.24462890625, 0.61181640625, -0.742431640625, 
422, 3084152853, -0.8310844302177429, 0.11532898247241974, -0.2568908631801605, 0.47958892583847046, -2.3845672607421875, -5.608072757720947, 12.614212989807129, 4.225113868713379, -177.03897094726562, -90.92375946044922, 0.214599609375, 0.61083984375, -0.747314453125, 
423, 3084161186, -0.8316075801849365, 0.12195486575365067, -0.24643293023109436, 0.482521653175354, -0.9879900813102722, -5.433156490325928, 10.338658332824707, 4.352489471435547, -160.96588134765625, -70.2167739868164, 0.19091796875, 0.614990234375, -0.749755859375, 
424, 3084169519, -0.8325366377830505, 0.127553328871727, -0.23561722040176392, 0.4848688542842865, -2.688629150390625, -5.1794915199279785, 8.486297607421875, 17.17292022705078, -160.62437438964844, -57.95823287963867, 0.16455078125, 0.612548828125, -0.751953125, 
425, 3084177852, -0.8336821794509888, 0.1330542117357254, -0.2233990579843521, 0.4872000813484192, -3.9150311946868896, -4.795695781707764, 6.647426128387451, 27.96941566467285, -176.73272705078125, -58.46333312988281, 0.141845703125, 0.608642578125, -0.75732421875, 
426, 3084186185, -0.8347133994102478, 0.13935348391532898, -0.20950043201446533, 0.4898409843444824, -3.10588002204895, -3.3555922508239746, 4.797109127044678, 30.824462890625, -200.46591186523438, -68.32135772705078, 0.11962890625, 0.608154296875, -0.76123046875, 
427, 3084194518, -0.8353636860847473, 0.1464303582906723, -0.19450728595256805, 0.492841899394989, -0.605458676815033, -2.34737491607666, 3.206679582595825, 29.573070526123047, -216.44964599609375, -79.3447036743164, 0.086669921875, 0.604736328125, -0.7626953125, 
428, 3084202851, -0.8354977369308472, 0.15389934182167053, -0.17941729724407196, 0.4960528314113617, 2.2855892181396484, -1.3260942697525024, 2.659149408340454, 25.258947372436523, -218.4542999267578, -86.5152359008789, 0.05615234375, 0.598876953125, -0.765380859375, 
429, 3084211184, -0.8352944254875183, 0.16139474511146545, -0.16478390991687775, 0.49908071756362915, 3.051600217819214, -1.322256088256836, 4.75763463973999, 20.66187286376953, -212.90403747558594, -85.79884338378906, 0.027099609375, 0.599853515625, -0.764892578125, 
430, 3084219517, -0.8348475694656372, 0.16949200630187988, -0.14970020949840546, 0.5018888115882874, 0.1446450650691986, -4.037117958068848, 8.034733772277832, 15.810493469238281, -222.16067504882812, -87.31251525878906, -0.00439453125, 0.594970703125, -0.76611328125, 
431, 3084227850, -0.8342826962471008, 0.17831839621067047, -0.13269288837909698, 0.5045470595359802, -2.915257453918457, -6.649117946624756, 10.017416000366211, 20.124216079711914, -249.37155151367188, -92.38797760009766, -0.034912109375, 0.592041015625, -0.764404296875, 
432, 3084236183, -0.8335658311843872, 0.1873212456703186, -0.11304455250501633, 0.5072473883628845, -2.951848030090332, -7.537232398986816, 9.807080268859863, 36.14458084106445, -280.54144287109375, -100.73494720458984, -0.07177734375, 0.587646484375, -0.759521484375, 
433, 3084244516, -0.8327785730361938, 0.19589634239673615, -0.090813547372818, 0.5097623467445374, -0.6487748026847839, -6.574560642242432, 8.124074935913086, 58.580387115478516, -307.5169372558594, -105.08305358886719, -0.11279296875, 0.578857421875, -0.755859375, 
434, 3084252849, -0.8320026993751526, 0.20377212762832642, -0.06625309586524963, 0.5117219686508179, 1.1215156316757202, -5.523177623748779, 6.135961532592773, 82.29293060302734, -330.8424072265625, -104.06129455566406, -0.152587890625, 0.568359375, -0.7490234375, 
435, 3084261182, -0.8309924602508545, 0.21098124980926514, -0.03964073956012726, 0.5131933689117432, 1.8659762144088745, -4.593718528747559, 4.504402160644531, 103.22904205322266, -350.7568664550781, -105.25518035888672, -0.1982421875, 0.552490234375, -0.746337890625, 
436, 3084269515, -0.8293060660362244, 0.21766024827957153, -0.011188128963112831, 0.5145396590232849, 2.785214900970459, -3.4569828510284424, 3.0084340572357178, 120.29805755615234, -368.0712890625, -113.66873168945312, -0.244873046875, 0.535400390625, -0.740234375, 
437, 3084277848, -0.8261253833770752, 0.22447794675827026, 0.01902865432202816, 0.5164929032325745, 3.5636868476867676, -1.3615102767944336, 1.5056703090667725, 126.77314758300781, -387.1123962402344, -136.45114135742188, -0.29150390625, 0.52001953125, -0.733642578125, 
438, 3084286181, -0.8208013772964478, 0.23197735846042633, 0.05085840821266174, 0.519504964351654, 4.37812614440918, 0.5181044340133667, 0.6533045768737793, 123.65145111083984, -407.58636474609375, -168.53421020507812, -0.340087890625, 0.498779296875, -0.71923828125, 
439, 3084294514, -0.8129870295524597, 0.24030785262584686, 0.08378040045499802, 0.5237228870391846, 5.411282062530518, 2.447329044342041, 1.3280224800109863, 113.2282943725586, -423.75396728515625, -202.82884216308594, -0.396728515625, 0.472412109375, -0.698974609375, 
440, 3084302847, -0.8031857013702393, 0.24970819056034088, 0.11655952036380768, 0.5281596779823303, 6.835547924041748, 2.9065210819244385, 3.895594835281372, 93.45948028564453, -431.40277099609375, -217.90182495117188, -0.4462890625, 0.44384765625, -0.674560546875, 
441, 3084311180, -0.7917882204055786, 0.2597920000553131, 0.149180606007576, 0.5322827696800232, 7.1854658126831055, 0.7563976645469666, 5.7639384269714355, 79.7386245727539, -438.2927551269531, -224.3755645751953, -0.505615234375, 0.42138671875, -0.644287109375, 
442, 3084319513, -0.7794451117515564, 0.26970943808555603, 0.18169303238391876, 0.535453200340271, 8.029481887817383, -0.5666760206222534, 6.563467979431152, 79.34896850585938, -441.1742858886719, -220.8806610107422, -0.5576171875, 0.39306640625, -0.611083984375, 
443, 3084327846, -0.7659326791763306, 0.2798996567726135, 0.21449457108974457, 0.5375829935073853, 9.321244239807129, 0.3337531089782715, 7.238786220550537, 76.8000717163086, -453.1308288574219, -218.72586059570312, -0.603515625, 0.36376953125, -0.572265625, 
444, 3084336179, -0.7510523796081543, 0.2907814681529999, 0.2470138520002365, 0.5388420224189758, 10.801541328430176, 2.0158934593200684, 7.532317161560059, 64.7306137084961, -462.5782775878906, -216.53323364257812, -0.64892578125, 0.337646484375, -0.53076171875, 
445, 3084344512, -0.7350890040397644, 0.30252403020858765, 0.27812498807907104, 0.5392307639122009, 12.517078399658203, 2.1485421657562256, 7.983187198638916, 44.02553176879883, -461.65118408203125, -207.02142333984375, -0.689453125, 0.310791015625, -0.48291015625, 
446, 3084352845, -0.7186028361320496, 0.31477153301239014, 0.3067282736301422, 0.5389313101768494, 13.511069297790527, 1.4939414262771606, 8.31433391571045, 20.754236221313477, -444.7904968261719, -191.5309295654297, -0.7255859375, 0.283447265625, -0.43212890625, 
447, 3084361178, -0.7024350762367249, 0.32687392830848694, 0.33249950408935547, 0.5377572774887085, 13.734733581542969, -0.1355791985988617, 8.662517547607422, 6.2848124504089355, -418.2578430175781, -168.9105682373047, -0.7578125, 0.26171875, -0.381591796875, 
