sep=,
PacketCounter,SampleTimeFine,Quat_W,Quat_X,Quat_Y,Quat_Z,Acc_X,Acc_Y,Acc_Z,Gyr_X,Gyr_Y,Gyr_Z,Mag_X,Mag_Y,Mag_Z,
0, 3330268008, -0.3087295591831207, 0.6390113234519958, 0.09549453854560852, 0.6980206966400146, 0, 0, 0, 0, 0, 0, -0.80859375, 0.04150390625, 0.078857421875, 
1, 3330276341, -0.30868810415267944, 0.6389161944389343, 0.09565767645835876, 0.698103666305542, 9.420495986938477, -2.6558001041412354, 1.7011207342147827, 1.4076943397521973, 0.3174244165420532, -2.460606098175049, -0.840087890625, -0.01318359375, 0.066162109375, 
2, 3330284674, -0.30864134430885315, 0.638846755027771, 0.095830038189888, 0.6981644034385681, 9.400629043579102, -2.6518948078155518, 1.6900080442428589, 1.378186583518982, -0.14082705974578857, -2.4578139781951904, -0.840087890625, -0.016845703125, 0.062744140625, 
3, 3330293007, -0.30861136317253113, 0.6388000845909119, 0.09601256251335144, 0.698195219039917, 9.423130989074707, -2.6870179176330566, 1.7141412496566772, 1.2902019023895264, -0.5996548533439636, -2.286839246749878, -0.839111328125, -0.017333984375, 0.060791015625, 
4, 3330301340, -0.30855730175971985, 0.6387816071510315, 0.09616958349943161, 0.6982143521308899, 9.44401741027832, -2.679866313934326, 1.6984467506408691, 1.0051155090332031, -0.9405291080474854, -2.1499054431915283, -0.842041015625, -0.016845703125, 0.062744140625, 
5, 3330309673, -0.30854126811027527, 0.6387529373168945, 0.09632238745689392, 0.6982265710830688, 9.459830284118652, -2.67423415184021, 1.7226500511169434, 1.088131070137024, -0.794015645980835, -1.7860807180404663, -0.838623046875, -0.014892578125, 0.060791015625, 
6, 3330318006, -0.3085077404975891, 0.6387327909469604, 0.09643200039863586, 0.6982446908950806, 9.47006607055664, -2.6664700508117676, 1.707703709602356, 0.7394189238548279, -0.7043402791023254, -1.5342926979064941, -0.838623046875, -0.017822265625, 0.061279296875, 
7, 3330326339, -0.3085058331489563, 0.6386926174163818, 0.09653887152671814, 0.6982675194740295, 9.465299606323242, -2.7024013996124268, 1.714979887008667, 0.846896231174469, -0.3868005573749542, -1.3008956909179688, -0.836669921875, -0.018798828125, 0.0615234375, 
8, 3330334672, -0.3085019588470459, 0.6386522650718689, 0.09663105756044388, 0.6982935070991516, 9.44612979888916, -2.7022368907928467, 1.721732258796692, 0.9074738621711731, -0.32737550139427185, -1.155048131942749, -0.840087890625, -0.017333984375, 0.061767578125, 
9, 3330343005, -0.3085402846336365, 0.6385864615440369, 0.09673693776130676, 0.6983221173286438, 9.443182945251465, -2.705613374710083, 1.7364318370819092, 1.2847458124160767, -0.033324114978313446, -0.9665018916130066, -0.839599609375, -0.019287109375, 0.063232421875, 
10, 3330351338, -0.30858880281448364, 0.6385071873664856, 0.09685924649238586, 0.6983562111854553, 9.431388854980469, -2.718143939971924, 1.722090721130371, 1.8104782104492188, 0.05838765203952789, -1.0036938190460205, -0.839111328125, -0.01708984375, 0.063720703125, 
11, 3330359671, -0.308672159910202, 0.6384238004684448, 0.09700743854045868, 0.6983749270439148, 9.422133445739746, -2.7083053588867188, 1.7401708364486694, 2.084934711456299, -0.046541064977645874, -0.9026967883110046, -0.839599609375, -0.018798828125, 0.062255859375, 
12, 3330368004, -0.30874869227409363, 0.6383501887321472, 0.09713510423898697, 0.6983907222747803, 9.378302574157715, -2.6767945289611816, 1.7368814945220947, 2.109165668487549, -0.14177478849887848, -0.6966046690940857, -0.839599609375, -0.015869140625, 0.062744140625, 
13, 3330376337, -0.3088318109512329, 0.638286292552948, 0.09727145731449127, 0.6983932256698608, 9.375199317932129, -2.6767382621765137, 1.7357754707336426, 1.928329348564148, -0.3307822644710541, -0.7036998867988586, -0.839599609375, -0.0126953125, 0.062255859375, 
14, 3330384670, -0.30889564752578735, 0.6382450461387634, 0.09738375246524811, 0.6983871459960938, 9.37837028503418, -2.6700875759124756, 1.7267147302627563, 1.7412171363830566, -0.594634473323822, -0.5479909181594849, -0.841064453125, -0.017822265625, 0.061767578125, 
15, 3330393003, -0.3089456260204315, 0.6382205486297607, 0.09746559709310532, 0.6983759999275208, 9.371053695678711, -2.6653995513916016, 1.7473036050796509, 1.0288342237472534, -0.6592336297035217, -0.4214310646057129, -0.840087890625, -0.017333984375, 0.059814453125, 
16, 3330401336, -0.30896520614624023, 0.6382121443748474, 0.09750921279191971, 0.6983688473701477, 9.384902000427246, -2.660306692123413, 1.7449002265930176, 0.5545097589492798, -0.6890228986740112, -0.3203316032886505, -0.842041015625, -0.01513671875, 0.063232421875, 
17, 3330409669, -0.3089921474456787, 0.638201117515564, 0.09753721207380295, 0.6983630657196045, 9.374008178710938, -2.69179368019104, 1.7443995475769043, 0.11248490959405899, -0.5086218118667603, -0.19912505149841309, -0.839599609375, -0.015869140625, 0.062744140625, 
18, 3330418002, -0.3089973032474518, 0.6381821036338806, 0.09751579910516739, 0.698381245136261, 9.363851547241211, -2.705247402191162, 1.7415095567703247, -0.18437126278877258, -0.10501836240291595, -0.012397289276123047, -0.841064453125, -0.0107421875, 0.0615234375, 
19, 3330426335, -0.3090497851371765, 0.6381321549415588, 0.09750071913003922, 0.6984057426452637, 9.400472640991211, -2.708681344985962, 1.736438274383545, 0.06796737015247345, 0.34139934182167053, 0.2471902072429657, -0.837158203125, -0.01806640625, 0.06396484375, 
20, 3330434668, -0.3091137111186981, 0.6380653381347656, 0.09746131300926208, 0.6984440684318542, 9.371211051940918, -2.7302043437957764, 1.7383553981781006, 0.3347908854484558, 0.6848862171173096, 0.561297595500946, -0.840087890625, -0.013671875, 0.062744140625, 
21, 3330443001, -0.30920425057411194, 0.637972891330719, 0.09744341671466827, 0.6984909176826477, 9.382813453674316, -2.706270933151245, 1.7318034172058105, 0.8720495104789734, 0.9486616253852844, 0.557634711265564, -0.841064453125, -0.016357421875, 0.060302734375, 
22, 3330451334, -0.3093321919441223, 0.6378700137138367, 0.09746202081441879, 0.698525607585907, 9.388392448425293, -2.6816651821136475, 1.712834119796753, 1.2707349061965942, 0.8956145644187927, 0.5626038908958435, -0.839111328125, -0.014892578125, 0.060791015625, 
23, 3330459667, -0.3094652593135834, 0.6377659440040588, 0.0974922925233841, 0.698557436466217, 9.394148826599121, -2.6628329753875732, 1.706085205078125, 1.499547004699707, 0.8233055472373962, 0.5303042531013489, -0.837646484375, -0.017333984375, 0.06201171875, 
24, 3330468000, -0.3095700740814209, 0.6376718282699585, 0.09752795100212097, 0.698591947555542, 9.394674301147461, -2.6445670127868652, 1.7052656412124634, 1.5350228548049927, 0.648539662361145, 0.2758525013923645, -0.842041015625, -0.016845703125, 0.058837890625, 
25, 3330476333, -0.3096769154071808, 0.6375911235809326, 0.09758438169956207, 0.6986103653907776, 9.399114608764648, -2.657867670059204, 1.7019331455230713, 1.5071030855178833, 0.31463244557380676, 0.15018905699253082, -0.838623046875, -0.014892578125, 0.058837890625, 
26, 3330484666, -0.3097577691078186, 0.6375290155410767, 0.09762322902679443, 0.6986257433891296, 9.38827133178711, -2.6732821464538574, 1.692520022392273, 1.2454537153244019, 0.12890362739562988, 0.14104478061199188, -0.839111328125, -0.016845703125, 0.060791015625, 
27, 3330492999, -0.30984246730804443, 0.6374698281288147, 0.09764677286148071, 0.6986388564109802, 9.396825790405273, -2.694218873977661, 1.6881210803985596, 0.9001482129096985, 0.17585451900959015, 0.27539142966270447, -0.837646484375, -0.017333984375, 0.060546875, 
28, 3330501332, -0.30992135405540466, 0.6374220252037048, 0.09764792770147324, 0.6986473798751831, 9.416231155395508, -2.712765693664551, 1.6826205253601074, 0.8154419660568237, 0.08735734969377518, 0.5020774006843567, -0.840087890625, -0.014892578125, 0.061767578125, 
29, 3330509665, -0.310029536485672, 0.6373716592788696, 0.09762394428253174, 0.6986487507820129, 9.402997016906738, -2.741555690765381, 1.657964825630188, 0.5224407315254211, 0.25192880630493164, 0.9579595327377319, -0.839599609375, -0.0146484375, 0.062255859375, 
30, 3330517998, -0.3101406693458557, 0.637330949306488, 0.09755949676036835, 0.6986455321311951, 9.358851432800293, -2.703645944595337, 1.6765190362930298, 0.4514892101287842, 0.23886553943157196, 1.4463205337524414, -0.841064453125, -0.01611328125, 0.064208984375, 
31, 3330526331, -0.31028246879577637, 0.6372953057289124, 0.09747950732707977, 0.6986262202262878, 9.36500072479248, -2.7027440071105957, 1.6542407274246216, 0.1771608591079712, 0.23077146708965302, 1.8666759729385376, -0.839599609375, -0.016845703125, 0.061767578125, 
32, 3330534664, -0.3104138672351837, 0.6372670531272888, 0.09733892232179642, 0.6986133456230164, 9.395349502563477, -2.6801998615264893, 1.6498061418533325, -0.14213339984416962, 0.3880172669887543, 2.3662047386169434, -0.841064453125, -0.013916015625, 0.060302734375, 
33, 3330542997, -0.31055089831352234, 0.6372397541999817, 0.09717816114425659, 0.6985996961593628, 9.401958465576172, -2.641660690307617, 1.6680479049682617, -0.5893067121505737, 0.5136550664901733, 2.5330045223236084, -0.841064453125, -0.01318359375, 0.061279296875, 
34, 3330551330, -0.31067442893981934, 0.6372165083885193, 0.09699895232915878, 0.698590874671936, 9.399410247802734, -2.604682683944702, 1.6496453285217285, -0.608850359916687, 0.5301250219345093, 2.618274211883545, -0.840576171875, -0.016357421875, 0.061279296875, 
35, 3330559663, -0.3108028769493103, 0.6371954679489136, 0.0968322902917862, 0.698576033115387, 9.395279884338379, -2.6026954650878906, 1.6362199783325195, -0.7054415941238403, 0.44470152258872986, 2.5240137577056885, -0.840576171875, -0.01416015625, 0.063720703125, 
36, 3330567996, -0.3109198212623596, 0.6371873021125793, 0.0966825932264328, 0.6985520124435425, 9.408926963806152, -2.591308832168579, 1.6426652669906616, -0.4277321398258209, 0.11870916932821274, 2.3803436756134033, -0.840087890625, -0.00927734375, 0.063232421875, 
37, 3330576329, -0.3110624849796295, 0.6371773481369019, 0.09658636897802353, 0.698511004447937, 9.416411399841309, -2.5754339694976807, 1.6415386199951172, -0.07146371901035309, -0.12917259335517883, 2.1399285793304443, -0.840087890625, -0.0107421875, 0.059814453125, 
38, 3330584662, -0.3111933469772339, 0.637161374092102, 0.09651742875576019, 0.6984768509864807, 9.412890434265137, -2.5524356365203857, 1.6266484260559082, 0.5164982676506042, -0.2234329879283905, 1.839448094367981, -0.838623046875, -0.01318359375, 0.062744140625, 
39, 3330592995, -0.31135085225105286, 0.6371398568153381, 0.0964878648519516, 0.6984302401542664, 9.396894454956055, -2.5530991554260254, 1.6292383670806885, 0.8434638977050781, -0.35711362957954407, 1.724234938621521, -0.840087890625, -0.0126953125, 0.061279296875, 
40, 3330601328, -0.31150391697883606, 0.6371176838874817, 0.09647093713283539, 0.6983846426010132, 9.392727851867676, -2.5416653156280518, 1.6266958713531494, 1.252600073814392, -0.4590070843696594, 1.6389394998550415, -0.840576171875, -0.01220703125, 0.059814453125, 
41, 3330609661, -0.31166911125183105, 0.6370910406112671, 0.09648297727108002, 0.6983336210250854, 9.390785217285156, -2.521347999572754, 1.6084686517715454, 1.3536484241485596, -0.5178430676460266, 1.4492919445037842, -0.839111328125, -0.01025390625, 0.062255859375, 
42, 3330617994, -0.3118119239807129, 0.6370730996131897, 0.09647515416145325, 0.6982873678207397, 9.343170166015625, -2.5203070640563965, 1.6222059726715088, 1.2331331968307495, -0.5573402047157288, 1.4680414199829102, -0.838623046875, -0.01123046875, 0.058837890625, 
43, 3330626327, -0.3119533956050873, 0.6370658278465271, 0.09647011011838913, 0.6982313394546509, 9.338305473327637, -2.5126631259918213, 1.5987439155578613, 0.9517354369163513, -0.7161996364593506, 1.4262388944625854, -0.841064453125, -0.01123046875, 0.062255859375, 
44, 3330634660, -0.31205859780311584, 0.6370843648910522, 0.09643338620662689, 0.6981725692749023, 9.337677955627441, -2.5256104469299316, 1.5960636138916016, 0.4853769540786743, -0.9449090957641602, 1.4644299745559692, -0.841552734375, -0.009765625, 0.06103515625, 
45, 3330642993, -0.31216809153556824, 0.637113630771637, 0.09639430791139603, 0.6981024146080017, 9.338966369628906, -2.51475191116333, 1.6110785007476807, 0.10959050059318542, -1.0599682331085205, 1.5066933631896973, -0.838623046875, -0.013671875, 0.061767578125, 
46, 3330651326, -0.31224897503852844, 0.6371623277664185, 0.09633668512105942, 0.6980297565460205, 9.319197654724121, -2.5018503665924072, 1.5894569158554077, -0.03829328343272209, -1.2982831001281738, 1.513148307800293, -0.838623046875, -0.009765625, 0.060791015625, 
47, 3330659659, -0.31233569979667664, 0.6372221112251282, 0.09628504514694214, 0.6979434490203857, 9.341081619262695, -2.503939151763916, 1.6224206686019897, -0.28564995527267456, -1.4820140600204468, 1.5165034532546997, -0.837890625, -0.003662109375, 0.063720703125, 
48, 3330667992, -0.31240400671958923, 0.6372867226600647, 0.09624537080526352, 0.6978593468666077, 9.34047794342041, -2.513153314590454, 1.6324809789657593, -0.02963566780090332, -1.6427946090698242, 1.3044688701629639, -0.840576171875, -0.00927734375, 0.060546875, 
49, 3330676325, -0.3124984800815582, 0.6373475790023804, 0.09623956680297852, 0.6977623105049133, 9.380208015441895, -2.496572732925415, 1.6359857320785522, 0.2660422623157501, -1.782699465751648, 1.2446852922439575, -0.842041015625, -0.01123046875, 0.0615234375, 
50, 3330684658, -0.31258901953697205, 0.637396514415741, 0.09624945372343063, 0.6976757049560547, 9.40462875366211, -2.505878210067749, 1.6578289270401, 0.7119861245155334, -1.6997349262237549, 1.0725065469741821, -0.839599609375, -0.01025390625, 0.061279296875, 
51, 3330692991, -0.312704473733902, 0.6374292969703674, 0.09630782902240753, 0.6975858807563782, 9.406373023986816, -2.497809410095215, 1.6542870998382568, 1.206596851348877, -1.7072656154632568, 0.8216663002967834, -0.839111328125, -0.0107421875, 0.061767578125, 
52, 3330701324, -0.3128012716770172, 0.637453556060791, 0.0963691845536232, 0.6975117921829224, 9.395130157470703, -2.482583999633789, 1.6624733209609985, 1.349191427230835, -1.5636978149414062, 0.594929039478302, -0.840576171875, -0.009765625, 0.0625, 
53, 3330709657, -0.31288373470306396, 0.6374722719192505, 0.09642939269542694, 0.6974494457244873, 9.379682540893555, -2.4794816970825195, 1.6814944744110107, 1.2213764190673828, -1.421615719795227, 0.40984058380126953, -0.83984375, -0.00732421875, 0.0625, 
54, 3330717990, -0.31296631693840027, 0.6374912261962891, 0.09649448841810226, 0.6973859071731567, 9.39655876159668, -2.4703209400177, 1.6808605194091797, 0.9270943403244019, -1.3940290212631226, 0.30080077052116394, -0.83837890625, -0.005615234375, 0.063232421875, 
55, 3330726323, -0.3130239248275757, 0.6375182867050171, 0.09655000269412994, 0.697327733039856, 9.411796569824219, -2.458925724029541, 1.6853599548339844, 0.5316874384880066, -1.401534080505371, 0.12388323992490768, -0.839599609375, -0.00927734375, 0.062255859375, 
56, 3330734656, -0.3130247890949249, 0.6375631093978882, 0.09656326472759247, 0.697284460067749, 9.397112846374512, -2.4519660472869873, 1.682313084602356, -0.08250344544649124, -1.4138801097869873, -0.007428127806633711, -0.838134765625, -0.01123046875, 0.064208984375, 
57, 3330742989, -0.313015878200531, 0.6376166343688965, 0.09657742083072662, 0.6972376704216003, 9.409980773925781, -2.467916965484619, 1.6850240230560303, -0.5075204968452454, -1.4853183031082153, -0.14989450573921204, -0.840576171875, -0.01025390625, 0.0615234375, 
58, 3330751322, -0.31297168135643005, 0.6376800537109375, 0.09656858444213867, 0.6972006559371948, 9.38536548614502, -2.49293851852417, 1.6476259231567383, -0.7776481509208679, -1.501275897026062, -0.2496875524520874, -0.83984375, -0.001220703125, 0.064453125, 
59, 3330759655, -0.3129349946975708, 0.6377487182617188, 0.09658728539943695, 0.6971516609191895, 9.394012451171875, -2.5044052600860596, 1.6601704359054565, -0.8385331630706787, -1.6888233423233032, -0.4388999044895172, -0.839111328125, -0.0078125, 0.062255859375, 
60, 3330767988, -0.3128800690174103, 0.6378315687179565, 0.0966075211763382, 0.6970977783203125, 9.364168167114258, -2.5487375259399414, 1.6741150617599487, -0.653649628162384, -1.9729363918304443, -0.5081095695495605, -0.837158203125, -0.01025390625, 0.061767578125, 
61, 3330776321, -0.31285762786865234, 0.6379120349884033, 0.09667280316352844, 0.6970251202583313, 9.376962661743164, -2.5769145488739014, 1.6785080432891846, -0.12794309854507446, -2.2338430881500244, -0.5641279220581055, -0.8388671875, -0.00732421875, 0.064208984375, 
62, 3330784654, -0.3128562271595001, 0.6379865407943726, 0.09677623212337494, 0.6969432234764099, 9.382864952087402, -2.5600242614746094, 1.6895390748977661, 0.6856034398078918, -2.426487922668457, -0.6160480380058289, -0.837158203125, -0.00927734375, 0.062255859375, 
63, 3330792987, -0.31288695335388184, 0.6380559802055359, 0.09691939502954483, 0.6968460083007812, 9.365875244140625, -2.5774266719818115, 1.7076574563980103, 1.1035765409469604, -2.591827869415283, -0.6566977500915527, -0.8388671875, -0.005859375, 0.062744140625, 
64, 3330801320, -0.31292352080345154, 0.6381126642227173, 0.0970732793211937, 0.6967563629150391, 9.373055458068848, -2.5671775341033936, 1.714357852935791, 1.5899653434753418, -2.49052357673645, -0.6847965717315674, -0.84130859375, -0.0107421875, 0.065185546875, 
65, 3330809653, -0.3129805028438568, 0.6381601691246033, 0.09724761545658112, 0.6966628432273865, 9.37105941772461, -2.5634422302246094, 1.7526644468307495, 1.6787443161010742, -2.435145139694214, -0.7334124445915222, -0.836669921875, -0.0087890625, 0.064208984375, 
66, 3330817986, -0.3130078613758087, 0.6382033228874207, 0.09738904237747192, 0.6965913772583008, 9.359176635742188, -2.5518064498901367, 1.7665188312530518, 1.424625277519226, -2.159766674041748, -0.7593596577644348, -0.8408203125, -0.0087890625, 0.0634765625, 
67, 3330826319, -0.3130419850349426, 0.6382441520690918, 0.0975184515118599, 0.6965203285217285, 9.363029479980469, -2.545140027999878, 1.7629433870315552, 1.0635669231414795, -2.017530679702759, -0.6594640612602234, -0.839111328125, -0.009765625, 0.063720703125, 
68, 3330834652, -0.3130300045013428, 0.6382810473442078, 0.09760141372680664, 0.6964803338050842, 9.37979793548584, -2.5193302631378174, 1.7702780961990356, 0.5022054314613342, -1.6242753267288208, -0.7669926285743713, -0.84130859375, -0.00927734375, 0.0654296875, 
69, 3330842985, -0.3130020797252655, 0.6383118033409119, 0.09764903038740158, 0.696458101272583, 9.350882530212402, -2.5419342517852783, 1.7838404178619385, -0.30352869629859924, -1.2190839052200317, -0.762253999710083, -0.837646484375, -0.01123046875, 0.066650390625, 
70, 3330851318, -0.3129276633262634, 0.6383510231971741, 0.09765255451202393, 0.6964550614356995, 9.356268882751465, -2.548858404159546, 1.7745988368988037, -0.8659661412239075, -1.065142273902893, -0.8240355253219604, -0.83984375, -0.0087890625, 0.065673828125, 
71, 3330859651, -0.3128485679626465, 0.6383829712867737, 0.09764507412910461, 0.6964623928070068, 9.380023002624512, -2.5402474403381348, 1.7634143829345703, -1.3083239793777466, -0.8067715764045715, -0.8913241028785706, -0.83935546875, -0.009033203125, 0.067138671875, 
72, 3330867984, -0.312728613615036, 0.6384124159812927, 0.09760855883359909, 0.6964943408966064, 9.366416931152344, -2.5454981327056885, 1.7520780563354492, -1.6527841091156006, -0.5537541508674622, -1.0722119808197021, -0.837890625, -0.009521484375, 0.066650390625, 
73, 3330876317, -0.31263917684555054, 0.6384289264678955, 0.09759610146284103, 0.6965211033821106, 9.385663986206055, -2.55352783203125, 1.7436680793762207, -1.4889298677444458, -0.4584435820579529, -1.0666792392730713, -0.838623046875, -0.00927734375, 0.064208984375, 
74, 3330884650, -0.3125194013118744, 0.6384509205818176, 0.09757812321186066, 0.6965571641921997, 9.402477264404297, -2.5816452503204346, 1.7192459106445312, -1.4488435983657837, -0.5261164307594299, -1.2597593069076538, -0.840576171875, -0.0107421875, 0.064208984375, 
75, 3330892983, -0.31242746114730835, 0.6384633779525757, 0.09759926050901413, 0.6965841054916382, 9.46024227142334, -2.5670955181121826, 1.7113972902297974, -1.0899627208709717, -0.5888200998306274, -1.3760993480682373, -0.84130859375, -0.01025390625, 0.065673828125, 
76, 3330901316, -0.3123350739479065, 0.6384701728820801, 0.09764322638511658, 0.6966131329536438, 9.44909381866455, -2.598740577697754, 1.7244958877563477, -0.539948046207428, -0.6711441278457642, -1.5321409702301025, -0.83984375, 0.0009765625, 0.06787109375, 
77, 3330909649, -0.3122802972793579, 0.6384623646736145, 0.09774136543273926, 0.6966309547424316, 9.46265983581543, -2.614523410797119, 1.714267373085022, -0.1422102302312851, -0.6959899663925171, -1.7244526147842407, -0.836669921875, -0.0087890625, 0.063232421875, 
78, 3330917982, -0.31220895051956177, 0.6384576559066772, 0.09784389287233353, 0.6966528296470642, 9.429723739624023, -2.6035401821136475, 1.713413953781128, 0.2657092213630676, -0.8464734554290771, -1.8304188251495361, -0.838134765625, -0.01123046875, 0.064208984375, 
79, 3330926315, -0.31217020750045776, 0.6384550333023071, 0.09797285497188568, 0.6966546177864075, 9.432791709899902, -2.6178834438323975, 1.6999238729476929, 0.2974196970462799, -0.9986221194267273, -1.7644877433776855, -0.839111328125, -0.01123046875, 0.064697265625, 
80, 3330934648, -0.3121013939380646, 0.638458788394928, 0.09805945307016373, 0.6966698169708252, 9.40152645111084, -2.608457088470459, 1.6994025707244873, 0.10574837774038315, -0.9151198267936707, -1.6246854066848755, -0.837646484375, -0.011474609375, 0.068603515625, 
81, 3330942981, -0.3120616674423218, 0.6384579539299011, 0.09814609587192535, 0.6966760754585266, 9.423556327819824, -2.6083486080169678, 1.6870981454849243, 0.034233421087265015, -0.843707263469696, -1.3882403373718262, -0.83837890625, -0.003173828125, 0.067138671875, 
82, 3330951314, -0.3119949400424957, 0.638468861579895, 0.09818404167890549, 0.6966906189918518, 9.423213005065918, -2.602619171142578, 1.6933425664901733, -0.3701000511646271, -0.7765210866928101, -1.1663696765899658, -0.839111328125, -0.01171875, 0.068115234375, 
83, 3330959647, -0.3119422197341919, 0.6384809613227844, 0.09821046143770218, 0.6966995596885681, 9.45650863647461, -2.5766541957855225, 1.6878992319107056, -0.7246778607368469, -0.6993453502655029, -0.9794370532035828, -0.838623046875, -0.0107421875, 0.066162109375, 
84, 3330967980, -0.3118616044521332, 0.6385096907615662, 0.09820829331874847, 0.6967096924781799, 9.45977783203125, -2.595881223678589, 1.7071189880371094, -0.9472399950027466, -0.8317709565162659, -0.9037981629371643, -0.83935546875, -0.009521484375, 0.068115234375, 
85, 3330976313, -0.3118015229701996, 0.6385379433631897, 0.09823779761791229, 0.6967064142227173, 9.446295738220215, -2.6230838298797607, 1.6823127269744873, -0.859741747379303, -0.9711124897003174, -1.0128124952316284, -0.836669921875, -0.01025390625, 0.065673828125, 
86, 3330984646, -0.31172311305999756, 0.6385813355445862, 0.09827384352684021, 0.6966967582702637, 9.436956405639648, -2.6435258388519287, 1.7014093399047852, -0.5986303091049194, -1.3093998432159424, -1.1125543117523193, -0.8408203125, -0.006591796875, 0.06884765625, 
87, 3330992979, -0.31169357895851135, 0.6386110186576843, 0.09835483133792877, 0.6966712474822998, 9.423418998718262, -2.638728141784668, 1.7046394348144531, -0.03048093616962433, -1.3712836503982544, -1.0672427415847778, -0.83984375, -0.0078125, 0.065185546875, 
88, 3331001312, -0.31166937947273254, 0.6386322975158691, 0.09847047179937363, 0.6966462731361389, 9.431207656860352, -2.6564931869506836, 1.7015899419784546, 0.7559657692909241, -1.4985865354537964, -1.2573004961013794, -0.838623046875, -0.009765625, 0.064208984375, 
89, 3331009645, -0.3116763234138489, 0.6386345028877258, 0.0986204668879509, 0.6966198682785034, 9.388999938964844, -2.6506669521331787, 1.710504412651062, 1.4425041675567627, -1.4338592290878296, -1.280071496963501, -0.838623046875, -0.0107421875, 0.065673828125, 
90, 3331017978, -0.3117199242115021, 0.6386224031448364, 0.09880167245864868, 0.6965858340263367, 9.383475303649902, -2.6333045959472656, 1.7258232831954956, 1.8337615728378296, -1.3986908197402954, -1.2520493268966675, -0.837646484375, -0.010986328125, 0.067626953125, 
91, 3331026311, -0.31177520751953125, 0.6385996341705322, 0.09898752719163895, 0.6965556144714355, 9.388368606567383, -2.5984041690826416, 1.731073021888733, 1.9908281564712524, -1.25737726688385, -1.217290997505188, -0.837646484375, -0.010986328125, 0.068603515625, 
92, 3331034644, -0.3118003308773041, 0.6385682821273804, 0.09914471209049225, 0.696550726890564, 9.39731216430664, -2.5564217567443848, 1.711807370185852, 1.7850689888000488, -0.9301297068595886, -1.3079397678375244, -0.838623046875, -0.0126953125, 0.065673828125, 
93, 3331042977, -0.3118029236793518, 0.6385319828987122, 0.09928083419799805, 0.6965634226799011, 9.411040306091309, -2.521498680114746, 1.7377125024795532, 1.0887202024459839, -0.6191728711128235, -1.4821419715881348, -0.8388671875, -0.008056640625, 0.065673828125, 
94, 3331051310, -0.31174400448799133, 0.6385019421577454, 0.09937600791454315, 0.6966036558151245, 9.423685073852539, -2.5475945472717285, 1.7280126810073853, 0.3857119381427765, -0.39361393451690674, -1.7593904733657837, -0.83740234375, -0.007080078125, 0.066650390625, 
95, 3331059643, -0.31166931986808777, 0.6384668350219727, 0.09947643429040909, 0.6966549754142761, 9.424508094787598, -2.5711069107055664, 1.7310996055603027, -0.11920864135026932, -0.20983180403709412, -2.096217632293701, -0.839599609375, -0.0126953125, 0.066162109375, 
96, 3331067976, -0.31154865026474, 0.6384425759315491, 0.09956179559230804, 0.6967188715934753, 9.428585052490234, -2.636911630630493, 1.7235056161880493, -0.307857483625412, -0.2861878573894501, -2.357816219329834, -0.839599609375, -0.013671875, 0.069580078125, 
97, 3331076309, -0.3114577531814575, 0.6384007930755615, 0.09968747198581696, 0.6967797875404358, 9.390154838562012, -2.7000808715820312, 1.7122387886047363, 0.059309761971235275, -0.209088996052742, -2.513089418411255, -0.83935546875, -0.01123046875, 0.068115234375, 
98, 3331084642, -0.31137463450431824, 0.6383537650108337, 0.0998111218214035, 0.6968424916267395, 9.400840759277344, -2.723233222961426, 1.7036759853363037, 0.48932158946990967, -0.1889050006866455, -2.3608131408691406, -0.83837890625, -0.004638671875, 0.070556640625, 
99, 3331092975, -0.31135326623916626, 0.6382933855056763, 0.09995719790458679, 0.6968863606452942, 9.404250144958496, -2.6960368156433105, 1.7117581367492676, 0.9213311672210693, -0.16047316789627075, -1.986153244972229, -0.83984375, -0.008544921875, 0.067138671875, 
100, 3331101308, -0.3113306760787964, 0.6382303237915039, 0.10005836188793182, 0.6969397664070129, 9.407288551330566, -2.6930148601531982, 1.703115463256836, 0.8857531547546387, 0.06043678894639015, -1.5646969079971313, -0.835693359375, -0.012451171875, 0.068359375, 
101, 3331109641, -0.31133076548576355, 0.638168215751648, 0.1001271903514862, 0.6969865560531616, 9.401182174682617, -2.679455041885376, 1.6754461526870728, 0.42021432518959045, 0.22892720997333527, -1.1097110509872437, -0.839599609375, -0.01025390625, 0.065673828125, 
102, 3331117974, -0.3112996518611908, 0.638124406337738, 0.10011348873376846, 0.6970425248146057, 9.40626049041748, -2.685706615447998, 1.6643449068069458, -0.37448012828826904, 0.3803073763847351, -0.6233736276626587, -0.839111328125, -0.0107421875, 0.066650390625, 
103, 3331126307, -0.3112635016441345, 0.6381073594093323, 0.10006120800971985, 0.6970818042755127, 9.394908905029297, -2.6693124771118164, 1.644517421722412, -1.2559171915054321, 0.20413263142108917, -0.30245283246040344, -0.840576171875, -0.0146484375, 0.067626953125, 
104, 3331134640, -0.31117069721221924, 0.6381194591522217, 0.09994067996740341, 0.697129487991333, 9.387280464172363, -2.653977870941162, 1.6416481733322144, -2.1682963371276855, 0.1438879668712616, -0.16574974358081818, -0.838134765625, -0.013671875, 0.062744140625, 
105, 3331142973, -0.3110894560813904, 0.6381446719169617, 0.09979498386383057, 0.6971635222434998, 9.41057300567627, -2.664031744003296, 1.6239588260650635, -2.5940816402435303, 0.054443053901195526, 0.18958376348018646, -0.837890625, -0.010498046875, 0.070068359375, 
106, 3331151306, -0.3110033869743347, 0.6381858587265015, 0.09964628517627716, 0.6971854567527771, 9.415224075317383, -2.7058396339416504, 1.6310025453567505, -2.4698784351348877, -0.23247480392456055, 0.29757338762283325, -0.841064453125, -0.01123046875, 0.065185546875, 
107, 3331159639, -0.3109714686870575, 0.6382187008857727, 0.09953238815069199, 0.6971859335899353, 9.406957626342773, -2.7044918537139893, 1.6517984867095947, -1.9199151992797852, -0.35836875438690186, 0.5212880969047546, -0.841064453125, -0.0126953125, 0.063232421875, 
108, 3331167972, -0.3109772205352783, 0.6382372975349426, 0.09943784773349762, 0.6971798539161682, 9.424778938293457, -2.699110984802246, 1.6533153057098389, -1.0079714059829712, -0.3671031892299652, 0.7900581955909729, -0.841064453125, -0.0146484375, 0.066650390625, 
109, 3331176305, -0.3110424280166626, 0.6382367610931396, 0.09940080344676971, 0.697156548500061, 9.453482627868652, -2.6792047023773193, 1.6465988159179688, -0.1496639996767044, -0.4439459443092346, 0.8353955149650574, -0.837646484375, -0.01171875, 0.067138671875, 
110, 3331184638, -0.31112316250801086, 0.6382282376289368, 0.09937683492898941, 0.6971317529678345, 9.482644081115723, -2.6241705417633057, 1.658859133720398, 0.4664224088191986, -0.4705846607685089, 0.9331650137901306, -0.839599609375, -0.0146484375, 0.065185546875, 
111, 3331192971, -0.3112103343009949, 0.6382128000259399, 0.09935365617275238, 0.6971101760864258, 9.483731269836426, -2.575810194015503, 1.6606974601745605, 0.5570455193519592, -0.3692803978919983, 0.96413254737854, -0.838134765625, -0.0126953125, 0.065673828125, 
112, 3331201304, -0.31129133701324463, 0.638184130191803, 0.09932685643434525, 0.6971042156219482, 9.477602005004883, -2.549065589904785, 1.6260918378829956, 0.2094860076904297, -0.0525347925722599, 0.7888031005859375, -0.840576171875, -0.01220703125, 0.065673828125, 
113, 3331209637, -0.31133317947387695, 0.6381717920303345, 0.09927578270435333, 0.6971040368080139, 9.430630683898926, -2.533043384552002, 1.6077942848205566, -0.456061452627182, -0.1026618480682373, 0.6214909553527832, -0.840576171875, -0.0126953125, 0.064208984375, 
114, 3331217970, -0.3113170862197876, 0.638182520866394, 0.09918417036533356, 0.6971145868301392, 9.416138648986816, -2.5345592498779297, 1.5988959074020386, -1.1598894596099854, -0.18731689453125, 0.47223684191703796, -0.837158203125, -0.0126953125, 0.065673828125, 
115, 3331226303, -0.31129947304725647, 0.6382068395614624, 0.09910190105438232, 0.6971116662025452, 9.411661148071289, -2.5535078048706055, 1.591006875038147, -1.441107988357544, -0.4229678511619568, 0.38578876852989197, -0.8388671875, -0.005126953125, 0.070068359375, 
116, 3331234636, -0.3112674951553345, 0.6382468342781067, 0.09901852905750275, 0.6971012353897095, 9.361948013305664, -2.595731019973755, 1.5972012281417847, -1.3196196556091309, -0.7105388045310974, 0.37961575388908386, -0.836669921875, -0.009765625, 0.063232421875, 
117, 3331242969, -0.3112727403640747, 0.6382988691329956, 0.09897507727146149, 0.6970574855804443, 9.367005348205566, -2.6337554454803467, 1.6038461923599243, -0.9664250612258911, -1.1718511581420898, 0.4687788784503937, -0.837646484375, -0.01416015625, 0.063720703125, 
118, 3331251302, -0.3112977147102356, 0.6383633613586426, 0.0989704579114914, 0.6969878673553467, 9.348435401916504, -2.6555306911468506, 1.610252857208252, -0.08816420286893845, -1.7231465578079224, 0.5199306011199951, -0.839111328125, -0.0126953125, 0.068603515625, 
119, 3331259635, -0.3113904297351837, 0.6384181976318359, 0.09901885688304901, 0.696889340877533, 9.333283424377441, -2.6251602172851562, 1.6343916654586792, 0.7442343235015869, -1.953853726387024, 0.7404690384864807, -0.840576171875, -0.01171875, 0.064697265625, 
120, 3331267968, -0.3114936947822571, 0.6384742856025696, 0.0990552306175232, 0.6967867612838745, 9.389403343200684, -2.5815505981445312, 1.6338084936141968, 1.0735054016113281, -2.0017268657684326, 1.0392078161239624, -0.8408203125, -0.006103515625, 0.07080078125, 
121, 3331276301, -0.3116227984428406, 0.6385091543197632, 0.09912475943565369, 0.6966872215270996, 9.406085014343262, -2.5601754188537598, 1.6481845378875732, 1.296502947807312, -1.7982219457626343, 0.8709737062454224, -0.8388671875, -0.0107421875, 0.067626953125, 
122, 3331284634, -0.3117307424545288, 0.6385393142700195, 0.09914471209049225, 0.6966084837913513, 9.448040008544922, -2.535742998123169, 1.6742750406265259, 1.0357755422592163, -1.4651598930358887, 1.0909743309020996, -0.840087890625, -0.01025390625, 0.063720703125, 
123, 3331292967, -0.31183984875679016, 0.6385589241981506, 0.09916559606790543, 0.6965386271476746, 9.471835136413574, -2.526409864425659, 1.6930030584335327, 0.8496114611625671, -1.2561477422714233, 0.9889016151428223, -0.8408203125, 0.0009765625, 0.06884765625, 
124, 3331301300, -0.3119041621685028, 0.6385786533355713, 0.09916511923074722, 0.6964916586875916, 9.482137680053711, -2.5385868549346924, 1.6900379657745361, 0.4586869478225708, -1.057970404624939, 0.7013049721717834, -0.83837890625, -0.007080078125, 0.064697265625, 
125, 3331309633, -0.31197798252105713, 0.6386083364486694, 0.09918380528688431, 0.6964287161827087, 9.480592727661133, -2.5299606323242188, 1.715816855430603, 0.38117820024490356, -1.3077090978622437, 0.6398820281028748, -0.83984375, -0.009033203125, 0.067138671875, 
126, 3331317966, -0.31202560663223267, 0.6386472582817078, 0.09920509904623032, 0.6963686347007751, 9.503482818603516, -2.52730655670166, 1.722426176071167, 0.4547422528266907, -1.4745088815689087, 0.43371301889419556, -0.83740234375, -0.008056640625, 0.067626953125, 
127, 3331326299, -0.3121074438095093, 0.6386834979057312, 0.09925898164510727, 0.6962910294532776, 9.452441215515137, -2.567542314529419, 1.7173795700073242, 0.7010231614112854, -1.6166936159133911, 0.4654490053653717, -0.836669921875, -0.0107421875, 0.066650390625, 
128, 3331334632, -0.3121715486049652, 0.6387286186218262, 0.09930536150932312, 0.6962144374847412, 9.45473861694336, -2.5717709064483643, 1.7147276401519775, 0.8371116518974304, -1.7643086910247803, 0.4501830041408539, -0.84228515625, -0.0107421875, 0.06884765625, 
129, 3331342965, -0.3122638761997223, 0.6387617588043213, 0.09936989098787308, 0.6961333155632019, 9.420001983642578, -2.557778835296631, 1.734336256980896, 0.9928973317146301, -1.6712263822555542, 0.49703139066696167, -0.83837890625, -0.010986328125, 0.069580078125, 
130, 3331351298, -0.31233733892440796, 0.6388107538223267, 0.09939758479595184, 0.6960514783859253, 9.374983787536621, -2.544955015182495, 1.7452478408813477, 0.7307612895965576, -1.7549848556518555, 0.7331177592277527, -0.83984375, -0.009521484375, 0.068603515625, 
131, 3331359631, -0.31241801381111145, 0.6388570070266724, 0.09940645098686218, 0.6959715485572815, 9.36878490447998, -2.5272040367126465, 1.747036337852478, 0.23927538096904755, -1.5470998287200928, 0.8752768039703369, -0.837890625, -0.009521484375, 0.068603515625, 
132, 3331367964, -0.3124483525753021, 0.6389157176017761, 0.09935013204813004, 0.6959120035171509, 9.359724044799805, -2.509340763092041, 1.7640095949172974, -0.5258089900016785, -1.3476417064666748, 0.9740709066390991, -0.8408203125, -0.009521484375, 0.069091796875, 
133, 3331376297, -0.31247034668922424, 0.6389708518981934, 0.09924918413162231, 0.6958658695220947, 9.356133460998535, -2.48093318939209, 1.771706461906433, -1.410037875175476, -0.9431672692298889, 1.146864414215088, -0.8388671875, -0.006103515625, 0.070068359375, 
134, 3331384630, -0.3124295771121979, 0.6390330195426941, 0.09908846020698547, 0.695850133895874, 9.368096351623535, -2.4670231342315674, 1.7691060304641724, -2.224442720413208, -0.6459653973579407, 1.0281938314437866, -0.83935546875, -0.008056640625, 0.069091796875, 
135, 3331392963, -0.3123645484447479, 0.6390846967697144, 0.09890928864479065, 0.695857584476471, 9.403924942016602, -2.4670512676239014, 1.7816592454910278, -2.9210987091064453, -0.23987731337547302, 0.7776097655296326, -0.8369140625, -0.008544921875, 0.069091796875, 
136, 3331401296, -0.3122686743736267, 0.639119029045105, 0.09871217608451843, 0.6958968639373779, 9.4194974899292, -2.462851047515869, 1.7694343328475952, -3.012105703353882, 0.18561355769634247, 0.5477988123893738, -0.837890625, -0.007080078125, 0.068603515625, 
137, 3331409629, -0.31218093633651733, 0.6391226649284363, 0.09855760633945465, 0.6959547400474548, 9.447619438171387, -2.4608936309814453, 1.769679307937622, -2.773406982421875, 0.5339927673339844, 0.057542383670806885, -0.8388671875, -0.00048828125, 0.073486328125, 
138, 3331417962, -0.31207701563835144, 0.6391019225120544, 0.0984409898519516, 0.6960369348526001, 9.439030647277832, -2.4936952590942383, 1.7552231550216675, -2.1348440647125244, 0.7336044907569885, -0.49658310413360596, -0.837890625, -0.008056640625, 0.068115234375, 
139, 3331426295, -0.312013179063797, 0.6390466094017029, 0.09840509295463562, 0.6961214542388916, 9.425644874572754, -2.497140884399414, 1.709755778312683, -1.194904088973999, 0.8505590558052063, -0.9464460015296936, -0.8388671875, -0.007568359375, 0.068603515625, 
140, 3331434628, -0.3119540810585022, 0.6389670372009277, 0.09842215478420258, 0.6962186098098755, 9.425537109375, -2.5118138790130615, 1.6983495950698853, -0.2278130054473877, 0.9137750267982483, -1.3865242004394531, -0.837890625, -0.008056640625, 0.066650390625, 
141, 3331442961, -0.31193986535072327, 0.6388652920722961, 0.09853072464466095, 0.6963029503822327, 9.397932052612305, -2.533259391784668, 1.6906535625457764, 0.8140331506729126, 0.7442600727081299, -1.8042666912078857, -0.84033203125, -0.001953125, 0.07080078125, 
142, 3331451294, -0.311926931142807, 0.6387608647346497, 0.09866812080144882, 0.6963852047920227, 9.397151947021484, -2.5382237434387207, 1.6753942966461182, 1.4567455053329468, 0.5673937201499939, -1.971143364906311, -0.83642578125, -0.008056640625, 0.067138671875, 
143, 3331459627, -0.3119293749332428, 0.6386570930480957, 0.09883954375982285, 0.6964550614356995, 9.400684356689453, -2.559631824493408, 1.6608730554580688, 1.9324018955230713, 0.3276700973510742, -2.0692203044891357, -0.8408203125, -0.005126953125, 0.06787109375, 
144, 3331467960, -0.31195196509361267, 0.6385620832443237, 0.09905201196670532, 0.6965017914772034, 9.376289367675781, -2.5861399173736572, 1.6539592742919922, 2.1141350269317627, -0.03657713159918785, -2.201415538787842, -0.8349609375, -0.007568359375, 0.06787109375, 
145, 3331476293, -0.3119800090789795, 0.6384764909744263, 0.09927217662334442, 0.6965361833572388, 9.39853286743164, -2.6047415733337402, 1.6915512084960938, 2.202990770339966, -0.25988203287124634, -2.1537985801696777, -0.8388671875, -0.008544921875, 0.069580078125, 
146, 3331484626, -0.3119863271713257, 0.6384124755859375, 0.09947635233402252, 0.6965630650520325, 9.402438163757324, -2.6217823028564453, 1.690085530281067, 2.1664390563964844, -0.5643072128295898, -2.0805673599243164, -0.8427734375, -0.00830078125, 0.06591796875, 
147, 3331492959, -0.3120151162147522, 0.638344407081604, 0.09967686980962753, 0.6965837478637695, 9.432849884033203, -2.6274449825286865, 1.7162095308303833, 2.0152127742767334, -0.47545143961906433, -1.8823391199111938, -0.83837890625, -0.009521484375, 0.067626953125, 
148, 3331501292, -0.3120274543762207, 0.6382848620414734, 0.09983610361814499, 0.6966100335121155, 9.411835670471191, -2.6477959156036377, 1.7417088747024536, 1.7711092233657837, -0.4121074378490448, -1.6206382513046265, -0.8388671875, -0.008544921875, 0.066162109375, 
149, 3331509625, -0.3120659589767456, 0.6382144689559937, 0.09998852014541626, 0.696635365486145, 9.422438621520996, -2.6294422149658203, 1.7236093282699585, 1.6139401197433472, -0.183961421251297, -1.3946439027786255, -0.83935546875, -0.009033203125, 0.067626953125, 
150, 3331517958, -0.3120880722999573, 0.6381418704986572, 0.10008048266172409, 0.6966788172721863, 9.4052095413208, -2.647038221359253, 1.7448642253875732, 1.24396812915802, 0.16496847569942474, -1.0280017852783203, -0.83935546875, -0.008544921875, 0.066650390625, 
151, 3331526291, -0.31212469935417175, 0.6380600333213806, 0.1001569926738739, 0.696726381778717, 9.414414405822754, -2.6057732105255127, 1.7295786142349243, 0.8898770213127136, 0.4431134760379791, -0.8591271638870239, -0.83740234375, -0.008544921875, 0.069091796875, 
152, 3331534624, -0.3121326267719269, 0.6379751563072205, 0.10018628090620041, 0.6967962980270386, 9.392955780029297, -2.6153006553649902, 1.7271896600723267, 0.5363492965698242, 0.7643160223960876, -0.7442216873168945, -0.8388671875, -0.007080078125, 0.064208984375, 
153, 3331542957, -0.3121411204338074, 0.6378918886184692, 0.10019945353269577, 0.6968668699264526, 9.399958610534668, -2.6000869274139404, 1.724879503250122, 0.0373583622276783, 0.8841137290000916, -0.6692743301391602, -0.838134765625, -0.010986328125, 0.068115234375, 
154, 3331551290, -0.31210824847221375, 0.6378164887428284, 0.10017138719558716, 0.696954607963562, 9.390810012817383, -2.603949785232544, 1.7100374698638916, -0.4358518123626709, 1.0198180675506592, -0.6950423121452332, -0.839111328125, -0.009765625, 0.065673828125, 
155, 3331559623, -0.31208091974258423, 0.6377422213554382, 0.10014288127422333, 0.6970387697219849, 9.399643898010254, -2.6059093475341797, 1.6872197389602661, -0.741480827331543, 1.0480448007583618, -0.6922759413719177, -0.8388671875, -0.007080078125, 0.067138671875, 
156, 3331567956, -0.312023788690567, 0.6376749873161316, 0.10010232776403427, 0.6971316337585449, 9.404792785644531, -2.6165530681610107, 1.7013609409332275, -0.8111773133277893, 1.0067291259765625, -0.8301830291748047, -0.84130859375, -0.00732421875, 0.064453125, 
157, 3331576289, -0.31198376417160034, 0.6376111507415771, 0.10007622838020325, 0.6972118616104126, 9.419228553771973, -2.6281332969665527, 1.6733145713806152, -0.8503669500350952, 0.8821927309036255, -0.8026220202445984, -0.8408203125, -0.006103515625, 0.0673828125, 
158, 3331584622, -0.3119344413280487, 0.6375539898872375, 0.10004593431949615, 0.6972904205322266, 9.435930252075195, -2.650829315185547, 1.6688083410263062, -0.6676349639892578, 0.7498950958251953, -0.7679659724235535, -0.8408203125, -0.00830078125, 0.06494140625, 
159, 3331592955, -0.31191083788871765, 0.6374990344047546, 0.10004016757011414, 0.6973521113395691, 9.44153118133545, -2.674448013305664, 1.6530792713165283, -0.5158194899559021, 0.5672400593757629, -0.7305948138237, -0.840087890625, 0.00390625, 0.0732421875, 
160, 3331601288, -0.31187939643859863, 0.6374446749687195, 0.10002593696117401, 0.6974180340766907, 9.39902114868164, -2.6679389476776123, 1.641920804977417, -0.35101744532585144, 0.5686231851577759, -0.6799298524856567, -0.841064453125, -0.0107421875, 0.0625, 
161, 3331609621, -0.31187888979911804, 0.6373884677886963, 0.10000911355018616, 0.6974719166755676, 9.405179977416992, -2.6601994037628174, 1.6570919752120972, -0.37061235308647156, 0.5818401575088501, -0.37366044521331787, -0.838623046875, -0.00927734375, 0.062744140625, 
162, 3331617954, -0.3118668794631958, 0.6373456716537476, 0.09996895492076874, 0.6975221633911133, 9.391196250915527, -2.662295341491699, 1.6393672227859497, -0.4588533937931061, 0.4577135443687439, -0.18393580615520477, -0.84130859375, -0.00927734375, 0.06591796875, 
163, 3331626287, -0.3118756413459778, 0.6373122334480286, 0.09991990774869919, 0.6975557804107666, 9.352557182312012, -2.653154134750366, 1.6418496370315552, -0.7563628554344177, 0.3592780828475952, 0.09875568747520447, -0.837890625, -0.006591796875, 0.067138671875, 
164, 3331634620, -0.3118721842765808, 0.6372992396354675, 0.09984380006790161, 0.6975800395011902, 9.358929634094238, -2.6651992797851562, 1.6213778257369995, -0.819040834903717, 0.11169087886810303, 0.3653230369091034, -0.83740234375, -0.007080078125, 0.065185546875, 
165, 3331642953, -0.31187766790390015, 0.6372984647750854, 0.09975573420524597, 0.6975908279418945, 9.344159126281738, -2.662753105163574, 1.6184022426605225, -0.8897361755371094, -0.05945064127445221, 0.6311220526695251, -0.8369140625, -0.007080078125, 0.063720703125, 
166, 3331651286, -0.31191137433052063, 0.6373065710067749, 0.09967336803674698, 0.6975802779197693, 9.357335090637207, -2.64477801322937, 1.6232304573059082, -0.9140439033508301, -0.26605504751205444, 0.8878533840179443, -0.8388671875, -0.0078125, 0.064697265625, 
167, 3331659619, -0.31195876002311707, 0.6373240351676941, 0.09959374368190765, 0.6975545883178711, 9.406546592712402, -2.6358301639556885, 1.648759126663208, -0.8145838975906372, -0.47145557403564453, 1.06674325466156, -0.84033203125, -0.007568359375, 0.068115234375, 
168, 3331667952, -0.3119926154613495, 0.6373425126075745, 0.0995095744729042, 0.6975345611572266, 9.441051483154297, -2.601975440979004, 1.6580861806869507, -0.6437369585037231, -0.49294596910476685, 1.0274254083633423, -0.83837890625, -0.008544921875, 0.066162109375, 
169, 3331676285, -0.3120507597923279, 0.6373470425605774, 0.09945887327194214, 0.6975114941596985, 9.430550575256348, -2.6061809062957764, 1.6788007020950317, -0.41810116171836853, -0.42657944560050964, 0.8821670413017273, -0.837646484375, -0.00927734375, 0.063720703125, 
170, 3331684618, -0.3120923638343811, 0.6373504996299744, 0.0994112491607666, 0.6974965333938599, 9.426074981689453, -2.603370428085327, 1.6880208253860474, -0.1685928851366043, -0.4516301453113556, 0.7400592565536499, -0.83935546875, -0.0068359375, 0.06298828125, 
171, 3331692951, -0.3121623992919922, 0.637344241142273, 0.09939044713973999, 0.69747394323349, 9.40506649017334, -2.563908338546753, 1.6920262575149536, 0.07813622802495956, -0.4488382637500763, 0.7291476726531982, -0.8408203125, -0.005126953125, 0.06689453125, 
172, 3331701284, -0.3122258186340332, 0.6373308300971985, 0.09936095029115677, 0.6974620223045349, 9.397683143615723, -2.5991640090942383, 1.6917479038238525, 0.26596540212631226, -0.31003469228744507, 0.7540702223777771, -0.84033203125, -0.0078125, 0.0654296875, 
173, 3331709617, -0.31230825185775757, 0.6373147964477539, 0.09934160113334656, 0.6974425315856934, 9.360705375671387, -2.5582075119018555, 1.682713270187378, 0.17636680603027344, -0.29922547936439514, 0.7962312698364258, -0.83935546875, -0.007080078125, 0.066650390625, 
174, 3331717950, -0.3123606741428375, 0.6373119950294495, 0.09928859025239944, 0.6974291801452637, 9.341756820678711, -2.557534694671631, 1.683793544769287, -0.10022849589586258, -0.33836403489112854, 0.8749950528144836, -0.8388671875, -0.006591796875, 0.068115234375, 
175, 3331726283, -0.3124181926250458, 0.6373171806335449, 0.09922188520431519, 0.697408139705658, 9.344908714294434, -2.5442872047424316, 1.6962605714797974, -0.6155868768692017, -0.3388506770133972, 1.0021697282791138, -0.83984375, -0.007080078125, 0.065673828125, 
176, 3331734616, -0.312423437833786, 0.6373417973518372, 0.0991128534078598, 0.697398841381073, 9.366827011108398, -2.5203542709350586, 1.6743303537368774, -1.1747454404830933, -0.3895156681537628, 0.93326735496521, -0.8388671875, -0.002685546875, 0.06689453125, 
177, 3331742949, -0.3124205768108368, 0.6373662352561951, 0.0990031510591507, 0.6973932385444641, 9.365303993225098, -2.5194215774536133, 1.653704047203064, -1.6325231790542603, -0.2928731441497803, 0.7667748928070068, -0.83740234375, 0, 0.067626953125, 
178, 3331751282, -0.31238025426864624, 0.6373985409736633, 0.09886176884174347, 0.6974018812179565, 9.374567031860352, -2.526956081390381, 1.657490611076355, -1.9423786401748657, -0.22952915728092194, 0.7130106687545776, -0.837890625, -0.006591796875, 0.065673828125, 
179, 3331759615, -0.312347948551178, 0.6374289393424988, 0.09876477718353271, 0.6974023580551147, 9.39535903930664, -2.553971290588379, 1.6629048585891724, -1.8205316066741943, -0.3866724967956543, 0.3491091728210449, -0.8388671875, -0.006103515625, 0.068115234375, 
180, 3331767948, -0.31230685114860535, 0.6374549865722656, 0.098691925406456, 0.6974072456359863, 9.42990779876709, -2.5683212280273438, 1.6771055459976196, -1.260271668434143, -0.4975821077823639, 0.11317648738622665, -0.84033203125, -0.005615234375, 0.0654296875, 
181, 3331776281, -0.31231334805488586, 0.6374611854553223, 0.09869779646396637, 0.6973978281021118, 9.4568452835083, -2.5840933322906494, 1.6849021911621094, -0.37801486253738403, -0.6283171772956848, -0.1694125384092331, -0.83837890625, -0.007568359375, 0.066162109375, 
182, 3331784614, -0.3123375177383423, 0.6374491453170776, 0.09875042736530304, 0.6973905563354492, 9.45271110534668, -2.5964107513427734, 1.6864898204803467, 0.6967455744743347, -0.6886898875236511, -0.36118626594543457, -0.83837890625, -0.003173828125, 0.0654296875, 
183, 3331792947, -0.31240808963775635, 0.6374159455299377, 0.0988488495349884, 0.6973752975463867, 9.463010787963867, -2.6113812923431396, 1.6830425262451172, 1.2795974016189575, -0.6233991980552673, -0.387825071811676, -0.8388671875, -0.007080078125, 0.069091796875, 
184, 3331801280, -0.31246647238731384, 0.6373854279518127, 0.09893866628408432, 0.6973642706871033, 9.428906440734863, -2.594564914703369, 1.6682289838790894, 1.4369970560073853, -0.6585162878036499, -0.36766675114631653, -0.84033203125, -0.005126953125, 0.06591796875, 
185, 3331809613, -0.31254464387893677, 0.6373560428619385, 0.09902149438858032, 0.6973443627357483, 9.411131858825684, -2.5865113735198975, 1.67337167263031, 1.1854907274246216, -0.6209402680397034, -0.15427452325820923, -0.83935546875, -0.007080078125, 0.067626953125, 
186, 3331817946, -0.3125762343406677, 0.6373576521873474, 0.09904015064239502, 0.6973261833190918, 9.385946273803711, -2.581782817840576, 1.6893870830535889, 0.3915519714355469, -0.7591803073883057, 0.07309021800756454, -0.83935546875, -0.008544921875, 0.066162109375, 
187, 3331826279, -0.3125825524330139, 0.6373902559280396, 0.09900754690170288, 0.6972980499267578, 9.386919021606445, -2.5744869709014893, 1.6925486326217651, -0.8031855225563049, -0.8928097486495972, 0.29001715779304504, -0.837890625, -0.006103515625, 0.065673828125, 
188, 3331834612, -0.31253311038017273, 0.6374584436416626, 0.09890192747116089, 0.6972729563713074, 9.372541427612305, -2.5706934928894043, 1.7090694904327393, -1.7864134311676025, -1.033534288406372, 0.5041009187698364, -0.83935546875, -0.007568359375, 0.067626953125, 
189, 3331842945, -0.31245386600494385, 0.6375564336776733, 0.0987425148487091, 0.6972414255142212, 9.392989158630371, -2.5759427547454834, 1.6879699230194092, -2.6846790313720703, -1.186425805091858, 0.7612678408622742, -0.83984375, -0.003173828125, 0.0654296875, 
190, 3331851278, -0.312394917011261, 0.6376544833183289, 0.09857601672410965, 0.6972017884254456, 9.415886878967285, -2.601719856262207, 1.7233067750930786, -2.9380295276641846, -1.1284607648849487, 0.9725084900856018, -0.83935546875, -0.005615234375, 0.067626953125, 
191, 3331859611, -0.31234508752822876, 0.6377481818199158, 0.09841039031744003, 0.697161853313446, 9.422748565673828, -2.6174166202545166, 1.7203826904296875, -2.8135697841644287, -1.0872986316680908, 1.051733374595642, -0.8369140625, -0.006103515625, 0.065673828125, 
192, 3331867944, -0.31232282519340515, 0.6378110647201538, 0.09826958924531937, 0.697134256362915, 9.4287109375, -2.6089205741882324, 1.724615216255188, -1.8595932722091675, -0.8161463737487793, 1.0787562131881714, -0.83837890625, -0.003173828125, 0.067138671875, 
193, 3331876277, -0.31236645579338074, 0.6378352046012878, 0.098187655210495, 0.6971039772033691, 9.425973892211914, -2.594808340072632, 1.7500860691070557, -0.9651955962181091, -0.5503218173980713, 1.0670249462127686, -0.8369140625, -0.002685546875, 0.065673828125, 
194, 3331884610, -0.31242454051971436, 0.6378322243690491, 0.09813698381185532, 0.6970877647399902, 9.407747268676758, -2.5820043087005615, 1.7381336688995361, -0.0232833418995142, -0.36559200286865234, 0.9203323721885681, -0.84033203125, -0.004638671875, 0.064453125, 
195, 3331892943, -0.3125244379043579, 0.6378071904182434, 0.09813331067562103, 0.6970664858818054, 9.40050983428955, -2.5127651691436768, 1.727246642112732, 0.5104533433914185, -0.26964107155799866, 0.8211283683776855, -0.83935546875, 0, 0.06884765625, 
196, 3331901276, -0.31259799003601074, 0.6377772688865662, 0.09812325239181519, 0.6970621943473816, 9.370524406433105, -2.5072503089904785, 1.7535122632980347, 0.5992835164070129, -0.1547868251800537, 0.624513566493988, -0.8408203125, -0.006103515625, 0.0673828125, 
197, 3331909609, -0.3126334547996521, 0.6377546787261963, 0.09810595214366913, 0.6970694661140442, 9.370295524597168, -2.4693474769592285, 1.7437057495117188, 0.15175151824951172, -0.14625725150108337, 0.2835879921913147, -0.84033203125, -0.005126953125, 0.06689453125, 
198, 3331917942, -0.31264227628707886, 0.6377429962158203, 0.09807173162698746, 0.6970810294151306, 9.384987831115723, -2.4600558280944824, 1.7397717237472534, -0.6181227564811707, -0.11844021826982498, 0.10492870956659317, -0.83935546875, -0.003173828125, 0.06494140625, 
199, 3331926275, -0.31259685754776, 0.6377537250518799, 0.09799978137016296, 0.6971017718315125, 9.379809379577637, -2.4672584533691406, 1.7272754907608032, -1.5728421211242676, -0.16224056482315063, -0.09423477947711945, -0.84033203125, -0.002685546875, 0.06787109375, 
200, 3331934608, -0.3124895393848419, 0.6377806067466736, 0.09788097441196442, 0.6971419453620911, 9.396278381347656, -2.494900703430176, 1.7245943546295166, -2.3313820362091064, -0.08644803613424301, -0.26938489079475403, -0.8408203125, -0.003662109375, 0.0654296875, 
201, 3331942941, -0.3123912513256073, 0.6378006935119629, 0.09776362776756287, 0.6971840858459473, 9.418249130249023, -2.5174131393432617, 1.7025007009506226, -2.600536584854126, 0.07690674066543579, -0.2945637106895447, -0.83740234375, -0.001708984375, 0.064208984375, 
202, 3331951274, -0.31227487325668335, 0.6378254890441895, 0.09762595593929291, 0.6972326636314392, 9.389979362487793, -2.557349443435669, 1.7025623321533203, -2.5933902263641357, 0.07536989450454712, -0.22963163256645203, -0.84033203125, -0.003173828125, 0.068359375, 
203, 3331959607, -0.31219741702079773, 0.6378342509269714, 0.09752264618873596, 0.6972739100456238, 9.393107414245605, -2.5727028846740723, 1.6876240968704224, -2.1758270263671875, 0.12821204960346222, -0.21677327156066895, -0.83984375, -0.005615234375, 0.06689453125, 
204, 3331967940, -0.31213024258613586, 0.6378361582756042, 0.09742506593465805, 0.6973159313201904, 9.407493591308594, -2.5872538089752197, 1.6880154609680176, -1.671277403831482, 0.13095277547836304, -0.11213911324739456, -0.83740234375, -0.005615234375, 0.066650390625, 
205, 3331976273, -0.3121061623096466, 0.637823224067688, 0.09737471491098404, 0.6973456144332886, 9.397905349731445, -2.571683168411255, 1.6547958850860596, -1.1061762571334839, 0.08364327996969223, -0.15219977498054504, -0.83984375, -0.004150390625, 0.06787109375, 
206, 3331984606, -0.3120822310447693, 0.6378005743026733, 0.09732203185558319, 0.6973844170570374, 9.383893013000488, -2.5428497791290283, 1.646863341331482, -0.7525462508201599, 0.2049010843038559, -0.11062787473201752, -0.84130859375, -0.003173828125, 0.064453125, 
207, 3331992939, -0.3120756149291992, 0.6377621293067932, 0.09730139374732971, 0.697425365447998, 9.386404037475586, -2.5008199214935303, 1.654266595840454, -0.5809563398361206, 0.3249037563800812, -0.32886114716529846, -0.84228515625, -0.006103515625, 0.06787109375, 
208, 3332001272, -0.3120313882827759, 0.6377355456352234, 0.09727805852890015, 0.6974727511405945, 9.403692245483398, -2.511306047439575, 1.6587944030761719, -0.6431221961975098, 0.16322670876979828, -0.605085015296936, -0.841796875, -0.006103515625, 0.06591796875, 
209, 3332009605, -0.31198909878730774, 0.6377190947532654, 0.09729884564876556, 0.6975036263465881, 9.37619686126709, -2.4988670349121094, 1.6597671508789062, -0.5540871620178223, -0.2065788209438324, -0.9574089646339417, -0.83935546875, -0.004150390625, 0.0654296875, 
210, 3332017938, -0.31190645694732666, 0.6377162933349609, 0.09734176844358444, 0.6975373029708862, 9.39573860168457, -2.532564163208008, 1.6634365320205688, -0.4274759590625763, -0.52073734998703, -1.4633923768997192, -0.84033203125, -0.002685546875, 0.06787109375, 
211, 3332026271, -0.31183314323425293, 0.6377142071723938, 0.09743179380893707, 0.6975594162940979, 9.398416519165039, -2.54376220703125, 1.6469039916992188, -0.20842301845550537, -0.7600767612457275, -1.8051375150680542, -0.8408203125, -0.002685546875, 0.06591796875, 
212, 3332034604, -0.3117537200450897, 0.6377147436141968, 0.09755059331655502, 0.6975778341293335, 9.397944450378418, -2.5800623893737793, 1.6409409046173096, 0.3348933160305023, -1.0062040090560913, -2.0280582904815674, -0.83837890625, -0.005615234375, 0.065673828125, 
213, 3332042937, -0.3117067515850067, 0.6376991868019104, 0.09771358966827393, 0.6975902318954468, 9.410392761230469, -2.6004302501678467, 1.6762945652008057, 0.7700278759002686, -0.9877104759216309, -2.172215223312378, -0.84033203125, 0.000732421875, 0.06591796875, 
214, 3332051270, -0.3116580545902252, 0.6376763582229614, 0.09787509590387344, 0.6976102590560913, 9.399413108825684, -2.640369415283203, 1.6797575950622559, 1.111209511756897, -0.9098175764083862, -2.1469082832336426, -0.83740234375, -0.006103515625, 0.062255859375, 
215, 3332059603, -0.31165364384651184, 0.6376428604125977, 0.09804479032754898, 0.6976189017295837, 9.425355911254883, -2.672464609146118, 1.705857753753662, 1.2854633331298828, -0.8197835683822632, -1.8305981159210205, -0.83740234375, -0.004150390625, 0.065185546875, 
216, 3332067936, -0.31163090467453003, 0.6376175284385681, 0.09818646311759949, 0.6976323127746582, 9.404608726501465, -2.6638989448547363, 1.7051178216934204, 1.1678169965744019, -0.8234207630157471, -1.7000678777694702, -0.8388671875, -0.004638671875, 0.067138671875, 
217, 3332076269, -0.3116217851638794, 0.637606143951416, 0.09831558912992477, 0.6976284980773926, 9.403361320495605, -2.655449151992798, 1.6967649459838867, 0.8530692458152771, -0.9941397309303284, -1.4222559928894043, -0.837890625, -0.002685546875, 0.065185546875, 
218, 3332084602, -0.31159481406211853, 0.6376088857650757, 0.09838470071554184, 0.6976283192634583, 9.386474609375, -2.6754353046417236, 1.7077268362045288, 0.33240869641304016, -0.9083830714225769, -1.0065112113952637, -0.83935546875, -0.008544921875, 0.069091796875, 
219, 3332092935, -0.31154438853263855, 0.6376281976699829, 0.09840934723615646, 0.6976298093795776, 9.372464179992676, -2.668962240219116, 1.721911072731018, -0.3719955384731293, -0.8931171894073486, -0.8266738057136536, -0.84033203125, -0.005126953125, 0.06591796875, 
220, 3332101268, -0.3114926218986511, 0.6376583576202393, 0.09841430187225342, 0.697624683380127, 9.377613067626953, -2.6591479778289795, 1.7121974229812622, -0.9450371265411377, -0.9149404764175415, -0.6928650140762329, -0.837890625, 0.00048828125, 0.06884765625, 
221, 3332109601, -0.3114422857761383, 0.6376916766166687, 0.09840495884418488, 0.6976178884506226, 9.399101257324219, -2.680556535720825, 1.7089500427246094, -1.0713152885437012, -0.8978044986724854, -0.5407164692878723, -0.84033203125, -0.007080078125, 0.069091796875, 
222, 3332117934, -0.3113853633403778, 0.6377328038215637, 0.0983881950378418, 0.6976081728935242, 9.413878440856934, -2.6978952884674072, 1.738720178604126, -0.9047715663909912, -1.0323305130004883, -0.4482491612434387, -0.83984375, -0.003662109375, 0.06494140625, 
223, 3332126267, -0.3113582134246826, 0.6377675533294678, 0.09839927405118942, 0.6975870132446289, 9.399386405944824, -2.7145540714263916, 1.7530115842819214, -0.33334362506866455, -1.151206135749817, -0.3667958080768585, -0.84033203125, -0.005615234375, 0.068359375, 
224, 3332134600, -0.3113882541656494, 0.6377888917922974, 0.09846681356430054, 0.6975445747375488, 9.427124977111816, -2.696357250213623, 1.7569169998168945, 0.45779043436050415, -1.3134979009628296, -0.3095480501651764, -0.83837890625, -0.006103515625, 0.066162109375, 
225, 3332142933, -0.31145331263542175, 0.6377798318862915, 0.09856447577476501, 0.6975099444389343, 9.432560920715332, -2.6962571144104004, 1.7575680017471313, 1.1416648626327515, -1.0248254537582397, -0.3199986219406128, -0.841796875, -0.009033203125, 0.06982421875, 
226, 3332151266, -0.311519593000412, 0.6377570629119873, 0.09865279495716095, 0.6974888443946838, 9.432563781738281, -2.6616907119750977, 1.7684826850891113, 1.4733434915542603, -0.8038002848625183, -0.22537964582443237, -0.8359375, -0.004150390625, 0.066650390625, 
227, 3332159599, -0.31159597635269165, 0.6377117037773132, 0.09873399883508682, 0.6974844336509705, 9.434428215026855, -2.632424831390381, 1.7701135873794556, 1.2375901937484741, -0.3374931514263153, -0.23831482231616974, -0.84033203125, -0.004638671875, 0.0673828125, 
228, 3332167932, -0.3116360008716583, 0.6376549601554871, 0.09875951707363129, 0.6975148916244507, 9.422447204589844, -2.5976192951202393, 1.759177327156067, 0.715648889541626, 0.20759053528308868, -0.19333624839782715, -0.8408203125, -0.005615234375, 0.06494140625, 
229, 3332176265, -0.31167373061180115, 0.6375918984413147, 0.09876783192157745, 0.6975544691085815, 9.40888500213623, -2.6180477142333984, 1.73231840133667, 0.19104376435279846, 0.48278990387916565, -0.18718883395195007, -0.83837890625, -0.004150390625, 0.065673828125, 
230, 3332184598, -0.3116651475429535, 0.6375435590744019, 0.09871697425842285, 0.6976097822189331, 9.398191452026367, -2.6296496391296387, 1.7407945394515991, -0.5137190818786621, 0.6077104806900024, -0.08598698675632477, -0.837890625, -0.006103515625, 0.065673828125, 
231, 3332192931, -0.3116503953933716, 0.6375102400779724, 0.09865380078554153, 0.6976557970046997, 9.403234481811523, -2.6466877460479736, 1.72236168384552, -1.070777416229248, 0.4828155040740967, -0.046541061252355576, -0.839111328125, 0.0029296875, 0.072265625, 
232, 3332201264, -0.3116079568862915, 0.6374989151954651, 0.09856264293193817, 0.6976979970932007, 9.382433891296387, -2.6708004474639893, 1.7102020978927612, -1.3378313779830933, 0.26732292771339417, 0.04891037940979004, -0.83837890625, -0.003662109375, 0.066162109375, 
233, 3332209597, -0.31156957149505615, 0.6375001668930054, 0.09847389906644821, 0.6977264881134033, 9.398835182189941, -2.691049337387085, 1.714314341545105, -1.3134466409683228, 0.01755855605006218, 0.14281216263771057, -0.8388671875, -0.00537109375, 0.0625, 
234, 3332217930, -0.31157055497169495, 0.6374992728233337, 0.09842847287654877, 0.6977332234382629, 9.398370742797852, -2.684190034866333, 1.7073121070861816, -0.915094256401062, -0.20714233815670013, 0.14708976447582245, -0.8369140625, -0.005126953125, 0.067138671875, 
235, 3332226263, -0.31159406900405884, 0.6374977827072144, 0.09838956594467163, 0.6977295875549316, 9.439921379089355, -2.680999994277954, 1.6871339082717896, -0.5811101198196411, -0.3055521845817566, 0.3597647249698639, -0.8388671875, -0.004638671875, 0.06396484375, 
236, 3332234596, -0.3116184175014496, 0.6374860405921936, 0.0983429104089737, 0.6977359652519226, 9.43651008605957, -2.6647915840148926, 1.6882926225662231, -0.27399545907974243, -0.14582183957099915, 0.4527187645435333, -0.841796875, -0.002197265625, 0.06640625, 
237, 3332242929, -0.3116915225982666, 0.6374595165252686, 0.09832722693681717, 0.697729766368866, 9.444664001464844, -2.666207790374756, 1.7138855457305908, 0.18635636568069458, -0.11974654346704483, 0.610809862613678, -0.838623046875, 0.00341796875, 0.07080078125, 
238, 3332251262, -0.311766117811203, 0.6374220848083496, 0.09829951822757721, 0.6977345943450928, 9.451187133789062, -2.6547276973724365, 1.7103163003921509, 0.46124833822250366, 0.07334636151790619, 0.7414168119430542, -0.83935546875, -0.006103515625, 0.065673828125, 
239, 3332259595, -0.31185564398765564, 0.6373882293701172, 0.0982808917760849, 0.6977280974388123, 9.4386625289917, -2.6104156970977783, 1.7152659893035889, 0.32959121465682983, -0.017417680472135544, 0.7832705974578857, -0.83837890625, -0.004638671875, 0.065673828125, 
240, 3332267928, -0.3119189739227295, 0.6373622417449951, 0.09823586791753769, 0.6977298855781555, 9.415644645690918, -2.620386838912964, 1.7235490083694458, 0.1502659171819687, -0.0027919518761336803, 0.8123427033424377, -0.841796875, -0.003662109375, 0.064453125, 
241, 3332276261, -0.3119923174381256, 0.6373467445373535, 0.09818172454833984, 0.6977187991142273, 9.415029525756836, -2.60306978225708, 1.692520022392273, -0.22130700945854187, -0.10304607450962067, 0.9838812947273254, -0.83837890625, -0.003662109375, 0.066162109375, 
242, 3332284594, -0.3120209574699402, 0.6373400688171387, 0.098094642162323, 0.6977244019508362, 9.401053428649902, -2.5885279178619385, 1.7075910568237305, -0.6458116769790649, -0.02115735597908497, 0.8589861392974854, -0.83984375, -0.005126953125, 0.06396484375, 
243, 3332292927, -0.3120538592338562, 0.6373347043991089, 0.0980103462934494, 0.6977265477180481, 9.403542518615723, -2.5974693298339844, 1.7129278182983398, -0.9264156818389893, -0.00906743947416544, 0.8166971206665039, -0.83642578125, -0.001220703125, 0.066650390625, 
244, 3332301260, -0.3120633363723755, 0.6373327374458313, 0.0978996679186821, 0.6977396011352539, 9.416281700134277, -2.5908098220825195, 1.7121115922927856, -1.0717763900756836, 0.07373057305812836, 0.8551440238952637, -0.8388671875, -0.004150390625, 0.0654296875, 
245, 3332309593, -0.3120995759963989, 0.637324333190918, 0.09780573844909668, 0.6977441310882568, 9.40750503540039, -2.591481924057007, 1.7039357423782349, -1.003130316734314, 0.09181422740221024, 0.9155423641204834, -0.8408203125, -0.002197265625, 0.064453125, 
246, 3332317926, -0.3121272921562195, 0.6373149156570435, 0.09769640862941742, 0.6977558135986328, 9.397870063781738, -2.5792722702026367, 1.6868549585342407, -0.8644548058509827, 0.15172593295574188, 1.0152329206466675, -0.84130859375, -0.002197265625, 0.06494140625, 
247, 3332326259, -0.3121856451034546, 0.6372981667518616, 0.09762388467788696, 0.6977550387382507, 9.375066757202148, -2.586189031600952, 1.6727995872497559, -0.5433034896850586, 0.0591304637491703, 0.9546809792518616, -0.83837890625, -0.004150390625, 0.06396484375, 
248, 3332334592, -0.31223252415657043, 0.6372868418693542, 0.09755763411521912, 0.6977536678314209, 9.399049758911133, -2.545711040496826, 1.694043517112732, -0.2568851411342621, -0.10419870167970657, 0.8752511739730835, -0.84033203125, -0.004150390625, 0.06787109375, 
249, 3332342925, -0.31230399012565613, 0.6372658610343933, 0.09751182049512863, 0.6977472305297852, 9.435623168945312, -2.5448169708251953, 1.6842656135559082, -0.1744585782289505, -0.03908732533454895, 0.8592680096626282, -0.84130859375, 0.00341796875, 0.06640625, 
250, 3332351258, -0.3123507797718048, 0.6372548341751099, 0.0974578857421875, 0.6977439522743225, 9.472373962402344, -2.5034592151641846, 1.6911394596099854, -0.13706177473068237, -0.1755855679512024, 0.7748690247535706, -0.83984375, -0.000732421875, 0.0654296875, 
251, 3332359591, -0.3123982846736908, 0.6372344493865967, 0.09742505103349686, 0.6977458000183105, 9.48387622833252, -2.525861978530884, 1.7272040843963623, -0.2309379279613495, -0.0712587982416153, 0.48875799775123596, -0.837890625, -0.001708984375, 0.06494140625, 
252, 3332367924, -0.31241142749786377, 0.6372252106666565, 0.09739251434803009, 0.697752833366394, 9.474026679992676, -2.529388427734375, 1.7388417720794678, -0.25060969591140747, -0.24118363857269287, 0.2237531691789627, -0.83984375, -0.001220703125, 0.068359375, 
253, 3332376257, -0.3124404847621918, 0.6372209787368774, 0.09740539640188217, 0.6977418661117554, 9.445466041564941, -2.545539379119873, 1.7402297258377075, -0.038933638483285904, -0.5498864054679871, -0.017315223813056946, -0.84033203125, -0.002685546875, 0.06787109375, 
254, 3332384590, -0.3124409317970276, 0.63722825050354, 0.09740497171878815, 0.697735071182251, 9.441108703613281, -2.543272018432617, 1.7453652620315552, -0.10512081533670425, -0.6749863624572754, -0.10048464685678482, -0.83935546875, -0.000244140625, 0.0673828125, 
255, 3332392923, -0.31245529651641846, 0.6372275948524475, 0.09740510582923889, 0.697729229927063, 9.425172805786133, -2.5582284927368164, 1.7457586526870728, 0.056210435926914215, -0.5733234286308289, 0.014279934577643871, -0.841796875, -0.002685546875, 0.06494140625, 
256, 3332401256, -0.31250348687171936, 0.6372174620628357, 0.09741156548261642, 0.6977160573005676, 9.4219331741333, -2.5634429454803467, 1.7557655572891235, 0.09621987491846085, -0.46082571148872375, 0.2249058037996292, -0.83984375, -0.002197265625, 0.06396484375, 
257, 3332409589, -0.3125409483909607, 0.6372116804122925, 0.09737586975097656, 0.6977094411849976, 9.470406532287598, -2.5350749492645264, 1.7698637247085571, -0.4129270613193512, -0.2826530933380127, 0.47180140018463135, -0.83984375, -0.004150390625, 0.06494140625, 
258, 3332417922, -0.31253838539123535, 0.6372162699699402, 0.09726236015558243, 0.6977223753929138, 9.70202350616455, -2.4651272296905518, 1.8068653345108032, -1.2314043045043945, 0.0056991674937307835, 0.7749970555305481, -0.837890625, -0.001708984375, 0.0654296875, 
259, 3332426255, -0.312505304813385, 0.6372273564338684, 0.09709778428077698, 0.6977499127388, 10.015007019042969, -2.4335920810699463, 1.874234676361084, -2.3979787826538086, 0.3173731863498688, 0.7975888252258301, -0.839111328125, 0.010009765625, 0.0693359375, 
260, 3332434588, -0.3123857378959656, 0.6372377872467041, 0.09687227010726929, 0.6978253722190857, 10.314178466796875, -2.431640386581421, 1.9751942157745361, -3.439633369445801, 0.8229725956916809, 0.37249502539634705, -0.84130859375, -0.001220703125, 0.06494140625, 
261, 3332442921, -0.3121907413005829, 0.6372464895248413, 0.09665115922689438, 0.6979353427886963, 10.644843101501465, -2.417306423187256, 2.09420108795166, -4.466098308563232, 1.092024564743042, -0.6187631487846375, -0.83740234375, -0.003662109375, 0.065185546875, 
262, 3332451254, -0.3118746280670166, 0.6372446417808533, 0.09641552716493607, 0.6981109976768494, 10.947023391723633, -2.474290370941162, 2.2175302505493164, -5.3397746086120605, 1.600287914276123, -1.8717092275619507, -0.83984375, -0.003173828125, 0.06640625, 
263, 3332459587, -0.3115273714065552, 0.6372265815734863, 0.09625503420829773, 0.6983047723770142, 11.081024169921875, -2.648287296295166, 2.3277101516723633, -5.254760265350342, 1.6322543621063232, -3.0107741355895996, -0.837890625, -0.000244140625, 0.06298828125, 
264, 3332467920, -0.31112051010131836, 0.6372033357620239, 0.09614227712154388, 0.6985227465629578, 11.018628120422363, -2.767414093017578, 2.3887319564819336, -4.919162273406982, 1.5287727117538452, -4.029964447021484, -0.837890625, -0.000732421875, 0.06591796875, 
265, 3332476253, -0.31073400378227234, 0.6371548175811768, 0.09609740972518921, 0.6987451314926147, 10.947550773620605, -2.8274638652801514, 2.3529162406921387, -4.304906845092773, 1.6016196012496948, -4.546987533569336, -0.84228515625, -0.004150390625, 0.06640625, 
266, 3332484586, -0.31038597226142883, 0.6370736956596375, 0.09603569656610489, 0.6989823579788208, 10.873666763305664, -2.943485975265503, 2.2862348556518555, -3.6919848918914795, 2.113136053085327, -4.070306777954102, -0.83935546875, -0.00390625, 0.06005859375, 
267, 3332492919, -0.3101290464401245, 0.6369650959968567, 0.09593430906534195, 0.6992092132568359, 10.676154136657715, -3.011225461959839, 2.239173412322998, -3.4821529388427734, 2.6348211765289307, -2.9077792167663574, -0.841796875, 0.002685546875, 0.065185546875, 
268, 3332501252, -0.3099219501018524, 0.6368651390075684, 0.09568062424659729, 0.6994268298149109, 10.4923095703125, -2.9084417819976807, 2.213263750076294, -4.196943759918213, 3.129099130630493, -0.9752876162528992, -0.83984375, -0.005859375, 0.0615234375, 
269, 3332509585, -0.30979716777801514, 0.6367887854576111, 0.0952766165137291, 0.699606716632843, 10.443564414978027, -2.8304052352905273, 2.2038557529449463, -5.344179630279541, 3.383627414703369, 1.2492958307266235, -0.84033203125, -0.006103515625, 0.0654296875, 
270, 3332517918, -0.30968254804611206, 0.6367198824882507, 0.0946885421872139, 0.6997999548912048, 10.371400833129883, -2.766714334487915, 2.171037435531616, -6.703834533691406, 4.1642985343933105, 2.987093687057495, -0.841796875, -0.003662109375, 0.0634765625, 
271, 3332526251, -0.3095901310443878, 0.6366482973098755, 0.09394805878400803, 0.7000056505203247, 10.421195983886719, -2.580657482147217, 2.1746580600738525, -8.331927299499512, 5.034106731414795, 4.406942844390869, -0.83935546875, -0.0068359375, 0.063720703125, 
272, 3332534584, -0.30941879749298096, 0.6365762948989868, 0.09299303591251373, 0.7002744674682617, 10.769681930541992, -2.4083504676818848, 2.2305715084075928, -10.815561294555664, 6.3420729637146, 5.329055309295654, -0.84130859375, -0.001220703125, 0.06201171875, 
273, 3332542917, -0.30922865867614746, 0.6364399194717407, 0.09194497019052505, 0.7006205916404724, 11.261112213134766, -2.2384791374206543, 2.298841953277588, -12.024168968200684, 8.065475463867188, 5.484866619110107, -0.84033203125, -0.000244140625, 0.05810546875, 
274, 3332551250, -0.3089868128299713, 0.636195182800293, 0.0908714085817337, 0.7010895609855652, 11.755943298339844, -2.218048095703125, 2.349400520324707, -12.094660758972168, 10.173861503601074, 4.615263938903809, -0.84033203125, 0, 0.0576171875, 
275, 3332559583, -0.3087400794029236, 0.6358286142349243, 0.08997177332639694, 0.7016467452049255, 12.407095909118652, -2.239072799682617, 2.4904677867889404, -10.411215782165527, 11.437002182006836, 2.4499638080596924, -0.84033203125, 0.00048828125, 0.05712890625, 
276, 3332567916, -0.3085055947303772, 0.6353322267532349, 0.08937234431505203, 0.7022757530212402, 13.035198211669922, -2.30956768989563, 2.604282855987549, -6.587393760681152, 11.995750427246094, -0.4522450268268585, -0.84033203125, 0.006103515625, 0.058837890625, 
277, 3332576249, -0.3084172308444977, 0.6346838474273682, 0.08929651975631714, 0.702910304069519, 13.389799118041992, -2.5338940620422363, 2.6830992698669434, 0.02854706346988678, 11.532002449035645, -3.894080877304077, -0.8388671875, 0.00732421875, 0.0625, 
278, 3332584582, -0.30854567885398865, 0.6339121460914612, 0.0898529589176178, 0.7034791707992554, 13.308924674987793, -2.8550286293029785, 2.741766929626465, 8.991687774658203, 9.674203872680664, -7.121272087097168, -0.8408203125, -0.00048828125, 0.053955078125, 
279, 3332592915, -0.30895429849624634, 0.6330261826515198, 0.09108895063400269, 0.703938364982605, 13.105381965637207, -2.9749631881713867, 2.791328191757202, 18.248319625854492, 7.354144096374512, -10.080793380737305, -0.843017578125, -0.003662109375, 0.050537109375, 
280, 3332601248, -0.3096403181552887, 0.6320400238037109, 0.09292544424533844, 0.7042830586433411, 12.638431549072266, -3.1408534049987793, 2.862773895263672, 27.424654006958008, 5.054729461669922, -12.192076683044434, -0.843505859375, -0.004150390625, 0.052978515625, 
281, 3332609581, -0.31060484051704407, 0.6309767961502075, 0.09514598548412323, 0.7045150995254517, 11.812727928161621, -3.220842123031616, 2.8532681465148926, 33.65095520019531, 3.6087803840637207, -12.523274421691895, -0.841064453125, -0.00537109375, 0.05322265625, 
282, 3332617914, -0.31171509623527527, 0.6299013495445251, 0.09734918922185898, 0.7046860456466675, 11.00558090209961, -3.0497047901153564, 2.843379259109497, 35.264888763427734, 3.3972842693328857, -10.643829345703125, -0.840576171875, -0.006591796875, 0.0498046875, 
283, 3332626247, -0.31284427642822266, 0.6288692355155945, 0.0991741195321083, 0.7048531174659729, 10.469443321228027, -2.7471203804016113, 2.825153350830078, 31.164243698120117, 4.6600661277771, -7.189820289611816, -0.842041015625, -0.006591796875, 0.052734375, 
284, 3332634580, -0.3138238489627838, 0.627967119216919, 0.1002182587981224, 0.7050741314888, 10.183819770812988, -2.4576077461242676, 2.8350493907928467, 22.08748435974121, 6.9519243240356445, -1.862642526626587, -0.841552734375, -0.006103515625, 0.048583984375, 
285, 3332642913, -0.314597487449646, 0.6271982789039612, 0.10035166144371033, 0.7053946852684021, 9.902539253234863, -2.3905856609344482, 2.864610195159912, 10.34714126586914, 10.234848976135254, 3.678755760192871, -0.842529296875, -0.009033203125, 0.04833984375, 
286, 3332651246, -0.315056711435318, 0.6265864372253418, 0.09962981939315796, 0.7058357000350952, 9.62820053100586, -2.333624839782715, 2.940864086151123, -1.085710883140564, 12.946192741394043, 7.782643795013428, -0.841552734375, -0.01025390625, 0.0458984375, 
287, 3332659579, -0.3152836561203003, 0.6261075735092163, 0.09838797152042389, 0.7063332200050354, 9.080342292785645, -2.6419010162353516, 2.9935643672943115, -8.788091659545898, 14.079649925231934, 9.943897247314453, -0.840087890625, -0.006591796875, 0.044921875, 
288, 3332667912, -0.31540676951408386, 0.6257180571556091, 0.09700402617454529, 0.7068147659301758, 8.401382446289062, -2.9646592140197754, 2.89045786857605, -11.881013870239258, 13.623819351196289, 10.262487411499023, -0.843017578125, -0.003662109375, 0.042236328125, 
289, 3332676245, -0.3155791163444519, 0.6253302097320557, 0.09569434076547623, 0.7072595357894897, 8.291253089904785, -2.9145302772521973, 2.817436695098877, -10.768048286437988, 13.053388595581055, 10.24396800994873, -0.843017578125, -0.002197265625, 0.041259765625, 
290, 3332684578, -0.3160141110420227, 0.6248309016227722, 0.09455756098031998, 0.7076592445373535, 8.514671325683594, -2.906203031539917, 2.7467408180236816, -5.757236480712891, 13.252206802368164, 11.46694564819336, -0.841552734375, -0.001708984375, 0.040283203125, 
291, 3332692911, -0.3169299066066742, 0.6240979433059692, 0.09373332560062408, 0.7080060243606567, 8.553849220275879, -3.1217894554138184, 2.7663815021514893, 2.0813233852386475, 14.402311325073242, 13.300668716430664, -0.841064453125, -0.00244140625, 0.038818359375, 
292, 3332701244, -0.3183423578739166, 0.623046338558197, 0.09335308521986008, 0.7083487510681152, 8.250557899475098, -3.2265784740448, 2.709017276763916, 12.478941917419434, 16.109222412109375, 14.020485877990723, -0.841064453125, 0.00146484375, 0.03466796875, 
293, 3332709577, -0.32028108835220337, 0.6216380000114441, 0.09351373463869095, 0.708690881729126, 8.077420234680176, -3.1168556213378906, 2.5949606895446777, 23.402685165405273, 17.950281143188477, 13.965290069580078, -0.844482421875, 0.00244140625, 0.033203125, 
294, 3332717910, -0.32265594601631165, 0.6198954582214355, 0.0940897986292839, 0.7090637683868408, 8.110482215881348, -2.825042963027954, 2.474271059036255, 33.02692413330078, 20.138364791870117, 14.190422058105469, -0.843994140625, 0.00537109375, 0.031005859375, 
295, 3332726243, -0.325383722782135, 0.6178898215293884, 0.09490415453910828, 0.7094590663909912, 8.157373428344727, -2.395660161972046, 2.364788293838501, 39.11893844604492, 22.34473419189453, 15.073302268981934, -0.841796875, 0.01708984375, 0.031494140625, 
296, 3332734576, -0.3282328248023987, 0.6157271862030029, 0.09571893513202667, 0.7099172472953796, 8.28050422668457, -1.9003510475158691, 2.3147521018981934, 41.1536979675293, 24.51849937438965, 15.853951454162598, -0.840576171875, 0.015869140625, 0.026611328125, 
297, 3332742909, -0.33099526166915894, 0.6134883761405945, 0.09648533165454865, 0.7104688882827759, 8.466775894165039, -1.474838137626648, 2.276163339614868, 39.7867431640625, 26.20589256286621, 14.805585861206055, -0.845458984375, 0.0126953125, 0.0234375, 
298, 3332751242, -0.3334018290042877, 0.6112518906593323, 0.09718026965856552, 0.7111763954162598, 8.57026195526123, -1.220661997795105, 2.2845618724823, 36.25303649902344, 27.302608489990234, 11.31442928314209, -0.84228515625, 0.019775390625, 0.01953125, 
299, 3332759575, -0.3354025185108185, 0.6090618968009949, 0.0980241671204567, 0.7119982242584229, 8.448568344116211, -1.3434721231460571, 2.2817325592041016, 33.56416702270508, 26.628103256225586, 5.545196056365967, -0.844482421875, 0.01904296875, 0.01318359375, 
300, 3332767908, -0.3369579613208771, 0.6069960594177246, 0.09914723038673401, 0.7128718495368958, 8.097663879394531, -1.6323230266571045, 2.20906925201416, 32.290950775146484, 23.914953231811523, -1.138247013092041, -0.844482421875, 0.015380859375, 0.01123046875, 
301, 3332776241, -0.33821773529052734, 0.6050736904144287, 0.1007109209895134, 0.713689923286438, 7.963213920593262, -1.6995662450790405, 2.1387877464294434, 33.16290283203125, 19.65104866027832, -7.355469226837158, -0.842529296875, 0.018310546875, 0.00537109375, 
302, 3332784574, -0.33927565813064575, 0.6032574772834778, 0.10270781815052032, 0.7144402265548706, 8.110596656799316, -1.804977297782898, 2.07193922996521, 35.724979400634766, 15.698410034179688, -12.384296417236328, -0.843505859375, 0.015869140625, 0.00390625, 
303, 3332792907, -0.34030720591545105, 0.6014793515205383, 0.10500079393386841, 0.7151154279708862, 8.37808895111084, -1.7801737785339355, 2.0972301959991455, 37.97312545776367, 13.32822322845459, -14.784919738769531, -0.847412109375, 0.01611328125, 0.001708984375, 
304, 3332801240, -0.3413461446762085, 0.5996679663658142, 0.10742855817079544, 0.71578049659729, 8.50505542755127, -1.9099812507629395, 2.126718044281006, 39.901084899902344, 12.904664993286133, -15.739383697509766, -0.84521484375, 0.013671875, 0.000732421875, 
305, 3332809573, -0.3423762321472168, 0.5978106260299683, 0.10991766303777695, 0.7164639830589294, 8.318228721618652, -2.048644781112671, 2.154130458831787, 40.23502731323242, 13.254096984863281, -16.578664779663086, -0.84521484375, 0.009765625, -0.0029296875, 
306, 3332817906, -0.34324708580970764, 0.5959329009056091, 0.11236550658941269, 0.717231273651123, 8.102689743041992, -2.0003716945648193, 2.1165530681610107, 38.87385940551758, 14.052468299865723, -18.140880584716797, -0.84375, 0.01123046875, -0.00390625, 
307, 3332826239, -0.34389597177505493, 0.594089686870575, 0.11474370956420898, 0.7180725336074829, 7.932528972625732, -1.9526623487472534, 2.0835564136505127, 35.77268600463867, 14.331610679626465, -20.132080078125, -0.84619140625, 0.0078125, -0.010986328125, 
308, 3332834572, -0.34416791796684265, 0.5923784375190735, 0.11692200601100922, 0.7190040946006775, 7.75557279586792, -1.8847699165344238, 2.0184314250946045, 30.27108383178711, 14.088374137878418, -22.36269187927246, -0.844970703125, 0.00341796875, -0.00830078125, 
309, 3332842905, -0.34405946731567383, 0.590820848941803, 0.11876444518566132, 0.7200348973274231, 7.849815368652344, -1.6242166757583618, 1.9847204685211182, 22.96575927734375, 14.35660171508789, -23.610841751098633, -0.849365234375, 0.00244140625, -0.009521484375, 
310, 3332851238, -0.3437301218509674, 0.5893594026565552, 0.12029346078634262, 0.7211350798606873, 8.030777931213379, -1.792106032371521, 2.062427043914795, 17.126218795776367, 15.125616073608398, -23.516887664794922, -0.845458984375, -0.002197265625, -0.01220703125, 
311, 3332859571, -0.3432994484901428, 0.5879051685333252, 0.12147707492113113, 0.7223278284072876, 8.094924926757812, -2.0944643020629883, 2.2105939388275146, 12.702608108520508, 17.26786231994629, -22.146162033081055, -0.847412109375, -0.005615234375, -0.015625, 
312, 3332867904, -0.34280967712402344, 0.5864253044128418, 0.1223270371556282, 0.7236188054084778, 8.135810852050781, -2.2364742755889893, 2.281862497329712, 9.22974967956543, 19.757490158081055, -20.449420928955078, -0.84765625, -0.00830078125, -0.017578125, 
313, 3332876237, -0.34230664372444153, 0.5849363803863525, 0.12283504009246826, 0.7249747514724731, 8.087066650390625, -2.1263267993927, 2.2273271083831787, 5.298065185546875, 21.993614196777344, -18.238605499267578, -0.846923828125, -0.000732421875, -0.0166015625, 
314, 3332884570, -0.34169772267341614, 0.5835310220718384, 0.12294457107782364, 0.726374626159668, 7.972936630249023, -1.9466478824615479, 2.1621286869049072, 0.36109691858291626, 23.179166793823242, -16.062517166137695, -0.84619140625, -0.011962890625, -0.0234375, 
315, 3332892903, -0.34104493260383606, 0.5822338461875916, 0.12277360260486603, 0.7277500033378601, 7.707324981689453, -2.090174436569214, 2.116469621658325, -3.642704725265503, 23.183855056762695, -14.055795669555664, -0.84619140625, -0.010498046875, -0.0263671875, 
316, 3332901236, -0.3402721881866455, 0.5811051726341248, 0.12238334119319916, 0.7290782928466797, 7.215601444244385, -2.1947851181030273, 2.034783124923706, -7.126192092895508, 21.907855987548828, -12.891319274902344, -0.846435546875, -0.01513671875, -0.03125, 
317, 3332909569, -0.3393459618091583, 0.5801104307174683, 0.12194562703371048, 0.7303744554519653, 7.057244777679443, -2.124497652053833, 1.90679132938385, -9.722810745239258, 20.294696807861328, -13.762537956237793, -0.849365234375, -0.0185546875, -0.03125, 
318, 3332917902, -0.3381739854812622, 0.5792018175125122, 0.12138299643993378, 0.7317317128181458, 7.4261794090271, -1.9495365619659424, 1.8453295230865479, -13.119621276855469, 20.06778335571289, -15.287280082702637, -0.846923828125, -0.0205078125, -0.033203125, 
319, 3332926235, -0.3367546796798706, 0.5783011317253113, 0.1206091046333313, 0.7332250475883484, 7.9569573402404785, -1.8204030990600586, 1.7328460216522217, -17.819583892822266, 21.666011810302734, -16.809663772583008, -0.848876953125, -0.024169921875, -0.03857421875, 
320, 3332934568, -0.335146963596344, 0.5774248242378235, 0.11958150565624237, 0.7348189353942871, 8.194409370422363, -1.9691195487976074, 1.65277099609375, -21.815715789794922, 23.056894302368164, -17.019575119018555, -0.849609375, -0.02685546875, -0.04052734375, 
321, 3332942901, -0.3334845304489136, 0.5765838623046875, 0.1184380054473877, 0.7364190816879272, 8.426362991333008, -2.087827205657959, 1.658671498298645, -23.92902374267578, 23.220905303955078, -16.722299575805664, -0.85009765625, -0.02734375, -0.04541015625, 
322, 3332951234, -0.3318687081336975, 0.5757716298103333, 0.11738137155771255, 0.7379521131515503, 8.455692291259766, -2.3520421981811523, 1.687296986579895, -22.367938995361328, 22.047054290771484, -16.485902786254883, -0.84912109375, -0.029296875, -0.04736328125, 
323, 3332959567, -0.3304452896118164, 0.5749832987785339, 0.11661726236343384, 0.7393253445625305, 8.222501754760742, -2.6723134517669678, 1.6616430282592773, -17.726219177246094, 19.51300621032715, -16.08094024658203, -0.85205078125, -0.031982421875, -0.05224609375, 
324, 3332967900, -0.3293120265007019, 0.5742225646972656, 0.11631615459918976, 0.7404688000679016, 7.964990615844727, -2.806427001953125, 1.6435710191726685, -10.806164741516113, 15.805462837219238, -15.801992416381836, -0.84814453125, -0.029052734375, -0.05224609375, 
325, 3332976233, -0.32846134901046753, 0.5735341310501099, 0.11649243533611298, 0.7413519620895386, 7.801702499389648, -2.8293278217315674, 1.6797252893447876, -3.6506447792053223, 11.314849853515625, -15.414704322814941, -0.847900390625, -0.033935546875, -0.0537109375, 
326, 3332984566, -0.3278087377548218, 0.5729446411132812, 0.11707291752099991, 0.7420048117637634, 7.845126628875732, -2.6972930431365967, 1.7596527338027954, 2.3032708168029785, 6.941241264343262, -15.270235061645508, -0.848388671875, -0.0361328125, -0.05908203125, 
327, 3332992899, -0.32729479670524597, 0.5724160671234131, 0.1179552674293518, 0.7424997091293335, 8.125248908996582, -2.6113157272338867, 1.8495885133743286, 6.155166149139404, 3.968273878097534, -15.524919509887695, -0.849365234375, -0.040283203125, -0.0595703125, 
328, 3333001232, -0.32678791880607605, 0.5719371438026428, 0.11894486844539642, 0.7429341077804565, 8.342680931091309, -2.639507293701172, 1.8794394731521606, 7.482008934020996, 2.4845168590545654, -15.84345531463623, -0.84814453125, -0.041748046875, -0.059814453125, 
329, 3333009565, -0.3262539505958557, 0.5715039968490601, 0.11988174915313721, 0.743351399898529, 8.596126556396484, -2.5127110481262207, 1.9549989700317383, 6.26546049118042, 2.1029417514801025, -15.652732849121094, -0.8505859375, -0.045166015625, -0.056396484375, 
330, 3333017898, -0.3257014751434326, 0.5711283087730408, 0.1207018494606018, 0.7437495589256287, 8.628677368164062, -2.6327455043792725, 1.988297462463379, 4.98656702041626, 1.831917643547058, -14.64448070526123, -0.848388671875, -0.039794921875, -0.0595703125, 
331, 3333026231, -0.325233519077301, 0.5708259344100952, 0.1214841976761818, 0.744059145450592, 8.29311752319336, -2.845935344696045, 2.000924587249756, 4.726660251617432, 0.7364991307258606, -13.091054916381836, -0.848388671875, -0.037109375, -0.053466796875, 
332, 3333034564, -0.32487407326698303, 0.5706443786621094, 0.12227239459753036, 0.7442263960838318, 7.926126480102539, -2.93114972114563, 2.0031330585479736, 5.693545818328857, -1.502351999282837, -11.063251495361328, -0.84814453125, -0.042724609375, -0.057861328125, 
333, 3333042897, -0.3247135877609253, 0.5705652236938477, 0.12314441055059433, 0.7442132234573364, 7.813622951507568, -2.95916748046875, 1.9803191423416138, 7.648500442504883, -3.975175380706787, -8.817777633666992, -0.85009765625, -0.050048828125, -0.058349609375, 
334, 3333051230, -0.3247583508491516, 0.570580005645752, 0.12408673018217087, 0.7440257668495178, 7.823795318603516, -2.896247386932373, 2.061506509780884, 10.163946151733398, -6.3017168045043945, -6.22028923034668, -0.85205078125, -0.048095703125, -0.055419921875, 
335, 3333059563, -0.3250483572483063, 0.570626974105835, 0.12511813640594482, 0.7436902523040771, 7.846452713012695, -2.729642629623413, 2.15669584274292, 12.771734237670898, -7.733784198760986, -3.8158555030822754, -0.84716796875, -0.049072265625, -0.056640625, 
336, 3333067896, -0.32550835609436035, 0.5706706643104553, 0.126187264919281, 0.7432748675346375, 7.967125415802002, -2.442624568939209, 2.2531826496124268, 14.980400085449219, -8.240665435791016, -1.9012171030044556, -0.84765625, -0.051513671875, -0.056640625, 
337, 3333076229, -0.3261098861694336, 0.5706700682640076, 0.12724344432353973, 0.7428313493728638, 8.265488624572754, -2.167579412460327, 2.3575570583343506, 15.908839225769043, -7.673335075378418, -0.41559112071990967, -0.84814453125, -0.051513671875, -0.057861328125, 
338, 3333084562, -0.32671216130256653, 0.5706384778022766, 0.12822626531124115, 0.7424219250679016, 8.687942504882812, -1.9833122491836548, 2.5546092987060547, 15.54055404663086, -6.792383193969727, 0.07452463358640671, -0.84912109375, -0.0546875, -0.05615234375, 
339, 3333092895, -0.32725033164024353, 0.5705746412277222, 0.12919960916042328, 0.7420651912689209, 9.073088645935059, -1.9639109373092651, 2.753586769104004, 14.761473655700684, -6.099364757537842, -0.892733097076416, -0.84814453125, -0.051025390625, -0.05615234375, 
340, 3333101228, -0.3276425302028656, 0.5705081820487976, 0.13023759424686432, 0.7417616844177246, 9.463447570800781, -1.9738763570785522, 2.92145037651062, 14.423749923706055, -6.225336074829102, -3.0392062664031982, -0.84912109375, -0.054443359375, -0.05224609375, 
341, 3333109561, -0.3279075026512146, 0.5704001784324646, 0.13145363330841064, 0.7415130138397217, 9.862261772155762, -2.089756965637207, 3.02500581741333, 15.331875801086426, -6.40181827545166, -6.058074951171875, -0.8505859375, -0.053955078125, -0.051513671875, 
342, 3333117894, -0.3280676007270813, 0.5702300071716309, 0.13284119963645935, 0.7413259148597717, 10.198591232299805, -2.1256492137908936, 3.0721559524536133, 16.114011764526367, -6.211504936218262, -8.980711936950684, -0.8486328125, -0.050048828125, -0.0498046875, 
343, 3333126227, -0.3281290829181671, 0.5700060129165649, 0.13428200781345367, 0.7412112355232239, 10.345453262329102, -2.1425952911376953, 3.071546792984009, 15.99498176574707, -5.517333984375, -10.828652381896973, -0.84814453125, -0.052978515625, -0.05126953125, 
344, 3333134560, -0.3281290829181671, 0.5697664618492126, 0.13567636907100677, 0.7411415576934814, 10.267948150634766, -2.2527544498443604, 3.032114028930664, 15.339487075805664, -4.9442667961120605, -11.204668045043945, -0.8505859375, -0.053466796875, -0.04736328125, 
345, 3333142893, -0.32815542817115784, 0.5695317983627319, 0.13699401915073395, 0.7410678863525391, 9.996991157531738, -2.4511308670043945, 2.9705307483673096, 14.74897575378418, -4.628724098205566, -10.30837631225586, -0.84619140625, -0.058349609375, -0.051025390625, 
346, 3333151226, -0.328299343585968, 0.5693482160568237, 0.1381634622812271, 0.7409281134605408, 9.843465805053711, -2.511072874069214, 2.9273667335510254, 13.701455116271973, -4.735893726348877, -7.687857627868652, -0.8486328125, -0.055419921875, -0.05029296875, 
347, 3333159559, -0.32857128977775574, 0.5692344307899475, 0.13906459510326385, 0.7407262325286865, 9.77896499633789, -2.5123798847198486, 2.8523929119110107, 11.82234001159668, -4.486666202545166, -3.8548145294189453, -0.8466796875, -0.058837890625, -0.049072265625, 
348, 3333167892, -0.3289538323879242, 0.5692133903503418, 0.13955716788768768, 0.7404801249504089, 9.853670120239258, -2.3839683532714844, 2.7486374378204346, 8.494309425354004, -3.7541251182556152, 0.9662586450576782, -0.85107421875, -0.06005859375, -0.0498046875, 
349, 3333176225, -0.329454243183136, 0.5693120360374451, 0.13952387869358063, 0.7401878833770752, 10.07411003112793, -2.1108880043029785, 2.691070079803467, 3.34395170211792, -2.7005093097686768, 6.613507270812988, -0.851318359375, -0.0498046875, -0.045166015625, 
350, 3333184558, -0.32996731996536255, 0.5695356726646423, 0.13893425464630127, 0.7398982048034668, 10.260892868041992, -1.8292039632797241, 2.7018721103668213, -2.5245137214660645, -1.435344934463501, 11.432849884033203, -0.848388671875, -0.046875, -0.044921875, 
351, 3333192891, -0.3304341733455658, 0.5698627829551697, 0.13788600265979767, 0.7396340370178223, 10.186172485351562, -1.6464049816131592, 2.678046941757202, -8.353673934936523, -0.2613164782524109, 14.523029327392578, -0.849609375, -0.059326171875, -0.04833984375, 
352, 3333201224, -0.3307567536830902, 0.5703003406524658, 0.13655395805835724, 0.739399790763855, 9.855850219726562, -1.6839866638183594, 2.648526430130005, -12.648056983947754, -0.1702834814786911, 15.467199325561523, -0.84814453125, -0.053955078125, -0.04638671875, 
353, 3333209557, -0.33098453283309937, 0.570868194103241, 0.13520602881908417, 0.7391071319580078, 9.321670532226562, -1.7211942672729492, 2.62776255607605, -14.323125839233398, -2.0191197395324707, 15.022613525390625, -0.851318359375, -0.048828125, -0.045654296875, 
354, 3333217890, -0.3311600387096405, 0.5715813040733337, 0.1340533196926117, 0.73868727684021, 8.719594955444336, -1.8209644556045532, 2.620988607406616, -12.886550903320312, -5.517999172210693, 13.923710823059082, -0.846435546875, -0.04736328125, -0.0458984375, 
355, 3333226223, -0.3314371705055237, 0.5724292397499084, 0.13331809639930725, 0.7380391955375671, 8.314521789550781, -1.9314652681350708, 2.6173486709594727, -8.354596138000488, -10.350996971130371, 12.837153434753418, -0.846435546875, -0.05029296875, -0.04296875, 
356, 3333234556, -0.33186572790145874, 0.5733882784843445, 0.13312987983226776, 0.7371357083320618, 8.10142707824707, -2.0347282886505127, 2.6286869049072266, -1.3344765901565552, -15.74932861328125, 11.561566352844238, -0.848388671875, -0.048828125, -0.04150390625, 
357, 3333242889, -0.3325018286705017, 0.5744017362594604, 0.13353770971298218, 0.7359853386878967, 8.077545166015625, -2.094637632369995, 2.7476325035095215, 6.2265543937683105, -20.538501739501953, 10.064388275146484, -0.849853515625, -0.0458984375, -0.042236328125, 
358, 3333251222, -0.3333049714565277, 0.5753950476646423, 0.13442659378051758, 0.734683096408844, 8.286751747131348, -1.9945049285888672, 2.945277452468872, 13.106748580932617, -23.47597312927246, 8.738493919372559, -0.848388671875, -0.044677734375, -0.0361328125, 
359, 3333259555, -0.3342752754688263, 0.5762958526611328, 0.13564161956310272, 0.7333115935325623, 8.466904640197754, -1.9259549379348755, 3.066096067428589, 17.977380752563477, -24.230117797851562, 7.875757217407227, -0.8505859375, -0.03564453125, -0.032958984375, 
360, 3333267888, -0.335409015417099, 0.5770915746688843, 0.13700446486473083, 0.7319135069847107, 8.470948219299316, -1.837592363357544, 3.158555507659912, 21.594318389892578, -23.801769256591797, 8.397031784057617, -0.85107421875, -0.033447265625, -0.029541015625, 
361, 3333276221, -0.3365524113178253, 0.5777379274368286, 0.13818977773189545, 0.730654776096344, 8.642251014709473, -1.3577760457992554, 3.218658447265625, 19.98975944519043, -20.308183670043945, 8.855551719665527, -0.84765625, -0.0400390625, -0.02880859375, 
362, 3333284554, -0.3375545144081116, 0.5782212018966675, 0.13892734050750732, 0.7296697497367859, 8.69393539428711, -1.1263046264648438, 3.2418034076690674, 14.924717903137207, -14.738540649414062, 9.539706230163574, -0.85205078125, -0.03955078125, -0.028076171875, 
363, 3333292887, -0.33825910091400146, 0.5786094069480896, 0.1390092968940735, 0.7290197610855103, 8.486897468566895, -1.0046144723892212, 3.2271080017089844, 5.488529682159424, -8.603951454162598, 9.919023513793945, -0.8505859375, -0.038330078125, -0.024658203125, 
364, 3333301220, -0.33851975202560425, 0.5789154171943665, 0.1384122669696808, 0.7287693619728088, 8.220263481140137, -0.9962072968482971, 3.156226634979248, -4.94016695022583, -2.331613063812256, 8.966532707214355, -0.84765625, -0.035400390625, -0.02734375, 
365, 3333309553, -0.33827611804008484, 0.5792279243469238, 0.13717107474803925, 0.7288689017295837, 7.896138668060303, -1.1062872409820557, 3.017108917236328, -16.104698181152344, 2.4265520572662354, 7.424863815307617, -0.848388671875, -0.033203125, -0.022216796875, 
366, 3333317886, -0.3375791013240814, 0.5796178579330444, 0.1353771686553955, 0.7292174100875854, 7.538998126983643, -1.2682467699050903, 2.8109989166259766, -26.367229461669922, 5.3887128829956055, 6.165234565734863, -0.84814453125, -0.034423828125, -0.025634765625, 
367, 3333326219, -0.33649909496307373, 0.580148458480835, 0.1331159621477127, 0.7297106385231018, 7.241163730621338, -1.4299548864364624, 2.642669677734375, -35.04064178466797, 6.591535568237305, 5.6360979080200195, -0.847900390625, -0.021728515625, -0.023681640625, 
368, 3333334552, -0.3351171314716339, 0.5808845162391663, 0.13038964569568634, 0.7302531599998474, 7.132641792297363, -1.5481202602386475, 2.4797801971435547, -42.864933013916016, 6.478478908538818, 6.574199199676514, -0.846923828125, -0.024169921875, -0.019287109375, 
369, 3333342885, -0.3335298001766205, 0.5818644165992737, 0.12718629837036133, 0.7307644486427307, 7.399649143218994, -1.480656385421753, 2.366495370864868, -50.58298110961914, 5.639204502105713, 8.817349433898926, -0.84619140625, -0.033447265625, -0.0302734375, 
370, 3333351218, -0.3317135274410248, 0.5830485820770264, 0.12343473732471466, 0.7312905192375183, 8.096595764160156, -1.2061549425125122, 2.328157663345337, -58.66748046875, 5.791614055633545, 11.278610229492188, -0.850341796875, -0.029052734375, -0.025634765625, 
371, 3333359551, -0.3296474814414978, 0.5843860507011414, 0.1191464364528656, 0.7318680882453918, 8.799220085144043, -1.1000089645385742, 2.3043205738067627, -67.15074920654297, 6.733920097351074, 12.986405372619629, -0.849853515625, -0.02490234375, -0.02978515625, 
372, 3333367884, -0.3272031843662262, 0.5858054161071777, 0.11443489789962769, 0.7325817942619324, 9.082524299621582, -1.2043174505233765, 2.297612428665161, -74.74945831298828, 8.255931854248047, 12.207127571105957, -0.846435546875, -0.02587890625, -0.030517578125, 
373, 3333376217, -0.32435739040374756, 0.5872655510902405, 0.10955796390771866, 0.7334232330322266, 8.95666790008545, -1.3820844888687134, 2.2594761848449707, -80.36520385742188, 9.045681953430176, 8.866713523864746, -0.845458984375, -0.02587890625, -0.030517578125, 
374, 3333384550, -0.3211388885974884, 0.5887863636016846, 0.10471458733081818, 0.7343271970748901, 8.565059661865234, -1.5555285215377808, 2.1777186393737793, -83.07003784179688, 8.169364929199219, 4.764955997467041, -0.847900390625, -0.02197265625, -0.03173828125, 
375, 3333392883, -0.317743182182312, 0.5903663635253906, 0.10020750761032104, 0.7351642847061157, 8.071237564086914, -1.9189610481262207, 2.018986225128174, -81.62789154052734, 5.359130859375, 0.5130433440208435, -0.848388671875, -0.02392578125, -0.0302734375, 
376, 3333401216, -0.31431302428245544, 0.5920156836509705, 0.09613747894763947, 0.7358558177947998, 7.59115743637085, -2.183846950531006, 1.8761104345321655, -77.23776245117188, 1.4480441808700562, -2.5315701961517334, -0.84912109375, -0.013427734375, -0.02978515625, 
377, 3333409549, -0.31103062629699707, 0.5937049984931946, 0.0925711840391159, 0.7363467216491699, 7.0650954246521, -2.3785181045532227, 1.7366548776626587, -70.84425354003906, -2.570732593536377, -4.216249465942383, -0.850830078125, -0.02392578125, -0.029296875, 
378, 3333417882, -0.3080440163612366, 0.5954318642616272, 0.08951735496520996, 0.7365850806236267, 6.611608028411865, -2.5598390102386475, 1.605736255645752, -63.31675720214844, -6.784672737121582, -4.360890865325928, -0.847900390625, -0.015869140625, -0.029296875, 
379, 3333426215, -0.30543291568756104, 0.5972012281417847, 0.08692370355129242, 0.7365507483482361, 6.37648868560791, -2.565220355987549, 1.569460153579712, -55.450950622558594, -10.926396369934082, -3.1275064945220947, -0.849365234375, -0.026123046875, -0.03125, 
380, 3333434548, -0.30313923954963684, 0.5990107655525208, 0.08465342968702316, 0.7362932562828064, 6.556196212768555, -2.40761137008667, 1.6427533626556396, -49.20751953125, -14.195109367370605, -1.4897273778915405, -0.848388671875, -0.0234375, -0.029296875, 
381, 3333442881, -0.301116019487381, 0.6008527278900146, 0.08260348439216614, 0.7358554005622864, 7.287219524383545, -2.039569139480591, 1.8542649745941162, -44.98532485961914, -16.54593276977539, 0.11645536869764328, -0.847900390625, -0.02587890625, -0.029052734375, 
382, 3333451214, -0.2991933822631836, 0.6025949120521545, 0.0807635486125946, 0.7354190945625305, 8.145284652709961, -1.9082210063934326, 2.107459306716919, -41.30679702758789, -16.348060607910156, -0.6141536235809326, -0.845947265625, -0.0244140625, -0.024658203125, 
383, 3333459547, -0.29731398820877075, 0.6041305661201477, 0.07922210544347763, 0.7350890040397644, 9.008862495422363, -1.829482078552246, 2.3013596534729004, -37.51148986816406, -14.490506172180176, -3.422246217727661, -0.848388671875, -0.024658203125, -0.018798828125, 
384, 3333467880, -0.29545339941978455, 0.6053850054740906, 0.0780506357550621, 0.7349324822425842, 9.777191162109375, -1.8083829879760742, 2.4897797107696533, -32.34064483642578, -11.765066146850586, -7.215460777282715, -0.845947265625, -0.023193359375, -0.021240234375, 
385, 3333476213, -0.29367345571517944, 0.6062642335891724, 0.07733411341905594, 0.7349967956542969, 10.289677619934082, -1.955696702003479, 2.5945725440979004, -26.047697067260742, -7.841342449188232, -11.57641315460205, -0.84619140625, -0.013671875, -0.015380859375, 
386, 3333484546, -0.291968435049057, 0.6067323088645935, 0.07696809619665146, 0.735328197479248, 10.645790100097656, -1.9132012128829956, 2.5726733207702637, -20.24045753479004, -2.851301670074463, -15.169014930725098, -0.847412109375, -0.023681640625, -0.015380859375, 
387, 3333492879, -0.2903599739074707, 0.6068333387374878, 0.07680144906044006, 0.7358989715576172, 10.751855850219727, -1.9130504131317139, 2.403059959411621, -16.51478385925293, 2.230219602584839, -17.306293487548828, -0.846435546875, -0.0302734375, -0.01904296875, 
388, 3333501212, -0.2888580858707428, 0.6066563725471497, 0.07665665447711945, 0.736650824546814, 10.35028076171875, -2.0246286392211914, 2.069063186645508, -14.169418334960938, 6.50823450088501, -17.324989318847656, -0.844970703125, -0.033203125, -0.0185546875, 
389, 3333509545, -0.28743499517440796, 0.6063595414161682, 0.07635119557380676, 0.7374829053878784, 9.807059288024902, -1.8762542009353638, 1.8068103790283203, -15.065300941467285, 9.183667182922363, -15.730963706970215, -0.851806640625, -0.035888671875, -0.022705078125, 
390, 3333517878, -0.28591904044151306, 0.6061374545097351, 0.0756063163280487, 0.738331139087677, 9.499567031860352, -1.5588456392288208, 1.587975263595581, -20.290502548217773, 10.131752967834473, -12.896439552307129, -0.85009765625, -0.037841796875, -0.021484375, 
391, 3333526211, -0.28417518734931946, 0.6062196493148804, 0.07429106533527374, 0.7390698790550232, 9.27165412902832, -1.2503560781478882, 1.422297477722168, -29.41548728942871, 8.215604782104492, -9.815510749816895, -0.8486328125, -0.038818359375, -0.02294921875, 
392, 3333534544, -0.2819662392139435, 0.6068293452262878, 0.07229694724082947, 0.7396131753921509, 8.919957160949707, -1.153639316558838, 1.3615864515304565, -41.70262145996094, 3.3197247982025146, -7.473937034606934, -0.845703125, -0.038818359375, -0.02392578125, 
393, 3333542877, -0.2791649401187897, 0.6080853939056396, 0.06976035982370377, 0.7398877739906311, 8.738988876342773, -1.1478455066680908, 1.4666500091552734, -54.71944808959961, -3.905207633972168, -7.379735946655273, -0.848388671875, -0.03466796875, -0.0205078125, 
394, 3333551210, -0.2757137715816498, 0.6100154519081116, 0.06690303981304169, 0.7398570775985718, 8.682193756103516, -1.3806986808776855, 1.6501471996307373, -65.39476013183594, -12.781888008117676, -9.3986177444458, -0.85107421875, -0.037353515625, -0.023681640625, 
395, 3333559543, -0.27174708247184753, 0.6124711632728577, 0.06398851424455643, 0.7395535707473755, 8.871914863586426, -1.5800292491912842, 1.7699689865112305, -72.39132690429688, -20.591875076293945, -12.7421236038208, -0.845703125, -0.04345703125, -0.024658203125, 
396, 3333567876, -0.26741889119148254, 0.6152470707893372, 0.061133973300457, 0.7390685677528381, 9.640625, -1.635399341583252, 1.859952449798584, -75.51375579833984, -26.00461769104004, -15.867570877075195, -0.849853515625, -0.037109375, -0.017578125, 
397, 3333576209, -0.2629891633987427, 0.6180796027183533, 0.05844591557979584, 0.7385118007659912, 10.427854537963867, -1.7686973810195923, 1.974151372909546, -75.12649536132812, -27.80959129333496, -18.07448387145996, -0.849609375, -0.046630859375, -0.011962890625, 
398, 3333584542, -0.2585753798484802, 0.6206986904144287, 0.05590400472283363, 0.7380704283714294, 10.885120391845703, -2.0628366470336914, 1.9826748371124268, -72.53103637695312, -25.251955032348633, -19.664897918701172, -0.84765625, -0.045654296875, -0.010986328125, 
399, 3333592875, -0.25436609983444214, 0.6229066848754883, 0.05349145084619522, 0.7378517985343933, 11.119050979614258, -2.2969679832458496, 1.8621814250946045, -68.18196105957031, -19.481359481811523, -19.801074981689453, -0.84619140625, -0.052001953125, -0.009765625, 
400, 3333601208, -0.25043267011642456, 0.6246565580368042, 0.05112389847636223, 0.7378857731819153, 11.39725112915039, -2.1903462409973145, 1.7379961013793945, -64.23748779296875, -12.549849510192871, -18.678668975830078, -0.84765625, -0.056884765625, -0.0068359375, 
401, 3333609541, -0.24680683016777039, 0.6260600686073303, 0.04869455844163895, 0.7380824089050293, 11.435012817382812, -2.1980648040771484, 1.58243989944458, -61.20527648925781, -7.189454555511475, -15.840694427490234, -0.84912109375, -0.05908203125, -0.0078125, 
402, 3333617874, -0.24344982206821442, 0.6273175477981567, 0.04610777646303177, 0.7382955551147461, 11.071861267089844, -2.246056318283081, 1.3805677890777588, -59.651527404785156, -4.944767475128174, -11.831330299377441, -0.84765625, -0.058349609375, -0.00830078125, 
403, 3333626207, -0.24025005102157593, 0.628623902797699, 0.0433434434235096, 0.7384001016616821, 10.920771598815918, -2.055762767791748, 1.245811939239502, -60.518489837646484, -5.5953192710876465, -8.377853393554688, -0.8486328125, -0.0517578125, -0.0029296875, 
404, 3333634540, -0.23703721165657043, 0.6301156282424927, 0.0403750017285347, 0.7383352518081665, 10.80136775970459, -1.9994416236877441, 1.169729471206665, -62.88921356201172, -8.362000465393066, -6.006507873535156, -0.846923828125, -0.061279296875, -0.005615234375, 
405, 3333642873, -0.23372343182563782, 0.6318666934967041, 0.03726354241371155, 0.7380587458610535, 10.424345016479492, -2.0108306407928467, 1.097214698791504, -66.2837142944336, -12.325081825256348, -5.026608943939209, -0.847412109375, -0.06640625, -0.007080078125, 
406, 3333651206, -0.23024895787239075, 0.6339002251625061, 0.03408972918987274, 0.7375602722167969, 9.911733627319336, -2.0524845123291016, 1.0213056802749634, -68.76802062988281, -17.097858428955078, -5.189671993255615, -0.845458984375, -0.06494140625, -0.003662109375, 
407, 3333659539, -0.22671130299568176, 0.6361924409866333, 0.03100067377090454, 0.7368185520172119, 9.50348949432373, -2.2205677032470703, 0.9715297818183899, -69.49534606933594, -22.04302215576172, -5.739177703857422, -0.845458984375, -0.066162109375, 0.001708984375, 
408, 3333667872, -0.22327589988708496, 0.638691782951355, 0.028139960020780563, 0.7358195185661316, 9.106230735778809, -2.4883840084075928, 0.9658508896827698, -66.49017333984375, -27.1593074798584, -5.7475786209106445, -0.85009765625, -0.068603515625, 0.003173828125, 
409, 3333676205, -0.220188170671463, 0.6413976550102234, 0.025776023045182228, 0.7344815731048584, 8.658032417297363, -2.944167137145996, 1.1127368211746216, -59.267791748046875, -33.50924301147461, -5.535770893096924, -0.8466796875, -0.067138671875, 0.006103515625, 
410, 3333684538, -0.21760521829128265, 0.6442713737487793, 0.02401074580848217, 0.7327941656112671, 8.369525909423828, -3.145738124847412, 1.4049322605133057, -48.79853820800781, -40.02602005004883, -4.537423610687256, -0.84716796875, -0.069091796875, 0.0126953125, 
411, 3333692871, -0.21570461988449097, 0.6472424864768982, 0.022953756153583527, 0.7307689785957336, 8.260932922363281, -3.2374155521392822, 1.684880256652832, -36.18864822387695, -45.77623748779297, -2.959811210632324, -0.8466796875, -0.0693359375, 0.01513671875, 
412, 3333701204, -0.21446692943572998, 0.6502254605293274, 0.022537462413311005, 0.7284945249557495, 8.358675003051758, -3.0961756706237793, 1.818518877029419, -23.4139347076416, -49.924896240234375, -1.1913725137710571, -0.84765625, -0.069580078125, 0.0244140625, 
413, 3333709537, -0.21379454433918, 0.6530618667602539, 0.02261013723909855, 0.7261490821838379, 8.766927719116211, -2.7510080337524414, 1.8672682046890259, -13.34371566772461, -50.256507873535156, 0.21104900538921356, -0.84423828125, -0.070068359375, 0.027587890625, 
414, 3333717870, -0.21346108615398407, 0.6556022763252258, 0.022897077724337578, 0.7239455580711365, 9.410660743713379, -2.2594287395477295, 1.9642887115478516, -6.997002601623535, -46.65116500854492, 1.2141298055648804, -0.847900390625, -0.063232421875, 0.04052734375, 
415, 3333726203, -0.2132541537284851, 0.6578263640403748, 0.023271290585398674, 0.7219743728637695, 9.791833877563477, -1.9347151517868042, 2.092715263366699, -4.389671325683594, -41.54509353637695, 0.8695916533470154, -0.8427734375, -0.05517578125, 0.048095703125, 
416, 3333734536, -0.21293671429157257, 0.659749448299408, 0.023715179413557053, 0.7202968597412109, 9.976552963256836, -1.8949474096298218, 2.2387378215789795, -3.6520557403564453, -36.21915817260742, -1.779345989227295, -0.846435546875, -0.072998046875, 0.048828125, 
417, 3333742869, -0.21247735619544983, 0.6613706946372986, 0.024413829669356346, 0.7189210653305054, 10.081313133239746, -2.058556318283081, 2.294739007949829, -1.9821081161499023, -31.182287216186523, -6.523260116577148, -0.846435546875, -0.071044921875, 0.04833984375, 
418, 3333751202, -0.21186403930187225, 0.6627089381217957, 0.025511668995022774, 0.7178308963775635, 10.12476634979248, -2.3745250701904297, 2.257246494293213, 1.647444725036621, -27.106670379638672, -12.560564994812012, -0.845947265625, -0.072509765625, 0.0556640625, 
419, 3333759535, -0.21123385429382324, 0.6638261079788208, 0.027218880131840706, 0.7169209718704224, 10.063231468200684, -2.6104228496551514, 2.2412071228027344, 7.7317795753479, -24.965808868408203, -18.924583435058594, -0.847412109375, -0.075927734375, 0.056640625, 
420, 3333767868, -0.21072852611541748, 0.6647363305091858, 0.02957618609070778, 0.7161324620246887, 9.79241943359375, -2.9038357734680176, 2.142991065979004, 16.195375442504883, -23.756465911865234, -24.017345428466797, -0.843994140625, -0.07470703125, 0.062744140625, 
421, 3333776201, -0.2105504274368286, 0.665471076965332, 0.03258126601576805, 0.7153716087341309, 9.498411178588867, -3.269724130630493, 2.0528974533081055, 25.771743774414062, -23.442031860351562, -26.898963928222656, -0.8427734375, -0.06591796875, 0.072509765625, 
422, 3333784534, -0.21079036593437195, 0.6660862565040588, 0.03611049801111221, 0.7145587801933289, 9.180669784545898, -3.3733201026916504, 2.014522075653076, 35.413665771484375, -24.148563385009766, -27.454063415527344, -0.842041015625, -0.08349609375, 0.07080078125, 
423, 3333792867, -0.21146883070468903, 0.6666391491889954, 0.04007720947265625, 0.7136305570602417, 8.703042030334473, -3.4933218955993652, 2.045461416244507, 43.967533111572266, -25.644174575805664, -26.84835433959961, -0.839111328125, -0.0869140625, 0.072509765625, 
424, 3333801200, -0.21253865957260132, 0.6671980619430542, 0.04439322650432587, 0.7125340700149536, 8.313796043395996, -3.5544328689575195, 2.106374740600586, 50.74297332763672, -27.971101760864258, -25.755128860473633, -0.839599609375, -0.08984375, 0.074951171875, 
425, 3333809533, -0.2139236330986023, 0.6678124666213989, 0.048977166414260864, 0.7112423777580261, 8.173774719238281, -3.6511850357055664, 2.167938709259033, 56.17542266845703, -30.88990020751953, -24.52693748474121, -0.841552734375, -0.08935546875, 0.081787109375, 
426, 3333817866, -0.21550770103931427, 0.6684763431549072, 0.05368294566869736, 0.7097995281219482, 8.323410987854004, -3.540640354156494, 2.204981565475464, 59.508113861083984, -33.06989288330078, -23.176528930664062, -0.837158203125, -0.09375, 0.08544921875, 
427, 3333826199, -0.2172442078590393, 0.6691678166389465, 0.05844345688819885, 0.7082409262657166, 8.654717445373535, -3.4987518787384033, 2.3572161197662354, 61.1380500793457, -34.388526916503906, -21.871023178100586, -0.839111328125, -0.093505859375, 0.08837890625, 
428, 3333834532, -0.219072163105011, 0.6698303818702698, 0.06314454227685928, 0.7066461443901062, 8.946183204650879, -3.5557899475097656, 2.477025270462036, 61.82640838623047, -34.25049591064453, -20.306678771972656, -0.837646484375, -0.096435546875, 0.093017578125, 
429, 3333842865, -0.22098574042320251, 0.670390784740448, 0.06780333817005157, 0.7050855159759521, 9.217619895935059, -3.6163434982299805, 2.5214931964874268, 62.16815185546875, -32.68309783935547, -19.320804595947266, -0.838134765625, -0.09765625, 0.100830078125, 
430, 3333851198, -0.22302044928073883, 0.6707978844642639, 0.07235675305128098, 0.7036036252975464, 9.661524772644043, -3.6700186729431152, 2.563001871109009, 62.967044830322266, -30.097164154052734, -17.513219833374023, -0.836669921875, -0.10009765625, 0.103515625, 
431, 3333859531, -0.22527334094047546, 0.6710441708564758, 0.07675688713788986, 0.7021834850311279, 10.299704551696777, -3.6101248264312744, 2.6576249599456787, 63.93107604980469, -27.283199310302734, -14.33745002746582, -0.8349609375, -0.097412109375, 0.11083984375, 
432, 3333867864, -0.22782690823078156, 0.6710565686225891, 0.08103077113628387, 0.7008661031723022, 10.865135192871094, -3.525054454803467, 2.7457125186920166, 65.74969482421875, -23.31189727783203, -10.883995056152344, -0.832763671875, -0.08740234375, 0.1162109375, 
433, 3333876197, -0.23062670230865479, 0.6707736253738403, 0.08504853397607803, 0.6997442245483398, 11.318370819091797, -3.2515172958374023, 2.7307682037353516, 66.60991668701172, -17.660783767700195, -7.056725978851318, -0.833984375, -0.095458984375, 0.1142578125, 
434, 3333884530, -0.23363059759140015, 0.6700985431671143, 0.08867615461349487, 0.6989439129829407, 11.683662414550781, -2.8854503631591797, 2.6128671169281006, 65.60916900634766, -9.426126480102539, -2.955125570297241, -0.83544921875, -0.098388671875, 0.1181640625, 
435, 3333892863, -0.23669308423995972, 0.6690831184387207, 0.09180854260921478, 0.698481559753418, 11.69652271270752, -2.5424039363861084, 2.44451904296875, 61.734214782714844, -1.3366833925247192, 0.6171130537986755, -0.83349609375, -0.095703125, 0.118408203125, 
436, 3333901196, -0.23961463570594788, 0.6678205728530884, 0.09436748176813126, 0.6983528137207031, 11.57070541381836, -2.0486855506896973, 2.2477152347564697, 55.649169921875, 5.754574298858643, 3.1961660385131836, -0.83251953125, -0.096435546875, 0.116943359375, 
437, 3333909529, -0.24226418137550354, 0.6663814783096313, 0.09636947512626648, 0.6985399723052979, 11.309432029724121, -1.682503342628479, 2.1042916774749756, 47.617340087890625, 11.874900817871094, 4.370912075042725, -0.832763671875, -0.08935546875, 0.1201171875, 
438, 3333917862, -0.24451598525047302, 0.6648695468902588, 0.09782068431377411, 0.6989942789077759, 10.95535659790039, -1.3964130878448486, 1.9012173414230347, 38.927127838134766, 16.287796020507812, 4.667471408843994, -0.83349609375, -0.09326171875, 0.11669921875, 
439, 3333926195, -0.2463882863521576, 0.6634408235549927, 0.09887910634279251, 0.69954514503479, 10.64474105834961, -1.0962766408920288, 1.7140172719955444, 30.94765281677246, 17.213003158569336, 4.346292018890381, -0.836669921875, -0.078369140625, 0.119873046875, 
440, 3333934528, -0.24782516062259674, 0.6621971130371094, 0.09967851638793945, 0.7001022100448608, 10.514724731445312, -0.920139491558075, 1.6000970602035522, 24.172466278076172, 15.74576187133789, 2.8022377490997314, -0.8369140625, -0.090087890625, 0.110107421875, 
441, 3333942861, -0.24887646734714508, 0.6611846089363098, 0.10043662786483765, 0.7005776166915894, 10.412745475769043, -0.9394541382789612, 1.5512745380401611, 19.238821029663086, 12.421409606933594, 0.00787638034671545, -0.8349609375, -0.089599609375, 0.110595703125, 
442, 3333951194, -0.2495882660150528, 0.6605318188667297, 0.10128405690193176, 0.7008182406425476, 10.256317138671875, -0.9295229315757751, 1.603366732597351, 16.45500946044922, 6.010880947113037, -2.719540596008301, -0.837890625, -0.088623046875, 0.106689453125, 
443, 3333959527, -0.2500409483909607, 0.6601613163948059, 0.10243980586528778, 0.7008379697799683, 10.305981636047363, -0.8608419895172119, 1.6029369831085205, 16.075252532958984, -0.10222641378641129, -6.917662620544434, -0.83203125, -0.087646484375, 0.10595703125, 
444, 3333967860, -0.2503121495246887, 0.6599920988082886, 0.10398712754249573, 0.7006725668907166, 10.529753684997559, -1.040086030960083, 1.6500470638275146, 18.105823516845703, -5.357219219207764, -11.249903678894043, -0.8388671875, -0.089599609375, 0.108642578125, 
445, 3333976193, -0.25046876072883606, 0.6598847508430481, 0.10592647641897202, 0.7004272937774658, 10.633585929870605, -1.0974962711334229, 1.64583158493042, 20.74384307861328, -8.191411972045898, -15.548978805541992, -0.837646484375, -0.086669921875, 0.110595703125, 
446, 3333984526, -0.25056272745132446, 0.6597326397895813, 0.10819419473409653, 0.7001903057098389, 10.594244956970215, -1.0534396171569824, 1.665575385093689, 23.13993263244629, -8.87982177734375, -19.27385902404785, -0.8349609375, -0.090087890625, 0.109619140625, 
447, 3333992859, -0.2505785822868347, 0.6594727039337158, 0.11061325669288635, 0.7000516057014465, 10.523773193359375, -0.9035496711730957, 1.598220944404602, 24.128211975097656, -7.590146064758301, -21.893611907958984, -0.83251953125, -0.091064453125, 0.111328125, 
