sep=,
PacketCounter,SampleTimeFine,Quat_W,Quat_X,Quat_Y,Quat_Z,Acc_X,Acc_Y,Acc_Z,Gyr_X,Gyr_Y,Gyr_Z,Mag_X,Mag_Y,Mag_Z,
0, 3433405549, -0.3176615834236145, 0.6561478972434998, -0.03642798215150833, 0.6835470199584961, 0, 0, 0, 0, 0, 0, -0.829345703125, 0.129638671875, 0.0546875, 
1, 3433413882, -0.31946203112602234, 0.6554322838783264, -0.04387793689966202, 0.6829565763473511, 9.368226051330566, -6.484803199768066, 1.953737735748291, -51.133567810058594, 32.470455169677734, 86.75950622558594, -0.828125, 0.1416015625, 0.050048828125, 
2, 3433422215, -0.3211139440536499, 0.6548779606819153, -0.0515136644244194, 0.6821801066398621, 9.169068336486816, -6.615307331085205, 1.7849806547164917, -55.032772064208984, 30.18218994140625, 87.74784088134766, -0.82470703125, 0.15087890625, 0.046630859375, 
3, 3433430548, -0.3226442337036133, 0.654522180557251, -0.05921545997262001, 0.6811736226081848, 9.01504898071289, -6.530029773712158, 1.6079308986663818, -57.72046661376953, 26.649059295654297, 88.25848388671875, -0.824462890625, 0.159912109375, 0.0478515625, 
4, 3433438881, -0.32419732213020325, 0.654354989528656, -0.06688492745161057, 0.6798856854438782, 8.825448036193848, -6.418694972991943, 1.3825331926345825, -58.33525848388672, 22.16242218017578, 89.08673858642578, -0.818603515625, 0.174072265625, 0.044921875, 
5, 3433447214, -0.32578662037849426, 0.6543388366699219, -0.07441763579845428, 0.6783570647239685, 8.67034912109375, -6.377450942993164, 1.358293890953064, -57.56807327270508, 17.967891693115234, 89.31867980957031, -0.81787109375, 0.18359375, 0.044677734375, 
6, 3433455547, -0.32745254039764404, 0.6543951034545898, -0.08188052475452423, 0.6766387820243835, 8.483367919921875, -6.349716663360596, 1.3142821788787842, -56.78779602050781, 15.163945198059082, 89.98622131347656, -0.812255859375, 0.196044921875, 0.048095703125, 
7, 3433463880, -0.329137921333313, 0.6544833779335022, -0.08913816511631012, 0.6748160123825073, 8.364900588989258, -6.231282711029053, 1.227569341659546, -54.9218635559082, 13.009018898010254, 88.94944763183594, -0.811279296875, 0.205078125, 0.047607421875, 
8, 3433472213, -0.3309690058231354, 0.6544970870018005, -0.09607170522212982, 0.6729530096054077, 8.297439575195312, -6.241692543029785, 1.189673662185669, -50.337730407714844, 11.656516075134277, 87.46153259277344, -0.80908203125, 0.214111328125, 0.045166015625, 
9, 3433480546, -0.3329755961894989, 0.6544328331947327, -0.10257138311862946, 0.6710637807846069, 8.130976676940918, -6.402165412902832, 1.1451921463012695, -44.40061569213867, 9.973048210144043, 85.5986328125, -0.80517578125, 0.226806640625, 0.050048828125, 
10, 3433488879, -0.33522239327430725, 0.65424644947052, -0.10853487253189087, 0.6691863536834717, 8.110086441040039, -6.530241012573242, 1.1139752864837646, -36.714508056640625, 8.413454055786133, 83.10757446289062, -0.801513671875, 0.236328125, 0.0498046875, 
11, 3433497212, -0.33780553936958313, 0.6538844108581543, -0.11394138634204865, 0.6673399209976196, 8.075675964355469, -6.456851959228516, 1.0774582624435425, -27.71539878845215, 7.195379734039307, 81.11371612548828, -0.799072265625, 0.246826171875, 0.04638671875, 
12, 3433505545, -0.34072282910346985, 0.6533635258674622, -0.11885466426610947, 0.665507435798645, 7.926985263824463, -6.278375625610352, 1.0636110305786133, -19.42070198059082, 5.963913440704346, 79.92654418945312, -0.79296875, 0.2578125, 0.05224609375, 
13, 3433513878, -0.34391462802886963, 0.6527001261711121, -0.12332426011562347, 0.6637011170387268, 7.837743759155273, -6.141173362731934, 1.1077046394348145, -12.17861270904541, 5.015717506408691, 78.7630615234375, -0.78857421875, 0.269775390625, 0.04736328125, 
14, 3433522211, -0.3473430573940277, 0.651832103729248, -0.12738844752311707, 0.6619988083839417, 7.873989582061768, -5.966463565826416, 1.1673485040664673, -5.213190078735352, 5.460074424743652, 76.93814849853516, -0.786376953125, 0.27587890625, 0.05126953125, 
15, 3433530544, -0.3509151041507721, 0.6507097482681274, -0.13100764155387878, 0.6605111956596375, 7.9067301750183105, -5.724449157714844, 1.193267822265625, 1.7180190086364746, 7.363269329071045, 73.87751007080078, -0.781494140625, 0.287353515625, 0.0478515625, 
16, 3433538877, -0.35456565022468567, 0.6493218541145325, -0.13419786095619202, 0.6592857241630554, 7.832594394683838, -5.455337047576904, 1.1765329837799072, 7.781651020050049, 10.107562065124512, 69.72477722167969, -0.77783203125, 0.294921875, 0.0478515625, 
17, 3433547210, -0.358181893825531, 0.6477265357971191, -0.1370450109243393, 0.6583139300346375, 7.73047399520874, -5.077559947967529, 1.1434112787246704, 12.353886604309082, 12.443177223205566, 65.73805236816406, -0.7734375, 0.303466796875, 0.0478515625, 
18, 3433555543, -0.3617364466190338, 0.6460390090942383, -0.13960489630699158, 0.6574903130531311, 7.538425445556641, -4.736044406890869, 1.0824161767959595, 14.930683135986328, 13.435395240783691, 61.84491729736328, -0.771484375, 0.310302734375, 0.041015625, 
19, 3433563876, -0.3651770353317261, 0.6443524956703186, -0.14193694293498993, 0.6567436456680298, 7.334592342376709, -4.414648056030273, 1.0257909297943115, 16.32996368408203, 13.061370849609375, 58.624874114990234, -0.772216796875, 0.319091796875, 0.045654296875, 
20, 3433572209, -0.36849838495254517, 0.6427587866783142, -0.14404937624931335, 0.6559897065162659, 7.151717185974121, -4.300327777862549, 0.9341064691543579, 16.580516815185547, 11.417157173156738, 55.25179672241211, -0.765380859375, 0.323486328125, 0.041015625, 
21, 3433580542, -0.3715886175632477, 0.64134281873703, -0.14595524966716766, 0.6552107334136963, 7.038949012756348, -4.160939693450928, 0.9335605502128601, 15.646406173706055, 8.877365112304688, 51.32093048095703, -0.761962890625, 0.33447265625, 0.03955078125, 
22, 3433588875, -0.3744741678237915, 0.640125572681427, -0.14760354161262512, 0.6543883085250854, 6.920707702636719, -4.062973976135254, 0.935469388961792, 14.874154090881348, 5.921037673950195, 46.83879089355469, -0.759033203125, 0.33935546875, 0.03466796875, 
23, 3433597208, -0.37710604071617126, 0.639123260974884, -0.14898015558719635, 0.6535442471504211, 6.867249965667725, -3.958280324935913, 0.9072926640510559, 14.120266914367676, 2.785949945449829, 42.028690338134766, -0.757568359375, 0.342041015625, 0.03515625, 
24, 3433605541, -0.37954115867614746, 0.6383253335952759, -0.15005984902381897, 0.6526666879653931, 6.840695381164551, -3.883981943130493, 0.913864254951477, 13.753725051879883, -0.3564482033252716, 37.23453140258789, -0.75341796875, 0.35009765625, 0.03564453125, 
25, 3433613874, -0.38172852993011475, 0.6377127170562744, -0.15086729824543, 0.6518031358718872, 6.841014385223389, -3.8147499561309814, 0.9501885175704956, 13.261693954467773, -2.929426431655884, 32.336021423339844, -0.75537109375, 0.353759765625, 0.031982421875, 
26, 3433622207, -0.3837115466594696, 0.6372515559196472, -0.1514257937669754, 0.6509597897529602, 6.8666863441467285, -3.7103731632232666, 0.9370847940444946, 12.777019500732422, -4.871371269226074, 27.746990203857422, -0.7529296875, 0.3564453125, 0.03466796875, 
27, 3433630540, -0.3854752480983734, 0.6368889212608337, -0.1517666131258011, 0.6501927971839905, 6.859041690826416, -3.6144349575042725, 0.9477517604827881, 12.613751411437988, -5.900191783905029, 23.423017501831055, -0.74755859375, 0.36083984375, 0.03173828125, 
28, 3433638873, -0.38707560300827026, 0.636603593826294, -0.15191617608070374, 0.6494861245155334, 6.869569778442383, -3.5577704906463623, 0.9565120339393616, 12.45552921295166, -6.626943111419678, 19.67365074157715, -0.74658203125, 0.360107421875, 0.03369140625, 
29, 3433647206, -0.38850435614585876, 0.6363546848297119, -0.15188387036323547, 0.6488844752311707, 6.855944633483887, -3.5153701305389404, 0.9359616041183472, 12.755956649780273, -6.748968124389648, 16.0484619140625, -0.74609375, 0.364013671875, 0.03369140625, 
30, 3433655539, -0.3897954225540161, 0.6361358165740967, -0.15166082978248596, 0.6483767032623291, 6.824681758880615, -3.465864419937134, 0.9725841879844666, 13.12198257446289, -6.804884910583496, 12.467284202575684, -0.7451171875, 0.368408203125, 0.033203125, 
31, 3433663872, -0.3909445106983185, 0.6359522938728333, -0.15123015642166138, 0.6479654312133789, 6.770059585571289, -3.409938097000122, 1.013731837272644, 13.910775184631348, -7.212791919708252, 8.911463737487793, -0.74560546875, 0.367431640625, 0.0341796875, 
32, 3433672205, -0.3919679522514343, 0.6358169913291931, -0.15055350959300995, 0.6476376056671143, 6.695337772369385, -3.3320014476776123, 1.077385663986206, 14.917284965515137, -7.977273464202881, 5.09163761138916, -0.7451171875, 0.368408203125, 0.03369140625, 
33, 3433680538, -0.39284950494766235, 0.6357207894325256, -0.14961113035678864, 0.6474159359931946, 6.720746994018555, -3.269434928894043, 1.163511872291565, 15.904305458068848, -8.432465553283691, 0.7605509161949158, -0.7421875, 0.37109375, 0.0341796875, 
34, 3433688871, -0.39353999495506287, 0.6356845498085022, -0.14842167496681213, 0.6473059058189392, 6.720586776733398, -3.1859023571014404, 1.232073426246643, 16.35188865661621, -8.941009521484375, -3.8046882152557373, -0.744140625, 0.3701171875, 0.03369140625, 
35, 3433697204, -0.39398056268692017, 0.6357161402702332, -0.14702564477920532, 0.6473256349563599, 6.678805351257324, -3.0210158824920654, 1.340278148651123, 16.03939437866211, -9.110370635986328, -8.606974601745605, -0.7421875, 0.369140625, 0.036376953125, 
36, 3433705537, -0.3941531479358673, 0.6358097195625305, -0.14546862244606018, 0.6474801301956177, 6.682570934295654, -2.9216907024383545, 1.3849115371704102, 15.047820091247559, -8.841065406799316, -13.276837348937988, -0.744140625, 0.36865234375, 0.03466796875, 
37, 3433713870, -0.3940095603466034, 0.6359621286392212, -0.14379943907260895, 0.6477908492088318, 6.713469505310059, -2.7992546558380127, 1.4179456233978271, 13.293910026550293, -7.948766708374023, -18.015653610229492, -0.74365234375, 0.368896484375, 0.03125, 
38, 3433722203, -0.3935253620147705, 0.6361750960350037, -0.14203159511089325, 0.6482656598091125, 6.72096586227417, -2.775669574737549, 1.4432601928710938, 11.040215492248535, -6.8164381980896, -22.949522018432617, -0.74609375, 0.364013671875, 0.03466796875, 
39, 3433730536, -0.39265650510787964, 0.6364449858665466, -0.14019180834293365, 0.6489278674125671, 6.753776550292969, -2.7383368015289307, 1.4519157409667969, 8.524820327758789, -5.4203338623046875, -28.10541534423828, -0.74658203125, 0.362060546875, 0.03271484375, 
40, 3433738869, -0.3914245665073395, 0.6367613673210144, -0.13824103772640228, 0.6497796773910522, 6.73993444442749, -2.6925230026245117, 1.467096209526062, 6.294102191925049, -3.978048324584961, -33.435237884521484, -0.74951171875, 0.35791015625, 0.03173828125, 
41, 3433747202, -0.38983458280563354, 0.6371183395385742, -0.1361626386642456, 0.6508236527442932, 6.7880778312683105, -2.7069857120513916, 1.4529283046722412, 4.605227470397949, -2.76108980178833, -38.85919952392578, -0.75048828125, 0.3544921875, 0.03466796875, 
42, 3433755535, -0.3879176080226898, 0.6375091075897217, -0.13386496901512146, 0.6520618200302124, 6.83084774017334, -2.747997522354126, 1.4275025129318237, 3.7249441146850586, -1.8345205783843994, -44.79146194458008, -0.751220703125, 0.35107421875, 0.0341796875, 
43, 3433763868, -0.3856635093688965, 0.6379215121269226, -0.1313161551952362, 0.653512179851532, 6.911949634552002, -2.821258544921875, 1.3991676568984985, 3.4564058780670166, -0.979465126991272, -51.207393646240234, -0.757080078125, 0.343994140625, 0.03369140625, 
44, 3433772201, -0.3831029236316681, 0.6383630633354187, -0.12844371795654297, 0.6551560163497925, 6.995598793029785, -2.843245029449463, 1.3637696504592896, 3.7017414569854736, -0.6125662326812744, -57.84125900268555, -0.759033203125, 0.33544921875, 0.0341796875, 
45, 3433780534, -0.3802575469017029, 0.6388413906097412, -0.12524309754371643, 0.6569645404815674, 7.095327854156494, -2.8990585803985596, 1.3504096269607544, 4.42373514175415, -0.8184546232223511, -64.25814056396484, -0.76123046875, 0.330322265625, 0.0322265625, 
46, 3433788867, -0.37714922428131104, 0.6393745541572571, -0.12168851494789124, 0.6589027643203735, 7.215327739715576, -2.93634295463562, 1.3568369150161743, 5.249006271362305, -1.5712608098983765, -70.51604461669922, -0.7646484375, 0.32177734375, 0.03076171875, 
47, 3433797200, -0.3738285005092621, 0.6399627923965454, -0.1177552193403244, 0.6609358191490173, 7.362832069396973, -2.9920144081115723, 1.4083515405654907, 6.506574630737305, -2.7539541721343994, -76.29736328125, -0.76806640625, 0.311279296875, 0.0322265625, 
48, 3433805533, -0.3703159987926483, 0.6406295895576477, -0.11346258223056793, 0.6630147695541382, 7.490645885467529, -3.021709680557251, 1.5016975402832031, 7.739861011505127, -4.590585231781006, -81.54957580566406, -0.773193359375, 0.30517578125, 0.0322265625, 
49, 3433813866, -0.36658668518066406, 0.6413745284080505, -0.10883557796478271, 0.6651392579078674, 7.6722211837768555, -3.0510799884796143, 1.5751718282699585, 8.746051788330078, -6.369868278503418, -86.89740753173828, -0.776611328125, 0.294677734375, 0.03076171875, 
50, 3433822199, -0.36266273260116577, 0.6421457529067993, -0.10389019548892975, 0.6673333644866943, 7.9372029304504395, -3.056900978088379, 1.6707649230957031, 9.710389137268066, -7.209820747375488, -91.7852783203125, -0.78369140625, 0.279541015625, 0.03271484375, 
51, 3433830532, -0.35852953791618347, 0.6429137587547302, -0.09869049489498138, 0.6696127653121948, 8.145198822021484, -3.04142689704895, 1.73800790309906, 10.537515640258789, -7.495453834533691, -96.46528625488281, -0.7900390625, 0.269775390625, 0.028564453125, 
52, 3433838865, -0.35419562458992004, 0.6436317563056946, -0.09323234111070633, 0.6720074415206909, 8.369983673095703, -3.0801305770874023, 1.7787585258483887, 11.306367874145508, -6.903534889221191, -100.99122619628906, -0.788818359375, 0.258056640625, 0.03076171875, 
53, 3433847198, -0.34965258836746216, 0.6442903280258179, -0.08757571130990982, 0.6745116114616394, 8.599020957946777, -3.156179428100586, 1.8099366426467896, 11.958725929260254, -6.198501110076904, -105.24605560302734, -0.79541015625, 0.245849609375, 0.0322265625, 
54, 3433855531, -0.3449501395225525, 0.6448400020599365, -0.08162067085504532, 0.6771494746208191, 8.901345252990723, -3.47929048538208, 1.8205820322036743, 13.774677276611328, -5.153921604156494, -109.74931335449219, -0.7978515625, 0.2314453125, 0.029052734375, 
55, 3433863864, -0.340185284614563, 0.6452121138572693, -0.07530495524406433, 0.6799315214157104, 9.253711700439453, -3.9895992279052734, 1.841045618057251, 17.80764389038086, -3.9562411308288574, -114.14505767822266, -0.805908203125, 0.21875, 0.02734375, 
56, 3433872197, -0.3355044424533844, 0.6453182697296143, -0.06848101317882538, 0.6828717589378357, 9.552297592163086, -4.424286365509033, 1.8169959783554077, 24.437894821166992, -2.417041778564453, -118.19609832763672, -0.8115234375, 0.201171875, 0.02734375, 
57, 3433880530, -0.3310454785823822, 0.6451371908187866, -0.061173707246780396, 0.685906171798706, 9.768604278564453, -4.757002353668213, 1.8018081188201904, 32.6357421875, -1.434468150138855, -120.70191955566406, -0.816650390625, 0.18798828125, 0.0263671875, 
58, 3433888863, -0.32692602276802063, 0.64466392993927, -0.0533607043325901, 0.688972532749176, 9.944260597229004, -5.033963203430176, 1.7715104818344116, 41.46462631225586, -0.8624693155288696, -121.74689483642578, -0.818603515625, 0.173095703125, 0.027587890625, 
59, 3433897196, -0.3231934905052185, 0.6439268589019775, -0.04520951956510544, 0.6919991970062256, 10.101418495178223, -5.271900177001953, 1.7434401512145996, 49.56634521484375, -0.6377271413803101, -120.84848022460938, -0.82177734375, 0.157470703125, 0.02392578125, 
60, 3433905529, -0.31992578506469727, 0.6429396867752075, -0.03686307743191719, 0.6949241757392883, 10.286341667175293, -5.390255451202393, 1.717726230621338, 56.27777099609375, -0.2068636268377304, -117.40238952636719, -0.829345703125, 0.144287109375, 0.021728515625, 
61, 3433913862, -0.3171200752258301, 0.6417415142059326, -0.028588321059942245, 0.6977018117904663, 10.405207633972168, -5.508480548858643, 1.7016479969024658, 60.841644287109375, 0.47744330763816833, -111.74055480957031, -0.8310546875, 0.128173828125, 0.01806640625, 
62, 3433922195, -0.31475144624710083, 0.6404039859771729, -0.020548280328512192, 0.7002817392349243, 10.417262077331543, -5.526611328125, 1.7301911115646362, 62.683692932128906, 1.019062876701355, -104.41708374023438, -0.834716796875, 0.11376953125, 0.019775390625, 
63, 3433930528, -0.31271252036094666, 0.6390187740325928, -0.012934287078678608, 0.7026387453079224, 10.399227142333984, -5.482433319091797, 1.7586499452590942, 61.9210205078125, 1.1683942079544067, -96.65255737304688, -0.83447265625, 0.10205078125, 0.012939453125, 
64, 3433938861, -0.3109014630317688, 0.637670636177063, -0.005838209763169289, 0.7047586441040039, 10.345270156860352, -5.367101192474365, 1.8517557382583618, 58.43560028076172, 1.0015392303466797, -88.74876403808594, -0.83935546875, 0.089599609375, 0.013427734375, 
65, 3433947194, -0.3091350197792053, 0.6364644765853882, 0.000612189993262291, 0.7066473364830017, 10.247955322265625, -5.284182548522949, 1.9738268852233887, 52.22556686401367, 0.26555779576301575, -81.81465911865234, -0.840087890625, 0.080078125, 0.0107421875, 
66, 3433955527, -0.30728983879089355, 0.635466992855072, 0.006446218118071556, 0.7083187103271484, 10.180756568908691, -5.188136577606201, 2.125649929046631, 44.4246711730957, -0.9764725565910339, -76.12085723876953, -0.841796875, 0.069580078125, 0.0107421875, 
67, 3433963860, -0.30522841215133667, 0.6347288489341736, 0.01163964532315731, 0.7098040580749512, 10.13836669921875, -5.086633205413818, 2.227900981903076, 35.45136642456055, -2.506495237350464, -71.95906066894531, -0.841796875, 0.060546875, 0.009521484375, 
68, 3433972193, -0.3028930127620697, 0.6342518925666809, 0.016248416155576706, 0.7111390829086304, 10.13298511505127, -5.011002540588379, 2.2940940856933594, 26.281648635864258, -3.9606454372406006, -68.8564224243164, -0.846435546875, 0.05126953125, 0.010009765625, 
69, 3433980526, -0.30027392506599426, 0.634019136428833, 0.02032540924847126, 0.7123515009880066, 10.087935447692871, -5.017241477966309, 2.3243730068206787, 17.388612747192383, -5.205397129058838, -66.29586029052734, -0.84375, 0.042724609375, 0.005859375, 
70, 3433988859, -0.2973867654800415, 0.6339929103851318, 0.023873021826148033, 0.7134751081466675, 10.071535110473633, -5.0185017585754395, 2.356954574584961, 9.156878471374512, -5.940013885498047, -63.86342239379883, -0.8466796875, 0.031494140625, 0.00927734375, 
71, 3433997192, -0.294289767742157, 0.6341187357902527, 0.026924991980195045, 0.714538037776947, 10.067527770996094, -5.045482635498047, 2.367049217224121, 1.9723665714263916, -6.015061855316162, -61.452850341796875, -0.84912109375, 0.0234375, 0.00927734375, 
72, 3434005525, -0.29106760025024414, 0.6343380808830261, 0.029562367126345634, 0.7155581116676331, 10.024917602539062, -5.144479751586914, 2.360793113708496, -3.6413304805755615, -5.675671100616455, -58.71669006347656, -0.849853515625, 0.017822265625, 0.009521484375, 
73, 3434013858, -0.28782305121421814, 0.6345940232276917, 0.0318170040845871, 0.7165461182594299, 9.97308349609375, -5.207901477813721, 2.331245183944702, -7.6502251625061035, -4.792897701263428, -55.59882736206055, -0.848388671875, 0.0107421875, 0.008056640625, 
74, 3434022191, -0.28461775183677673, 0.6348578929901123, 0.03376041352748871, 0.7175031900405884, 9.908312797546387, -5.23152494430542, 2.319986343383789, -10.413494110107422, -3.9154274463653564, -52.226585388183594, -0.8486328125, 0.001953125, 0.0126953125, 
75, 3434030524, -0.2815205752849579, 0.6351156234741211, 0.03543848544359207, 0.7184154987335205, 9.852035522460938, -5.2418622970581055, 2.2878408432006836, -12.022454261779785, -3.1335506439208984, -48.813289642333984, -0.84912109375, -0.007080078125, 0.010986328125, 
76, 3434038857, -0.278515487909317, 0.635364294052124, 0.03689724951982498, 0.719292938709259, 9.783551216125488, -5.215027809143066, 2.2689895629882812, -13.253191947937012, -2.51335072517395, -45.71059036254883, -0.850341796875, -0.012939453125, 0.011962890625, 
77, 3434047190, -0.275632381439209, 0.6355972290039062, 0.038153499364852905, 0.7201318740844727, 9.729514122009277, -5.1653618812561035, 2.2152822017669678, -14.189338684082031, -1.7993265390396118, -42.741477966308594, -0.848388671875, -0.0205078125, 0.01123046875, 
78, 3434055523, -0.27285149693489075, 0.6358020901679993, 0.03922925889492035, 0.7209516763687134, 9.66063117980957, -5.118168354034424, 2.1683568954467773, -15.00130558013916, -0.9708834290504456, -39.98954391479492, -0.850830078125, -0.027099609375, 0.01171875, 
79, 3434063856, -0.27021440863609314, 0.6359702348709106, 0.04014299064874649, 0.7217459678649902, 9.61058521270752, -5.090564250946045, 2.1392717361450195, -15.163825988769531, -0.12269234657287598, -37.17539596557617, -0.851318359375, -0.029541015625, 0.0146484375, 
80, 3434072189, -0.2677139341831207, 0.6361075639724731, 0.040926046669483185, 0.7225123047828674, 9.582335472106934, -5.059856414794922, 2.0778698921203613, -15.055632591247559, 0.4398866593837738, -34.47821044921875, -0.8515625, -0.032958984375, 0.01318359375, 
81, 3434080522, -0.26539525389671326, 0.6362147331237793, 0.04159850627183914, 0.7232345938682556, 9.577977180480957, -5.058531284332275, 2.0283329486846924, -14.510761260986328, 0.9242778420448303, -31.672649383544922, -0.85205078125, -0.0400390625, 0.010498046875, 
82, 3434088855, -0.26326844096183777, 0.6362766027450562, 0.04218066856265068, 0.7239234447479248, 9.566526412963867, -5.043684005737305, 1.9947906732559204, -13.394898414611816, 1.441531777381897, -28.769010543823242, -0.848876953125, -0.043701171875, 0.009521484375, 
83, 3434097188, -0.261387437582016, 0.6362961530685425, 0.042687561362981796, 0.7245578765869141, 9.593104362487793, -5.0483012199401855, 1.9138305187225342, -11.959139823913574, 1.8814817667007446, -25.60044288635254, -0.850341796875, -0.046142578125, 0.011474609375, 
84, 3434105521, -0.25975894927978516, 0.636267900466919, 0.043118223547935486, 0.7251425385475159, 9.606663703918457, -5.129446506500244, 1.8641103506088257, -10.271824836730957, 2.299454689025879, -22.198867797851562, -0.853759765625, -0.047607421875, 0.009521484375, 
85, 3434113854, -0.258449524641037, 0.6361788511276245, 0.04345548152923584, 0.72566819190979, 9.642607688903809, -5.190649032592773, 1.8412894010543823, -8.195302963256836, 2.9552817344665527, -18.09185218811035, -0.852294921875, -0.0517578125, 0.007568359375, 
86, 3434122187, -0.25748056173324585, 0.6360223293304443, 0.04367160052061081, 0.7261367440223694, 9.684109687805176, -5.137410640716553, 1.7879050970077515, -6.050339698791504, 3.7031660079956055, -13.411717414855957, -0.850830078125, -0.05419921875, 0.0087890625, 
87, 3434130520, -0.2568632662296295, 0.6358196139335632, 0.04371930658817291, 0.7265298962593079, 9.702491760253906, -5.087345123291016, 1.7530523538589478, -4.548730373382568, 4.375692844390869, -8.24868106842041, -0.850830078125, -0.05712890625, 0.00830078125, 
88, 3434138853, -0.2565124034881592, 0.6356115341186523, 0.043546292930841446, 0.7268463373184204, 9.74795913696289, -4.931336879730225, 1.7162044048309326, -4.297403335571289, 4.6483306884765625, -3.356079578399658, -0.849609375, -0.05908203125, 0.00537109375, 
89, 3434147186, -0.2563793957233429, 0.635413646697998, 0.043130118399858475, 0.7270911335945129, 9.7608642578125, -4.770591735839844, 1.6971080303192139, -4.87899923324585, 4.9568023681640625, 1.1722737550735474, -0.853759765625, -0.0546875, 0.007568359375, 
90, 3434155519, -0.2564176917076111, 0.6352409720420837, 0.04245658963918686, 0.7272679805755615, 9.709112167358398, -4.715855598449707, 1.6889413595199585, -5.97147274017334, 5.084259510040283, 5.398367404937744, -0.8525390625, -0.0576171875, 0.005859375, 
91, 3434163852, -0.2566126585006714, 0.6351125836372375, 0.04153753072023392, 0.7273645401000977, 9.681755065917969, -4.564239501953125, 1.6414755582809448, -7.199137210845947, 4.932879447937012, 9.409659385681152, -0.851806640625, -0.0556640625, 0.005859375, 
92, 3434172185, -0.25690758228302, 0.6350449919700623, 0.04040733352303505, 0.7273831367492676, 9.614644050598145, -4.439248085021973, 1.6339128017425537, -8.529107093811035, 4.399540424346924, 12.568076133728027, -0.85107421875, -0.05517578125, 0.00146484375, 
93, 3434180518, -0.25728121399879456, 0.6350493431091309, 0.03911217302083969, 0.7273179292678833, 9.557458877563477, -4.338600158691406, 1.6188549995422363, -9.779542922973633, 3.6213538646698, 15.127091407775879, -0.852294921875, -0.0537109375, 0.003662109375, 
94, 3434188851, -0.2577384412288666, 0.6351390480995178, 0.03772027790546417, 0.7271512150764465, 9.50080394744873, -4.18949031829834, 1.5696343183517456, -10.102693557739258, 2.2006349563598633, 17.220674514770508, -0.852294921875, -0.048828125, 0.005126953125, 
95, 3434197184, -0.2582625150680542, 0.6353110074996948, 0.03628760203719139, 0.7268880605697632, 9.43631362915039, -4.127561092376709, 1.5817420482635498, -10.329585075378418, 0.7826817035675049, 18.622722625732422, -0.853759765625, -0.04833984375, 0.002685546875, 
96, 3434205517, -0.2588062286376953, 0.6355792880058289, 0.034814223647117615, 0.726531982421875, 9.388019561767578, -3.9877665042877197, 1.5929445028305054, -10.719560623168945, -0.8945518136024475, 19.54411506652832, -0.854248046875, -0.044677734375, 0.0029296875, 
97, 3434213850, -0.2593846023082733, 0.6359401941299438, 0.03334495425224304, 0.7260786294937134, 9.337337493896484, -3.9037976264953613, 1.5935906171798706, -10.79883861541748, -2.6121666431427, 20.25271224975586, -0.852294921875, -0.043701171875, 0.001708984375, 
98, 3434222183, -0.2599473297595978, 0.6363774538040161, 0.0318487286567688, 0.7255613803863525, 9.291276931762695, -3.8030481338500977, 1.6331912279129028, -11.289684295654297, -3.904763698577881, 20.582109451293945, -0.8544921875, -0.040283203125, 0.00537109375, 
99, 3434230516, -0.2604922950267792, 0.6368792057037354, 0.030336331576108932, 0.7249903082847595, 9.268885612487793, -3.6820969581604004, 1.6373025178909302, -11.972688674926758, -4.908176422119141, 20.781953811645508, -0.85107421875, -0.03662109375, 0.0048828125, 
100, 3434238849, -0.26100412011146545, 0.6374212503433228, 0.02879410982131958, 0.7243924140930176, 9.241666793823242, -3.604224920272827, 1.6222939491271973, -12.692399024963379, -5.451838493347168, 20.823833465576172, -0.8564453125, -0.037353515625, 0.002685546875, 
101, 3434247182, -0.26146218180656433, 0.6379980444908142, 0.027199847623705864, 0.7237807512283325, 9.192835807800293, -3.5343751907348633, 1.6112723350524902, -13.70815372467041, -5.793890953063965, 20.775114059448242, -0.8525390625, -0.03466796875, 0.00634765625, 
102, 3434255515, -0.26186683773994446, 0.6385957598686218, 0.02556106634438038, 0.7231670022010803, 9.143882751464844, -3.4931588172912598, 1.6292815208435059, -14.663135528564453, -5.88840913772583, 20.6502742767334, -0.85009765625, -0.02978515625, 0.00439453125, 
103, 3434263848, -0.26223212480545044, 0.6392022371292114, 0.023907357826828957, 0.7225551605224609, 9.08969783782959, -3.4321670532226562, 1.5871226787567139, -15.314759254455566, -5.869710445404053, 20.418079376220703, -0.852294921875, -0.025634765625, 0.009033203125, 
104, 3434272181, -0.2625808119773865, 0.6398009061813354, 0.02224772609770298, 0.7219512462615967, 9.061880111694336, -3.4414427280426025, 1.5886249542236328, -15.453869819641113, -5.726603031158447, 20.221744537353516, -0.851318359375, -0.024169921875, 0.01123046875, 
105, 3434280514, -0.2629336714744568, 0.6404018402099609, 0.020626720041036606, 0.7213378548622131, 9.054142951965332, -3.435997247695923, 1.5657994747161865, -15.078825950622559, -5.9505486488342285, 20.010454177856445, -0.853759765625, -0.024169921875, 0.009521484375, 
106, 3434288847, -0.26331189274787903, 0.6409797668457031, 0.0190445426851511, 0.7207298874855042, 9.080339431762695, -3.4101197719573975, 1.5450469255447388, -14.274102210998535, -5.852548599243164, 19.852256774902344, -0.849853515625, -0.017578125, 0.009521484375, 
107, 3434297180, -0.2637391686439514, 0.6415324807167053, 0.01753987744450569, 0.7201199531555176, 9.08090591430664, -3.3767752647399902, 1.5180134773254395, -13.095643997192383, -5.8422770500183105, 19.69603729248047, -0.850341796875, -0.017578125, 0.010009765625, 
108, 3434305513, -0.26423659920692444, 0.6420469284057617, 0.016114121302962303, 0.7195120453834534, 9.044587135314941, -3.3253955841064453, 1.5049657821655273, -11.438502311706543, -5.759593963623047, 19.63568878173828, -0.852294921875, -0.013671875, 0.012451171875, 
109, 3434313846, -0.2647855281829834, 0.6425194144248962, 0.014768334105610847, 0.7189170718193054, 9.101463317871094, -3.2604339122772217, 1.4831085205078125, -10.163016319274902, -5.4664130210876465, 19.426523208618164, -0.8515625, -0.012451171875, 0.012939453125, 
110, 3434322179, -0.2653857171535492, 0.6429491639137268, 0.013502907007932663, 0.7183362245559692, 9.137039184570312, -3.2192962169647217, 1.4640021324157715, -8.691168785095215, -5.226227760314941, 19.10967445373535, -0.8525390625, -0.009521484375, 0.013671875, 
111, 3434330512, -0.2660348117351532, 0.6433387398719788, 0.012341538444161415, 0.7177679538726807, 9.138285636901855, -3.1897482872009277, 1.4411362409591675, -7.157029151916504, -5.063398361206055, 18.673078536987305, -0.8505859375, -0.006103515625, 0.01220703125, 
112, 3434338845, -0.2667120099067688, 0.6437108516693115, 0.011269919574260712, 0.717200517654419, 9.09748363494873, -3.1345279216766357, 1.4484285116195679, -5.873883247375488, -5.236293792724609, 18.098241806030273, -0.85009765625, -0.00390625, 0.016845703125, 
113, 3434347178, -0.26741454005241394, 0.6440696716308594, 0.010304940864443779, 0.7166309952735901, 9.08777141571045, -3.0807158946990967, 1.4566283226013184, -4.632592678070068, -5.4813971519470215, 17.461782455444336, -0.85205078125, -0.0009765625, 0.01708984375, 
114, 3434355511, -0.268140971660614, 0.6444398164749146, 0.009436925873160362, 0.7160384654998779, 9.10645580291748, -3.0510635375976562, 1.4438343048095703, -3.5454201698303223, -6.134763717651367, 16.851850509643555, -0.85107421875, -0.00244140625, 0.017578125, 
115, 3434363844, -0.2688601016998291, 0.6448203325271606, 0.008666783571243286, 0.7154357433319092, 9.084446907043457, -3.003070831298828, 1.4586538076400757, -2.643056631088257, -6.701812267303467, 16.02297592163086, -0.848388671875, 0.003173828125, 0.0166015625, 
116, 3434372177, -0.2695736289024353, 0.6452134251594543, 0.007986385375261307, 0.7148206233978271, 9.095550537109375, -2.976064682006836, 1.4728271961212158, -1.8107986450195312, -7.283127307891846, 15.165205955505371, -0.850830078125, 0.006591796875, 0.01708984375, 
117, 3434380510, -0.2702658474445343, 0.6456104516983032, 0.007393239066004753, 0.714206874370575, 9.10354232788086, -2.9359421730041504, 1.4828039407730103, -1.2000527381896973, -7.621644973754883, 14.231437683105469, -0.848876953125, 0.005615234375, 0.01708984375, 
118, 3434388843, -0.27094483375549316, 0.6460094451904297, 0.006869098171591759, 0.713593602180481, 9.085611343383789, -2.9320456981658936, 1.4966474771499634, -0.6337219476699829, -7.8962812423706055, 13.430763244628906, -0.849365234375, 0.00927734375, 0.021484375, 
119, 3434397176, -0.2715943157672882, 0.6464177966117859, 0.00641477108001709, 0.7129810452461243, 9.08014965057373, -2.8976807594299316, 1.5048924684524536, -0.2598308324813843, -8.245248794555664, 12.576783180236816, -0.849853515625, 0.008544921875, 0.01904296875, 
120, 3434405509, -0.27221032977104187, 0.6468147039413452, 0.006011867895722389, 0.7123894095420837, 9.068472862243652, -2.896719217300415, 1.535474181175232, 0.07726535201072693, -8.169302940368652, 11.671114921569824, -0.847412109375, 0.0126953125, 0.02392578125, 
121, 3434413842, -0.27280741930007935, 0.647209882736206, 0.005686251446604729, 0.7118045091629028, 9.043118476867676, -2.8856163024902344, 1.5591360330581665, 0.5826342701911926, -8.353468894958496, 10.813985824584961, -0.8486328125, 0.013671875, 0.02490234375, 
122, 3434422175, -0.27337175607681274, 0.6476074457168579, 0.005421953275799751, 0.7112283110618591, 9.036601066589355, -2.896864652633667, 1.6095930337905884, 0.8823721408843994, -8.532641410827637, 9.91479778289795, -0.84765625, 0.013427734375, 0.02783203125, 
123, 3434430508, -0.27391135692596436, 0.6479977965354919, 0.005219023674726486, 0.7106664180755615, 9.038816452026367, -2.8831076622009277, 1.6299662590026855, 1.248374104499817, -8.548957824707031, 9.013177871704102, -0.845703125, 0.017333984375, 0.02490234375, 
124, 3434438841, -0.2744252383708954, 0.6483767628669739, 0.005085671320557594, 0.7101231217384338, 9.094144821166992, -2.849982976913452, 1.6414289474487305, 1.709814429283142, -8.522932052612305, 8.068497657775879, -0.8486328125, 0.016845703125, 0.02685546875, 
125, 3434447174, -0.2748967707157135, 0.648735523223877, 0.004991471767425537, 0.7096137404441833, 9.128721237182617, -2.849895477294922, 1.6691341400146484, 1.858633279800415, -8.20595645904541, 7.237366676330566, -0.85009765625, 0.018310546875, 0.029052734375, 
126, 3434455507, -0.2753150463104248, 0.6490731239318848, 0.004929672926664352, 0.7091431617736816, 9.147414207458496, -2.8374698162078857, 1.7074857950210571, 1.7789983749389648, -7.777738094329834, 6.237514972686768, -0.84716796875, 0.017822265625, 0.02783203125, 
127, 3434463840, -0.2756746709346771, 0.6493914723396301, 0.004910638555884361, 0.7087119817733765, 9.15217113494873, -2.819960355758667, 1.7413512468338013, 1.7399369478225708, -7.404283046722412, 5.177290916442871, -0.8466796875, 0.02294921875, 0.0283203125, 
128, 3434472173, -0.27597200870513916, 0.64967942237854, 0.004928195849061012, 0.7083319425582886, 9.16427230834961, -2.8091788291931152, 1.7364212274551392, 1.6584323644638062, -6.797789096832275, 4.008897304534912, -0.85009765625, 0.02099609375, 0.032958984375, 
129, 3434480506, -0.2762170433998108, 0.649939775466919, 0.004986817017197609, 0.7079972624778748, 9.146028518676758, -2.8084867000579834, 1.7347934246063232, 1.6873250007629395, -6.280867099761963, 2.9973907470703125, -0.84521484375, 0.01953125, 0.03125, 
130, 3434488839, -0.2764258086681366, 0.6501670479774475, 0.005087943747639656, 0.7077063322067261, 9.151287078857422, -2.8520472049713135, 1.7463570833206177, 1.7859910726547241, -5.686898231506348, 2.0417747497558594, -0.84619140625, 0.0224609375, 0.03076171875, 
131, 3434497172, -0.27658316493034363, 0.6503810286521912, 0.005233434960246086, 0.7074472308158875, 9.115446090698242, -2.8589727878570557, 1.7454103231430054, 1.9197486639022827, -5.49222993850708, 1.0773732662200928, -0.8466796875, 0.0224609375, 0.03369140625, 
132, 3434505505, -0.27670466899871826, 0.6505706310272217, 0.005426470190286636, 0.7072238326072693, 9.09341812133789, -2.862978219985962, 1.7286376953125, 2.0206172466278076, -5.069338798522949, 0.1145852655172348, -0.847900390625, 0.02392578125, 0.03515625, 
133, 3434513838, -0.2767829895019531, 0.650740385055542, 0.00566362589597702, 0.7070350646972656, 9.078937530517578, -2.908357620239258, 1.7313077449798584, 2.2682301998138428, -4.785712718963623, -0.7833346128463745, -0.849365234375, 0.0234375, 0.034912109375, 
134, 3434522171, -0.2768496870994568, 0.650901198387146, 0.005943553522229195, 0.7068585753440857, 9.066811561584473, -2.9247405529022217, 1.7438663244247437, 2.4632058143615723, -4.698598384857178, -1.3766884803771973, -0.844970703125, 0.02197265625, 0.03759765625, 
135, 3434530504, -0.2768934667110443, 0.6510485410690308, 0.006257751956582069, 0.7067030072212219, 9.051240921020508, -2.951714515686035, 1.750769853591919, 2.788583278656006, -4.566429138183594, -1.9352325201034546, -0.8447265625, 0.0205078125, 0.03662109375, 
136, 3434538837, -0.27692320942878723, 0.6511889100074768, 0.0066276490688323975, 0.7065587639808655, 9.06395149230957, -2.978947639465332, 1.7795648574829102, 3.125103235244751, -4.577724933624268, -2.6538398265838623, -0.846923828125, 0.02099609375, 0.0361328125, 
137, 3434547170, -0.2769332230091095, 0.6513173580169678, 0.007020004093647003, 0.7064325213432312, 9.090452194213867, -2.977339506149292, 1.7692781686782837, 3.3156213760375977, -4.419557094573975, -3.077012300491333, -0.84619140625, 0.02099609375, 0.0341796875, 
138, 3434555503, -0.2769480049610138, 0.6514156460762024, 0.007448673248291016, 0.7063317894935608, 9.109003067016602, -2.9848127365112305, 1.7805609703063965, 3.729419469833374, -4.008986473083496, -3.4894015789031982, -0.847412109375, 0.02099609375, 0.03857421875, 
139, 3434563836, -0.27693942189216614, 0.651477038860321, 0.007901707664132118, 0.7062734365463257, 9.16964340209961, -2.9978575706481934, 1.8048864603042603, 3.988482713699341, -3.3943469524383545, -4.067899227142334, -0.846923828125, 0.0205078125, 0.0400390625, 
140, 3434572169, -0.27694007754325867, 0.6514920592308044, 0.008395455777645111, 0.7062536478042603, 9.169089317321777, -2.996570110321045, 1.80168879032135, 4.510551452636719, -2.7155957221984863, -4.528571128845215, -0.8447265625, 0.01953125, 0.037353515625, 
141, 3434580502, -0.2769223749637604, 0.6514522433280945, 0.008907722309231758, 0.7062910795211792, 9.192658424377441, -3.0235118865966797, 1.8020696640014648, 4.856343746185303, -1.780419945716858, -5.060963153839111, -0.845458984375, 0.021484375, 0.03759765625, 
142, 3434588835, -0.2769148051738739, 0.6513645052909851, 0.009459640830755234, 0.7063677310943604, 9.218435287475586, -3.0505118370056152, 1.7978700399398804, 5.457946300506592, -1.1082255840301514, -5.493024826049805, -0.8486328125, 0.0185546875, 0.03759765625, 
143, 3434597168, -0.27691590785980225, 0.651232898235321, 0.010052409023046494, 0.7064805626869202, 9.18902587890625, -3.070617914199829, 1.7733159065246582, 6.145995140075684, -0.5168184638023376, -5.899726867675781, -0.84423828125, 0.01953125, 0.036865234375, 
144, 3434605501, -0.27693480253219604, 0.6510680317878723, 0.010711822658777237, 0.7066153883934021, 9.216643333435059, -3.0664477348327637, 1.7855949401855469, 6.914679050445557, -0.20499075949192047, -6.445182800292969, -0.84716796875, 0.01904296875, 0.037109375, 
145, 3434613834, -0.2769429385662079, 0.6508788466453552, 0.011415757238864899, 0.7067756056785583, 9.216133117675781, -3.077249050140381, 1.7787895202636719, 7.50293493270874, 0.045145098119974136, -7.015713691711426, -0.84765625, 0.016357421875, 0.03515625, 
146, 3434622167, -0.27694636583328247, 0.65068119764328, 0.012172183021903038, 0.7069433927536011, 9.225443840026855, -3.0787458419799805, 1.7758854627609253, 7.95738410949707, -0.00829901359975338, -7.5724406242370605, -0.84423828125, 0.015625, 0.037841796875, 
147, 3434630500, -0.276902437210083, 0.6504872441291809, 0.012934328988194466, 0.7071256041526794, 9.20335578918457, -3.0346524715423584, 1.7701823711395264, 7.615817070007324, 0.05792659521102905, -8.127551078796387, -0.849609375, 0.012939453125, 0.03564453125, 
148, 3434638833, -0.2768231928348541, 0.6502928137779236, 0.013699216768145561, 0.7073207497596741, 9.221967697143555, -3.0437374114990234, 1.7701623439788818, 7.2174906730651855, 0.18013212084770203, -8.562865257263184, -0.8466796875, 0.01416015625, 0.036865234375, 
149, 3434647166, -0.27667906880378723, 0.6501134634017944, 0.01443554274737835, 0.7075275778770447, 9.206352233886719, -3.05627179145813, 1.7454241514205933, 6.409872055053711, 0.21491625905036926, -8.960116386413574, -0.84716796875, 0.01318359375, 0.037841796875, 
150, 3434655499, -0.2764783501625061, 0.6499386429786682, 0.015135316178202629, 0.7077521085739136, 9.190374374389648, -3.0916824340820312, 1.7543076276779175, 5.426234722137451, 0.47359442710876465, -9.26887035369873, -0.84716796875, 0.013916015625, 0.03515625, 
151, 3434663832, -0.27622511982917786, 0.6497679948806763, 0.015794003382325172, 0.7079929709434509, 9.162589073181152, -3.083787441253662, 1.7545839548110962, 4.637906074523926, 0.7060436606407166, -9.456750869750977, -0.84912109375, 0.009521484375, 0.03466796875, 
152, 3434672165, -0.2759113311767578, 0.6496070623397827, 0.01640562154352665, 0.7082492709159851, 9.162345886230469, -3.1140503883361816, 1.7388126850128174, 3.5695109367370605, 0.9036831259727478, -9.684256553649902, -0.8486328125, 0.012451171875, 0.0361328125, 
153, 3434680498, -0.2755542993545532, 0.6494543552398682, 0.01696372777223587, 0.7085149884223938, 9.171234130859375, -3.131598472595215, 1.7219136953353882, 2.6574387550354004, 1.1146931648254395, -9.660178184509277, -0.8486328125, 0.007080078125, 0.034912109375, 
154, 3434688831, -0.275154709815979, 0.6492933034896851, 0.017475830391049385, 0.7088054418563843, 9.18027114868164, -3.160996437072754, 1.7044419050216675, 1.85645592212677, 1.5795402526855469, -9.758126258850098, -0.84814453125, 0.009033203125, 0.035400390625, 
155, 3434697164, -0.27473336458206177, 0.6491266489028931, 0.01795301027595997, 0.7091096043586731, 9.189002990722656, -3.1475274562835693, 1.6988123655319214, 1.2986801862716675, 1.8732331991195679, -9.714250564575195, -0.8505859375, 0.00537109375, 0.0361328125, 
156, 3434705497, -0.2742995321750641, 0.6489580869674683, 0.018427029252052307, 0.7094196081161499, 9.202949523925781, -3.1906607151031494, 1.671586513519287, 1.1260145902633667, 1.9645222425460815, -9.837327003479004, -0.847900390625, 0.00537109375, 0.032470703125, 
157, 3434713830, -0.2738533616065979, 0.6487745046615601, 0.01889914460480213, 0.7097474336624146, 9.22130012512207, -3.1943886280059814, 1.6610625982284546, 1.1248364448547363, 2.2731738090515137, -10.00195026397705, -0.84912109375, 0.00537109375, 0.035400390625, 
158, 3434722163, -0.2734139561653137, 0.6485803723335266, 0.01939820870757103, 0.7100805640220642, 9.239221572875977, -3.208872079849243, 1.6486775875091553, 1.5075387954711914, 2.2913856506347656, -10.191187858581543, -0.849365234375, 0.0029296875, 0.033935546875, 
159, 3434730496, -0.272980660200119, 0.6483768224716187, 0.019934028387069702, 0.7104182839393616, 9.26784896850586, -3.2193634510040283, 1.62441885471344, 1.9352965354919434, 2.32015061378479, -10.488263130187988, -0.846435546875, 0.0029296875, 0.033447265625, 
160, 3434738829, -0.27255913615226746, 0.648150622844696, 0.020500047132372856, 0.7107703685760498, 9.24764633178711, -3.2301135063171387, 1.634006142616272, 2.254859685897827, 2.5882034301757812, -10.723298072814941, -0.849365234375, -0.00146484375, 0.033935546875, 
161, 3434747162, -0.2721311151981354, 0.6479160189628601, 0.021086078137159348, 0.7111311554908752, 9.255802154541016, -3.2218899726867676, 1.5865941047668457, 2.5826706886291504, 2.6427359580993652, -10.978415489196777, -0.848876953125, -0.00244140625, 0.036376953125, 
162, 3434755495, -0.27171656489372253, 0.6476768851280212, 0.021696913987398148, 0.7114889621734619, 9.239736557006836, -3.2404003143310547, 1.5655384063720703, 2.7381489276885986, 2.6225264072418213, -11.092167854309082, -0.850341796875, -0.002685546875, 0.032958984375, 
163, 3434763828, -0.27129560708999634, 0.6474398374557495, 0.022309334948658943, 0.7118463516235352, 9.252524375915527, -3.2460408210754395, 1.5794192552566528, 2.914196014404297, 2.53892183303833, -11.13212776184082, -0.851318359375, -0.004638671875, 0.032470703125, 
164, 3434772161, -0.2708716094493866, 0.6472102999687195, 0.022917473688721657, 0.7121971249580383, 9.237204551696777, -3.251258373260498, 1.5461565256118774, 2.7322068214416504, 2.4241700172424316, -11.106820106506348, -0.84814453125, -0.007568359375, 0.02880859375, 
165, 3434780494, -0.2704274356365204, 0.647004246711731, 0.023509209975600243, 0.7125337719917297, 9.219099998474121, -3.2457995414733887, 1.5527622699737549, 2.395968437194824, 2.121306896209717, -11.089478492736816, -0.851318359375, -0.010009765625, 0.032470703125, 
166, 3434788827, -0.2699701189994812, 0.6468245983123779, 0.024083666503429413, 0.7128511071205139, 9.23704719543457, -3.2886741161346436, 1.5309388637542725, 2.0631115436553955, 1.708815574645996, -10.972474098205566, -0.85107421875, -0.010498046875, 0.031494140625, 
167, 3434797160, -0.2695111632347107, 0.6466734409332275, 0.02465125545859337, 0.713142454624176, 9.237091064453125, -3.3046975135803223, 1.5451149940490723, 1.8371939659118652, 1.2650487422943115, -10.831594467163086, -0.84912109375, -0.009521484375, 0.02978515625, 
168, 3434805493, -0.2690562605857849, 0.6465326547622681, 0.025185484439134598, 0.7134230136871338, 9.248194694519043, -3.3246500492095947, 1.554345965385437, 1.49957275390625, 1.1716080904006958, -10.453426361083984, -0.84912109375, -0.0126953125, 0.03125, 
169, 3434813826, -0.26860809326171875, 0.6464154124259949, 0.025693394243717194, 0.7136800289154053, 9.272110939025879, -3.343348741531372, 1.5190987586975098, 1.2349263429641724, 0.8506103754043579, -10.056686401367188, -0.85205078125, -0.01123046875, 0.026611328125, 
170, 3434822159, -0.26817962527275085, 0.6463056206703186, 0.026165293529629707, 0.7139233946800232, 9.280044555664062, -3.3529343605041504, 1.5422143936157227, 0.8591400384902954, 0.8324756026268005, -9.522196769714355, -0.84912109375, -0.01220703125, 0.02978515625, 
171, 3434830492, -0.26776424050331116, 0.6461894512176514, 0.026597393676638603, 0.71416836977005, 9.302999496459961, -3.3574132919311523, 1.5453935861587524, 0.7815544605255127, 1.025811791419983, -9.016544342041016, -0.84765625, -0.01806640625, 0.031005859375, 
172, 3434838825, -0.26738449931144714, 0.6460729241371155, 0.02699645236134529, 0.7144009470939636, 9.311182022094727, -3.371396064758301, 1.547757625579834, 0.6955161690711975, 1.057957649230957, -8.344375610351562, -0.8515625, -0.017333984375, 0.02783203125, 
173, 3434847158, -0.2670257091522217, 0.6459594964981079, 0.027341704815626144, 0.7146247029304504, 9.290828704833984, -3.371495485305786, 1.511258602142334, 0.4305625557899475, 1.1511423587799072, -7.6107330322265625, -0.85009765625, -0.0185546875, 0.0283203125, 
174, 3434855491, -0.26670193672180176, 0.6458380818367004, 0.027652859687805176, 0.7148433327674866, 9.305150985717773, -3.3589158058166504, 1.5175957679748535, 0.5035374164581299, 1.2757041454315186, -6.938665390014648, -0.85009765625, -0.019775390625, 0.02734375, 
175, 3434863824, -0.2664000689983368, 0.6457252502441406, 0.027932660654187202, 0.7150468826293945, 9.305038452148438, -3.3791263103485107, 1.5458735227584839, 0.2977270483970642, 1.2286250591278076, -6.395361423492432, -0.84912109375, -0.020751953125, 0.02880859375, 
176, 3434872157, -0.2661188840866089, 0.6456279754638672, 0.028185013681650162, 0.7152296304702759, 9.29384994506836, -3.357841730117798, 1.514057993888855, 0.16302180290222168, 0.996483325958252, -5.865326881408691, -0.85107421875, -0.022705078125, 0.0283203125, 
177, 3434880490, -0.2658424973487854, 0.6455384492874146, 0.028394082561135292, 0.7154048085212708, 9.306276321411133, -3.346259117126465, 1.5122772455215454, -0.18939165771007538, 0.9755309820175171, -5.40037727355957, -0.85302734375, -0.023681640625, 0.0283203125, 
178, 3434888823, -0.2655719220638275, 0.6454557180404663, 0.028555067256093025, 0.7155734300613403, 9.351784706115723, -3.320284128189087, 1.517783522605896, -0.6173799633979797, 1.0235832929611206, -4.888528347015381, -0.849609375, -0.020751953125, 0.0263671875, 
179, 3434897156, -0.2653137743473053, 0.6454023718833923, 0.02867910824716091, 0.7157124280929565, 9.332538604736328, -3.3476932048797607, 1.4829699993133545, -1.039041519165039, 0.6557628512382507, -4.32288932800293, -0.852294921875, -0.02490234375, 0.0234375, 
180, 3434905489, -0.2650514543056488, 0.6453630328178406, 0.028766902163624763, 0.7158416509628296, 9.358642578125, -3.3439040184020996, 1.499146580696106, -1.3665963411331177, 0.5057915449142456, -3.993131399154663, -0.849365234375, -0.026611328125, 0.028564453125, 
181, 3434913822, -0.26481112837791443, 0.6453389525413513, 0.028825124725699425, 0.7159498929977417, 9.357733726501465, -3.349994659423828, 1.5108788013458252, -1.6218421459197998, 0.34296175837516785, -3.4409139156341553, -0.850830078125, -0.023193359375, 0.0263671875, 
182, 3434922155, -0.2646028697490692, 0.6453152298927307, 0.028857972472906113, 0.716046929359436, 9.354869842529297, -3.3598861694335938, 1.4856725931167603, -1.5737898349761963, 0.3215995132923126, -2.868614912033081, -0.849853515625, -0.023681640625, 0.0244140625, 
183, 3434930488, -0.2644169330596924, 0.6453121900558472, 0.02887900546193123, 0.7161174416542053, 9.348670959472656, -3.3825674057006836, 1.4872177839279175, -1.5670275688171387, -0.04421016946434975, -2.4284346103668213, -0.849853515625, -0.023681640625, 0.02783203125, 
184, 3434938821, -0.26426705718040466, 0.6453168392181396, 0.028885221108794212, 0.7161682844161987, 9.368782043457031, -3.367347002029419, 1.4798766374588013, -1.396103858947754, -0.2468699812889099, -1.8805969953536987, -0.848388671875, -0.024658203125, 0.027099609375, 
185, 3434947154, -0.26415061950683594, 0.6453351378440857, 0.0288788340985775, 0.7161951065063477, 9.370473861694336, -3.37343168258667, 1.4747505187988281, -1.281224012374878, -0.5146155953407288, -1.3337844610214233, -0.853759765625, -0.024169921875, 0.02587890625, 
186, 3434955487, -0.264070600271225, 0.6453688740730286, 0.02886268123984337, 0.7161948680877686, 9.362563133239746, -3.370126247406006, 1.4708248376846313, -1.090269923210144, -0.8748798966407776, -0.8006241917610168, -0.846923828125, -0.026611328125, 0.025146484375, 
187, 3434963820, -0.26402631402015686, 0.6454155445098877, 0.028832796961069107, 0.7161703705787659, 9.363972663879395, -3.387021541595459, 1.4918112754821777, -0.9538740515708923, -1.1341983079910278, -0.2161841094493866, -0.851318359375, -0.026123046875, 0.02685546875, 
188, 3434972153, -0.2640203833580017, 0.6454836130142212, 0.028789713978767395, 0.7161129713058472, 9.381057739257812, -3.3596441745758057, 1.4908061027526855, -0.8391992449760437, -1.577631950378418, 0.3791291415691376, -0.852783203125, -0.02783203125, 0.02587890625, 
189, 3434980486, -0.26404619216918945, 0.6455511450767517, 0.028720686212182045, 0.7160453200340271, 9.357702255249023, -3.3492343425750732, 1.5086276531219482, -0.7766748666763306, -1.5553733110427856, 0.9866476058959961, -0.848876953125, -0.025146484375, 0.024658203125, 
190, 3434988819, -0.2641031742095947, 0.6456215381622314, 0.028620900586247444, 0.7159649133682251, 9.383943557739258, -3.327192783355713, 1.5120433568954468, -0.8082828521728516, -1.5720224380493164, 1.6134278774261475, -0.850830078125, -0.025146484375, 0.02587890625, 
191, 3434997152, -0.2641960680484772, 0.6457003355026245, 0.02849668450653553, 0.7158645987510681, 9.354860305786133, -3.3006789684295654, 1.5321917533874512, -0.7834882140159607, -1.7278594970703125, 2.2299883365631104, -0.851318359375, -0.023193359375, 0.02587890625, 
192, 3435005485, -0.2643110454082489, 0.6457874774932861, 0.028347263112664223, 0.7157493233680725, 9.341599464416504, -3.3108978271484375, 1.502789855003357, -0.810895562171936, -1.8589789867401123, 2.7353572845458984, -0.848876953125, -0.026611328125, 0.027099609375, 
193, 3435013818, -0.26445138454437256, 0.6458786725997925, 0.028177276253700256, 0.7156218886375427, 9.347338676452637, -3.2816991806030273, 1.5335025787353516, -0.8169403076171875, -1.9062881469726562, 3.237370252609253, -0.848876953125, -0.024658203125, 0.029052734375, 
194, 3435022151, -0.2646195888519287, 0.6459838151931763, 0.027991166338324547, 0.7154721617698669, 9.31275749206543, -3.244588851928711, 1.5265743732452393, -0.772883951663971, -2.1795921325683594, 3.7116947174072266, -0.851318359375, -0.024658203125, 0.025390625, 
195, 3435030484, -0.2647973299026489, 0.6460964679718018, 0.027785854414105415, 0.7153127789497375, 9.313088417053223, -3.2432656288146973, 1.552984595298767, -0.8971898555755615, -2.2583048343658447, 4.041837215423584, -0.851806640625, -0.023193359375, 0.0263671875, 
196, 3435038817, -0.2649914026260376, 0.6462205052375793, 0.027569111436605453, 0.7151369452476501, 9.32862663269043, -3.2099177837371826, 1.5762664079666138, -0.9605082869529724, -2.4563796520233154, 4.329381942749023, -0.848876953125, -0.024658203125, 0.025146484375, 
197, 3435047150, -0.2652018070220947, 0.6463485360145569, 0.027350611984729767, 0.7149516940116882, 9.315922737121582, -3.19873046875, 1.558997392654419, -0.7838467955589294, -2.579404830932617, 4.58091402053833, -0.85205078125, -0.019775390625, 0.0283203125, 
198, 3435055483, -0.2654333710670471, 0.6464754343032837, 0.02712884172797203, 0.7147594094276428, 9.321549415588379, -3.179041862487793, 1.5795245170593262, -0.6112068891525269, -2.622205972671509, 4.815975189208984, -0.849609375, -0.021240234375, 0.0263671875, 
199, 3435063816, -0.2656777799129486, 0.6465999484062195, 0.026912428438663483, 0.714564323425293, 9.325823783874512, -3.1436026096343994, 1.5702542066574097, -0.4437154233455658, -2.625894546508789, 4.931291103363037, -0.85205078125, -0.020751953125, 0.02783203125, 
200, 3435072149, -0.2659348249435425, 0.6467249989509583, 0.026682240888476372, 0.7143639326095581, 9.330462455749512, -3.160297155380249, 1.576879620552063, -0.40052980184555054, -2.6521236896514893, 5.176854610443115, -0.849609375, -0.020263671875, 0.02685546875, 
201, 3435080482, -0.2662030756473541, 0.6468453407287598, 0.02644846774637699, 0.7141637802124023, 9.351805686950684, -3.1341164112091064, 1.6014745235443115, -0.38493067026138306, -2.5587592124938965, 5.337916851043701, -0.8466796875, -0.01806640625, 0.030517578125, 
202, 3435088815, -0.266475111246109, 0.6469671130180359, 0.026199566200375557, 0.7139613628387451, 9.335519790649414, -3.0961880683898926, 1.6142477989196777, -0.569968044757843, -2.5218241214752197, 5.475773334503174, -0.85107421875, -0.01708984375, 0.02880859375, 
203, 3435097148, -0.26673126220703125, 0.6470869183540344, 0.025936657562851906, 0.7137666940689087, 9.322213172912598, -3.075972318649292, 1.633847951889038, -0.77862149477005, -2.4009759426116943, 5.456869125366211, -0.84814453125, -0.0166015625, 0.02783203125, 
204, 3435105481, -0.2669656276702881, 0.6472208499908447, 0.025647813454270363, 0.7135680913925171, 9.293088912963867, -3.0824337005615234, 1.617586612701416, -1.2105544805526733, -2.515369176864624, 5.472853660583496, -0.85107421875, -0.01708984375, 0.0283203125, 
205, 3435113814, -0.26718729734420776, 0.6473572850227356, 0.02535315603017807, 0.7133719325065613, 9.295894622802734, -3.060648202896118, 1.6016900539398193, -1.4579622745513916, -2.474130153656006, 5.411558151245117, -0.84912109375, -0.017578125, 0.02978515625, 
206, 3435122147, -0.2674053907394409, 0.6474980115890503, 0.025054896250367165, 0.7131729125976562, 9.278254508972168, -3.0410878658294678, 1.6248773336410522, -1.5031970739364624, -2.549820899963379, 5.39752197265625, -0.84814453125, -0.0166015625, 0.0283203125, 
207, 3435130480, -0.26762089133262634, 0.6476415991783142, 0.024760503321886063, 0.7129719257354736, 9.2546968460083, -3.0620009899139404, 1.6344146728515625, -1.5346770286560059, -2.5881905555725098, 5.368449687957764, -0.84814453125, -0.01513671875, 0.03125, 
208, 3435138813, -0.26783493161201477, 0.6477900147438049, 0.024464018642902374, 0.7127669453620911, 9.251577377319336, -3.053849935531616, 1.63074791431427, -1.6047574281692505, -2.667799234390259, 5.356948375701904, -0.8515625, -0.01513671875, 0.0302734375, 
209, 3435147146, -0.2680560052394867, 0.6479390859603882, 0.024187279865145683, 0.7125575542449951, 9.245552062988281, -3.034358024597168, 1.6416529417037964, -1.3297888040542603, -2.7820394039154053, 5.299496173858643, -0.849609375, -0.0107421875, 0.02978515625, 
210, 3435155479, -0.26829010248184204, 0.648073136806488, 0.023925980553030968, 0.7123563885688782, 9.249801635742188, -3.015880823135376, 1.6626014709472656, -0.93658447265625, -2.645796775817871, 5.237842559814453, -0.8515625, -0.01318359375, 0.03125, 
211, 3435163812, -0.26853153109550476, 0.648184597492218, 0.023678062483668327, 0.7121723890304565, 9.262188911437988, -2.9949145317077637, 1.6549521684646606, -0.7351541519165039, -2.287658452987671, 5.1355390548706055, -0.849609375, -0.01171875, 0.03173828125, 
212, 3435172145, -0.26877522468566895, 0.6482742428779602, 0.023456064984202385, 0.7120060920715332, 9.258148193359375, -2.9963936805725098, 1.6486804485321045, -0.3868517577648163, -2.0097439289093018, 4.855139255523682, -0.84716796875, -0.01220703125, 0.02783203125, 
213, 3435180478, -0.26901140809059143, 0.6483423709869385, 0.023240601643919945, 0.7118619084358215, 9.273276329040527, -2.9660823345184326, 1.6379791498184204, -0.31784701347351074, -1.6385939121246338, 4.606169700622559, -0.849365234375, -0.009033203125, 0.0322265625, 
214, 3435188811, -0.2692509889602661, 0.6483829021453857, 0.023057177662849426, 0.711740255355835, 9.263238906860352, -2.9498541355133057, 1.6577857732772827, 0.04076505824923515, -1.2577871084213257, 4.247647285461426, -0.849365234375, -0.008544921875, 0.0322265625, 
215, 3435197144, -0.26946085691452026, 0.6484163403511047, 0.022887036204338074, 0.711635947227478, 9.232588768005371, -2.950472354888916, 1.6721742153167725, 0.006339522544294596, -1.1103769540786743, 3.814791440963745, -0.847900390625, -0.009521484375, 0.03564453125, 
216, 3435205477, -0.26967287063598633, 0.6484450697898865, 0.02274925634264946, 0.7115339636802673, 9.228219032287598, -2.9349732398986816, 1.6480973958969116, 0.31839776039123535, -1.159248948097229, 3.504347562789917, -0.848876953125, -0.008056640625, 0.03564453125, 
217, 3435213810, -0.26986557245254517, 0.6484652161598206, 0.022645670920610428, 0.7114458084106445, 9.234691619873047, -2.9306371212005615, 1.6769564151763916, 0.5502065420150757, -1.0884768962860107, 2.988297700881958, -0.848388671875, -0.008056640625, 0.03173828125, 
218, 3435222143, -0.27003705501556396, 0.6484774947166443, 0.022569382563233376, 0.7113720178604126, 9.220279693603516, -2.929319143295288, 1.6691391468048096, 0.6748967170715332, -1.008611798286438, 2.4602601528167725, -0.849853515625, -0.008056640625, 0.032958984375, 
219, 3435230476, -0.27017831802368164, 0.6484952569007874, 0.022519992664456367, 0.7113038301467896, 9.227333068847656, -2.908449411392212, 1.650153636932373, 0.6237450838088989, -1.1027953624725342, 1.927893877029419, -0.84716796875, -0.008056640625, 0.0322265625, 
220, 3435238809, -0.27030739188194275, 0.6485069394111633, 0.02251153439283371, 0.7112443447113037, 9.170090675354004, -2.9549851417541504, 1.6426935195922852, 0.9640302062034607, -1.1445720195770264, 1.390891432762146, -0.848388671875, -0.008056640625, 0.0322265625, 
221, 3435247142, -0.27041545510292053, 0.6485156416893005, 0.02253529243171215, 0.7111945152282715, 9.18746280670166, -2.9521484375, 1.6476802825927734, 1.0707646608352661, -1.134838581085205, 0.8794775009155273, -0.849853515625, -0.009033203125, 0.031005859375, 
222, 3435255475, -0.27047181129455566, 0.6485264301300049, 0.022590963169932365, 0.7111614942550659, 9.216052055358887, -2.9515275955200195, 1.6492881774902344, 0.8969464302062988, -1.1464163064956665, 0.002958443947136402, -0.849853515625, -0.005126953125, 0.031982421875, 
223, 3435263808, -0.27042415738105774, 0.6485692262649536, 0.02267802320420742, 0.7111377716064453, 9.185580253601074, -3.0671770572662354, 1.618065595626831, 0.1664028763771057, -1.5188215970993042, -1.2942872047424316, -0.850341796875, -0.007080078125, 0.033447265625, 
224, 3435272141, -0.2702721655368805, 0.6486541032791138, 0.022768931463360786, 0.7111152410507202, 9.205957412719727, -3.2277274131774902, 1.5830594301223755, -0.9151967167854309, -1.966353416442871, -2.3671393394470215, -0.850830078125, -0.007080078125, 0.033935546875, 
225, 3435280474, -0.2700299024581909, 0.6488215327262878, 0.022813871502876282, 0.711053192615509, 9.243032455444336, -3.2415337562561035, 1.5573025941848755, -2.432225465774536, -2.9825217723846436, -2.640392303466797, -0.851806640625, -0.009033203125, 0.034423828125, 
226, 3435288807, -0.2697054445743561, 0.6490796804428101, 0.022699130699038506, 0.710944414138794, 9.340953826904297, -3.3909990787506104, 1.5614482164382935, -5.070516586303711, -3.7262818813323975, -1.8424571752548218, -0.849365234375, -0.008544921875, 0.03515625, 
227, 3435297140, -0.2693019211292267, 0.6494148373603821, 0.022313224151730537, 0.7108034491539001, 9.47840404510498, -3.543987274169922, 1.5523258447647095, -8.682381629943848, -3.779970169067383, -0.026638807728886604, -0.8486328125, -0.010009765625, 0.03369140625, 
228, 3435305473, -0.2689390778541565, 0.6497288942337036, 0.021693550050258636, 0.710672914981842, 9.70238971710205, -4.02373743057251, 1.4631726741790771, -10.55672836303711, -2.6017661094665527, 2.384570360183716, -0.850341796875, -0.009033203125, 0.03515625, 
229, 3435313806, -0.26885750889778137, 0.6499406695365906, 0.02094707451760769, 0.7105327248573303, 9.769692420959473, -4.560072898864746, 1.4793305397033691, -8.8731050491333, -1.1369646787643433, 6.302036762237549, -0.848876953125, -0.008056640625, 0.03515625, 
230, 3435322139, -0.2692161202430725, 0.6499666571617126, 0.020269853994250298, 0.7103927135467529, 9.782790184020996, -4.819079399108887, 1.4846184253692627, -3.5490834712982178, 0.5330451130867004, 9.903425216674805, -0.849853515625, -0.008544921875, 0.033203125, 
231, 3435330472, -0.27002042531967163, 0.6498479247093201, 0.019771894440054893, 0.7102099061012268, 9.682106018066406, -5.041805744171143, 1.5479744672775269, 2.705850124359131, 1.0439724922180176, 12.797784805297852, -0.851806640625, -0.005615234375, 0.033447265625, 
232, 3435338805, -0.27126064896583557, 0.649637758731842, 0.019570479169487953, 0.709935188293457, 9.565481185913086, -5.472529888153076, 1.5837527513504028, 9.828428268432617, 0.13653671741485596, 14.676717758178711, -0.849853515625, -0.00244140625, 0.034912109375, 
233, 3435347138, -0.2728157043457031, 0.6494228839874268, 0.019738459959626198, 0.7095311880111694, 9.458599090576172, -6.023385047912598, 1.721864938735962, 16.334985733032227, -2.269550085067749, 14.97668743133545, -0.849365234375, -0.00048828125, 0.034423828125, 
234, 3435355471, -0.27457934617996216, 0.6493100523948669, 0.020284665748476982, 0.7089383602142334, 9.382335662841797, -6.632513046264648, 1.8551239967346191, 21.565109252929688, -6.3241071701049805, 14.316560745239258, -0.848388671875, 0.00244140625, 0.034423828125, 
235, 3435363804, -0.2763964533805847, 0.649438202381134, 0.021104393526911736, 0.708090603351593, 9.363054275512695, -7.266772747039795, 2.0736083984375, 23.862096786499023, -11.956657409667969, 13.478362083435059, -0.847900390625, 0.00146484375, 0.038818359375, 
236, 3435372137, -0.2781047523021698, 0.6499567031860352, 0.0219411663711071, 0.7069194316864014, 9.520951271057129, -7.9119873046875, 2.3469882011413574, 21.639039993286133, -18.745460510253906, 13.528260231018066, -0.85009765625, 0.004638671875, 0.038818359375, 
237, 3435380470, -0.2795153260231018, 0.6508951187133789, 0.02227240987122059, 0.7054879069328308, 10.007556915283203, -8.392526626586914, 2.604698896408081, 12.562115669250488, -23.3072566986084, 16.35586929321289, -0.84619140625, 0.004638671875, 0.04296875, 
238, 3435388803, -0.28082749247550964, 0.6521070599555969, 0.02145759016275406, 0.7038708925247192, 10.637998580932617, -8.856844902038574, 2.6485846042633057, -0.4617995619773865, -23.253475189208984, 26.34456443786621, -0.84619140625, 0.0087890625, 0.042724609375, 
239, 3435397136, -0.28245270252227783, 0.6533111333847046, 0.018945841118693352, 0.7021742463111877, 11.138996124267578, -9.40044116973877, 2.747631549835205, -13.994647026062012, -17.237852096557617, 45.008182525634766, -0.848876953125, 0.013916015625, 0.049072265625, 
240, 3435405469, -0.2847401797771454, 0.654342532157898, 0.014299005270004272, 0.7003976702690125, 11.460287094116211, -9.990133285522461, 2.8439955711364746, -27.96663475036621, -7.847754955291748, 70.71070861816406, -0.844482421875, 0.021484375, 0.051025390625, 
241, 3435413802, -0.2878440320491791, 0.655047595500946, 0.007611194625496864, 0.6985720992088318, 11.42033576965332, -10.310836791992188, 2.8553683757781982, -38.99474334716797, 3.0304365158081055, 97.20869445800781, -0.84423828125, 0.0302734375, 0.048828125, 
242, 3435422135, -0.29137617349624634, 0.6555003523826599, -0.0010282602161169052, 0.6967212557792664, 11.446992874145508, -10.911396026611328, 3.070315361022949, -53.124542236328125, 13.07064151763916, 118.76278686523438, -0.84375, 0.044921875, 0.050048828125, 
243, 3435430468, -0.29509466886520386, 0.6558398604393005, -0.011317539028823376, 0.6947426795959473, 11.427916526794434, -11.169684410095215, 3.0570268630981445, -66.560791015625, 19.53769874572754, 136.1482391357422, -0.84375, 0.062255859375, 0.04833984375, 
244, 3435438801, -0.29896464943885803, 0.6561762690544128, -0.022879140451550484, 0.6924823522567749, 11.228473663330078, -10.952095031738281, 2.839789628982544, -77.3803482055664, 22.166704177856445, 150.21409606933594, -0.83740234375, 0.079833984375, 0.046875, 
245, 3435447134, -0.3029309809207916, 0.6566486358642578, -0.035250112414360046, 0.6897864937782288, 11.171974182128906, -10.828839302062988, 2.607973337173462, -85.07312774658203, 20.28956413269043, 159.9459228515625, -0.83642578125, 0.101318359375, 0.046875, 
246, 3435455467, -0.3068959414958954, 0.6573070287704468, -0.04801016300916672, 0.6866292357444763, 11.197821617126465, -10.801711082458496, 2.464933395385742, -89.68974304199219, 15.940789222717285, 165.25973510742188, -0.832763671875, 0.117919921875, 0.048828125, 
247, 3435463800, -0.3108562231063843, 0.6580774784088135, -0.06087678670883179, 0.6830806136131287, 11.269425392150879, -10.882723808288574, 2.2727129459381104, -91.39833068847656, 11.785811424255371, 168.0143585205078, -0.82568359375, 0.141357421875, 0.047607421875, 
248, 3435472133, -0.3150862455368042, 0.6587399840354919, -0.07369542121887207, 0.6792300939559937, 11.576695442199707, -11.341403007507324, 2.0021724700927734, -88.65011596679688, 9.823368072509766, 171.16751098632812, -0.819580078125, 0.16162109375, 0.052001953125, 
249, 3435480466, -0.31992465257644653, 0.6590740084648132, -0.0864797905087471, 0.6751247644424438, 11.858688354492188, -11.70499038696289, 1.8154420852661133, -81.30084228515625, 9.634492874145508, 178.30377197265625, -0.81591796875, 0.18115234375, 0.052734375, 
250, 3435488799, -0.3258097469806671, 0.6588487029075623, -0.09939616918563843, 0.6707379817962646, 12.198988914489746, -12.114194869995117, 1.5307211875915527, -71.13850402832031, 11.744928359985352, 190.79356384277344, -0.81005859375, 0.208251953125, 0.055419921875, 
251, 3435497132, -0.3328738808631897, 0.657944917678833, -0.11267175525426865, 0.6660413146018982, 12.523689270019531, -12.639954566955566, 1.3820987939834595, -60.92792510986328, 15.05996322631836, 207.5692138671875, -0.801025390625, 0.22900390625, 0.059326171875, 
252, 3435505465, -0.34101632237434387, 0.6563860774040222, -0.1265401393175125, 0.660950243473053, 12.784566879272461, -12.855779647827148, 1.3659347295761108, -54.64032745361328, 18.851139068603516, 225.25486755371094, -0.7958984375, 0.256103515625, 0.05810546875, 
253, 3435513798, -0.3499491810798645, 0.6542198657989502, -0.14132943749427795, 0.6554085612297058, 12.96501350402832, -12.583853721618652, 1.4560664892196655, -53.3853645324707, 22.93189239501953, 244.3013916015625, -0.7822265625, 0.28515625, 0.059326171875, 
254, 3435522131, -0.35964474081993103, 0.651587963104248, -0.15704739093780518, 0.6491743326187134, 12.759222984313965, -12.274554252624512, 1.5892387628555298, -54.43825149536133, 24.275693893432617, 263.37939453125, -0.770263671875, 0.31298828125, 0.060302734375, 
255, 3435530464, -0.36943814158439636, 0.6487601399421692, -0.17363712191581726, 0.6422446966171265, 12.599660873413086, -12.6527681350708, 1.7810064554214478, -61.43864440917969, 23.502897262573242, 276.320068359375, -0.75390625, 0.345458984375, 0.061767578125, 
256, 3435538797, -0.37905237078666687, 0.6457985639572144, -0.19100292026996613, 0.6346526741981506, 12.932374954223633, -13.058106422424316, 1.7898585796356201, -71.29358673095703, 23.676265716552734, 284.94866943359375, -0.7373046875, 0.37841796875, 0.0625, 
257, 3435547130, -0.38849663734436035, 0.6425264477729797, -0.20889350771903992, 0.6265749335289001, 13.493709564208984, -13.79077434539795, 1.3600401878356934, -76.54216003417969, 24.725330352783203, 291.8739013671875, -0.72021484375, 0.41259765625, 0.067626953125, 
258, 3435555463, -0.39804190397262573, 0.6387951374053955, -0.22698743641376495, 0.618047297000885, 14.088451385498047, -14.896324157714844, 0.9742918014526367, -76.65330505371094, 26.042171478271484, 297.8852844238281, -0.699462890625, 0.4404296875, 0.0703125, 
259, 3435563796, -0.40785953402519226, 0.6344006061553955, -0.2452710121870041, 0.6091232299804688, 14.915437698364258, -16.030925750732422, 0.6032972931861877, -73.0682144165039, 27.84378433227539, 306.4899597167969, -0.67626953125, 0.472900390625, 0.07470703125, 
260, 3435572129, -0.418476939201355, 0.6291440725326538, -0.26383307576179504, 0.5995410084724426, 15.523237228393555, -16.2790470123291, 0.17495033144950867, -66.12458801269531, 28.715578079223633, 321.869140625, -0.652587890625, 0.505615234375, 0.076171875, 
261, 3435580462, -0.4298589527606964, 0.6229828596115112, -0.28316348791122437, 0.5890116691589355, 15.60780143737793, -16.21141815185547, 0.17112934589385986, -63.75739288330078, 29.098968505859375, 343.910888671875, -0.623046875, 0.53857421875, 0.078857421875, 
262, 3435588795, -0.44208428263664246, 0.6158229112625122, -0.3034532368183136, 0.5772711634635925, 15.293190956115723, -15.775064468383789, 0.23987001180648804, -63.07065200805664, 29.20921516418457, 369.7431640625, -0.596435546875, 0.572998046875, 0.08447265625, 
263, 3435597128, -0.4548967480659485, 0.6077138781547546, -0.324686735868454, 0.5642106533050537, 14.433300018310547, -14.333800315856934, 0.5179876685142517, -65.37732696533203, 28.84327507019043, 394.66595458984375, -0.560546875, 0.60546875, 0.0888671875, 
264, 3435605461, -0.4679189920425415, 0.5988781452178955, -0.34675249457359314, 0.5496923923492432, 13.275253295898438, -13.343207359313965, 0.7019556760787964, -71.99275207519531, 26.579906463623047, 415.394287109375, -0.521728515625, 0.642578125, 0.09130859375, 
265, 3435613794, -0.480594277381897, 0.5897698402404785, -0.3691869378089905, 0.5337640047073364, 12.100998878479004, -13.107223510742188, 0.8742195963859558, -82.66233825683594, 21.04361343383789, 426.4141540527344, -0.4775390625, 0.6748046875, 0.099609375, 
266, 3435622127, -0.4927832782268524, 0.5804364085197449, -0.39163777232170105, 0.5166047215461731, 11.176080703735352, -12.427209854125977, 0.8995078206062317, -91.43668365478516, 15.297774314880371, 432.0838928222656, -0.43505859375, 0.705078125, 0.10791015625, 
267, 3435630460, -0.5047182440757751, 0.5705892443656921, -0.4136125445365906, 0.49861255288124084, 10.063767433166504, -11.758853912353516, 0.9040257334709167, -91.14160919189453, 10.432690620422363, 435.06549072265625, -0.3857421875, 0.734375, 0.118896484375, 
268, 3435638793, -0.5166006684303284, 0.5599489212036133, -0.4347021281719208, 0.4802265167236328, 8.65658950805664, -11.55075740814209, 0.9942240118980408, -82.16593933105469, 6.939159393310547, 434.8831787109375, -0.3359375, 0.75537109375, 0.129150390625, 
269, 3435647126, -0.5286045670509338, 0.5483488440513611, -0.45455846190452576, 0.46181145310401917, 7.651134490966797, -11.22924518585205, 1.0492602586746216, -66.48834228515625, 3.5618624687194824, 432.253173828125, -0.28515625, 0.78173828125, 0.136474609375, 
270, 3435655459, -0.5410088896751404, 0.5354791879653931, -0.4731062352657318, 0.44355857372283936, 7.299901008605957, -10.20226764678955, 0.7905721664428711, -44.870628356933594, 0.8323574662208557, 431.60772705078125, -0.236083984375, 0.79833984375, 0.142578125, 
271, 3435663792, -0.5537139177322388, 0.521308183670044, -0.4904642105102539, 0.42554184794425964, 7.2349066734313965, -9.546680450439453, 0.6376317143440247, -24.22037696838379, -0.29968464374542236, 431.4656677246094, -0.181884765625, 0.81591796875, 0.150146484375, 
272, 3435672125, -0.5662556290626526, 0.5060958862304688, -0.5070032477378845, 0.40764129161834717, 7.135644435882568, -8.536870002746582, 0.6199409365653992, -11.848523139953613, 1.4877773523330688, 430.75311279296875, -0.127197265625, 0.830078125, 0.14990234375, 
273, 3435680458, -0.5779844522476196, 0.49047231674194336, -0.5229880213737488, 0.3896878659725189, 6.838101863861084, -7.2718658447265625, 0.5107265114784241, -11.601055145263672, 4.781571388244629, 425.6399841308594, -0.07421875, 0.8408203125, 0.152587890625, 
274, 3435688791, -0.588699460029602, 0.4749052822589874, -0.5387046337127686, 0.3710763454437256, 6.00322961807251, -5.8209614753723145, 0.5331527590751648, -22.155746459960938, 5.191072463989258, 423.2502746582031, -0.01611328125, 0.849609375, 0.154541015625, 
275, 3435697124, -0.5983690023422241, 0.45960792899131775, -0.5541969537734985, 0.35154423117637634, 4.792399883270264, -4.973917007446289, 0.633786141872406, -36.8730354309082, 3.7398722171783447, 421.875244140625, 0.03857421875, 0.851806640625, 0.156982421875, 
276, 3435705457, -0.6069778203964233, 0.4448816180229187, -0.5691355466842651, 0.3312787711620331, 3.6233584880828857, -5.50607442855835, 0.9816676378250122, -51.16637420654297, -0.1405925750732422, 415.00030517578125, 0.0888671875, 0.85107421875, 0.1611328125, 
277, 3435713790, -0.6147822141647339, 0.4308350086212158, -0.5832135081291199, 0.31030404567718506, 2.860538959503174, -4.840585708618164, 0.6277171969413757, -63.418785095214844, -8.45262622833252, 406.5962219238281, 0.14404296875, 0.84814453125, 0.171630859375, 
278, 3435722123, -0.6222141981124878, 0.4169065058231354, -0.5959957242012024, 0.28953438997268677, 2.435441732406616, -5.041234016418457, 0.21516306698322296, -59.431640625, -15.725817680358887, 394.74700927734375, 0.19775390625, 0.842041015625, 0.1796875, 
279, 3435730456, -0.6293146014213562, 0.40295615792274475, -0.6073442101478577, 0.26967567205429077, 2.315232753753662, -5.199954032897949, 0.1701875627040863, -47.98569869995117, -19.95076560974121, 377.4800720214844, 0.247802734375, 0.831298828125, 0.1826171875, 
280, 3435738789, -0.6360253095626831, 0.3889008164405823, -0.6173362135887146, 0.2512502372264862, 2.2116928100585938, -5.146012783050537, -0.0978105217218399, -32.22004318237305, -20.12308692932129, 357.119384765625, 0.292236328125, 0.8193359375, 0.185791015625, 
281, 3435747122, -0.6422791481018066, 0.3747732639312744, -0.626209020614624, 0.2342805564403534, 2.02836537361145, -4.5731425285339355, -0.20841684937477112, -17.81793212890625, -17.97944450378418, 337.29473876953125, 0.3388671875, 0.80859375, 0.18701171875, 
282, 3435755455, -0.6480837464332581, 0.36049574613571167, -0.6343198418617249, 0.21833768486976624, 1.6395111083984375, -3.678802967071533, -0.4186403751373291, -7.49998140335083, -15.086522102355957, 324.30084228515625, 0.38037109375, 0.795166015625, 0.187744140625, 
283, 3435763788, -0.6533320546150208, 0.3462810516357422, -0.641872763633728, 0.20309731364250183, 1.163458228111267, -4.050254821777344, -0.5440812110900879, -3.02366304397583, -11.890898704528809, 312.8926086425781, 0.419189453125, 0.779296875, 0.188720703125, 
284, 3435772121, -0.6580576300621033, 0.33223026990890503, -0.6489349603652954, 0.18833307921886444, 0.6724393963813782, -4.299520969390869, -0.8338809013366699, -1.4041328430175781, -9.901552200317383, 303.5522155761719, 0.45703125, 0.76318359375, 0.185791015625, 
285, 3435780454, -0.662277102470398, 0.3185198903083801, -0.6555191874504089, 0.17387159168720245, 0.08712862432003021, -4.1436076164245605, -0.860432505607605, -2.866041660308838, -9.181532859802246, 294.0937194824219, 0.49365234375, 0.74755859375, 0.184814453125, 
286, 3435788787, -0.6659994721412659, 0.3052346706390381, -0.6616901755332947, 0.1595153957605362, -0.3769083321094513, -3.1259899139404297, -0.8235011100769043, -6.96919059753418, -9.051189422607422, 286.50750732421875, 0.530029296875, 0.73046875, 0.184814453125, 
287, 3435797120, -0.6693140864372253, 0.2922452688217163, -0.667451798915863, 0.1453341543674469, -0.9131032228469849, -3.2643561363220215, -0.8247911930084229, -8.90937328338623, -8.973925590515137, 279.39239501953125, 0.560302734375, 0.71142578125, 0.18115234375, 
288, 3435805453, -0.6721932291984558, 0.2796972095966339, -0.6727896332740784, 0.13146191835403442, -1.3201358318328857, -3.0052433013916016, -0.8142126798629761, -11.030278205871582, -8.55373477935791, 270.1437072753906, 0.591064453125, 0.6923828125, 0.188232421875, 
289, 3435813786, -0.674711287021637, 0.2674834728240967, -0.6777346134185791, 0.11787929385900497, -1.627223014831543, -2.239908456802368, -0.7428150773048401, -12.127488136291504, -8.296979904174805, 261.9870910644531, 0.6171875, 0.671875, 0.187255859375, 
290, 3435822119, -0.6768454909324646, 0.2556658089160919, -0.6823164224624634, 0.10470089316368103, -2.0497894287109375, -1.8522248268127441, -0.6260321736335754, -12.852130889892578, -7.289172649383545, 252.81033325195312, 0.6474609375, 0.651611328125, 0.1845703125, 
291, 3435830452, -0.6786017417907715, 0.2443431168794632, -0.6865437030792236, 0.09195846319198608, -2.5012989044189453, -1.6908024549484253, -0.6920332312583923, -14.193095207214355, -6.179625988006592, 242.09225463867188, 0.671630859375, 0.631591796875, 0.18359375, 
292, 3435838785, -0.6800028085708618, 0.23372185230255127, -0.6903783082962036, 0.07969250530004501, -2.8536064624786377, -1.53794527053833, -0.8603761792182922, -16.932723999023438, -5.8202362060546875, 229.4813232421875, 0.694091796875, 0.61083984375, 0.18701171875, 
293, 3435847118, -0.6811274886131287, 0.22397255897521973, -0.6937668919563293, 0.06776276230812073, -3.3239541053771973, -1.54438316822052, -0.9534107446670532, -22.299272537231445, -7.198899269104004, 216.09115600585938, 0.718505859375, 0.5908203125, 0.18994140625, 
294, 3435855451, -0.681999146938324, 0.21522256731987, -0.6967400312423706, 0.05578658729791641, -3.7385740280151367, -0.8841648697853088, -0.8234080076217651, -32.48916244506836, -9.80086898803711, 205.7043914794922, 0.739501953125, 0.569580078125, 0.187744140625, 
295, 3435863784, -0.6826391816139221, 0.20721451938152313, -0.6994197964668274, 0.043365128338336945, -4.0902862548828125, -0.7742282748222351, -0.5993527770042419, -44.17998123168945, -12.169537544250488, 201.49789428710938, 0.755126953125, 0.5478515625, 0.18896484375, 
296, 3435872117, -0.6830704808235168, 0.19982823729515076, -0.7018247842788696, 0.030462564900517464, -4.5567169189453125, -1.633470892906189, -0.40856054425239563, -55.070926666259766, -14.539125442504883, 199.34629821777344, 0.773193359375, 0.525634765625, 0.192138671875, 
297, 3435880450, -0.6833953857421875, 0.1928221434354782, -0.7039135098457336, 0.017287801951169968, -4.955129146575928, -2.474796772003174, -0.5726593136787415, -61.435142517089844, -17.333694458007812, 197.0996856689453, 0.790771484375, 0.506591796875, 0.197265625, 
298, 3435888783, -0.6836351752281189, 0.1859990954399109, -0.7057144641876221, 0.0040904805064201355, -5.120490074157715, -3.092639923095703, -0.5890066027641296, -63.52705001831055, -19.379276275634766, 194.97911071777344, 0.806396484375, 0.484375, 0.19970703125, 
299, 3435897116, -0.6839019060134888, 0.17890390753746033, -0.7072436213493347, -0.008984554558992386, -5.3183465003967285, -3.560882568359375, -0.5529884099960327, -59.701133728027344, -21.8077335357666, 195.5550079345703, 0.822021484375, 0.462890625, 0.197021484375, 
300, 3435905449, -0.6843700408935547, 0.17113786935806274, -0.7084356546401978, -0.021700484678149223, -5.624856472015381, -4.482612609863281, -0.6389748454093933, -49.44514083862305, -26.20122528076172, 198.07919311523438, 0.836181640625, 0.437744140625, 0.199951171875, 
301, 3435913782, -0.6851630210876465, 0.16236823797225952, -0.7092523574829102, -0.03393951803445816, -5.941858768463135, -4.66175651550293, -0.5469418168067932, -34.700191497802734, -32.01005935668945, 202.1563262939453, 0.850830078125, 0.415771484375, 0.19677734375, 
302, 3435922115, -0.6861695051193237, 0.15265829861164093, -0.7097621560096741, -0.045904867351055145, -5.973971843719482, -4.263653755187988, -0.2961820960044861, -22.841007232666016, -36.88172912597656, 208.2162628173828, 0.86767578125, 0.389892578125, 0.19384765625, 
303, 3435930448, -0.6870818734169006, 0.14256180822849274, -0.7100858688354492, -0.058097776025533676, -5.812270641326904, -3.164543390274048, 0.1304689198732376, -21.726762771606445, -38.37053298950195, 213.55508422851562, 0.8818359375, 0.3662109375, 0.193115234375, 
304, 3435938781, -0.6874669790267944, 0.13281041383743286, -0.7104280591011047, -0.07102867215871811, -5.636948585510254, -1.3427389860153198, 0.7846751809120178, -33.219688415527344, -34.28828430175781, 217.88331604003906, 0.899169921875, 0.33984375, 0.18603515625, 
305, 3435947114, -0.6868196725845337, 0.12409856915473938, -0.7110795974731445, -0.08512807637453079, -5.455436706542969, 0.02315828576683998, 1.311971664428711, -56.0411376953125, -22.326698303222656, 220.07980346679688, 0.908935546875, 0.31298828125, 0.185791015625, 
306, 3435955447, -0.6848310232162476, 0.11709916591644287, -0.712195098400116, -0.10037440061569214, -5.415562629699707, 1.5851731300354004, 1.6957463026046753, -85.18633270263672, -4.844537734985352, 216.7973175048828, 0.926025390625, 0.2861328125, 0.184814453125, 
307, 3435963780, -0.6814849376678467, 0.11171584576368332, -0.7137855291366577, -0.11666424572467804, -5.488694190979004, 3.617785692214966, 1.8459327220916748, -112.1473617553711, 13.537842750549316, 213.16867065429688, 0.933349609375, 0.2548828125, 0.191650390625, 
308, 3435972113, -0.6769920587539673, 0.10784310847520828, -0.7157192230224609, -0.1334172636270523, -5.8909149169921875, 5.0008320808410645, 1.8702541589736938, -132.07704162597656, 29.664987564086914, 205.296142578125, 0.942138671875, 0.223876953125, 0.201416015625, 
309, 3435980446, -0.671745240688324, 0.10466781258583069, -0.717868447303772, -0.14990171790122986, -5.85972785949707, 6.176072597503662, 1.9788188934326172, -136.63555908203125, 40.829246520996094, 197.38746643066406, 0.944580078125, 0.194580078125, 0.208984375, 
310, 3435988779, -0.6662595272064209, 0.1012539193034172, -0.7201120257377625, -0.1651892066001892, -5.8512749671936035, 7.685004234313965, 1.921256184577942, -122.7802734375, 45.23823928833008, 189.52081298828125, 0.954833984375, 0.164794921875, 0.21630859375, 
311, 3435997112, -0.6611142158508301, 0.09702959656715393, -0.7222954630851746, -0.17834052443504333, -6.4165215492248535, 8.94526481628418, 1.9914748668670654, -93.84471130371094, 42.50332260131836, 176.90809631347656, 0.96044921875, 0.13525390625, 0.22412109375, 
312, 3436005445, -0.6568701267242432, 0.09213976562023163, -0.7241455912590027, -0.18880552053451538, -6.79909610748291, 10.59741497039795, 2.0811402797698975, -60.74211502075195, 32.429344177246094, 156.5927276611328, 0.959716796875, 0.11279296875, 0.232421875, 
313, 3436013778, -0.6538112163543701, 0.08713206648826599, -0.7255101799964905, -0.19640827178955078, -7.052409648895264, 11.958183288574219, 2.154127597808838, -30.914827346801758, 19.604799270629883, 128.06100463867188, 0.963623046875, 0.092041015625, 0.2333984375, 
314, 3436022111, -0.6519100069999695, 0.08280640095472336, -0.7264214754104614, -0.20117366313934326, -7.099501609802246, 12.311503410339355, 2.066873550415039, -8.58761978149414, 9.19486141204834, 92.16609191894531, 0.96728515625, 0.074951171875, 0.2373046875, 
315, 3436030444, -0.6509485244750977, 0.07968016713857651, -0.7269780039787292, -0.2035255879163742, -6.850315570831299, 11.86638355255127, 1.9282463788986206, 4.868985176086426, 2.7185873985290527, 55.45381164550781, 0.970458984375, 0.065185546875, 0.23876953125, 
316, 3436038777, -0.6505637168884277, 0.07799220830202103, -0.7273270487785339, -0.20416173338890076, -6.789161682128906, 10.58092212677002, 1.7286670207977295, 9.193862915039062, 0.9926417469978333, 23.89377784729004, 0.967529296875, 0.063232421875, 0.238037109375, 
317, 3436047110, -0.6504284143447876, 0.07748598605394363, -0.7276469469070435, -0.20364539325237274, -6.844954967498779, 8.17689323425293, 1.2682647705078125, 10.33914852142334, 2.800699234008789, 1.0141574144363403, 0.968505859375, 0.062255859375, 0.239013671875, 
318, 3436055443, -0.650383710861206, 0.07779572159051895, -0.7280098795890808, -0.2023688405752182, -7.326676845550537, 5.286737442016602, 0.5975649952888489, 10.866406440734863, 5.3760199546813965, -14.191685676574707, 0.968505859375, 0.06005859375, 0.23876953125, 
319, 3436063776, -0.6503439545631409, 0.07839179784059525, -0.7284138202667236, -0.2008068710565567, -7.8088274002075195, 2.7246482372283936, 0.06938206404447556, 11.279566764831543, 6.791592597961426, -19.547780990600586, 0.970458984375, 0.064208984375, 0.23828125, 
320, 3436072109, -0.6502310037612915, 0.07863029092550278, -0.7289353609085083, -0.1991805136203766, -8.366393089294434, 0.21043464541435242, -0.3515136241912842, 15.374185562133789, 7.668548107147217, -16.26088523864746, 0.971435546875, 0.065185546875, 0.23828125, 
321, 3436080442, -0.6499682664871216, 0.07837963104248047, -0.7295783758163452, -0.19777727127075195, -9.049546241760254, -1.177920937538147, -0.5432033538818359, 17.67744255065918, 8.66494083404541, -8.773866653442383, 0.96630859375, 0.07177734375, 0.24267578125, 
322, 3436088775, -0.6495285034179688, 0.07758764177560806, -0.7303060293197632, -0.19684725999832153, -9.493982315063477, -1.6244473457336426, -0.658593475818634, 17.811325073242188, 9.225763320922852, 1.4252022504806519, 0.96728515625, 0.0712890625, 0.241943359375, 
323, 3436097108, -0.6488473415374756, 0.0765618160367012, -0.7310877442359924, -0.19659343361854553, -9.663804054260254, -1.0958750247955322, -0.7188004851341248, 12.993362426757812, 10.770149230957031, 10.560136795043945, 0.9677734375, 0.0732421875, 0.239990234375, 
324, 3436105441, -0.6479256749153137, 0.07547710835933685, -0.7319063544273376, -0.19700542092323303, -9.612604141235352, -0.299492746591568, -0.9757394790649414, 6.674457550048828, 12.666807174682617, 17.768779754638672, 0.966796875, 0.07275390625, 0.244384765625, 
325, 3436113774, -0.6469866037368774, 0.07468052208423615, -0.7325810194015503, -0.19788596034049988, -10.423820495605469, -0.40665772557258606, -0.9986153244972229, -1.0196133852005005, 11.840543746948242, 18.95290184020996, 0.96533203125, 0.067138671875, 0.244384765625, 
326, 3436122107, -0.6461080312728882, 0.07455112040042877, -0.7330260872840881, -0.1991526484489441, -10.797223091125488, 0.7285205125808716, -1.1712158918380737, -11.407393455505371, 10.618820190429688, 15.269854545593262, 0.9658203125, 0.064208984375, 0.246337890625, 
327, 3436130440, -0.6452295780181885, 0.07497653365135193, -0.7333188652992249, -0.20075680315494537, -10.411005973815918, 1.5448256731033325, -1.0288116931915283, -20.1566104888916, 10.427818298339844, 12.516071319580078, 0.96728515625, 0.064208984375, 0.247314453125, 
328, 3436138773, -0.6442461013793945, 0.07585374265909195, -0.733565092086792, -0.2026768922805786, -10.141424179077148, 1.9763139486312866, -0.7764343619346619, -27.586360931396484, 12.005657196044922, 11.014795303344727, 0.966796875, 0.059814453125, 0.2509765625, 
329, 3436147106, -0.6430881023406982, 0.07646723836660385, -0.733989417552948, -0.20457878708839417, -9.604065895080566, 2.0953452587127686, -0.7152089476585388, -24.754741668701172, 14.617349624633789, 14.17701530456543, 0.9638671875, 0.055908203125, 0.251953125, 
330, 3436155439, -0.6419075727462769, 0.07638181000947952, -0.7346058487892151, -0.20610061287879944, -9.630393981933594, 2.2994635105133057, -0.7214959859848022, -14.218765258789062, 14.98666763305664, 18.144033432006836, 0.96630859375, 0.056396484375, 0.25439453125, 
331, 3436163772, -0.6409568190574646, 0.07550983875989914, -0.7352718710899353, -0.20700332522392273, -9.943413734436035, 2.2462122440338135, -0.5248075723648071, -0.6408556699752808, 11.517087936401367, 20.0178165435791, 0.966552734375, 0.051513671875, 0.257568359375, 
332, 3436172105, -0.6403759121894836, 0.07394641637802124, -0.7358837127685547, -0.20719146728515625, -9.974438667297363, 2.5552978515625, -0.42921343445777893, 12.911091804504395, 6.084280014038086, 19.608346939086914, 0.96533203125, 0.049560546875, 0.260009765625, 
333, 3436180438, -0.640079915523529, 0.07180686295032501, -0.7364904284477234, -0.20670266449451447, -9.59765338897705, 2.865309715270996, -0.31364870071411133, 25.106197357177734, 2.1893019676208496, 18.654172897338867, 0.965576171875, 0.046142578125, 0.259033203125, 
334, 3436188771, -0.6399478316307068, 0.06945190578699112, -0.7370749711990356, -0.20583060383796692, -9.334802627563477, 3.3821358680725098, -0.24931694567203522, 30.98716163635254, 0.11772315204143524, 16.976316452026367, 0.966064453125, 0.044921875, 0.257080078125, 
335, 3436197104, -0.6398766040802002, 0.0672503411769867, -0.7376312017440796, -0.20478776097297668, -9.100006103515625, 3.9150192737579346, -0.18352779746055603, 31.34281349182129, -0.1665567308664322, 13.717947959899902, 0.966552734375, 0.046142578125, 0.259521484375, 
336, 3436205437, -0.639862596988678, 0.06561402976512909, -0.738065242767334, -0.20379619300365448, -9.054959297180176, 4.4481635093688965, -0.2759174406528473, 25.563919067382812, -0.2588448226451874, 8.15091609954834, 0.965087890625, 0.04443359375, 0.255615234375, 
337, 3436213770, -0.6399015188217163, 0.06473341584205627, -0.7383519411087036, -0.2029152363538742, -8.939071655273438, 4.807570457458496, -0.5305001139640808, 17.420528411865234, -0.0944012925028801, 1.1823278665542603, 0.964599609375, 0.045654296875, 0.257568359375, 
338, 3436222103, -0.6400102972984314, 0.06459861993789673, -0.7385066151618958, -0.20205046236515045, -8.952255249023438, 4.319097995758057, -0.7498076558113098, 10.395037651062012, 0.1259067803621292, -6.585599422454834, 0.966064453125, 0.048095703125, 0.255126953125, 
339, 3436230436, -0.640171229839325, 0.06501178443431854, -0.738599419593811, -0.20106709003448486, -8.82265567779541, 3.916008949279785, -0.9671887755393982, 6.643181800842285, 0.6529838442802429, -13.370723724365234, 0.962646484375, 0.048095703125, 0.25732421875, 
340, 3436238769, -0.6404576301574707, 0.06574063748121262, -0.7385966777801514, -0.19992423057556152, -8.968409538269043, 3.39730167388916, -1.0382095575332642, 5.341542720794678, -0.42162325978279114, -18.45018196105957, 0.961669921875, 0.04736328125, 0.25537109375, 
341, 3436247102, -0.6409446597099304, 0.06667015701532364, -0.7384462952613831, -0.1986074596643448, -9.299726486206055, 2.5369842052459717, -1.0241045951843262, 5.105559825897217, -3.0734145641326904, -22.667287826538086, 0.9638671875, 0.051025390625, 0.25830078125, 
342, 3436255435, -0.6416000127792358, 0.06760168075561523, -0.7381870746612549, -0.197134330868721, -9.099185943603516, 2.17639422416687, -1.0152298212051392, 6.544363975524902, -5.570087432861328, -24.67073631286621, 0.96484375, 0.056884765625, 0.25439453125, 
343, 3436263768, -0.6423458456993103, 0.06843796372413635, -0.7378804087638855, -0.1955585777759552, -8.98115062713623, 2.115147829055786, -0.9315946698188782, 8.371199607849121, -7.094852924346924, -24.85236930847168, 0.96240234375, 0.058837890625, 0.255126953125, 
344, 3436272101, -0.643143892288208, 0.0691625326871872, -0.7375530004501343, -0.19390906393527985, -8.99460506439209, 2.236896276473999, -0.8272300362586975, 10.1094331741333, -8.014071464538574, -24.579345703125, 0.9638671875, 0.06298828125, 0.256591796875, 
345, 3436280434, -0.6439917683601379, 0.06987473368644714, -0.7372167706489563, -0.1921098679304123, -8.908254623413086, 2.5016849040985107, -0.6569100618362427, 11.751180648803711, -8.511962890625, -25.869516372680664, 0.964599609375, 0.068359375, 0.254150390625, 
346, 3436288767, -0.644881546497345, 0.07066687941551208, -0.736872673034668, -0.19014503061771393, -8.815157890319824, 3.031806468963623, -0.5261056423187256, 12.752365112304688, -8.611167907714844, -28.317649841308594, 0.963623046875, 0.07080078125, 0.2529296875, 
347, 3436297100, -0.6458024382591248, 0.07163310796022415, -0.7365480065345764, -0.18790343403816223, -8.775579452514648, 3.601623773574829, -0.3520784378051758, 14.083464622497559, -8.055366516113281, -32.54631805419922, 0.964599609375, 0.075927734375, 0.2490234375, 
348, 3436305433, -0.6467545628547668, 0.07281722873449326, -0.7362676858901978, -0.18525336682796478, -8.587987899780273, 4.154031276702881, -0.20164303481578827, 16.441804885864258, -6.985410213470459, -38.481082916259766, 0.964111328125, 0.079833984375, 0.24609375, 
349, 3436313766, -0.6477514505386353, 0.0742168202996254, -0.7360587120056152, -0.18201692402362823, -8.352758407592773, 4.718526363372803, -0.11841010302305222, 20.678800582885742, -5.693864822387695, -45.85835647583008, 0.964111328125, 0.08642578125, 0.249755859375, 
350, 3436322099, -0.6488690376281738, 0.07583608478307724, -0.7358716726303101, -0.17808295786380768, -8.156869888305664, 5.3200812339782715, -0.02979942411184311, 25.972673416137695, -5.428442478179932, -54.65703582763672, 0.9619140625, 0.09521484375, 0.24853515625, 
351, 3436330432, -0.6502131819725037, 0.07774971425533295, -0.7356207966804504, -0.17332835495471954, -7.964199542999268, 5.817198276519775, 0.09296951442956924, 31.7183837890625, -6.7453484535217285, -65.49632263183594, 0.96044921875, 0.103515625, 0.244384765625, 
352, 3436338765, -0.6518460512161255, 0.08009187877178192, -0.735234260559082, -0.16767650842666626, -7.715268611907959, 6.269527912139893, 0.32052770256996155, 36.96445846557617, -8.861879348754883, -78.8006591796875, 0.960693359375, 0.112548828125, 0.24609375, 
353, 3436347098, -0.6537967920303345, 0.08308082073926926, -0.7346434593200684, -0.16108699142932892, -7.430508136749268, 6.629481792449951, 0.546048641204834, 40.5102424621582, -11.418126106262207, -94.59052276611328, 0.95458984375, 0.12646484375, 0.2431640625, 
354, 3436355431, -0.6560981869697571, 0.08689224720001221, -0.7337548136711121, -0.1535947173833847, -7.083162307739258, 6.969350337982178, 0.7244266867637634, 41.995487213134766, -14.743986129760742, -112.2825927734375, 0.954345703125, 0.140869140625, 0.240966796875, 
355, 3436363764, -0.6587514877319336, 0.0916702002286911, -0.7325019836425781, -0.14521127939224243, -6.576393127441406, 7.159708023071289, 0.9192186594009399, 41.89945602416992, -18.5172176361084, -131.1066131591797, 0.9501953125, 0.15625, 0.238037109375, 
356, 3436372097, -0.6617185473442078, 0.09740286320447922, -0.7308689951896667, -0.13592025637626648, -6.076610565185547, 6.891503810882568, 1.0447584390640259, 42.05158233642578, -22.016672134399414, -150.24661254882812, 0.948486328125, 0.1728515625, 0.236572265625, 
357, 3436380430, -0.6648669838905334, 0.10401533544063568, -0.7289419770240784, -0.12561403214931488, -5.361015319824219, 6.497307300567627, 1.2104294300079346, 43.92057418823242, -23.56580352783203, -168.86480712890625, 0.942626953125, 0.198486328125, 0.232421875, 
358, 3436388763, -0.6679860949516296, 0.11144829541444778, -0.7268242239952087, -0.11446908116340637, -4.533966541290283, 6.282962799072266, 1.4602254629135132, 44.47825241088867, -22.338319778442383, -185.2241668701172, 0.93603515625, 0.22021484375, 0.226806640625, 
359, 3436397096, -0.6708251237869263, 0.11968976259231567, -0.724652111530304, -0.10271308571100235, -3.8597803115844727, 5.986289978027344, 1.6477755308151245, 42.620418548583984, -17.888700485229492, -198.31915283203125, 0.931640625, 0.2451171875, 0.22216796875, 
360, 3436405429, -0.6732167601585388, 0.1283951848745346, -0.7225705981254578, -0.09048902243375778, -3.2737691402435303, 5.392724990844727, 1.517769694328308, 42.41851043701172, -11.095436096191406, -206.76419067382812, 0.91943359375, 0.269287109375, 0.2197265625, 
361, 3436413762, -0.6750810742378235, 0.1373303234577179, -0.7206678986549377, -0.07775825262069702, -2.9653940200805664, 4.682515621185303, 1.3391362428665161, 44.597259521484375, -3.091907262802124, -212.4836883544922, 0.9111328125, 0.299072265625, 0.21630859375, 
362, 3436422095, -0.6764537692070007, 0.14632120728492737, -0.7189132571220398, -0.0645490437746048, -2.919499158859253, 4.087127208709717, 1.1099741458892822, 48.06863784790039, 4.1980485916137695, -216.99526977539062, 0.8994140625, 0.324951171875, 0.2158203125, 
363, 3436430428, -0.6774379014968872, 0.15549296140670776, -0.7171626091003418, -0.05079815164208412, -3.0437376499176025, 3.177696466445923, 0.8900541067123413, 50.94538879394531, 9.247589111328125, -223.1468048095703, 0.88427734375, 0.354248046875, 0.217529296875, 
364, 3436438761, -0.6781137585639954, 0.1649288535118103, -0.7152886390686035, -0.036399200558662415, -3.171635389328003, 2.2932543754577637, 0.6792270541191101, 54.14676284790039, 12.794631958007812, -232.19097900390625, 0.870361328125, 0.381591796875, 0.218017578125, 
365, 3436447094, -0.6785153746604919, 0.17470377683639526, -0.7131929397583008, -0.021306440234184265, -3.1998610496520996, 1.6793298721313477, 0.5349149107933044, 57.061527252197266, 15.081884384155273, -242.0110321044922, 0.854248046875, 0.40869140625, 0.211181640625, 
366, 3436455427, -0.6787147521972656, 0.18493399024009705, -0.7107152342796326, -0.005671324208378792, -3.331315517425537, 0.990619957447052, 0.41846591234207153, 57.54545593261719, 15.024961471557617, -252.7669677734375, 0.834716796875, 0.43701171875, 0.21337890625, 
367, 3436463760, -0.6787628531455994, 0.19578927755355835, -0.7077012658119202, 0.010455464944243431, -3.5101730823516846, 0.296075701713562, 0.3599892258644104, 56.08064270019531, 12.709924697875977, -264.4499816894531, 0.81787109375, 0.46728515625, 0.2099609375, 
368, 3436472093, -0.6787106990814209, 0.20733769237995148, -0.7040159106254578, 0.026967830955982208, -3.553250312805176, -0.5292552709579468, 0.3106640875339508, 53.194087982177734, 8.443467140197754, -276.9996643066406, 0.797119140625, 0.496337890625, 0.2080078125, 
369, 3436480426, -0.6785163879394531, 0.21955706179141998, -0.6996400952339172, 0.043778128921985626, -3.3809423446655273, -1.5349856615066528, 0.3524777889251709, 49.66360092163086, 3.888981580734253, -287.9178161621094, 0.771728515625, 0.52685546875, 0.206298828125, 
370, 3436488759, -0.6781288385391235, 0.23216697573661804, -0.6946629881858826, 0.060709260404109955, -3.122420072555542, -2.117555856704712, 0.33311861753463745, 46.95616149902344, 0.3511347472667694, -295.1214904785156, 0.748046875, 0.556396484375, 0.2021484375, 
371, 3436497092, -0.6775084733963013, 0.24494323134422302, -0.6891695857048035, 0.07767226547002792, -2.9008305072784424, -2.718156576156616, 0.3783133327960968, 45.40035629272461, -2.358747959136963, -298.46661376953125, 0.717529296875, 0.5869140625, 0.19677734375, 
372, 3436505425, -0.6765917539596558, 0.25770261883735657, -0.6832913160324097, 0.09449168294668198, -2.6334285736083984, -3.5693655014038086, 0.4723195731639862, 43.597354888916016, -3.5199856758117676, -298.9599304199219, 0.6904296875, 0.611572265625, 0.197509765625, 
373, 3436513758, -0.6753728985786438, 0.2701807916164398, -0.677117645740509, 0.11130253970623016, -2.3193418979644775, -4.571837425231934, 0.5073701739311218, 45.45957946777344, -3.176008701324463, -297.29815673828125, 0.663818359375, 0.640625, 0.193359375, 
374, 3436522091, -0.6739284992218018, 0.2820557653903961, -0.6707040071487427, 0.12815475463867188, -2.0783028602600098, -5.156935691833496, 0.4976750314235687, 50.95160675048828, -2.1498427391052246, -293.66180419921875, 0.627685546875, 0.6640625, 0.185546875, 
375, 3436530424, -0.6722689867019653, 0.2931886911392212, -0.6641160845756531, 0.145076721906662, -1.8603929281234741, -5.530542850494385, 0.5327080488204956, 57.96894836425781, -0.2814449965953827, -288.1606140136719, 0.59716796875, 0.6875, 0.181640625, 
376, 3436538757, -0.6703264713287354, 0.30375921726226807, -0.6573776602745056, 0.162017822265625, -1.6688235998153687, -6.342964172363281, 0.6578424572944641, 62.46833038330078, 2.1861464977264404, -284.70709228515625, 0.57177734375, 0.71044921875, 0.175048828125, 
377, 3436547090, -0.6678515672683716, 0.3142811059951782, -0.6505787968635559, 0.17875027656555176, -1.4189649820327759, -6.55965518951416, 0.9485982060432434, 58.97535705566406, 5.605154037475586, -283.4449157714844, 0.5380859375, 0.730712890625, 0.16943359375, 
378, 3436555423, -0.6646609902381897, 0.3250260651111603, -0.6438984274864197, 0.19488732516765594, -1.1983290910720825, -6.261711597442627, 1.193460464477539, 48.168025970458984, 10.047151565551758, -281.52825927734375, 0.502197265625, 0.748291015625, 0.163818359375, 
379, 3436563756, -0.660565972328186, 0.3362922668457031, -0.6374800801277161, 0.2101946771144867, -0.9892617464065552, -6.059558868408203, 1.3521006107330322, 31.358612060546875, 15.269415855407715, -279.50347900390625, 0.472412109375, 0.76513671875, 0.161376953125, 
380, 3436572089, -0.6554904580116272, 0.3482763171195984, -0.6313231587409973, 0.22465434670448303, -0.6883192658424377, -6.353460788726807, 1.2067904472351074, 12.055216789245605, 20.319684982299805, -280.0032653808594, 0.436767578125, 0.77978515625, 0.159423828125, 
381, 3436580422, -0.6495359539985657, 0.36112722754478455, -0.625104546546936, 0.23861517012119293, -0.5526750087738037, -7.035333156585693, 0.8440988659858704, -4.0498270988464355, 22.253530502319336, -285.7623291015625, 0.40185546875, 0.792724609375, 0.1611328125, 
382, 3436588755, -0.6428946852684021, 0.37485888600349426, -0.6184704303741455, 0.25231707096099854, -0.534007728099823, -7.730387210845947, 0.5412207841873169, -16.2629451751709, 20.34395408630371, -295.5920104980469, 0.36376953125, 0.803466796875, 0.16552734375, 
383, 3436597088, -0.6357870697975159, 0.3891134560108185, -0.6111671328544617, 0.26616325974464417, -0.18275798857212067, -8.504162788391113, 0.2861579954624176, -19.66885757446289, 17.25166130065918, -306.13226318359375, 0.33203125, 0.81640625, 0.1669921875, 
384, 3436605421, -0.6285825371742249, 0.40323761105537415, -0.6029688119888306, 0.28056108951568604, 0.29814305901527405, -9.79330062866211, 0.01654110848903656, -11.217867851257324, 13.7373628616333, -315.2227783203125, 0.289794921875, 0.826904296875, 0.171630859375, 
385, 3436613754, -0.6217384338378906, 0.4166190028190613, -0.5935940146446228, 0.295835942029953, 0.732921838760376, -11.092763900756836, -0.35966089367866516, 9.09809684753418, 8.239020347595215, -321.56280517578125, 0.246826171875, 0.82958984375, 0.173583984375, 
386, 3436622087, -0.6159265637397766, 0.42835378646850586, -0.5828633308410645, 0.31212273240089417, 1.2045376300811768, -12.851175308227539, -0.721081554889679, 42.778194427490234, 0.7763494253158569, -320.5146179199219, 0.206787109375, 0.83447265625, 0.170166015625, 
387, 3436630420, -0.6112911701202393, 0.4384196698665619, -0.5707336664199829, 0.3292066752910614, 1.5561240911483765, -13.604162216186523, -0.8525187373161316, 76.33130645751953, -8.705096244812012, -316.90765380859375, 0.16455078125, 0.840576171875, 0.161376953125, 
388, 3436638753, -0.6077807545661926, 0.4469741880893707, -0.5574838519096375, 0.346454918384552, 1.8377044200897217, -13.7505521774292, -0.8809903860092163, 102.0863037109375, -19.07278060913086, -308.2071838378906, 0.12548828125, 0.846923828125, 0.150146484375, 
389, 3436647086, -0.6050681471824646, 0.4542764723300934, -0.5435984134674072, 0.36335742473602295, 2.5127058029174805, -14.356806755065918, -0.7452185153961182, 117.92950439453125, -26.70719337463379, -295.70220947265625, 0.087158203125, 0.85009765625, 0.136474609375, 
390, 3436655419, -0.6027307510375977, 0.46072959899902344, -0.5295690298080444, 0.3794775605201721, 3.1681008338928223, -14.10224723815918, -0.6919883489608765, 122.11508178710938, -31.323766708374023, -281.929931640625, 0.05126953125, 0.852294921875, 0.12060546875, 
391, 3436663752, -0.6001852750778198, 0.46692365407943726, -0.5159420967102051, 0.39441901445388794, 3.4101099967956543, -12.865392684936523, -0.612773597240448, 112.3536605834961, -32.61848068237305, -268.74053955078125, 0.013916015625, 0.853759765625, 0.10595703125, 
392, 3436672085, -0.5968078970909119, 0.4735255241394043, -0.503089189529419, 0.40804144740104675, 3.579620122909546, -11.793694496154785, -0.4301299452781677, 89.99596405029297, -30.98581886291504, -260.2980041503906, -0.01806640625, 0.8544921875, 0.0908203125, 
393, 3436680418, -0.592146635055542, 0.48099470138549805, -0.491178423166275, 0.4204197824001312, 3.919316530227661, -11.432641983032227, -0.42662835121154785, 60.71403121948242, -27.36241340637207, -257.1471862792969, -0.053955078125, 0.850341796875, 0.084228515625, 
394, 3436688751, -0.5861021280288696, 0.4895379841327667, -0.47988036274909973, 0.4319190979003906, 4.03509521484375, -11.406367301940918, -0.4920288026332855, 33.251548767089844, -25.036334991455078, -261.14971923828125, -0.085693359375, 0.846923828125, 0.07568359375, 
395, 3436697084, -0.5786942839622498, 0.49925893545150757, -0.4689091742038727, 0.4426962733268738, 3.9812166690826416, -10.977059364318848, -0.5027824640274048, 7.957818508148193, -25.2795467376709, -269.0379638671875, -0.1201171875, 0.83740234375, 0.0732421875, 
396, 3436705417, -0.5701920390129089, 0.5099846124649048, -0.4578631520271301, 0.4529463052749634, 4.145874977111816, -10.75137710571289, -0.6256710886955261, -10.574055671691895, -28.541582107543945, -278.4173583984375, -0.152587890625, 0.825927734375, 0.076904296875, 
397, 3436713750, -0.5612884163856506, 0.5210767984390259, -0.4461398422718048, 0.4630291163921356, 4.5517048835754395, -12.017346382141113, -0.6959185004234314, -13.01757526397705, -34.79160690307617, -286.74755859375, -0.185546875, 0.819580078125, 0.077880859375, 
398, 3436722083, -0.5527933239936829, 0.5317568778991699, -0.4332078695297241, 0.4732731878757477, 4.89699649810791, -13.443256378173828, -0.5535408854484558, 1.7094581127166748, -42.841522216796875, -291.4028015136719, -0.221435546875, 0.8076171875, 0.08203125, 
399, 3436730416, -0.5452479124069214, 0.5414175391197205, -0.4189063012599945, 0.4838303029537201, 5.085143566131592, -13.679089546203613, -0.39107152819633484, 27.250455856323242, -49.994964599609375, -291.666748046875, -0.259033203125, 0.792724609375, 0.0830078125, 
400, 3436738749, -0.5388244986534119, 0.5497156381607056, -0.4033641815185547, 0.4947531521320343, 5.625630855560303, -14.086538314819336, -0.14279818534851074, 56.128082275390625, -53.96538543701172, -288.172607421875, -0.2890625, 0.78076171875, 0.076416015625, 
401, 3436747082, -0.5336481928825378, 0.5563550591468811, -0.3873290419578552, 0.505635678768158, 6.669797420501709, -14.213863372802734, 0.32927149534225464, 81.03215026855469, -53.56209945678711, -274.0705261230469, -0.32470703125, 0.76611328125, 0.07470703125, 
402, 3436755415, -0.529669463634491, 0.5614005923271179, -0.3713052570819855, 0.5161537528038025, 6.505818843841553, -13.3060884475708, 0.42874017357826233, 99.82604217529297, -51.55234146118164, -254.2954864501953, -0.35498046875, 0.749755859375, 0.066162109375, 
403, 3436763748, -0.5262996554374695, 0.5654144883155823, -0.35563015937805176, 0.5261605978012085, 6.702592849731445, -11.980610847473145, 0.5872495770454407, 107.0040054321289, -48.75663375854492, -238.481689453125, -0.3828125, 0.734619140625, 0.058349609375, 
404, 3436772081, -0.5227173566818237, 0.5691007971763611, -0.3407055139541626, 0.5355495810508728, 7.065433025360107, -10.594815254211426, 0.9173003435134888, 99.23033142089844, -44.70311737060547, -227.8819580078125, -0.408447265625, 0.720458984375, 0.048095703125, 
405, 3436780414, -0.5180875062942505, 0.5731772184371948, -0.3268783688545227, 0.5442485809326172, 7.075613498687744, -9.296564102172852, 1.239558219909668, 76.94928741455078, -40.191776275634766, -224.10165405273438, -0.432861328125, 0.7060546875, 0.0400390625, 
406, 3436788747, -0.5119293928146362, 0.5780628323554993, -0.3141586482524872, 0.5523394346237183, 7.24625301361084, -8.536772727966309, 1.4360207319259644, 48.078147888183594, -36.258819580078125, -225.85379028320312, -0.459716796875, 0.6904296875, 0.03173828125, 
407, 3436797080, -0.5042466521263123, 0.583759069442749, -0.30235904455184937, 0.5599484443664551, 7.692720413208008, -8.325632095336914, 1.457305908203125, 21.21720314025879, -33.207176208496094, -230.48992919921875, -0.480712890625, 0.6728515625, 0.031982421875, 
408, 3436805413, -0.49529191851615906, 0.5900845527648926, -0.29103541374206543, 0.5672629475593567, 8.02501106262207, -8.511470794677734, 1.4171661138534546, 1.71617591381073, -31.799339294433594, -236.7423858642578, -0.504150390625, 0.653564453125, 0.0361328125, 
409, 3436813746, -0.4853547215461731, 0.5967589020729065, -0.27982664108276367, 0.5744643211364746, 8.472002029418945, -8.642085075378418, 1.4343701601028442, -9.945514678955078, -30.751123428344727, -244.39903259277344, -0.52978515625, 0.6337890625, 0.039306640625, 
410, 3436822079, -0.4748472273349762, 0.6033970713615417, -0.26839402318000793, 0.5817212462425232, 8.909931182861328, -8.901846885681152, 1.342615008354187, -12.439047813415527, -29.280277252197266, -250.6431427001953, -0.55029296875, 0.610595703125, 0.040283203125, 
411, 3436830412, -0.4643884301185608, 0.6094895601272583, -0.2564742863178253, 0.5891429781913757, 9.424522399902344, -9.598631858825684, 1.249821662902832, -3.9301669597625732, -26.93916893005371, -253.68899536132812, -0.5732421875, 0.5908203125, 0.044189453125, 
412, 3436838745, -0.45436331629753113, 0.6148083806037903, -0.2439805120229721, 0.5966915488243103, 9.721278190612793, -9.961158752441406, 1.2785098552703857, 9.70946216583252, -24.76906967163086, -252.7042694091797, -0.598876953125, 0.564208984375, 0.04736328125, 
413, 3436847078, -0.44512709975242615, 0.6191275715827942, -0.23113510012626648, 0.6042532920837402, 10.16272258758545, -10.045071601867676, 1.4122477769851685, 25.590232849121094, -21.331953048706055, -246.29421997070312, -0.62060546875, 0.540283203125, 0.04443359375, 
414, 3436855411, -0.43700098991394043, 0.6222550868988037, -0.2183421403169632, 0.6116845607757568, 10.73957633972168, -9.793339729309082, 1.5442143678665161, 41.450687408447266, -15.711824417114258, -231.64549255371094, -0.642578125, 0.517578125, 0.04443359375, 
415, 3436863744, -0.43006643652915955, 0.6242957711219788, -0.205892875790596, 0.6187958121299744, 10.779570579528809, -9.46747875213623, 1.5481488704681396, 54.3615837097168, -10.857086181640625, -213.8832244873047, -0.661376953125, 0.4951171875, 0.04248046875, 
416, 3436872077, -0.4238707721233368, 0.6256590485572815, -0.19360923767089844, 0.6256217360496521, 10.729843139648438, -9.62656307220459, 1.7663295269012451, 62.457881927490234, -8.60810661315918, -202.15158081054688, -0.67529296875, 0.473876953125, 0.037353515625, 
417, 3436880410, -0.4179793894290924, 0.6268323063850403, -0.18135297298431396, 0.6320508718490601, 10.690115928649902, -9.51619815826416, 2.2202775478363037, 64.9285659790039, -11.08354663848877, -196.89413452148438, -0.6923828125, 0.4541015625, 0.033935546875, 
418, 3436888743, -0.4119330048561096, 0.6281552314758301, -0.16896601021289825, 0.6381106972694397, 10.445601463317871, -9.310158729553223, 2.6509201526641846, 62.9075927734375, -15.878610610961914, -197.18634033203125, -0.706298828125, 0.432861328125, 0.02978515625, 
419, 3436897076, -0.4054017961025238, 0.6297348141670227, -0.15646715462207794, 0.643897533416748, 10.568131446838379, -9.157693862915039, 2.9695842266082764, 57.65151596069336, -20.05063819885254, -201.88894653320312, -0.718994140625, 0.4111328125, 0.022216796875, 
420, 3436905409, -0.3981921374797821, 0.6315560936927795, -0.1439538300037384, 0.6495072841644287, 10.831939697265625, -8.81850814819336, 3.0696442127227783, 50.13241195678711, -22.28746223449707, -207.11209106445312, -0.735595703125, 0.385498046875, 0.02392578125, 
421, 3436913742, -0.39028072357177734, 0.6335963606834412, -0.13177509605884552, 0.6548852324485779, 10.825125694274902, -8.355469703674316, 3.024732828140259, 39.43526840209961, -23.095298767089844, -210.08216857910156, -0.749267578125, 0.361083984375, 0.021728515625, 
422, 3436922075, -0.3815194368362427, 0.6357836127281189, -0.12005776166915894, 0.6601598858833313, 11.073860168457031, -8.12671947479248, 2.938281297683716, 26.84577751159668, -21.24595832824707, -212.97109985351562, -0.7587890625, 0.336669921875, 0.02587890625, 
423, 3436930408, -0.3718665540218353, 0.6381489634513855, -0.10906500369310379, 0.6652734279632568, 11.162147521972656, -8.007750511169434, 2.8197460174560547, 11.324556350708008, -19.051395416259766, -214.63633728027344, -0.771484375, 0.3134765625, 0.025634765625, 
424, 3436938741, -0.3612997233867645, 0.640687108039856, -0.09882870316505432, 0.6702372431755066, 11.10422420501709, -8.127391815185547, 2.6684460639953613, -4.782297134399414, -16.656417846679688, -215.38726806640625, -0.78369140625, 0.285400390625, 0.021728515625, 
425, 3436947074, -0.349960595369339, 0.6433943510055542, -0.08932730555534363, 0.6749774217605591, 10.979249000549316, -8.454682350158691, 2.585392713546753, -19.44734001159668, -15.537035942077637, -215.61338806152344, -0.792236328125, 0.2587890625, 0.029296875, 
426, 3436955407, -0.3380274176597595, 0.6461846828460693, -0.08028179407119751, 0.6795147657394409, 10.793387413024902, -8.879923820495605, 2.4728047847747803, -30.046579360961914, -14.859465599060059, -215.83265686035156, -0.802001953125, 0.229736328125, 0.02685546875, 
427, 3436963740, -0.3257330060005188, 0.6489457488059998, -0.07151356339454651, 0.6838536858558655, 10.737873077392578, -9.34681510925293, 2.3723435401916504, -35.46928024291992, -14.98071002960205, -216.1780548095703, -0.8115234375, 0.19970703125, 0.031005859375, 
428, 3436972073, -0.3134830594062805, 0.6515452265739441, -0.0626700222492218, 0.6879622936248779, 10.819036483764648, -9.72757339477539, 2.31890606880188, -34.45127868652344, -15.553281784057617, -214.8793182373047, -0.820068359375, 0.1767578125, 0.032470703125, 
429, 3436980406, -0.30159422755241394, 0.6538562774658203, -0.053763069212436676, 0.6918272376060486, 10.881317138671875, -9.726533889770508, 2.2114081382751465, -28.99860954284668, -15.934233665466309, -211.09335327148438, -0.826416015625, 0.145751953125, 0.03369140625, 
430, 3436988739, -0.29040777683258057, 0.6558261513710022, -0.04467202350497246, 0.6953864693641663, 10.846663475036621, -9.645687103271484, 2.0479702949523926, -20.402040481567383, -16.389240264892578, -204.21359252929688, -0.83349609375, 0.12109375, 0.034423828125, 
431, 3436997072, -0.280017614364624, 0.6574701070785522, -0.035573601722717285, 0.6986130475997925, 10.794032096862793, -9.598909378051758, 1.9450514316558838, -11.391294479370117, -17.122007369995117, -195.4677276611328, -0.834228515625, 0.095703125, 0.041748046875, 
432, 3437005405, -0.2705947160720825, 0.658818244934082, -0.026544181630015373, 0.7014521956443787, 10.917688369750977, -9.496403694152832, 1.928331971168518, -2.9585580825805664, -17.7359561920166, -183.59742736816406, -0.841064453125, 0.066162109375, 0.041015625, 
433, 3437013738, -0.2622855007648468, 0.6598612666130066, -0.017845822498202324, 0.7038988471031189, 11.034797668457031, -9.347970008850098, 1.9434950351715088, 5.529624938964844, -17.776857376098633, -168.59828186035156, -0.8447265625, 0.044677734375, 0.043701171875, 
434, 3437022071, -0.2552316188812256, 0.6605871319770813, -0.009513873606920242, 0.7059699296951294, 11.029844284057617, -9.190143585205078, 1.9784014225006104, 13.810033798217773, -16.873777389526367, -151.40914916992188, -0.848876953125, 0.023681640625, 0.0419921875, 
435, 3437030404, -0.24926553666591644, 0.661013662815094, -0.0017108023166656494, 0.7077621817588806, 10.89969539642334, -8.879849433898926, 1.9720302820205688, 20.18730926513672, -15.01544189453125, -135.30499267578125, -0.84814453125, -0.000732421875, 0.0439453125, 
436, 3437038737, -0.24408045411109924, 0.661200761795044, 0.005542410537600517, 0.7093729376792908, 10.84140682220459, -8.484859466552734, 2.040353536605835, 22.36397933959961, -12.347562789916992, -121.80300903320312, -0.850830078125, -0.015625, 0.0478515625, 
437, 3437047070, -0.2393483817577362, 0.661121666431427, 0.01207321509718895, 0.7109763026237488, 10.824074745178223, -8.154253959655762, 2.162731409072876, 20.717090606689453, -7.4791340827941895, -111.08418273925781, -0.8505859375, -0.03076171875, 0.04833984375, 
438, 3437055403, -0.2348143309354782, 0.6608251929283142, 0.017850736156105995, 0.7126402854919434, 10.62924575805664, -7.900851726531982, 2.266077995300293, 15.475332260131836, -2.1873741149902344, -102.29756927490234, -0.848876953125, -0.047607421875, 0.046630859375, 
439, 3437063736, -0.2302841991186142, 0.6603742241859436, 0.022786704823374748, 0.7143938541412354, 10.357748985290527, -7.775743007659912, 2.274232864379883, 8.122096061706543, 2.756382703781128, -95.17764282226562, -0.8486328125, -0.0576171875, 0.04833984375, 
440, 3437072069, -0.22574320435523987, 0.6598381996154785, 0.026942681521177292, 0.7161915302276611, 10.24639892578125, -7.607920169830322, 2.321343421936035, 0.2601783573627472, 6.5394744873046875, -88.1639633178711, -0.853271484375, -0.07177734375, 0.046875, 
441, 3437080402, -0.22125688195228577, 0.6593096852302551, 0.03034360706806183, 0.7179401516914368, 9.991449356079102, -7.5675272941589355, 2.3193631172180176, -6.3287248611450195, 8.30368423461914, -80.82184600830078, -0.849609375, -0.081298828125, 0.044921875, 
442, 3437088735, -0.21678978204727173, 0.6588804721832275, 0.03300678730010986, 0.7195775508880615, 10.167037010192871, -7.350480556488037, 2.317577838897705, -13.888311386108398, 8.590429306030273, -73.38018035888672, -0.847900390625, -0.095703125, 0.044189453125, 
443, 3437097068, -0.21245667338371277, 0.6585644483566284, 0.03495839983224869, 0.7210655808448792, 10.313097953796387, -7.105843544006348, 2.2732608318328857, -19.790815353393555, 8.276876449584961, -65.2933349609375, -0.851318359375, -0.103759765625, 0.042724609375, 
444, 3437105401, -0.20825132727622986, 0.6583654284477234, 0.036222197115421295, 0.7224105000495911, 10.191144943237305, -6.823437690734863, 2.232422113418579, -25.803203582763672, 7.875111103057861, -57.1638298034668, -0.8515625, -0.11083984375, 0.039306640625, 
445, 3437113734, -0.20418983697891235, 0.6582724452018738, 0.0368305966258049, 0.7236229181289673, 9.887883186340332, -6.546878337860107, 2.1156299114227295, -31.172208786010742, 7.584435939788818, -49.52668380737305, -0.8505859375, -0.115966796875, 0.03466796875, 
446, 3437122067, -0.2002202868461609, 0.658261239528656, 0.036860816180706024, 0.7247398495674133, 9.666325569152832, -6.35768461227417, 1.971506953239441, -36.12618637084961, 7.5065155029296875, -42.91746520996094, -0.847900390625, -0.125244140625, 0.040283203125, 
447, 3437130400, -0.19632327556610107, 0.6583051085472107, 0.03637521713972092, 0.7257899045944214, 9.677295684814453, -6.1674628257751465, 1.876585841178894, -40.87822341918945, 7.8803558349609375, -37.46499252319336, -0.850830078125, -0.130859375, 0.035400390625, 
448, 3437138733, -0.1925421506166458, 0.6583800911903381, 0.03548923879861832, 0.7267779111862183, 9.628725051879883, -6.097366809844971, 1.8133708238601685, -43.82171630859375, 8.09146785736084, -32.398353576660156, -0.849853515625, -0.134521484375, 0.032470703125, 
449, 3437147066, -0.1889263093471527, 0.6584867238998413, 0.03433416038751602, 0.727685272693634, 9.473593711853027, -6.046590328216553, 1.7380592823028564, -45.113826751708984, 7.892905235290527, -28.18359375, -0.8505859375, -0.139892578125, 0.032470703125, 
