sep=,
PacketCounter,SampleTimeFine,Quat_W,Quat_X,Quat_Y,Quat_Z,Acc_X,Acc_Y,Acc_Z,Gyr_X,Gyr_Y,Gyr_Z,Mag_X,Mag_Y,Mag_Z,
0, 3733068562, -0.7915700674057007, 0.16255681216716766, -0.1516837626695633, 0.569198489189148, 0, 0, 0, 0, 0, 0, -0.175537109375, 0.543212890625, -0.7265625, 
1, 3733076895, -0.7915515899658203, 0.16263633966445923, -0.1517612189054489, 0.5691805481910706, -0.5883141756057739, -4.316475868225098, 8.977210998535156, -1.6501715183258057, -0.28039902448654175, -0.10509520024061203, -0.174560546875, 0.546142578125, -0.728515625, 
2, 3733085228, -0.7915049195289612, 0.16267532110214233, -0.1518722027540207, 0.5692047476768494, -0.6440133452415466, -4.243366718292236, 8.927735328674316, -1.462419033050537, 0.5152943134307861, -0.6178920865058899, -0.175537109375, 0.543701171875, -0.72509765625, 
3, 3733093561, -0.7914336919784546, 0.16274207830429077, -0.1519317477941513, 0.5692688822746277, -0.6930347681045532, -4.344099044799805, 8.890058517456055, -1.32417893409729, -0.1256890445947647, -1.3352699279785156, -0.176025390625, 0.540771484375, -0.728515625, 
4, 3733101894, -0.7913371324539185, 0.16281244158744812, -0.15187379717826843, 0.5693984031677246, -0.6982205510139465, -4.352147102355957, 8.868179321289062, -0.37312257289886475, -1.2292784452438354, -2.5962588787078857, -0.176025390625, 0.547119140625, -0.724609375, 
5, 3733110227, -0.7912338376045227, 0.16291484236717224, -0.15181317925453186, 0.5695289969444275, -0.5880253911018372, -4.3246941566467285, 8.84443473815918, -0.6937103271484375, -1.422332763671875, -2.810957670211792, -0.177978515625, 0.542724609375, -0.7275390625, 
6, 3733118560, -0.7911234498023987, 0.16305366158485413, -0.15179061889648438, 0.5696485638618469, -0.5480166077613831, -4.358745574951172, 8.823177337646484, -1.446743130683899, -1.373153567314148, -2.659986972808838, -0.178466796875, 0.542236328125, -0.72802734375, 
7, 3733126893, -0.7910147905349731, 0.16318845748901367, -0.1517283320426941, 0.5697774887084961, -0.5644845962524414, -4.523648738861084, 8.797386169433594, -1.0655521154403687, -1.8264997005462646, -2.61749267578125, -0.179443359375, 0.542724609375, -0.72705078125, 
8, 3733135226, -0.7909419536590576, 0.163218691945076, -0.15159259736537933, 0.5699061155319214, -0.4916703402996063, -4.698361873626709, 8.800558090209961, 0.7235381007194519, -1.8118741512298584, -2.493135929107666, -0.180908203125, 0.543701171875, -0.727783203125, 
9, 3733143559, -0.7909152507781982, 0.16305914521217346, -0.1513512283563614, 0.5700527429580688, -0.44203245639801025, -4.652549743652344, 8.799753189086914, 3.7752439975738525, -1.5015065670013428, -2.1567955017089844, -0.1806640625, 0.544189453125, -0.724365234375, 
10, 3733151892, -0.7909226417541504, 0.16265647113323212, -0.15105894207954407, 0.5702350735664368, -0.44714075326919556, -4.496582984924316, 8.925647735595703, 6.952434062957764, -0.1690283566713333, -1.8979382514953613, -0.181396484375, 0.544189453125, -0.728759765625, 
11, 3733160225, -0.790946900844574, 0.16217079758644104, -0.15081655979156494, 0.5704037547111511, -0.6435402035713196, -4.462309837341309, 9.055808067321777, 7.490513324737549, 0.9733027219772339, -1.2890878915786743, -0.177490234375, 0.544677734375, -0.728515625, 
12, 3733168558, -0.7909641861915588, 0.16179026663303375, -0.15064585208892822, 0.5705330967903137, -0.8349425792694092, -4.354262828826904, 9.108233451843262, 5.669339656829834, 0.8411586284637451, -1.0172693729400635, -0.180908203125, 0.53955078125, -0.73046875, 
13, 3733176891, -0.7909576892852783, 0.16159720718860626, -0.15050996840000153, 0.5706326365470886, -0.8183455467224121, -4.33280086517334, 9.066669464111328, 3.261626958847046, -0.25529706478118896, -1.1511036157608032, -0.180419921875, 0.54296875, -0.729248046875, 
14, 3733185224, -0.7909592390060425, 0.16154785454273224, -0.15038256347179413, 0.5706782341003418, -0.7369344234466553, -4.380295753479004, 9.034215927124023, 1.519065022468567, -1.4399298429489136, -0.8197323083877563, -0.177978515625, 0.5400390625, -0.72802734375, 
15, 3733193557, -0.7910024523735046, 0.16151243448257446, -0.15019644796848297, 0.5706773400306702, -0.6770510673522949, -4.4604644775390625, 8.982149124145508, 1.8405238389968872, -2.3992598056793213, -0.038600653409957886, -0.177001953125, 0.54052734375, -0.732421875, 
16, 3733201890, -0.7910900115966797, 0.16143354773521423, -0.14995060861110687, 0.5706429481506348, -0.622596800327301, -4.497842788696289, 8.97101879119873, 2.795473575592041, -2.8520169258117676, 0.5230810046195984, -0.177001953125, 0.537109375, -0.73046875, 
17, 3733210223, -0.7912030220031738, 0.16131022572517395, -0.1496650129556656, 0.5705960392951965, -0.5199823379516602, -4.447514533996582, 8.94286823272705, 3.642869472503662, -3.0004770755767822, 0.8913882374763489, -0.180419921875, 0.53662109375, -0.7294921875, 
18, 3733218556, -0.7913382649421692, 0.16110138595104218, -0.14936502277851105, 0.5705463290214539, -0.4430125653743744, -4.379652500152588, 8.95479965209961, 4.708472728729248, -2.5535600185394287, 1.2105928659439087, -0.179931640625, 0.541015625, -0.72802734375, 
19, 3733226889, -0.7914552092552185, 0.16082914173603058, -0.1491004079580307, 0.5705298185348511, -0.36590269207954407, -4.252043724060059, 8.956294059753418, 5.1407389640808105, -1.7903326749801636, 1.4626880884170532, -0.177978515625, 0.5390625, -0.728515625, 
20, 3733235222, -0.7915976047515869, 0.16055479645729065, -0.1488744616508484, 0.5704686641693115, -0.34514597058296204, -4.225097179412842, 8.972115516662598, 4.832573413848877, -1.2732065916061401, 1.690629005432129, -0.177001953125, 0.53857421875, -0.734375, 
21, 3733243555, -0.7916975617408752, 0.16034981608390808, -0.14872115850448608, 0.5704275369644165, -0.37298983335494995, -4.264953136444092, 9.051076889038086, 3.4579601287841797, -1.0470329523086548, 1.5401455163955688, -0.179443359375, 0.54052734375, -0.728515625, 
22, 3733251888, -0.791792094707489, 0.16022777557373047, -0.1486331820487976, 0.5703535676002502, -0.3581618368625641, -4.199124813079834, 9.05691146850586, 1.9601166248321533, -0.8959347009658813, 1.4485234022140503, -0.180908203125, 0.537109375, -0.73095703125, 
23, 3733260221, -0.7918468713760376, 0.1601758599281311, -0.14863574504852295, 0.5702913999557495, -0.30503323674201965, -4.199005603790283, 9.043210983276367, 0.4323810636997223, -0.45554912090301514, 1.3454772233963013, -0.176025390625, 0.5390625, -0.7314453125, 
24, 3733268554, -0.7919383645057678, 0.16010445356369019, -0.14869210124015808, 0.5701696872711182, -0.23165519535541534, -4.308923244476318, 8.986957550048828, 0.17313940823078156, 0.17913314700126648, 2.15793514251709, -0.179931640625, 0.53759765625, -0.73193359375, 
25, 3733276887, -0.7920007705688477, 0.16001227498054504, -0.14887577295303345, 0.5700610876083374, -0.2975215017795563, -4.355955600738525, 9.114787101745605, -0.6118215918540955, 1.8494631052017212, 2.111675977706909, -0.178955078125, 0.53515625, -0.73046875, 
26, 3733285220, -0.7920355796813965, 0.1599353849887848, -0.1491885781288147, 0.5699524879455566, -0.37380799651145935, -4.211145401000977, 9.147307395935059, -1.8757305145263672, 3.160066843032837, 2.147792339324951, -0.178955078125, 0.53515625, -0.73095703125, 
27, 3733293553, -0.7920214533805847, 0.15996074676513672, -0.14961807429790497, 0.5698522329330444, -0.4295915365219116, -4.1614670753479, 9.043379783630371, -3.9819891452789307, 3.692279577255249, 1.9120386838912964, -0.177490234375, 0.5361328125, -0.7314453125, 
28, 3733301886, -0.7919853329658508, 0.16008678078651428, -0.1500985324382782, 0.5697407722473145, -0.48382872343063354, -4.117496967315674, 8.972772598266602, -5.561030387878418, 3.5339066982269287, 1.574161410331726, -0.176513671875, 0.53857421875, -0.7294921875, 
29, 3733310219, -0.791942834854126, 0.16025328636169434, -0.15059873461723328, 0.5696210861206055, -0.48167017102241516, -4.205622673034668, 8.883057594299316, -6.159404754638672, 3.507831335067749, 1.4804133176803589, -0.177978515625, 0.53955078125, -0.73193359375, 
30, 3733318552, -0.7919021248817444, 0.16040447354316711, -0.15105420351028442, 0.5695145130157471, -0.5098039507865906, -4.261129856109619, 8.790426254272461, -5.639126777648926, 3.0850679874420166, 1.3778791427612305, -0.177001953125, 0.53759765625, -0.728515625, 
31, 3733326885, -0.7918955087661743, 0.16039735078811646, -0.15138638019561768, 0.5694376230239868, -0.5368555784225464, -4.326180934906006, 8.742711067199707, -2.781808376312256, 3.0791256427764893, 1.2412018775939941, -0.176513671875, 0.54150390625, -0.73095703125, 
32, 3733335218, -0.7919042706489563, 0.16025051474571228, -0.15159553289413452, 0.569411039352417, -0.5463801026344299, -4.384911060333252, 8.751199722290039, -0.1886744350194931, 2.810457944869995, 0.9719192981719971, -0.175537109375, 0.541015625, -0.732421875, 
33, 3733343551, -0.791942298412323, 0.16001258790493011, -0.15173695981502533, 0.5693874955177307, -0.5717383027076721, -4.236650466918945, 8.717979431152344, 1.4266746044158936, 2.7561044692993164, 1.2319551706314087, -0.176513671875, 0.541748046875, -0.7275390625, 
34, 3733351884, -0.7919977903366089, 0.15975318849086761, -0.1518506556749344, 0.5693529844284058, -0.5634762644767761, -4.131053447723389, 8.711739540100098, 1.869544267654419, 2.5378198623657227, 1.4467047452926636, -0.178466796875, 0.54052734375, -0.73095703125, 
35, 3733360217, -0.7920632362365723, 0.15952709317207336, -0.15197181701660156, 0.5692927241325378, -0.5506466627120972, -4.145650386810303, 8.71972370147705, 1.4501113891601562, 2.379037380218506, 1.621342658996582, -0.176513671875, 0.5400390625, -0.73095703125, 
36, 3733368550, -0.7921139597892761, 0.15933005511760712, -0.15212461352348328, 0.5692365765571594, -0.5440541505813599, -4.1064581871032715, 8.76279067993164, 0.82929927110672, 2.437361240386963, 1.600877046585083, -0.174072265625, 0.54052734375, -0.731689453125, 
37, 3733376883, -0.7921602725982666, 0.15916693210601807, -0.15226060152053833, 0.5691812634468079, -0.5781500935554504, -4.183435440063477, 8.77259635925293, 0.6106818914413452, 2.0526866912841797, 1.4160702228546143, -0.176025390625, 0.54052734375, -0.72900390625, 
38, 3733385216, -0.7922056317329407, 0.15903082489967346, -0.1523570716381073, 0.5691304206848145, -0.6304323077201843, -4.293181896209717, 8.758106231689453, 0.6057895421981812, 1.3694523572921753, 1.251089096069336, -0.173095703125, 0.5400390625, -0.732177734375, 
39, 3733393549, -0.7922751307487488, 0.15892578661441803, -0.15239883959293365, 0.5690516829490662, -0.610874354839325, -4.247784614562988, 8.755355834960938, 0.7190299034118652, 0.4822007417678833, 1.50287663936615, -0.172119140625, 0.54052734375, -0.733642578125, 
40, 3733401882, -0.7923736572265625, 0.15885154902935028, -0.15241742134094238, 0.5689303874969482, -0.5567452311515808, -4.20863151550293, 8.71131706237793, 0.5094031691551208, -0.22712142765522003, 2.1336019039154053, -0.171142578125, 0.54052734375, -0.731201171875, 
41, 3733410215, -0.7925403118133545, 0.15876871347427368, -0.15240560472011566, 0.5687247514724731, -0.5506569743156433, -4.232416152954102, 8.701286315917969, 0.8446422815322876, -0.7485504746437073, 3.462263584136963, -0.172607421875, 0.541748046875, -0.730712890625, 
42, 3733418548, -0.7927525043487549, 0.15860332548618317, -0.15237422287464142, 0.5684835314750671, -0.5316228866577148, -4.333460807800293, 8.807734489440918, 1.8909838199615479, -0.5596966743469238, 4.411731719970703, -0.171875, 0.5380859375, -0.733642578125, 
43, 3733426881, -0.7930088639259338, 0.15839898586273193, -0.15231852233409882, 0.5681975483894348, -0.6134642362594604, -4.34408712387085, 8.87759780883789, 2.546682596206665, -0.6076976656913757, 5.129647731781006, -0.174560546875, 0.54150390625, -0.73583984375, 
44, 3733435214, -0.7932789325714111, 0.15816088020801544, -0.15221978724002838, 0.5679131746292114, -0.6593782901763916, -4.289421081542969, 8.901611328125, 3.245105743408203, -0.940119206905365, 5.341400146484375, -0.171630859375, 0.54052734375, -0.732666015625, 
45, 3733443547, -0.7935446500778198, 0.15791133046150208, -0.15206721425056458, 0.56765216588974, -0.6351036429405212, -4.21604061126709, 8.914523124694824, 3.8496787548065186, -1.4144178628921509, 5.1060051918029785, -0.17041015625, 0.53759765625, -0.733642578125, 
46, 3733451880, -0.7937992811203003, 0.15764948725700378, -0.1519077569246292, 0.5674116611480713, -0.568974494934082, -4.174431800842285, 8.936738967895508, 4.036176681518555, -1.2895232439041138, 4.659985065460205, -0.172119140625, 0.541015625, -0.734130859375, 
47, 3733460213, -0.7940276861190796, 0.15732648968696594, -0.1517852246761322, 0.5672143697738647, -0.4917345345020294, -4.114776134490967, 8.943293571472168, 4.486909866333008, -0.17837752401828766, 4.083869457244873, -0.170654296875, 0.5419921875, -0.733642578125, 
48, 3733468546, -0.7942111492156982, 0.15691041946411133, -0.15177452564239502, 0.5670757293701172, -0.4237085282802582, -4.128704071044922, 8.969578742980957, 4.61818265914917, 1.9064034223556519, 3.6340832710266113, -0.16796875, 0.537109375, -0.73583984375, 
49, 3733476879, -0.7943204045295715, 0.15644915401935577, -0.15191848576068878, 0.5670115947723389, -0.43651947379112244, -4.089662551879883, 8.94055461883545, 3.9076178073883057, 4.146393299102783, 2.9964935779571533, -0.16845703125, 0.53857421875, -0.73193359375, 
50, 3733485212, -0.7944096922874451, 0.15595115721225739, -0.15216074883937836, 0.5669587254524231, -0.46310141682624817, -4.045892715454102, 8.920027732849121, 3.5174880027770996, 5.6891913414001465, 2.6810548305511475, -0.16845703125, 0.53759765625, -0.734375, 
51, 3733493545, -0.7944637537002563, 0.15544426441192627, -0.15244494378566742, 0.5669459104537964, -0.5114080309867859, -4.07990026473999, 8.914125442504883, 3.306631326675415, 6.306135654449463, 2.3075993061065674, -0.166015625, 0.537109375, -0.73291015625, 
52, 3733501878, -0.794517457485199, 0.15487588942050934, -0.15268628299236298, 0.5669611692428589, -0.5650458335876465, -4.010228633880615, 8.869330406188965, 4.360350131988525, 6.44834566116333, 1.8055349588394165, -0.16748046875, 0.537109375, -0.73828125, 
53, 3733510211, -0.7945515513420105, 0.15438586473464966, -0.15288783609867096, 0.5669928193092346, -0.6237341165542603, -4.025815010070801, 8.882172584533691, 3.831928253173828, 5.506843566894531, 1.2440963983535767, -0.16650390625, 0.537109375, -0.73681640625, 
54, 3733518544, -0.7945727705955505, 0.1540222018957138, -0.15305794775485992, 0.5670160055160522, -0.6504472494125366, -4.023945331573486, 8.877016067504883, 2.6253440380096436, 4.159022331237793, 0.8838576674461365, -0.16259765625, 0.53759765625, -0.735107421875, 
55, 3733526877, -0.7945811748504639, 0.15379083156585693, -0.15319880843162537, 0.5670289993286133, -0.6606769561767578, -4.0153937339782715, 8.816280364990234, 1.381926417350769, 2.8228037357330322, 0.614984929561615, -0.1650390625, 0.53466796875, -0.7373046875, 
56, 3733535210, -0.7945765852928162, 0.15366202592849731, -0.15331731736660004, 0.5670381784439087, -0.5853152871131897, -4.020954132080078, 8.77755355834961, 0.37805330753326416, 1.7877838611602783, 0.2317703813314438, -0.1640625, 0.53662109375, -0.736083984375, 
57, 3733543543, -0.7945483922958374, 0.15361148118972778, -0.153416246175766, 0.5670647025108337, -0.5818837881088257, -4.087606430053711, 8.762433052062988, -0.3094712197780609, 1.10872483253479, -0.38767147064208984, -0.166015625, 0.5380859375, -0.736328125, 
58, 3733551876, -0.7944994568824768, 0.15358731150627136, -0.15348106622695923, 0.5671223402023315, -0.5724062323570251, -4.098943710327148, 8.724544525146484, -0.3384408950805664, 0.5818401575088501, -0.978950560092926, -0.16357421875, 0.53662109375, -0.738525390625, 
59, 3733560209, -0.7944371700286865, 0.15358631312847137, -0.15352334082126617, 0.5671982765197754, -0.5402113199234009, -4.132640838623047, 8.721160888671875, -0.3821899890899658, 0.235151469707489, -1.3273807764053345, -0.1640625, 0.5380859375, -0.73974609375, 
60, 3733568542, -0.7943710088729858, 0.15358683466911316, -0.15358588099479675, 0.5672738552093506, -0.5685151219367981, -4.221736431121826, 8.784942626953125, -0.5889224410057068, 0.438810259103775, -1.3638554811477661, -0.1640625, 0.53662109375, -0.73828125, 
61, 3733576875, -0.7943238019943237, 0.15356667339801788, -0.1536564826965332, 0.567326545715332, -0.6380904316902161, -4.2934794425964355, 8.826079368591309, -0.4033985733985901, 0.6606807112693787, -0.9511334300041199, -0.16357421875, 0.537109375, -0.737548828125, 
62, 3733585208, -0.794305145740509, 0.15349893271923065, -0.15370208024978638, 0.5673587322235107, -0.67143714427948, -4.326353549957275, 8.810465812683105, 0.2978038489818573, 0.593776285648346, -0.41431018710136414, -0.16357421875, 0.53662109375, -0.739013671875, 
63, 3733593541, -0.7943035960197449, 0.15341424942016602, -0.15370671451091766, 0.5673822164535522, -0.7214500308036804, -4.283644676208496, 8.866835594177246, 0.8489198684692383, 0.26138049364089966, -0.22847898304462433, -0.16650390625, 0.53662109375, -0.73779296875, 
64, 3733601874, -0.7943190336227417, 0.15331992506980896, -0.15369361639022827, 0.5673896670341492, -0.776512622833252, -4.2240400314331055, 8.836221694946289, 1.0651806592941284, 0.037383973598480225, 0.057311851531267166, -0.1591796875, 0.53759765625, -0.735595703125, 
65, 3733610207, -0.7943216562271118, 0.15325050055980682, -0.15368077158927917, 0.5674084424972534, -0.7956321835517883, -4.178361892700195, 8.82361125946045, 0.7961543798446655, -0.20038016140460968, 0.0702214166522026, -0.161865234375, 0.53515625, -0.741455078125, 
66, 3733618540, -0.7943162322044373, 0.15325044095516205, -0.15366241335868835, 0.567421019077301, -0.8296582698822021, -4.127190589904785, 8.842580795288086, 0.04399244859814644, -0.7014970779418945, -0.37460818886756897, -0.16064453125, 0.53759765625, -0.736572265625, 
67, 3733626873, -0.7942913174629211, 0.15333245694637299, -0.15362252295017242, 0.5674445629119873, -0.8244135975837708, -4.055935382843018, 8.777713775634766, -0.6717076301574707, -1.4740478992462158, -0.8678102493286133, -0.162109375, 0.5380859375, -0.737548828125, 
68, 3733635206, -0.7942541837692261, 0.1534339189529419, -0.1535641849040985, 0.5674848556518555, -0.8085532784461975, -4.066666603088379, 8.767528533935547, -0.7619978189468384, -1.804061770439148, -1.2209793329238892, -0.16357421875, 0.53662109375, -0.738037109375, 
69, 3733643539, -0.7942221164703369, 0.15352308750152588, -0.1534656286239624, 0.5675321817398071, -0.754671037197113, -4.129486560821533, 8.716780662536621, -0.24054329097270966, -2.002751350402832, -1.5448458194732666, -0.1611328125, 0.53857421875, -0.739990234375, 
70, 3733651872, -0.7941637635231018, 0.1535949409008026, -0.1533791869878769, 0.5676178336143494, -0.6597826480865479, -4.078332901000977, 8.772239685058594, -0.16741465032100677, -1.740871548652649, -1.8794699907302856, -0.16455078125, 0.537109375, -0.7392578125, 
71, 3733660205, -0.794086754322052, 0.1537165641784668, -0.15332376956939697, 0.5677075386047363, -0.6727674007415771, -4.024328231811523, 8.838114738464355, -0.9481621980667114, -1.6728401184082031, -2.1835625171661377, -0.16259765625, 0.53857421875, -0.739990234375, 
72, 3733668538, -0.7939819097518921, 0.15386992692947388, -0.15332412719726562, 0.5678127408027649, -0.6228192448616028, -4.087234020233154, 8.863067626953125, -1.7929197549819946, -1.288857102394104, -2.445493459701538, -0.16357421875, 0.53662109375, -0.737060546875, 
73, 3733676871, -0.7938589453697205, 0.1540786474943161, -0.15340761840343475, 0.5679053068161011, -0.5310186147689819, -4.129748344421387, 8.894373893737793, -3.0774729251861572, -0.7501383423805237, -2.4251041412353516, -0.1650390625, 0.53759765625, -0.73828125, 
74, 3733685204, -0.7937231063842773, 0.15430068969726562, -0.1535477340221405, 0.5679968595504761, -0.5226138830184937, -4.152007579803467, 8.951146125793457, -3.7283825874328613, -0.26374977827072144, -2.3876054286956787, -0.16552734375, 0.53857421875, -0.7412109375, 
75, 3733693537, -0.7935737371444702, 0.15454241633415222, -0.15373213589191437, 0.5680901408195496, -0.5808077454566956, -4.249757766723633, 8.941567420959473, -4.284134387969971, 0.14025075733661652, -2.4673168659210205, -0.1689453125, 0.534912109375, -0.7392578125, 
76, 3733701870, -0.7934134602546692, 0.15480749309062958, -0.15393787622451782, 0.5681861639022827, -0.5772286057472229, -4.250373840332031, 8.916277885437012, -4.751927375793457, 0.17649491131305695, -2.5769457817077637, -0.16552734375, 0.541748046875, -0.734375, 
77, 3733710203, -0.7932710647583008, 0.15510502457618713, -0.15413692593574524, 0.5682499408721924, -0.5620297193527222, -4.249073028564453, 8.873392105102539, -5.050512790679932, -0.19031377136707306, -2.227644443511963, -0.1640625, 0.53564453125, -0.736572265625, 
78, 3733718536, -0.7931531667709351, 0.1554303616285324, -0.15432366728782654, 0.5682750940322876, -0.5720007419586182, -4.228381156921387, 8.809502601623535, -5.321357250213623, -0.7411991953849792, -1.6416420936584473, -0.166015625, 0.53759765625, -0.73486328125, 
79, 3733726869, -0.7930310368537903, 0.15577343106269836, -0.15449540317058563, 0.5683047771453857, -0.5749524831771851, -4.291143417358398, 8.777274131774902, -5.408523082733154, -1.2545340061187744, -1.22592294216156, -0.16162109375, 0.537353515625, -0.733642578125, 
80, 3733735202, -0.792943000793457, 0.15607650578022003, -0.15460994839668274, 0.5683133006095886, -0.5360193252563477, -4.371557712554932, 8.753287315368652, -4.485821723937988, -1.4538129568099976, -1.333144187927246, -0.16796875, 0.541015625, -0.73486328125, 
81, 3733743535, -0.792879581451416, 0.15626603364944458, -0.15467485785484314, 0.5683319568634033, -0.48306363821029663, -4.363585472106934, 8.734286308288574, -2.7538890838623047, -1.107303500175476, -1.1018989086151123, -0.16357421875, 0.541259765625, -0.7333984375, 
82, 3733751868, -0.7928401231765747, 0.15638180077075958, -0.15474508702754974, 0.5683361291885376, -0.5251484513282776, -4.27781867980957, 8.781143188476562, -2.0019829273223877, -0.5857463479042053, -0.6030359864234924, -0.1669921875, 0.53955078125, -0.7333984375, 
83, 3733760201, -0.7928329706192017, 0.1564917117357254, -0.15487410128116608, 0.5682806968688965, -0.5211557745933533, -4.246545314788818, 8.819961547851562, -2.420673370361328, -0.049742840230464935, 0.42500418424606323, -0.1669921875, 0.53857421875, -0.736328125, 
84, 3733768534, -0.7928573489189148, 0.15655073523521423, -0.15504178404808044, 0.5681847929954529, -0.49047115445137024, -4.254899978637695, 8.824414253234863, -2.2208564281463623, 0.5693147778511047, 1.316123366355896, -0.16357421875, 0.54248046875, -0.73779296875, 
85, 3733776867, -0.7929172515869141, 0.15656085312366486, -0.1552322953939438, 0.5680462121963501, -0.5391416549682617, -4.303750038146973, 8.837776184082031, -1.8278831243515015, 1.1860287189483643, 1.9759718179702759, -0.1669921875, 0.53955078125, -0.73388671875, 
86, 3733785200, -0.7929827570915222, 0.1565408855676651, -0.15542052686214447, 0.567908763885498, -0.6604477763175964, -4.284379482269287, 8.851021766662598, -1.5203073024749756, 1.2325698137283325, 2.3034753799438477, -0.1640625, 0.541259765625, -0.7314453125, 
87, 3733793533, -0.7930460572242737, 0.15656565129756927, -0.1555817425251007, 0.567769467830658, -0.7259106636047363, -4.251974582672119, 8.862942695617676, -1.785004734992981, 0.5361699461936951, 2.3543450832366943, -0.16650390625, 0.541259765625, -0.73486328125, 
88, 3733801866, -0.7931126952171326, 0.15664765238761902, -0.15566948056221008, 0.567629873752594, -0.7451086044311523, -4.2328338623046875, 8.833444595336914, -1.8504494428634644, -0.6648943424224854, 1.899897575378418, -0.1630859375, 0.541259765625, -0.733154296875, 
89, 3733810199, -0.7931776642799377, 0.15678533911705017, -0.15567748248577118, 0.5674986839294434, -0.7181770205497742, -4.280099391937256, 8.830904960632324, -1.7924587726593018, -1.9575936794281006, 1.6114301681518555, -0.16650390625, 0.541259765625, -0.7333984375, 
90, 3733818532, -0.7932467460632324, 0.1569545865058899, -0.15560021996498108, 0.5673766732215881, -0.7497653961181641, -4.251053810119629, 8.845752716064453, -1.4704620838165283, -3.114332675933838, 1.1863361597061157, -0.1640625, 0.541748046875, -0.73291015625, 
91, 3733826865, -0.7933302521705627, 0.15712350606918335, -0.15543077886104584, 0.5672595500946045, -0.7505534887313843, -4.2749409675598145, 8.864798545837402, -0.6741923093795776, -4.128630638122559, 1.1112607717514038, -0.166748046875, 0.541748046875, -0.73095703125, 
92, 3733835198, -0.7934396266937256, 0.15724201500415802, -0.15519167482852936, 0.5671389698982239, -0.715391218662262, -4.298305988311768, 8.881302833557129, 0.435890257358551, -4.56655740737915, 1.2452232837677002, -0.166015625, 0.542724609375, -0.73486328125, 
93, 3733843531, -0.7935897707939148, 0.1573069989681244, -0.15490961074829102, 0.5669880509376526, -0.6608109474182129, -4.236623764038086, 8.925098419189453, 1.428954005241394, -4.64373254776001, 1.7276415824890137, -0.16552734375, 0.542724609375, -0.73486328125, 
94, 3733851864, -0.7937543988227844, 0.15732179582118988, -0.15464666485786438, 0.5668254494667053, -0.6480774879455566, -4.161116600036621, 8.964826583862305, 1.782840371131897, -4.226348876953125, 2.302757978439331, -0.1669921875, 0.539794921875, -0.73046875, 
95, 3733860197, -0.7939152717590332, 0.15730838477611542, -0.1544143706560135, 0.566666841506958, -0.6437506079673767, -4.165213584899902, 9.021461486816406, 1.8928279876708984, -3.592165946960449, 2.3047561645507812, -0.1630859375, 0.542236328125, -0.7333984375, 
96, 3733868530, -0.7940458059310913, 0.1572241187095642, -0.1542484164237976, 0.5665524005889893, -0.5812579393386841, -4.115583896636963, 9.071867942810059, 2.137187957763672, -2.218986988067627, 1.9325556755065918, -0.1669921875, 0.53857421875, -0.73193359375, 
97, 3733876863, -0.7941389679908752, 0.1571212261915207, -0.1541679948568344, 0.5664724111557007, -0.5759941935539246, -4.079310894012451, 9.06430721282959, 1.6985183954238892, -0.9708307981491089, 1.5358166694641113, -0.1669921875, 0.54150390625, -0.7353515625, 
98, 3733885196, -0.7942008376121521, 0.157017782330513, -0.15413719415664673, 0.566422700881958, -0.6879032254219055, -4.00120735168457, 9.117807388305664, 1.2826457023620605, -0.3083953857421875, 1.023864984512329, -0.16552734375, 0.543212890625, -0.73291015625, 
99, 3733893529, -0.7942254543304443, 0.156989187002182, -0.15413717925548553, 0.5663961172103882, -0.7041401863098145, -4.020813465118408, 9.117328643798828, 0.23843008279800415, -0.31997302174568176, 0.2468571811914444, -0.16650390625, 0.54150390625, -0.73681640625, 
100, 3733901862, -0.7942253947257996, 0.15699052810668945, -0.15415778756141663, 0.5663902759552002, -0.6812224388122559, -4.027937412261963, 9.091578483581543, -0.3028627038002014, -0.3373907208442688, -0.04943547397851944, -0.1669921875, 0.5419921875, -0.7353515625, 
101, 3733910195, -0.794205904006958, 0.15705421566963196, -0.15419121086597443, 0.5663908123970032, -0.6708508133888245, -4.063708782196045, 9.034205436706543, -1.0804340839385986, -0.5864891409873962, -0.38224124908447266, -0.1640625, 0.540771484375, -0.7333984375, 
102, 3733918528, -0.7941548228263855, 0.15716072916984558, -0.15425390005111694, 0.5664159059524536, -0.6871806383132935, -4.085494041442871, 8.980907440185547, -1.823067545890808, -0.5235805511474609, -0.9158369302749634, -0.1650390625, 0.540771484375, -0.73486328125, 
103, 3733926861, -0.7940647602081299, 0.1573227196931839, -0.15430188179016113, 0.5664839148521423, -0.6830852031707764, -4.143157005310059, 8.948366165161133, -2.294625759124756, -1.0075615644454956, -1.6118525266647339, -0.16162109375, 0.545166015625, -0.7333984375, 
104, 3733935194, -0.7939751148223877, 0.15747877955436707, -0.15431037545204163, 0.56656414270401, -0.6663494110107422, -4.222146511077881, 8.895398139953613, -1.9091570377349854, -1.2985905408859253, -2.041685104370117, -0.16552734375, 0.541259765625, -0.73486328125, 
105, 3733943527, -0.7939015030860901, 0.15757575631141663, -0.15427370369434357, 0.5666502118110657, -0.6341538429260254, -4.341447830200195, 8.887784957885742, -0.8184260129928589, -1.2083003520965576, -2.1769795417785645, -0.166748046875, 0.541748046875, -0.73046875, 
106, 3733951860, -0.7938381433486938, 0.15754762291908264, -0.15421165525913239, 0.5667637586593628, -0.5975257158279419, -4.3147454261779785, 8.876485824584961, 0.778864860534668, -0.6176616549491882, -1.9621528387069702, -0.16455078125, 0.53955078125, -0.73681640625, 
107, 3733960193, -0.7937796115875244, 0.1574307382106781, -0.15414942800998688, 0.5668953061103821, -0.6045209765434265, -4.265629291534424, 8.844075202941895, 1.8092231750488281, 0.01407502219080925, -1.6702020168304443, -0.16748046875, 0.53955078125, -0.73291015625, 
108, 3733968526, -0.7937564849853516, 0.1572614461183548, -0.1540994793176651, 0.5669881701469421, -0.636184573173523, -4.193788051605225, 8.884904861450195, 2.2689731121063232, 0.48522332310676575, -1.096494197845459, -0.16455078125, 0.538818359375, -0.73291015625, 
109, 3733976859, -0.7937175631523132, 0.15706764161586761, -0.15410234034061432, 0.5670953392982483, -0.5507773160934448, -4.131899356842041, 8.842339515686035, 2.141977548599243, 1.2857706546783447, -1.0635030269622803, -0.166015625, 0.5390625, -0.734375, 
110, 3733985192, -0.7936683297157288, 0.15685603022575378, -0.15413391590118408, 0.56721431016922, -0.5352293252944946, -4.117907524108887, 8.857781410217285, 2.0937459468841553, 1.8168047666549683, -1.3200297355651855, -0.16552734375, 0.53955078125, -0.7333984375, 
111, 3733993525, -0.7935800552368164, 0.1566043347120285, -0.15414714813232422, 0.5674039125442505, -0.5736682415008545, -4.104007244110107, 8.90078353881836, 2.7615089416503906, 2.1442060470581055, -2.2271575927734375, -0.16650390625, 0.540771484375, -0.7314453125, 
112, 3734001858, -0.7934514284133911, 0.15635107457637787, -0.15411441028118134, 0.5676624178886414, -0.672421932220459, -4.073006629943848, 8.908881187438965, 3.1754350662231445, 1.9080681800842285, -3.511404037475586, -0.16357421875, 0.539794921875, -0.734375, 
113, 3734010191, -0.7932755947113037, 0.1561817079782486, -0.15400516986846924, 0.5679844617843628, -0.7656297087669373, -3.9969675540924072, 8.894330024719238, 2.924851179122925, 0.7262275815010071, -4.98537540435791, -0.16845703125, 0.541015625, -0.73486328125, 
114, 3734018524, -0.7930581569671631, 0.15619221329689026, -0.15386278927326202, 0.5683236718177795, -0.7886251211166382, -3.998157024383545, 8.906161308288574, 1.1343905925750732, -0.9858919382095337, -5.879748344421387, -0.1650390625, 0.53955078125, -0.73486328125, 
115, 3734026857, -0.7927899360656738, 0.15638142824172974, -0.1537376195192337, 0.5686795115470886, -0.7058025598526001, -3.916731595993042, 8.933798789978027, -1.002976417541504, -2.05812931060791, -6.704884052276611, -0.1689453125, 0.53955078125, -0.734375, 
116, 3734035190, -0.7925247550010681, 0.15667814016342163, -0.15365900099277496, 0.5689886808395386, -0.634577751159668, -4.091716289520264, 8.920563697814941, -2.6512529850006104, -2.4927520751953125, -6.3950042724609375, -0.1669921875, 0.541015625, -0.73681640625, 
117, 3734043523, -0.7922765016555786, 0.15701961517333984, -0.15366482734680176, 0.5692386031150818, -0.5747169852256775, -4.273226737976074, 8.919173240661621, -3.8546087741851807, -1.998396873474121, -5.633876323699951, -0.1689453125, 0.539794921875, -0.73193359375, 
118, 3734051856, -0.7920597791671753, 0.15727773308753967, -0.15373866260051727, 0.5694490075111389, -0.5484152436256409, -4.330682754516602, 8.926153182983398, -3.528411865234375, -0.843937873840332, -4.527623653411865, -0.16796875, 0.5380859375, -0.734375, 
119, 3734060189, -0.7918948531150818, 0.1574462503194809, -0.15387381613254547, 0.5695950984954834, -0.5061783790588379, -4.413812637329102, 8.888620376586914, -3.031726837158203, 0.29967376589775085, -3.0678939819335938, -0.16796875, 0.5400390625, -0.736328125, 
120, 3734068522, -0.7917929887771606, 0.15748532116413116, -0.1540093570947647, 0.5696894526481628, -0.4792259931564331, -4.451994895935059, 8.862905502319336, -1.6236093044281006, 1.0499913692474365, -1.7689958810806274, -0.172119140625, 0.541015625, -0.732177734375, 
121, 3734076855, -0.7917570471763611, 0.1574041247367859, -0.1541149616241455, 0.5697332620620728, -0.5371249318122864, -4.494178295135498, 8.860616683959961, 0.007492163218557835, 1.6003389358520508, -0.8168635368347168, -0.16943359375, 0.53955078125, -0.73291015625, 
122, 3734085188, -0.79173344373703, 0.15727727115154266, -0.15419526398181915, 0.5697794556617737, -0.6210598945617676, -4.3974103927612305, 8.85865306854248, 0.6835286617279053, 1.4790300130844116, -0.39919784665107727, -0.17138671875, 0.5390625, -0.733642578125, 
123, 3734093521, -0.7917171716690063, 0.15716546773910522, -0.15423621237277985, 0.5698217153549194, -0.6434268355369568, -4.28588342666626, 8.834440231323242, 0.872228741645813, 0.9863401651382446, -0.4979919195175171, -0.16796875, 0.542724609375, -0.73388671875, 
124, 3734101854, -0.7916812300682068, 0.1570771187543869, -0.1542735993862152, 0.5698858499526978, -0.635036289691925, -4.218102931976318, 8.78756046295166, 0.6127820611000061, 0.7741261720657349, -0.86601722240448, -0.1689453125, 0.54150390625, -0.734130859375, 
125, 3734110187, -0.791630208492279, 0.15705759823322296, -0.15433791279792786, 0.5699446797370911, -0.6311525702476501, -4.189870834350586, 8.799620628356934, -0.35437294840812683, 0.6330942511558533, -1.1080206632614136, -0.169921875, 0.53857421875, -0.734130859375, 
126, 3734118520, -0.7915801405906677, 0.1571134775876999, -0.1544443964958191, 0.5699701309204102, -0.6819696426391602, -4.164701461791992, 8.744025230407715, -1.6116474866867065, 0.3425007164478302, -0.712972104549408, -0.1708984375, 0.5400390625, -0.732666015625, 
127, 3734126853, -0.7915145754814148, 0.15720005333423615, -0.15452168881893158, 0.5700163245201111, -0.6715002655982971, -4.179687023162842, 8.721906661987305, -1.6809086799621582, -0.1394951343536377, -1.1033587455749512, -0.1689453125, 0.541015625, -0.735107421875, 
128, 3734135186, -0.791466474533081, 0.15730825066566467, -0.15455390512943268, 0.5700445771217346, -0.6404677033424377, -4.244693756103516, 8.662487983703613, -1.590054988861084, -0.8729332089424133, -0.9992625713348389, -0.1689453125, 0.5361328125, -0.7314453125, 
129, 3734143519, -0.791437029838562, 0.15745800733566284, -0.15454266965389252, 0.5700469613075256, -0.6822043061256409, -4.2035698890686035, 8.630921363830566, -1.6642849445343018, -1.6029388904571533, -1.021751880645752, -0.16943359375, 0.5400390625, -0.73193359375, 
130, 3734151852, -0.7914206981658936, 0.15759074687957764, -0.15453185141086578, 0.5700359344482422, -0.6091939806938171, -4.2270379066467285, 8.631030082702637, -1.533908486366272, -1.6864155530929565, -0.46676820516586304, -0.16845703125, 0.5390625, -0.73388671875, 
131, 3734160185, -0.7914561033248901, 0.15767598152160645, -0.15450051426887512, 0.5699717402458191, -0.5583306550979614, -4.333034038543701, 8.60209846496582, -0.8312331438064575, -1.7784730195999146, 0.681146502494812, -0.16748046875, 0.540771484375, -0.73095703125, 
132, 3734168518, -0.7915468811988831, 0.15770010650157928, -0.15442079305648804, 0.5698606967926025, -0.5400365591049194, -4.38198184967041, 8.634358406066895, 0.20848709344863892, -2.030773401260376, 1.5409139394760132, -0.171142578125, 0.54052734375, -0.731201171875, 
133, 3734176851, -0.7916800379753113, 0.15770143270492554, -0.15428079664707184, 0.5697131156921387, -0.5732278823852539, -4.385865211486816, 8.686144828796387, 0.9775545001029968, -2.6364991664886475, 2.1870076656341553, -0.168212890625, 0.542236328125, -0.7314453125, 
134, 3734185184, -0.7918538451194763, 0.15774577856063843, -0.15408489108085632, 0.5695121884346008, -0.5843945741653442, -4.305923938751221, 8.726981163024902, 0.8874948024749756, -3.824000120162964, 2.877131938934326, -0.1689453125, 0.541015625, -0.735107421875, 
135, 3734193517, -0.7920238375663757, 0.1578696370124817, -0.1538657546043396, 0.569300651550293, -0.5968750715255737, -4.2608323097229, 8.802742958068848, 0.1964484006166458, -4.765989303588867, 2.931101083755493, -0.169921875, 0.53955078125, -0.732177734375, 
136, 3734201850, -0.7922077178955078, 0.15807978808879852, -0.15362325310707092, 0.5690522193908691, -0.5561250448226929, -4.230004787445068, 8.832228660583496, -0.6314164996147156, -5.754724502563477, 3.0191116333007812, -0.173583984375, 0.53955078125, -0.730712890625, 
137, 3734210183, -0.7923923134803772, 0.15833203494548798, -0.15333515405654907, 0.5688024163246155, -0.521607518196106, -4.248190402984619, 8.829889297485352, -0.6998577117919922, -6.562828063964844, 2.887505292892456, -0.16796875, 0.540771484375, -0.73095703125, 
138, 3734218516, -0.7925897836685181, 0.15854869782924652, -0.1529971957206726, 0.5685579776763916, -0.5076655745506287, -4.271974563598633, 8.870224952697754, 0.0812099277973175, -6.866023540496826, 2.860994577407837, -0.169677734375, 0.542236328125, -0.731689453125, 
139, 3734226849, -0.792781412601471, 0.15867169201374054, -0.15261687338352203, 0.5683586597442627, -0.5108985900878906, -4.282662391662598, 8.89030647277832, 1.5395053625106812, -6.550764560699463, 2.6516757011413574, -0.171630859375, 0.539306640625, -0.729736328125, 
140, 3734235182, -0.7929830551147461, 0.15868833661079407, -0.1522234082221985, 0.5681781768798828, -0.5091431736946106, -4.236860275268555, 8.87707233428955, 2.839632511138916, -5.776035308837891, 2.4951977729797363, -0.17333984375, 0.5380859375, -0.732666015625, 
141, 3734243515, -0.7931654453277588, 0.1586085855960846, -0.15184053778648376, 0.5680480599403381, -0.47505828738212585, -4.152109622955322, 8.910788536071777, 3.918452262878418, -4.652978897094727, 1.8838884830474854, -0.16796875, 0.541259765625, -0.73388671875, 
142, 3734251848, -0.7932971715927124, 0.15852785110473633, -0.15147621929645538, 0.5679842829704285, -0.5557213425636292, -4.082791328430176, 8.880248069763184, 3.765228509902954, -4.296224117279053, 0.9438973665237427, -0.171630859375, 0.53955078125, -0.730712890625, 
143, 3734260181, -0.7933797836303711, 0.15841543674468994, -0.15105652809143066, 0.5680119395256042, -0.5852307677268982, -4.1095147132873535, 8.91039752960205, 4.658397197723389, -4.3595428466796875, -0.3916928768157959, -0.172607421875, 0.54150390625, -0.735107421875, 
144, 3734268514, -0.7934110164642334, 0.15805663168430328, -0.15049830079078674, 0.5682166814804077, -0.47858160734176636, -4.401852607727051, 8.985450744628906, 8.652783393859863, -3.446446418762207, -2.614316940307617, -0.1728515625, 0.537109375, -0.734130859375, 
145, 3734276847, -0.793419599533081, 0.15747956931591034, -0.14987865090370178, 0.5685282945632935, -0.460861474275589, -4.413442611694336, 9.009787559509277, 11.732718467712402, -2.030773639678955, -3.7707746028900146, -0.17236328125, 0.5361328125, -0.731689453125, 
146, 3734285180, -0.7933827042579651, 0.15678957104682922, -0.1492345929145813, 0.5689399838447571, -0.4401756525039673, -4.094430923461914, 9.1260986328125, 13.217140197753906, -1.204330325126648, -4.905869483947754, -0.17578125, 0.5361328125, -0.734130859375, 
147, 3734293513, -0.7933300137519836, 0.1561228632926941, -0.14865198731422424, 0.569348931312561, -0.4810134768486023, -4.032317161560059, 9.214661598205566, 12.478296279907227, -0.6626659035682678, -4.886428356170654, -0.17578125, 0.536865234375, -0.736328125, 
148, 3734301846, -0.7932677268981934, 0.15563760697841644, -0.1481906622648239, 0.5696887969970703, -0.48429131507873535, -3.9391703605651855, 9.211545944213867, 9.35174560546875, -0.9163494110107422, -4.349015712738037, -0.17333984375, 0.534912109375, -0.736572265625, 
149, 3734310179, -0.7931725382804871, 0.1553775817155838, -0.14789380133152008, 0.5699692368507385, -0.49047693610191345, -3.8745081424713135, 9.237753868103027, 5.419037342071533, -1.1369390487670898, -3.5583550930023193, -0.17529296875, 0.529541015625, -0.737548828125, 
150, 3734318512, -0.7930943369865417, 0.1553342193365097, -0.14773815870285034, 0.5701304078102112, -0.5150499939918518, -3.9438459873199463, 9.149499893188477, 1.7378363609313965, -1.393619418144226, -2.770231008529663, -0.17578125, 0.531982421875, -0.736572265625, 
151, 3734326845, -0.7930315732955933, 0.15541034936904907, -0.14765958487987518, 0.5702173709869385, -0.5097329020500183, -4.0292439460754395, 9.097489356994629, -0.24981564283370972, -1.613876223564148, -1.9688893556594849, -0.17724609375, 0.530517578125, -0.737060546875, 
152, 3734335178, -0.7929937243461609, 0.15547119081020355, -0.1476265788078308, 0.5702619552612305, -0.5133864879608154, -4.113990783691406, 9.063873291015625, -0.5098257064819336, -1.2043555974960327, -1.1320466995239258, -0.1787109375, 0.533935546875, -0.7392578125, 
153, 3734343511, -0.793006181716919, 0.15548793971538544, -0.14761415123939514, 0.570243239402771, -0.5645166635513306, -4.113220691680908, 9.079168319702148, -0.1639823317527771, -0.715584933757782, -0.1608573943376541, -0.17578125, 0.531982421875, -0.736572265625, 
154, 3734351844, -0.7930374145507812, 0.15552105009555817, -0.14761225879192352, 0.5701912045478821, -0.6524608731269836, -4.0684943199157715, 9.090863227844238, -0.5005020499229431, -0.9949336051940918, 0.5896524786949158, -0.17822265625, 0.529541015625, -0.734619140625, 
155, 3734360177, -0.7930614948272705, 0.15559160709381104, -0.14763155579566956, 0.5701335668563843, -0.607240617275238, -4.034360885620117, 9.087629318237305, -1.0697529315948486, -1.0192928314208984, 0.5732849836349487, -0.1767578125, 0.531005859375, -0.737060546875, 
156, 3734368510, -0.7930698394775391, 0.15564453601837158, -0.1476951390504837, 0.5700910091400146, -0.49573493003845215, -4.032923221588135, 9.125046730041504, -1.2602202892303467, -0.3685632050037384, 0.4043334722518921, -0.1748046875, 0.535888671875, -0.739501953125, 
157, 3734376843, -0.7931017279624939, 0.1556827574968338, -0.14781694114208221, 0.5700045824050903, -0.5175174474716187, -4.017958641052246, 9.110794067382812, -1.51282799243927, 0.6596817970275879, 0.39864712953567505, -0.17529296875, 0.529052734375, -0.737060546875, 
158, 3734385176, -0.7930728793144226, 0.1556716412305832, -0.14800457656383514, 0.5699991583824158, -0.5418379306793213, -4.027567386627197, 9.141597747802734, -1.5370075702667236, 1.6409118175506592, 0.10431396216154099, -0.1748046875, 0.533935546875, -0.737060546875, 
159, 3734393509, -0.7930103540420532, 0.15568575263023376, -0.1482602059841156, 0.5700157880783081, -0.5110752582550049, -4.041711807250977, 9.175341606140137, -2.3483901023864746, 2.2997615337371826, -0.21564625203609467, -0.17431640625, 0.533447265625, -0.736083984375, 
160, 3734401842, -0.7929516434669495, 0.15568208694458008, -0.14852240681648254, 0.5700303912162781, -0.5094975233078003, -4.039455413818359, 9.093828201293945, -2.2271320819854736, 2.5009355545043945, -0.20606651902198792, -0.17333984375, 0.53466796875, -0.734130859375, 
161, 3734410175, -0.7929117679595947, 0.15570242702960968, -0.14878185093402863, 0.5700125694274902, -0.5385344624519348, -4.086326599121094, 9.048430442810059, -2.4365031719207764, 2.4148972034454346, -0.1904674768447876, -0.17431640625, 0.529052734375, -0.739013671875, 
162, 3734418508, -0.7928605675697327, 0.15574248135089874, -0.14902156591415405, 0.5700101852416992, -0.5711115598678589, -4.093491554260254, 9.03603458404541, -2.5451581478118896, 1.8593755960464478, -0.0977439135313034, -0.17578125, 0.533447265625, -0.735595703125, 
163, 3734426841, -0.7928420305252075, 0.15580061078071594, -0.1491934359073639, 0.5699751973152161, -0.5912705063819885, -4.151612281799316, 8.965988159179688, -2.1819229125976562, 0.8665679097175598, 0.3669622838497162, -0.17626953125, 0.534423828125, -0.73681640625, 
164, 3734435174, -0.792862057685852, 0.15582963824272156, -0.14928890764713287, 0.5699143409729004, -0.6225619912147522, -4.23994779586792, 8.994134902954102, -1.2619365453720093, 0.10336625576019287, 0.8114205598831177, -0.173828125, 0.534423828125, -0.736572265625, 
165, 3734443507, -0.7929126024246216, 0.15583007037639618, -0.14932192862033844, 0.5698351263999939, -0.63173907995224, -4.21514892578125, 8.991852760314941, -0.40401333570480347, -0.4104424715042114, 1.1655884981155396, -0.173828125, 0.534423828125, -0.735595703125, 
166, 3734451840, -0.7930080890655518, 0.15579617023468018, -0.1493176370859146, 0.5697126984596252, -0.59005206823349, -4.222849369049072, 9.031367301940918, 0.24111957848072052, -0.7790057063102722, 1.9898802042007446, -0.17333984375, 0.533935546875, -0.737060546875, 
167, 3734460173, -0.7931390404701233, 0.1557512879371643, -0.14931870996952057, 0.569542407989502, -0.573739767074585, -4.182186126708984, 9.023627281188965, 0.32229116559028625, -0.7883806228637695, 2.86419677734375, -0.17333984375, 0.533935546875, -0.737060546875, 
168, 3734468506, -0.7932868003845215, 0.15572009980678558, -0.14935599267482758, 0.569335401058197, -0.5505103468894958, -4.093108654022217, 9.059651374816895, -0.17491960525512695, -0.6361807584762573, 3.4048616886138916, -0.17333984375, 0.535400390625, -0.735595703125, 
169, 3734476839, -0.7934359312057495, 0.15573066473007202, -0.14946578443050385, 0.5690958499908447, -0.5443813800811768, -4.108386039733887, 9.102794647216797, -1.2264608144760132, -0.14103198051452637, 3.706597328186035, -0.171875, 0.533935546875, -0.736572265625, 
170, 3734485172, -0.7935751080513, 0.15571284294128418, -0.1496533900499344, 0.5688574910163879, -0.4845540523529053, -4.151684284210205, 9.073652267456055, -1.5803471803665161, 0.8499188423156738, 3.9738821983337402, -0.17041015625, 0.53515625, -0.73486328125, 
171, 3734493505, -0.7937327027320862, 0.1556340754032135, -0.14989402890205383, 0.5685953497886658, -0.4374191164970398, -4.234462261199951, 9.047904014587402, -1.3001786470413208, 1.9468228816986084, 4.427920341491699, -0.1708984375, 0.53564453125, -0.734619140625, 
172, 3734501838, -0.7939053177833557, 0.1554039865732193, -0.15017524361610413, 0.5683430433273315, -0.46144065260887146, -4.328081130981445, 9.033639907836914, 0.04729669168591499, 3.4332683086395264, 5.023374557495117, -0.169921875, 0.535400390625, -0.739013671875, 
173, 3734510171, -0.7940982580184937, 0.15504899621009827, -0.1504339575767517, 0.568102240562439, -0.5491536259651184, -4.263512134552002, 8.975598335266113, 1.6646050214767456, 4.06888484954834, 5.528178691864014, -0.16796875, 0.536865234375, -0.74072265625, 
174, 3734518504, -0.794320285320282, 0.15463970601558685, -0.1506393849849701, 0.5678489208221436, -0.6491593718528748, -4.186402797698975, 8.953878402709961, 2.6989338397979736, 3.9008560180664062, 5.630739212036133, -0.1708984375, 0.535888671875, -0.737548828125, 
175, 3734526837, -0.7945441007614136, 0.15431664884090424, -0.15082359313964844, 0.5675745010375977, -0.7224283218383789, -4.165203094482422, 8.935554504394531, 1.9134217500686646, 3.0034101009368896, 5.626538276672363, -0.16943359375, 0.5361328125, -0.73876953125, 
176, 3734535170, -0.7947539687156677, 0.15409378707408905, -0.15099814534187317, 0.5672948360443115, -0.7181789875030518, -4.103625774383545, 8.898959159851074, 0.8228958249092102, 2.0780701637268066, 5.371804714202881, -0.166015625, 0.53466796875, -0.73876953125, 
177, 3734543503, -0.794925332069397, 0.15394292771816254, -0.15115106105804443, 0.5670549273490906, -0.7307425737380981, -4.033867359161377, 8.8529634475708, 0.20287752151489258, 1.2773178815841675, 4.894124507904053, -0.1669921875, 0.53466796875, -0.73828125, 
178, 3734551836, -0.7950902581214905, 0.153859481215477, -0.15127940475940704, 0.5668120980262756, -0.7113825678825378, -4.102645397186279, 8.803976058959961, -0.3594702184200287, 0.6572741270065308, 4.230126857757568, -0.16455078125, 0.53564453125, -0.737060546875, 
179, 3734560169, -0.795223593711853, 0.15369772911071777, -0.15133197605609894, 0.5666549205780029, -0.6709611415863037, -4.21589469909668, 8.78166675567627, 1.2204543352127075, 0.6738465428352356, 3.167827844619751, -0.16650390625, 0.5341796875, -0.7373046875, 
180, 3734568502, -0.795340359210968, 0.15334556996822357, -0.15127840638160706, 0.5666007399559021, -0.6035704612731934, -4.375823020935059, 8.751733779907227, 4.286913871765137, 1.261001706123352, 1.9673911333084106, -0.166015625, 0.5361328125, -0.73974609375, 
181, 3734576835, -0.7954461574554443, 0.1527465581893921, -0.15107597410678864, 0.5666680335998535, -0.5750495195388794, -4.417410373687744, 8.738617897033691, 8.407297134399414, 1.8792269229888916, 0.7491779923439026, -0.16650390625, 0.53515625, -0.7373046875, 
182, 3734585168, -0.7955521941184998, 0.15190300345420837, -0.15075448155403137, 0.5668315291404724, -0.5505338907241821, -4.361898422241211, 8.770755767822266, 12.181349754333496, 2.6389195919036865, -0.040368035435676575, -0.163818359375, 0.531494140625, -0.741455078125, 
183, 3734593501, -0.7956744432449341, 0.15088635683059692, -0.1503860503435135, 0.5670292377471924, -0.5237746834754944, -4.285220146179199, 8.75304889678955, 14.605149269104004, 3.731520652770996, -0.41533491015434265, -0.164306640625, 0.532958984375, -0.744140625, 
184, 3734601834, -0.7957793474197388, 0.14975576102733612, -0.15003564953804016, 0.5672745108604431, -0.5319666266441345, -4.2345991134643555, 8.757909774780273, 15.712838172912598, 4.734472274780273, -0.4081885516643524, -0.161376953125, 0.531005859375, -0.740478515625, 
185, 3734610167, -0.7958743572235107, 0.14868640899658203, -0.14981964230537415, 0.5674796104431152, -0.5497031211853027, -3.976375102996826, 8.818642616271973, 13.917819023132324, 5.658327102661133, 0.212764710187912, -0.163330078125, 0.528076171875, -0.744873046875, 
186, 3734618500, -0.7959561347961426, 0.14779461920261383, -0.14980889856815338, 0.5676006078720093, -0.5998843312263489, -3.8278706073760986, 8.901721954345703, 10.145607948303223, 6.380955219268799, 0.9750699996948242, -0.159423828125, 0.526611328125, -0.7431640625, 
187, 3734626833, -0.7960555553436279, 0.14720042049884796, -0.15000560879707336, 0.567563533782959, -0.6741117835044861, -3.7416374683380127, 8.872733116149902, 5.043839931488037, 6.185235500335693, 2.266155481338501, -0.158935546875, 0.528076171875, -0.74609375, 
188, 3734635166, -0.7961304187774658, 0.14690086245536804, -0.1503635048866272, 0.5674415230751038, -0.7983691692352295, -3.737306594848633, 8.89307975769043, 0.270114928483963, 5.315427780151367, 3.10955548286438, -0.160888671875, 0.52587890625, -0.747802734375, 
189, 3734643499, -0.7961302995681763, 0.14693103730678558, -0.15087972581386566, 0.5672969222068787, -0.8392531275749207, -3.7134804725646973, 8.928590774536133, -4.741194725036621, 4.61818265914917, 2.424886703491211, -0.160888671875, 0.52783203125, -0.746337890625, 
190, 3734651832, -0.7960665225982666, 0.14715227484703064, -0.15143254399299622, 0.5671819448471069, -0.8268663287162781, -3.928678035736084, 8.916763305664062, -7.217527389526367, 3.687232732772827, 1.2630250453948975, -0.160888671875, 0.5283203125, -0.746826171875, 
191, 3734660165, -0.7959424257278442, 0.14744073152542114, -0.1519237607717514, 0.5671494603157043, -0.8264089226722717, -4.12126350402832, 8.861912727355957, -7.398262977600098, 2.775341272354126, -0.2716134190559387, -0.156982421875, 0.530517578125, -0.7470703125, 
192, 3734668498, -0.7958242893218994, 0.1476244479417801, -0.15227478742599487, 0.5671734809875488, -0.790575385093689, -4.229178428649902, 8.857258796691895, -5.052971363067627, 2.164518117904663, -1.0101230144500732, -0.157958984375, 0.529052734375, -0.74658203125, 
193, 3734676831, -0.7957251071929932, 0.14767903089523315, -0.1524887979030609, 0.5672409534454346, -0.7176367044448853, -4.253594875335693, 8.822815895080566, -2.418086290359497, 1.7074835300445557, -1.2277672290802002, -0.157958984375, 0.531982421875, -0.7451171875, 
194, 3734685164, -0.7956771850585938, 0.14760485291481018, -0.1525648534297943, 0.56730717420578, -0.7162785530090332, -4.182760715484619, 8.810006141662598, 0.14496375620365143, 1.1063684225082397, -0.9427318572998047, -0.159423828125, 0.529541015625, -0.7451171875, 
195, 3734693497, -0.795661211013794, 0.14742420613765717, -0.15254202485084534, 0.5673826336860657, -0.7049026489257812, -4.2686285972595215, 8.822090148925781, 2.201402425765991, 0.8548622727394104, -0.7886110544204712, -0.158447265625, 0.531494140625, -0.74560546875, 
196, 3734701830, -0.795654833316803, 0.14717456698417664, -0.15249592065811157, 0.5674689412117004, -0.680307924747467, -4.12158203125, 8.844803810119629, 3.1442370414733887, 1.0914868116378784, -0.7185561060905457, -0.157470703125, 0.530029296875, -0.74658203125, 
197, 3734710163, -0.7956529259681702, 0.14696280658245087, -0.15248927474021912, 0.5675279498100281, -0.695820152759552, -3.8918890953063965, 8.884387016296387, 2.3992981910705566, 1.1405377388000488, -0.24689559638500214, -0.157958984375, 0.531005859375, -0.74560546875, 
198, 3734718496, -0.7956365346908569, 0.14689798653125763, -0.1525735706090927, 0.5675451159477234, -0.7714341282844543, -3.8125367164611816, 8.933042526245117, -0.06155099719762802, 0.9589584469795227, -0.16421283781528473, -0.159423828125, 0.531005859375, -0.746337890625, 
199, 3734726829, -0.7955911755561829, 0.14705869555473328, -0.1527957171201706, 0.567507266998291, -0.7719519734382629, -3.792515993118286, 8.952073097229004, -3.7488224506378174, 0.6642155051231384, 0.08699874579906464, -0.161376953125, 0.531005859375, -0.744873046875, 
200, 3734735162, -0.7955474853515625, 0.1473740190267563, -0.1531275063753128, 0.5673974752426147, -0.7398422956466675, -3.8279528617858887, 8.96744155883789, -6.472972393035889, 0.4986450672149658, 0.711883544921875, -0.158447265625, 0.531494140625, -0.74609375, 
201, 3734743495, -0.7955098152160645, 0.14774978160858154, -0.15352779626846313, 0.567244291305542, -0.757258415222168, -3.9622106552124023, 8.981215476989746, -7.7290449142456055, 0.6394210457801819, 1.4185549020767212, -0.157958984375, 0.530029296875, -0.7412109375, 
202, 3734751828, -0.7955024838447571, 0.14808642864227295, -0.15390297770500183, 0.5670651793479919, -0.8175742626190186, -4.144299030303955, 8.96830940246582, -7.117120742797852, 0.5901647806167603, 1.7986958026885986, -0.156494140625, 0.530029296875, -0.7451171875, 
203, 3734760161, -0.7955371737480164, 0.14834022521972656, -0.1541721373796463, 0.5668767690658569, -0.8270494341850281, -4.212629318237305, 8.925565719604492, -5.261753082275391, 0.1342570185661316, 1.908837080001831, -0.153564453125, 0.532470703125, -0.7490234375, 
204, 3734768494, -0.7955936789512634, 0.14845331013202667, -0.15429887175559998, 0.5667334794998169, -0.8110097050666809, -4.288636207580566, 8.925047874450684, -2.5285091400146484, -0.44681471586227417, 1.873565912246704, -0.156982421875, 0.534423828125, -0.74755859375, 
205, 3734776827, -0.7956734299659729, 0.1484317034482956, -0.15430238842964172, 0.5666261911392212, -0.7461041808128357, -4.2072248458862305, 8.898232460021973, 0.05802904814481735, -0.7153286933898926, 1.7655507326126099, -0.155029296875, 0.532958984375, -0.74462890625, 
206, 3734785160, -0.7957674264907837, 0.14834639430046082, -0.15425053238868713, 0.566530704498291, -0.7445732951164246, -4.111936569213867, 8.899299621582031, 1.211694359779358, -0.8371244668960571, 1.698569655418396, -0.157470703125, 0.5341796875, -0.74365234375, 
207, 3734793493, -0.7958770990371704, 0.14825138449668884, -0.15418212115764618, 0.5664201974868774, -0.7585372924804688, -4.057558536529541, 8.924983024597168, 1.4993163347244263, -0.8732660412788391, 1.7621439695358276, -0.156982421875, 0.531494140625, -0.74462890625, 
208, 3734801826, -0.7959581017494202, 0.14824646711349487, -0.1541755497455597, 0.56630939245224, -0.7489386200904846, -3.953946352005005, 8.91523265838623, -0.08017255365848541, -0.9711636900901794, 1.6872223615646362, -0.154052734375, 0.533203125, -0.7431640625, 
209, 3734810159, -0.7960059642791748, 0.14835213124752045, -0.1542314738035202, 0.5661991238594055, -0.7532016634941101, -3.956294298171997, 8.919753074645996, -1.8239129781723022, -1.1280510425567627, 1.5113040208816528, -0.156005859375, 0.533447265625, -0.744140625, 
210, 3734818492, -0.79604172706604, 0.14855170249938965, -0.1543484926223755, 0.5660646557807922, -0.755135178565979, -4.020255088806152, 8.911763191223145, -3.4228556156158447, -1.163577914237976, 1.4111778736114502, -0.156005859375, 0.532958984375, -0.7470703125, 
211, 3734826825, -0.7960819602012634, 0.1488080471754074, -0.15451613068580627, 0.5658947229385376, -0.6724653840065002, -4.064502716064453, 8.907548904418945, -4.433875560760498, -0.8973691463470459, 1.3851027488708496, -0.157470703125, 0.533447265625, -0.7431640625, 
212, 3734835158, -0.7961195707321167, 0.14897651970386505, -0.1547035276889801, 0.5657464265823364, -0.6060789227485657, -4.1235761642456055, 8.897764205932617, -3.6564064025878906, -0.18175861239433289, 1.787758231163025, -0.155029296875, 0.534423828125, -0.74560546875, 
213, 3734843491, -0.7961645722389221, 0.14903798699378967, -0.15493620932102203, 0.5656031370162964, -0.6218906044960022, -4.230195999145508, 8.935460090637207, -2.7924890518188477, 1.0882335901260376, 2.306472063064575, -0.159423828125, 0.533935546875, -0.742431640625, 
214, 3734851824, -0.7962230443954468, 0.14905066788196564, -0.15517982840538025, 0.5654506683349609, -0.7237667441368103, -4.21928071975708, 8.908011436462402, -2.3533332347869873, 1.5916043519973755, 2.442790985107422, -0.156494140625, 0.53515625, -0.74267578125, 
215, 3734860157, -0.7962765097618103, 0.14908063411712646, -0.155386283993721, 0.5653108358383179, -0.779127299785614, -4.193029880523682, 8.869806289672852, -2.216373920440674, 1.050478219985962, 2.318049669265747, -0.154541015625, 0.53564453125, -0.7412109375, 
216, 3734868490, -0.7963468432426453, 0.14916342496871948, -0.1555306315422058, 0.565150260925293, -0.7939114570617676, -4.186891555786133, 8.83836841583252, -2.3431131839752197, -0.08232415467500687, 2.2688961029052734, -0.156005859375, 0.531982421875, -0.744140625, 
217, 3734876823, -0.7964178919792175, 0.14932207763195038, -0.1556142419576645, 0.5649851560592651, -0.7630621194839478, -4.179049968719482, 8.858773231506348, -2.6849348545074463, -1.3740755319595337, 2.178605318069458, -0.154052734375, 0.5361328125, -0.74365234375, 
218, 3734885156, -0.7964996695518494, 0.14951296150684357, -0.15565785765647888, 0.5648073554039001, -0.7136785387992859, -4.228048801422119, 8.834465026855469, -2.7568089962005615, -2.084435224533081, 2.1109073162078857, -0.154541015625, 0.53857421875, -0.74267578125, 
219, 3734893489, -0.7965728640556335, 0.14969117939472198, -0.15569405257701874, 0.5646469593048096, -0.6608690619468689, -4.186814785003662, 8.878726959228516, -2.4992575645446777, -1.9550319910049438, 1.818213701248169, -0.153076171875, 0.5341796875, -0.742431640625, 
220, 3734901822, -0.7966518402099609, 0.14981882274150848, -0.15573111176490784, 0.5644913911819458, -0.6993427276611328, -4.2876176834106445, 8.959493637084961, -1.9720909595489502, -1.6128513813018799, 1.9648804664611816, -0.153076171875, 0.53662109375, -0.74169921875, 
221, 3734910155, -0.7967342138290405, 0.14987580478191376, -0.1557701826095581, 0.5643492341041565, -0.701261043548584, -4.336025238037109, 8.950538635253906, -1.163629174232483, -1.1198800802230835, 2.295330047607422, -0.151123046875, 0.5390625, -0.741943359375, 
222, 3734918488, -0.7968540191650391, 0.14987365901470184, -0.15579523146152496, 0.5641737580299377, -0.6988751292228699, -4.205807209014893, 8.926603317260742, -0.4153860807418823, -0.8658124804496765, 2.75443959236145, -0.151611328125, 0.5390625, -0.7412109375, 
223, 3734926821, -0.7969696521759033, 0.1498650163412094, -0.15584434568881989, 0.5639991164207458, -0.6641451120376587, -4.104928970336914, 8.914872169494629, -0.5486056804656982, -0.7774689793586731, 3.371614933013916, -0.153564453125, 0.5380859375, -0.74072265625, 
224, 3734935154, -0.7971359491348267, 0.1498269885778427, -0.15593977272510529, 0.5637476444244385, -0.6535248160362244, -4.077548980712891, 9.018636703491211, -0.6336961984634399, -0.0744093582034111, 4.169985294342041, -0.155517578125, 0.5380859375, -0.74169921875, 
225, 3734943487, -0.7973107099533081, 0.1497562825679779, -0.15614540874958038, 0.5634623169898987, -0.6633879542350769, -4.190812587738037, 9.057760238647461, -1.1573792695999146, 1.2849764823913574, 5.025397777557373, -0.150634765625, 0.537841796875, -0.739501953125, 
226, 3734951820, -0.7975084781646729, 0.14963991940021515, -0.15641476213932037, 0.5631386041641235, -0.7369410395622253, -4.188434600830078, 9.054458618164062, -1.2137306928634644, 2.223123788833618, 5.732402324676514, -0.152587890625, 0.53759765625, -0.740234375, 
227, 3734960153, -0.7977166175842285, 0.14949187636375427, -0.15666694939136505, 0.5628129243850708, -0.7981022596359253, -4.175466537475586, 9.046012878417969, -0.6859236359596252, 2.2497622966766357, 5.967233180999756, -0.151123046875, 0.538330078125, -0.740478515625, 
228, 3734968486, -0.7979426980018616, 0.14933733642101288, -0.15687409043312073, 0.562475860118866, -0.8214828968048096, -4.131131172180176, 9.069008827209473, -0.28406187891960144, 1.7479795217514038, 6.05250358581543, -0.148681640625, 0.53662109375, -0.742431640625, 
229, 3734976819, -0.7981789112091064, 0.1492447555065155, -0.15703776478767395, 0.5621192455291748, -0.8760473132133484, -4.0902605056762695, 9.081366539001465, -0.5970678925514221, 0.8367275595664978, 5.977479457855225, -0.149169921875, 0.538818359375, -0.738037109375, 
230, 3734985152, -0.7984117865562439, 0.14918529987335205, -0.15717138350009918, 0.561767041683197, -0.8550964593887329, -4.087413787841797, 9.033639907836914, -0.7782629728317261, 0.16140812635421753, 5.915441513061523, -0.148681640625, 0.538818359375, -0.739501953125, 
231, 3734993485, -0.7986456751823425, 0.14915156364440918, -0.15728144347667694, 0.5614123940467834, -0.8643258810043335, -4.1049089431762695, 9.025997161865234, -0.8450135588645935, -0.2762751579284668, 5.869156837463379, -0.146728515625, 0.540283203125, -0.741943359375, 
232, 3735001818, -0.7988896369934082, 0.14910325407981873, -0.15735968947410583, 0.5610562562942505, -0.8334674835205078, -4.128243446350098, 8.97762680053711, -0.4587253928184509, -0.5638718008995056, 5.9061431884765625, -0.151123046875, 0.5390625, -0.741455078125, 
233, 3735010151, -0.7991865873336792, 0.14901654422283173, -0.15741662681102753, 0.5606402158737183, -0.775983989238739, -4.174353122711182, 8.977644920349121, 0.23048970103263855, -0.2718951404094696, 6.078630447387695, -0.149169921875, 0.537109375, -0.740966796875, 
234, 3735018484, -0.7994844317436218, 0.1488334983587265, -0.15752607583999634, 0.5602332949638367, -0.7624073624610901, -4.105732440948486, 8.949127197265625, 0.7822203040122986, 0.5963890552520752, 7.234549045562744, -0.147705078125, 0.540283203125, -0.740478515625, 
235, 3735026817, -0.7998497486114502, 0.14853379130363464, -0.15769518911838531, 0.5597437620162964, -0.6943491101264954, -4.062066078186035, 9.036725044250488, 1.6140940189361572, 1.930071234703064, 8.919454574584961, -0.147216796875, 0.539794921875, -0.741455078125, 
236, 3735035150, -0.8002699613571167, 0.14822101593017578, -0.15799015760421753, 0.5591423511505127, -0.7671209573745728, -3.948951244354248, 9.120500564575195, 0.6094267964363098, 2.9717257022857666, 10.975970268249512, -0.142822265625, 0.540283203125, -0.7421875, 
237, 3735043483, -0.8007529973983765, 0.1479944884777069, -0.1584094762802124, 0.5583916902542114, -0.8915833234786987, -3.758363962173462, 9.128707885742188, -1.4489463567733765, 3.3087832927703857, 13.099980354309082, -0.145263671875, 0.542236328125, -0.742431640625, 
238, 3735051816, -0.8012619018554688, 0.14787797629833221, -0.15892988443374634, 0.5575438737869263, -0.9231998920440674, -3.8173868656158447, 9.179662704467773, -3.6391944885253906, 3.2514586448669434, 14.403104782104492, -0.144287109375, 0.540771484375, -0.74267578125, 
239, 3735060149, -0.8017407655715942, 0.14774519205093384, -0.15951034426689148, 0.5567242503166199, -0.8941918015480042, -3.8824965953826904, 9.27280330657959, -3.880403518676758, 4.22139310836792, 13.974117279052734, -0.138916015625, 0.54248046875, -0.740478515625, 
240, 3735068482, -0.802130401134491, 0.1473725587129593, -0.1599956899881363, 0.5561224222183228, -0.8366221785545349, -4.144200325012207, 9.094218254089355, -0.25078901648521423, 5.587041854858398, 11.26766586303711, -0.141845703125, 0.542724609375, -0.73974609375, 
241, 3735076815, -0.8023530840873718, 0.14671359956264496, -0.16034719347953796, 0.5558741092681885, -0.7959713935852051, -3.9331326484680176, 9.084176063537598, 4.445158958435059, 7.6114630699157715, 6.04102897644043, -0.135498046875, 0.54296875, -0.741943359375, 
242, 3735085148, -0.8023802638053894, 0.1459263563156128, -0.16063529253005981, 0.5559586882591248, -0.9809063076972961, -3.6310789585113525, 9.071236610412598, 6.610202312469482, 8.767305374145508, 1.4381499290466309, -0.135009765625, 0.541748046875, -0.743408203125, 
243, 3735093481, -0.8021382689476013, 0.145280122756958, -0.16080310940742493, 0.5564286708831787, -1.1666136980056763, -3.4137208461761475, 8.976099967956543, 6.320095062255859, 7.784564018249512, -5.458419322967529, -0.134521484375, 0.542724609375, -0.743408203125, 
244, 3735101814, -0.8014279007911682, 0.14506575465202332, -0.1607808917760849, 0.5575135946273804, -1.0885913372039795, -3.136967420578003, 8.855939865112305, 3.398894786834717, 4.594951152801514, -17.127038955688477, -0.135986328125, 0.541748046875, -0.742431640625, 
245, 3735110147, -0.8001909255981445, 0.1447426676750183, -0.160417839884758, 0.5594754219055176, -1.0481394529342651, -3.56510329246521, 8.897486686706543, 8.166095733642578, 4.804326057434082, -31.666549682617188, -0.135498046875, 0.541259765625, -0.745361328125, 
246, 3735118480, -0.7980793714523315, 0.14371256530284882, -0.15967470407485962, 0.562958836555481, -0.44958406686782837, -4.05560302734375, 8.948497772216797, 20.418794631958008, 10.801133155822754, -53.93913269042969, -0.13818359375, 0.540283203125, -0.748779296875, 
247, 3735126813, -0.7951111197471619, 0.14240224659442902, -0.15895427763462067, 0.5676761269569397, -0.2832739055156708, -3.3373663425445557, 9.279186248779297, 24.359952926635742, 17.583768844604492, -73.46543884277344, -0.142578125, 0.53076171875, -0.74755859375, 
248, 3735135146, -0.791452944278717, 0.14124293625354767, -0.1585252732038498, 0.5731712579727173, -0.9231203198432922, -2.280636787414551, 9.739568710327148, 20.758148193359375, 22.576416015625, -87.10009765625, -0.1474609375, 0.52734375, -0.75341796875, 
249, 3735143479, -0.7869914174079895, 0.14025990664958954, -0.15808893740177155, 0.5796396136283875, -1.3085379600524902, -2.4332528114318848, 9.695151329040527, 19.466060638427734, 24.770187377929688, -104.37834930419922, -0.15087890625, 0.52197265625, -0.752685546875, 
250, 3735151812, -0.7810606360435486, 0.1390925645828247, -0.1574699878692627, 0.5880505442619324, -0.5697121024131775, -3.34366774559021, 9.492765426635742, 24.298112869262695, 31.18383026123047, -137.11245727539062, -0.155517578125, 0.514892578125, -0.757568359375, 
251, 3735160145, -0.7732724547386169, 0.13753309845924377, -0.15638688206672668, 0.5988993644714355, -0.009074583649635315, -3.3816959857940674, 9.582196235656738, 34.0112419128418, 38.1925048828125, -178.5775146484375, -0.166748046875, 0.509033203125, -0.758544921875, 
252, 3735168478, -0.7633079290390015, 0.13579563796520233, -0.15456274151802063, 0.6123999357223511, -0.7670759558677673, -2.750906229019165, 8.703560829162598, 43.572872161865234, 41.33791732788086, -225.5034637451172, -0.178955078125, 0.500244140625, -0.765380859375, 
253, 3735176811, -0.7513108253479004, 0.13422873616218567, -0.15117742121219635, 0.6282218098640442, -1.9167842864990234, -2.0204668045043945, 8.650485038757324, 56.060340881347656, 32.186126708984375, -270.21441650390625, -0.19091796875, 0.484130859375, -0.77001953125, 
254, 3735185144, -0.7375649809837341, 0.13312122225761414, -0.14598551392555237, 0.6457302570343018, -2.1894161701202393, -2.0321528911590576, 9.262871742248535, 67.21170043945312, 16.282917022705078, -307.1046142578125, -0.2119140625, 0.46826171875, -0.7744140625, 
255, 3735193477, -0.7222021222114563, 0.132858008146286, -0.13965295255184174, 0.6642833948135376, -1.5377837419509888, -1.491992712020874, 9.928661346435547, 67.89697265625, 2.4480137825012207, -335.9556884765625, -0.230712890625, 0.44873046875, -0.781982421875, 
256, 3735201810, -0.7059388160705566, 0.13269087672233582, -0.13294170796871185, 0.682914674282074, -0.7733976244926453, -2.076596736907959, 10.41574478149414, 68.92598724365234, -0.3923250138759613, -345.7308349609375, -0.25390625, 0.427734375, -0.78662109375, 
257, 3735210143, -0.6890167593955994, 0.1319861263036728, -0.1260269582271576, 0.7013953328132629, -0.31266921758651733, -2.684724807739258, 10.264660835266113, 74.53900909423828, 3.633212089538574, -349.8576354980469, -0.278076171875, 0.400390625, -0.7939453125, 
258, 3735218476, -0.6713765859603882, 0.1317656934261322, -0.11917153000831604, 0.719508171081543, -0.4429760277271271, -1.451947569847107, 9.61840534210205, 67.47830200195312, 0.07681307196617126, -354.0191345214844, -0.296875, 0.37451171875, -0.79833984375, 
259, 3735226809, -0.6533517241477966, 0.13153748214244843, -0.11153693497180939, 0.7371509075164795, -0.28263071179389954, -0.585618793964386, 9.277931213378906, 73.74092864990234, -7.2744903564453125, -354.8210144042969, -0.316162109375, 0.35009765625, -0.8037109375, 
260, 3735235142, -0.6351770758628845, 0.13321685791015625, -0.10436064749956131, 0.7536013126373291, -0.29882287979125977, -0.42669031023979187, 9.245834350585938, 49.90436935424805, -24.409164428710938, -347.7853698730469, -0.342041015625, 0.32177734375, -0.80419921875, 
261, 3735243475, -0.6171481609344482, 0.13700638711452484, -0.09775688499212265, 0.7686375379562378, -0.03811594471335411, 0.24879494309425354, 9.061089515686035, 23.69207763671875, -44.0435905456543, -336.0043640136719, -0.35888671875, 0.297119140625, -0.804931640625, 
262, 3735251808, -0.6003090143203735, 0.14288511872291565, -0.0917317345738411, 0.781537652015686, -0.29257312417030334, -1.7558904886245728, 9.45296859741211, -0.7043501734733582, -66.87513732910156, -306.90325927734375, -0.376220703125, 0.275390625, -0.803955078125, 
263, 3735260141, -0.5853337645530701, 0.1501418650150299, -0.0860622376203537, 0.7921096086502075, -0.20235639810562134, -3.3117129802703857, 9.321786880493164, -15.26134204864502, -85.70152282714844, -268.6556396484375, -0.401611328125, 0.25732421875, -0.798828125, 
264, 3735268474, -0.5723515748977661, 0.15828387439250946, -0.0805584117770195, 0.800545334815979, 0.38845136761665344, -3.5370068550109863, 8.718039512634277, -22.522069931030273, -100.75483703613281, -230.4785614013672, -0.419677734375, 0.2421875, -0.79150390625, 
265, 3735276807, -0.5612479448318481, 0.16626204550266266, -0.07539118826389313, 0.8072647452354431, 1.7632583379745483, -3.968634605407715, 8.93898868560791, -22.82975196838379, -102.14899444580078, -195.36940002441406, -0.4404296875, 0.229736328125, -0.78076171875, 
266, 3735285140, -0.5514466166496277, 0.17373774945735931, -0.07144710421562195, 0.8127851486206055, 3.4230291843414307, -4.338811874389648, 8.77116584777832, -30.71637535095215, -91.1878433227539, -168.33937072753906, -0.45703125, 0.21923828125, -0.7734375, 
267, 3735293473, -0.5427695512771606, 0.18081428110599518, -0.06862148642539978, 0.8173133730888367, 3.585115909576416, -3.883922576904297, 8.544342041015625, -38.548828125, -81.75040435791016, -145.17828369140625, -0.4697265625, 0.209228515625, -0.764404296875, 
268, 3735301806, -0.535109281539917, 0.18726077675819397, -0.06597737967967987, 0.821121871471405, 3.054016590118408, -4.684429168701172, 8.346369743347168, -33.96668243408203, -76.0322265625, -127.3360824584961, -0.483154296875, 0.20166015625, -0.758544921875, 
269, 3735310139, -0.5281739830970764, 0.19273915886878967, -0.06324633955955505, 0.8245522379875183, 3.57826566696167, -4.557987689971924, 8.477934837341309, -24.395601272583008, -67.39486694335938, -115.70584106445312, -0.497314453125, 0.1943359375, -0.747802734375, 
270, 3735318472, -0.521898627281189, 0.19717833399772644, -0.0609891414642334, 0.8276627659797668, 4.292374610900879, -3.76351261138916, 8.635744094848633, -20.692461013793945, -53.567405700683594, -103.74671173095703, -0.508056640625, 0.185546875, -0.7451171875, 
271, 3735326805, -0.5161696076393127, 0.201155886054039, -0.05941512808203697, 0.8304082155227661, 3.7344021797180176, -3.231942653656006, 8.400738716125488, -24.027414321899414, -44.87363815307617, -92.66016387939453, -0.512939453125, 0.181640625, -0.740234375, 
272, 3735335138, -0.5108972191810608, 0.20495952665805817, -0.05857411026954651, 0.8327949047088623, 3.4936156272888184, -3.001697063446045, 8.76155948638916, -30.143844604492188, -39.034950256347656, -82.73656463623047, -0.51953125, 0.17626953125, -0.732666015625, 
273, 3735343471, -0.5060015320777893, 0.2086815983057022, -0.058732517063617706, 0.834845781326294, 3.8967833518981934, -2.9763357639312744, 9.03162670135498, -40.27459716796875, -32.337738037109375, -73.17169952392578, -0.52392578125, 0.17236328125, -0.730224609375, 
274, 3735351804, -0.5014516711235046, 0.21211670339107513, -0.05946682393550873, 0.8366712927818298, 3.869731903076172, -3.4179255962371826, 9.060795783996582, -44.03009033203125, -25.95270538330078, -65.75735473632812, -0.53369140625, 0.172119140625, -0.728271484375, 
275, 3735360137, -0.49716243147850037, 0.21494923532009125, -0.059946272522211075, 0.8384720683097839, 3.9526000022888184, -4.26681661605835, 8.951945304870605, -36.248165130615234, -21.067659378051758, -62.826995849609375, -0.5380859375, 0.169677734375, -0.727783203125, 
276, 3735368470, -0.4931327700614929, 0.21687504649162292, -0.059882618486881256, 0.840358316898346, 4.4336981773376465, -4.567648887634277, 8.626288414001465, -22.90361976623535, -14.282219886779785, -61.28818130493164, -0.5390625, 0.166748046875, -0.719482421875, 
277, 3735376803, -0.4894554913043976, 0.21788455545902252, -0.05947590246796608, 0.8422737121582031, 4.493344306945801, -4.473742961883545, 8.44958782196045, -11.68799114227295, -6.21974515914917, -57.669342041015625, -0.54296875, 0.162841796875, -0.718994140625, 
278, 3735385136, -0.48611390590667725, 0.21859532594680786, -0.059447139501571655, 0.8440250158309937, 4.09016227722168, -3.5657176971435547, 8.156708717346191, -13.145281791687012, -0.9853307008743286, -51.314064025878906, -0.54248046875, 0.158203125, -0.721923828125, 
279, 3735393469, -0.4831666946411133, 0.2195771187543869, -0.06025002524256706, 0.8454042077064514, 3.7577130794525146, -3.426053524017334, 8.037841796875, -23.759096145629883, 0.000012807144230464473, -41.95697021484375, -0.54296875, 0.15576171875, -0.719482421875, 
280, 3735401802, -0.4804869592189789, 0.22090943157672882, -0.06159224361181259, 0.8464871048927307, 3.79752516746521, -3.654970169067383, 7.918187141418457, -31.766172409057617, -1.6203852891921997, -35.55447006225586, -0.548828125, 0.1552734375, -0.71728515625, 
281, 3735410135, -0.478058397769928, 0.2223973572254181, -0.06321094930171967, 0.8473527431488037, 3.8584697246551514, -3.6146087646484375, 7.784683704376221, -35.458187103271484, -2.459970235824585, -30.470806121826172, -0.546875, 0.15966796875, -0.720703125, 
282, 3735418468, -0.4757699966430664, 0.22383473813533783, -0.06498059630393982, 0.8481279611587524, 3.742154359817505, -3.3767521381378174, 8.076852798461914, -36.509342193603516, -1.2946226596832275, -27.753253936767578, -0.54931640625, 0.15576171875, -0.716796875, 
283, 3735426801, -0.47366252541542053, 0.2252042591571808, -0.06734734773635864, 0.8487601280212402, 4.0380401611328125, -4.331480503082275, 8.265298843383789, -42.62179183959961, 2.824756383895874, -22.793590545654297, -0.547607421875, 0.158447265625, -0.71484375, 
284, 3735435134, -0.4718581736087799, 0.22603295743465424, -0.06923650205135345, 0.8493926525115967, 3.9113781452178955, -4.618503570556641, 8.326791763305664, -32.565696716308594, 5.72395658493042, -20.251253128051758, -0.547119140625, 0.159912109375, -0.716796875, 
285, 3735443467, -0.47018641233444214, 0.2265973538160324, -0.0703120306134224, 0.8500807285308838, 3.4764769077301025, -4.733525276184082, 8.39084529876709, -20.893417358398438, 3.6066784858703613, -21.32486343383789, -0.547607421875, 0.162841796875, -0.7138671875, 
286, 3735451800, -0.4685814380645752, 0.2271689623594284, -0.07072316110134125, 0.850780189037323, 3.577085256576538, -4.280725479125977, 8.26926326751709, -12.94211196899414, -0.8316946029663086, -22.712230682373047, -0.548095703125, 0.161376953125, -0.7158203125, 
287, 3735460133, -0.46707871556282043, 0.22787941992282867, -0.07066065073013306, 0.8514212965965271, 3.4925591945648193, -4.435592174530029, 7.997035503387451, -8.03549861907959, -5.758262634277344, -22.7392578125, -0.554443359375, 0.160888671875, -0.713623046875, 
288, 3735468466, -0.46577396988868713, 0.22881878912448883, -0.07011765241622925, 0.8519287705421448, 3.3261563777923584, -4.406233310699463, 7.855580806732178, -3.387817859649658, -12.167076110839844, -21.303346633911133, -0.551025390625, 0.15771484375, -0.71533203125, 
289, 3735476799, -0.46467354893684387, 0.22997412085533142, -0.06937137246131897, 0.852279543876648, 3.523094415664673, -4.095952987670898, 7.977106094360352, -1.8897677659988403, -16.654691696166992, -18.74384117126465, -0.552490234375, 0.15625, -0.71337890625, 
290, 3735485132, -0.4637521207332611, 0.2312159389257431, -0.06875723600387573, 0.8524953722953796, 3.5549051761627197, -3.8188185691833496, 8.176595687866211, -3.560687780380249, -17.457185745239258, -15.458147048950195, -0.555419921875, 0.15576171875, -0.710205078125, 
291, 3735493465, -0.46301698684692383, 0.23223736882209778, -0.06843914091587067, 0.8526427745819092, 3.820323944091797, -3.795293092727661, 8.422595977783203, -5.086808681488037, -13.339794158935547, -11.679197311401367, -0.556884765625, 0.15625, -0.711669921875, 
292, 3735501798, -0.46247759461402893, 0.23276929557323456, -0.06835722923278809, 0.8527970910072327, 3.970701217651367, -4.139445781707764, 8.572236061096191, -4.119332790374756, -6.296696186065674, -8.223962783813477, -0.561279296875, 0.1552734375, -0.7060546875, 
293, 3735510131, -0.46221351623535156, 0.23282697796821594, -0.06835361570119858, 0.8529248237609863, 3.808232307434082, -4.207390785217285, 8.598828315734863, -1.1493877172470093, -0.5390772223472595, -4.1191792488098145, -0.559814453125, 0.1533203125, -0.706787109375, 
294, 3735518464, -0.46219512820243835, 0.23249858617782593, -0.06834759563207626, 0.8530247807502747, 3.7145471572875977, -4.273436069488525, 8.690958023071289, 2.0783774852752686, 3.611671209335327, -0.7152519226074219, -0.557861328125, 0.154541015625, -0.705810546875, 
295, 3735526797, -0.46247199177742004, 0.23189221322536469, -0.06832635402679443, 0.8530416488647461, 3.6247315406799316, -4.27358865737915, 8.736492156982422, 4.9111833572387695, 6.2769341468811035, 3.498891592025757, -0.559326171875, 0.15380859375, -0.709716796875, 
296, 3735535130, -0.46307530999183655, 0.23114611208438873, -0.06843844056129456, 0.8529078364372253, 3.6016123294830322, -4.207697868347168, 8.735880851745605, 5.1130499839782715, 7.932281494140625, 8.829778671264648, -0.560302734375, 0.15234375, -0.708740234375, 
297, 3735543463, -0.4641062617301941, 0.23027890920639038, -0.06884221732616425, 0.8525493144989014, 3.593902587890625, -4.374286651611328, 8.789002418518066, 3.6380555629730225, 10.140641212463379, 16.32893943786621, -0.558349609375, 0.154296875, -0.712158203125, 
298, 3735551796, -0.4657614827156067, 0.2291497439146042, -0.0694505125284195, 0.8519014716148376, 3.5400373935699463, -4.9494709968566895, 8.620804786682129, 4.588831901550293, 12.962156295776367, 26.381004333496094, -0.557861328125, 0.154296875, -0.712158203125, 
299, 3735560129, -0.46822112798690796, 0.22793187201023102, -0.07034874707460403, 0.8508052825927734, 3.215409517288208, -4.879227638244629, 8.406315803527832, 3.9029881954193115, 13.72657299041748, 39.67844772338867, -0.552001953125, 0.159912109375, -0.712158203125, 
300, 3735568462, -0.4716048538684845, 0.22685034573078156, -0.0718604102730751, 0.8490975499153137, 3.1238715648651123, -4.823950290679932, 8.276911735534668, -1.8843164443969727, 13.221990585327148, 56.214935302734375, -0.551025390625, 0.160888671875, -0.71337890625, 
301, 3735576795, -0.47586488723754883, 0.226017028093338, -0.07426314055919647, 0.846733033657074, 3.339475154876709, -4.499973773956299, 8.21922492980957, -11.764548301696777, 13.235312461853027, 73.24250030517578, -0.545166015625, 0.17041015625, -0.7158203125, 
302, 3735585128, -0.4809873104095459, 0.22495685517787933, -0.07754231989383698, 0.8438220620155334, 3.805511474609375, -4.604853630065918, 8.52352523803711, -18.41132354736328, 18.984636306762695, 89.81404113769531, -0.542236328125, 0.17724609375, -0.71728515625, 
303, 3735593461, -0.48680323362350464, 0.2229638397693634, -0.08106082677841187, 0.8406792283058167, 4.479518890380859, -5.521394729614258, 8.711141586303711, -13.063543319702148, 29.986618041992188, 101.13219451904297, -0.537109375, 0.1875, -0.7177734375, 
304, 3735601794, -0.4933263659477234, 0.21975073218345642, -0.08481418341398239, 0.8373457789421082, 4.706543922424316, -5.115940570831299, 8.889963150024414, -5.711971282958984, 44.24102783203125, 112.6635513305664, -0.53271484375, 0.1962890625, -0.72216796875, 
305, 3735610127, -0.5008312463760376, 0.21521759033203125, -0.0888248160481453, 0.833643913269043, 4.375004768371582, -5.030993938446045, 9.2245512008667, 2.8867368698120117, 58.98731231689453, 128.78707885742188, -0.52001953125, 0.205810546875, -0.726318359375, 
306, 3735618460, -0.5093837976455688, 0.209427148103714, -0.09296020120382309, 0.8294752836227417, 3.8175511360168457, -5.127272129058838, 9.377815246582031, 12.578433990478516, 71.53897857666016, 145.9139862060547, -0.5126953125, 0.217041015625, -0.73046875, 
307, 3735626793, -0.5190448760986328, 0.2026442289352417, -0.09695360064506531, 0.824700117111206, 3.2628543376922607, -5.097475051879883, 9.300091743469238, 23.646520614624023, 78.766845703125, 163.67391967773438, -0.4990234375, 0.2294921875, -0.738037109375, 
308, 3735635126, -0.5297046303749084, 0.19516876339912415, -0.10042642056941986, 0.819291889667511, 2.7091238498687744, -4.8273468017578125, 9.11789321899414, 36.354183197021484, 79.74556732177734, 178.9902801513672, -0.4853515625, 0.239990234375, -0.74609375, 
309, 3735643459, -0.5413196682929993, 0.1875327080488205, -0.10280159115791321, 0.8131660223007202, 1.871057391166687, -4.662532329559326, 8.734029769897461, 51.5538330078125, 70.37736511230469, 192.26007080078125, -0.466064453125, 0.2509765625, -0.751708984375, 
310, 3735651792, -0.5535727143287659, 0.18071410059928894, -0.10408294945955276, 0.8062686920166016, 0.6035954356193542, -3.8932127952575684, 8.245328903198242, 58.163814544677734, 50.1393928527832, 201.1572723388672, -0.450927734375, 0.257568359375, -0.760009765625, 
311, 3735660125, -0.5663095712661743, 0.17524871230125427, -0.10458231717348099, 0.7985277771949768, 0.1832011342048645, -3.2451345920562744, 7.901589870452881, 56.626705169677734, 26.444822311401367, 209.0682830810547, -0.439697265625, 0.26806640625, -0.767333984375, 
312, 3735668458, -0.5792975425720215, 0.17096181213855743, -0.10476769506931305, 0.7900713682174683, 0.784126877784729, -3.2518515586853027, 7.811880588531494, 50.37572479248047, 8.91983699798584, 214.9413299560547, -0.431884765625, 0.27392578125, -0.76904296875, 
313, 3735676791, -0.5924907922744751, 0.16710054874420166, -0.10485468059778214, 0.7810507416725159, 1.6397407054901123, -3.4429452419281006, 7.966293811798096, 47.82396697998047, 1.9298503398895264, 220.8240509033203, -0.421142578125, 0.2880859375, -0.774658203125, 
314, 3735685124, -0.6062996983528137, 0.16304434835910797, -0.10537112504243851, 0.7711787819862366, 2.0189318656921387, -3.5515425205230713, 8.5407075881958, 44.88446807861328, 4.639369964599609, 235.64093017578125, -0.405029296875, 0.30126953125, -0.774169921875, 
315, 3735693457, -0.6209531426429749, 0.15921275317668915, -0.10667721182107925, 0.7600599527359009, 1.317781686782837, -3.8325252532958984, 8.748950004577637, 34.83173751831055, 4.857270240783691, 256.44403076171875, -0.396240234375, 0.313232421875, -0.77880859375, 
316, 3735701790, -0.6366649270057678, 0.15613214671611786, -0.108893983066082, 0.7472785711288452, 0.6497467160224915, -3.489039421081543, 8.573675155639648, 18.671266555786133, -0.443721204996109, 282.5978088378906, -0.3828125, 0.325439453125, -0.775146484375, 
317, 3735710123, -0.6533612608909607, 0.15447790920734406, -0.11232123523950577, 0.7325587868690491, 0.715049147605896, -2.5922763347625732, 8.565643310546875, -6.936641216278076, -10.114639282226562, 310.15618896484375, -0.3681640625, 0.342041015625, -0.77880859375, 
318, 3735718456, -0.6708207726478577, 0.15443210303783417, -0.11676035821437836, 0.715904951095581, 0.9752001166343689, -3.5986313819885254, 8.459796905517578, -33.060272216796875, -22.54137420654297, 334.8935852050781, -0.353759765625, 0.362548828125, -0.77197265625, 
319, 3735726789, -0.6878332495689392, 0.15629330277442932, -0.12263474613428116, 0.6981557607650757, 1.6328145265579224, -3.824941873550415, 9.519918441772461, -67.3837890625, -29.66714859008789, 340.5861511230469, -0.3349609375, 0.388671875, -0.768798828125, 
320, 3735735122, -0.7035312056541443, 0.1593744158744812, -0.12886571884155273, 0.68047034740448, 1.7306454181671143, -3.9054930210113525, 8.999817848205566, -85.17356872558594, -35.67191696166992, 326.068603515625, -0.316162109375, 0.4140625, -0.760986328125, 
321, 3735743455, -0.7178596258163452, 0.16293418407440186, -0.13511449098587036, 0.6632319688796997, 1.8354815244674683, -4.720829963684082, 8.973674774169922, -92.0716781616211, -36.55522155761719, 308.11431884765625, -0.297119140625, 0.440673828125, -0.751708984375, 
322, 3735751788, -0.7307711243629456, 0.1652478277683258, -0.139992356300354, 0.6473572850227356, 1.5755486488342285, -5.960651397705078, 8.46093463897705, -68.0140380859375, -33.049156188964844, 280.96563720703125, -0.28173828125, 0.465576171875, -0.744140625, 
323, 3735760121, -0.7420585751533508, 0.1656525582075119, -0.14374534785747528, 0.6334415078163147, 1.5950320959091187, -6.152587890625, 9.098422050476074, -38.613407135009766, -19.767349243164062, 247.93804931640625, -0.26416015625, 0.484375, -0.73974609375, 
324, 3735768454, -0.7521495223045349, 0.16444559395313263, -0.14698728919029236, 0.620988130569458, 1.4983546733856201, -5.128706455230713, 9.719255447387695, -17.670055389404297, -5.258325576782227, 224.60655212402344, -0.248291015625, 0.49853515625, -0.7353515625, 
325, 3735776787, -0.7616260051727295, 0.16235193610191345, -0.14959433674812317, 0.6092550158500671, 0.7974669933319092, -4.1646928787231445, 9.311784744262695, -2.8812546730041504, -1.3673933744430542, 212.2739715576172, -0.231689453125, 0.50927734375, -0.73681640625, 
326, 3735785120, -0.7709247469902039, 0.1613035500049591, -0.15203700959682465, 0.5971125960350037, 0.07003045827150345, -1.6383575201034546, 9.283121109008789, -13.818589210510254, -12.411388397216797, 212.54542541503906, -0.213623046875, 0.51611328125, -0.732177734375, 
327, 3735793453, -0.7801671028137207, 0.16168920695781708, -0.1550569236278534, 0.5840852856636047, -0.48078763484954834, -1.5936768054962158, 10.114115715026855, -35.61933898925781, -19.89885902404785, 219.7562713623047, -0.198486328125, 0.529296875, -0.731201171875, 
328, 3735801786, -0.789132297039032, 0.16213533282279968, -0.15838155150413513, 0.5708765983581543, -0.31784579157829285, -4.621137619018555, 9.717061042785645, -39.83735656738281, -16.940776824951172, 220.0159912109375, -0.181884765625, 0.5390625, -0.724609375, 
329, 3735810119, -0.7974939346313477, 0.1611853688955307, -0.16149689257144928, 0.5585196018218994, 0.6335213780403137, -5.0669755935668945, 9.121811866760254, -22.42620849609375, -5.030625820159912, 208.61512756347656, -0.162841796875, 0.548828125, -0.72314453125, 
330, 3735818452, -0.8052484393119812, 0.1597345620393753, -0.1643751710653305, 0.5468485951423645, 0.30974075198173523, -3.1385183334350586, 8.895506858825684, -15.042963981628418, -0.9223747849464417, 197.0055694580078, -0.14892578125, 0.560791015625, -0.71875, 
331, 3735826785, -0.8124451041221619, 0.15944166481494904, -0.16709306836128235, 0.535344660282135, -1.2881485223770142, -2.0111870765686035, 9.121194839477539, -27.399959564208984, -9.767556190490723, 188.0043182373047, -0.129638671875, 0.56787109375, -0.721435546875, 
332, 3735835118, -0.819139838218689, 0.1603744775056839, -0.16957175731658936, 0.5239638090133667, -2.292034387588501, -3.9279308319091797, 8.83557415008545, -40.25687789916992, -20.05191421508789, 179.5769805908203, -0.114501953125, 0.57568359375, -0.718505859375, 
333, 3735843451, -0.8252447247505188, 0.16116735339164734, -0.17144396901130676, 0.5134258270263672, -1.7421742677688599, -6.027005672454834, 8.365289688110352, -33.55024719238281, -22.64166259765625, 164.83428955078125, -0.102294921875, 0.5830078125, -0.714111328125, 
334, 3735851784, -0.8308600783348083, 0.1607435941696167, -0.17242878675460815, 0.5040873885154724, -0.7849823832511902, -5.599945068359375, 7.717221260070801, -11.830530166625977, -20.30793571472168, 148.65396118164062, -0.089599609375, 0.588623046875, -0.711669921875, 
335, 3735860117, -0.8362039923667908, 0.15914636850357056, -0.17252793908119202, 0.49565303325653076, -0.6604360938072205, -4.346461772918701, 7.703435897827148, 9.366886138916016, -19.658309936523438, 137.27932739257812, -0.077880859375, 0.591796875, -0.709716796875, 
336, 3735868450, -0.8413187265396118, 0.15756957232952118, -0.1725928783416748, 0.48741039633750916, -0.8681398630142212, -3.1813406944274902, 9.030013084411621, 9.211577415466309, -19.218719482421875, 133.37583923339844, -0.069091796875, 0.595947265625, -0.71044921875, 
337, 3735876783, -0.8461771011352539, 0.1569191962480545, -0.17321379482746124, 0.4789155423641205, -1.222413420677185, -3.1451783180236816, 9.35428237915039, -6.281222820281982, -18.941465377807617, 133.5878448486328, -0.05810546875, 0.595458984375, -0.7119140625, 
338, 3735885116, -0.8509228825569153, 0.1562250405550003, -0.1746271699666977, 0.47014039754867554, -0.31142526865005493, -4.758876323699951, 9.401073455810547, -12.007207870483398, -9.761953353881836, 137.9145050048828, -0.04638671875, 0.599609375, -0.71240234375, 
339, 3735893449, -0.8555785417556763, 0.15454715490341187, -0.17696134746074677, 0.4612891674041748, 0.37718459963798523, -5.09276819229126, 9.232650756835938, -6.725343704223633, 7.41961669921875, 142.57638549804688, -0.03466796875, 0.600341796875, -0.7099609375, 
340, 3735901782, -0.8600892424583435, 0.1522059440612793, -0.18022674322128296, 0.45232802629470825, -0.25203561782836914, -4.234890460968018, 9.42151927947998, -5.5038886070251465, 22.709522247314453, 146.5317840576172, -0.018310546875, 0.605224609375, -0.708251953125, 
341, 3735910115, -0.864308774471283, 0.1505950391292572, -0.18434958159923553, 0.4430679380893707, -1.5193508863449097, -3.708724021911621, 8.94367790222168, -20.725154876708984, 28.404315948486328, 148.25897216796875, -0.002197265625, 0.6083984375, -0.70849609375, 
342, 3735918448, -0.868261456489563, 0.14924465119838715, -0.18863514065742493, 0.43389779329299927, -2.3146419525146484, -5.403918743133545, 8.238321304321289, -25.23787498474121, 29.613245010375977, 145.22230529785156, 0.0146484375, 0.609130859375, -0.708251953125, 
343, 3735926781, -0.8720018863677979, 0.1480792760848999, -0.19223225116729736, 0.4251289367675781, -2.9323830604553223, -6.100913047790527, 7.022045135498047, -22.6315975189209, 21.657690048217773, 137.29095458984375, 0.03125, 0.6142578125, -0.706787109375, 
344, 3735935114, -0.8757661581039429, 0.14647644758224487, -0.19454596936702728, 0.41681259870529175, -3.2068183422088623, -5.95193338394165, 6.7287702560424805, -8.740323066711426, 9.690356254577637, 130.52716064453125, 0.04443359375, 0.616455078125, -0.7060546875, 
345, 3735943447, -0.879713237285614, 0.14433208107948303, -0.19606049358844757, 0.4084552526473999, -2.2371370792388916, -5.509640693664551, 7.291410446166992, 2.7393946647644043, 2.5786631107330322, 131.92630004882812, 0.058349609375, 0.6162109375, -0.705078125, 
346, 3735951780, -0.8839262127876282, 0.1420873999595642, -0.19795474410057068, 0.39912649989128113, -0.4601762890815735, -4.100602626800537, 7.9755377769470215, -0.39011213183403015, 5.110533237457275, 146.17706298828125, 0.069091796875, 0.617431640625, -0.70458984375, 
347, 3735960113, -0.8882705569267273, 0.13861463963985443, -0.20139728486537933, 0.38884836435317993, 1.0761643648147583, -4.182287693023682, 8.219653129577637, 3.836760997772217, 28.436790466308594, 164.83128356933594, 0.08935546875, 0.616455078125, -0.7080078125, 
348, 3735968446, -0.8923356533050537, 0.13462261855602264, -0.20683081448078156, 0.3779383599758148, 0.6810787916183472, -3.621354579925537, 9.118882179260254, -2.873337745666504, 55.12439727783203, 176.2682647705078, 0.109130859375, 0.61572265625, -0.707275390625, 
349, 3735976779, -0.8957952260971069, 0.13146869838237762, -0.2140578329563141, 0.3666725158691406, -0.8493727445602417, -1.4187990427017212, 9.421916961669922, -24.491283416748047, 73.8354721069336, 178.45855712890625, 0.13037109375, 0.61376953125, -0.70458984375, 
350, 3735985112, -0.898740828037262, 0.12895825505256653, -0.22187601029872894, 0.3555396795272827, -1.97397780418396, -2.234297752380371, 8.770608901977539, -36.05809783935547, 79.63155364990234, 173.3667755126953, 0.156494140625, 0.61669921875, -0.70263671875, 
351, 3735993445, -0.9013509750366211, 0.126582533121109, -0.2288428246974945, 0.34521999955177307, -3.507033348083496, -3.4131529331207275, 7.718693733215332, -31.567325592041016, 70.91356658935547, 159.79478454589844, 0.183349609375, 0.61962890625, -0.696044921875, 
352, 3736001778, -0.9037325382232666, 0.12487879395484924, -0.23396728932857513, 0.33605754375457764, -5.272064685821533, -3.035874128341675, 7.126116752624512, -28.012842178344727, 47.622737884521484, 139.00381469726562, 0.203125, 0.617919921875, -0.689697265625, 
353, 3736010111, -0.9059610366821289, 0.12436442822217941, -0.23705846071243286, 0.3279850482940674, -5.933052062988281, -2.996769666671753, 6.591666221618652, -30.049274444580078, 19.205537796020508, 117.46429443359375, 0.217529296875, 0.61962890625, -0.689453125, 
354, 3736018444, -0.9081612825393677, 0.12486012279987335, -0.2379908561706543, 0.3209614157676697, -5.699274063110352, -4.177563667297363, 5.838983535766602, -29.630023956298828, -10.343430519104004, 97.25138092041016, 0.232177734375, 0.617431640625, -0.684814453125, 
355, 3736026777, -0.910489022731781, 0.12554006278514862, -0.23700912296772003, 0.3147678077220917, -5.106433391571045, -4.932229042053223, 6.211641788482666, -20.438751220703125, -34.09366989135742, 83.5828857421875, 0.236083984375, 0.61962890625, -0.684814453125, 
356, 3736035110, -0.9130415916442871, 0.12584993243217468, -0.23495809733867645, 0.30873027443885803, -3.3466763496398926, -5.129435062408447, 7.410940170288086, -10.387908935546875, -46.3041877746582, 81.93807983398438, 0.240478515625, 0.6181640625, -0.68310546875, 
357, 3736043443, -0.915813684463501, 0.12535566091537476, -0.23268678784370422, 0.3023751378059387, -2.2394585609436035, -4.32345724105835, 8.430109024047852, 0.11678915470838547, -46.9649658203125, 89.09979248046875, 0.24365234375, 0.6171875, -0.685791015625, 
358, 3736051776, -0.9184913635253906, 0.12474936991930008, -0.23072129487991333, 0.29594138264656067, -2.561878204345703, -3.213884115219116, 9.483357429504395, -0.277532696723938, -42.43048095703125, 90.55760955810547, 0.25048828125, 0.6142578125, -0.68701171875, 
359, 3736060109, -0.9207419753074646, 0.12449204176664352, -0.2296481728553772, 0.2898286283016205, -2.2577884197235107, -2.0791175365448, 10.41817569732666, -7.914497375488281, -30.719301223754883, 85.2164535522461, 0.255615234375, 0.612548828125, -0.690673828125, 
360, 3736068442, -0.9225671291351318, 0.12456358224153519, -0.22952105104923248, 0.284036248922348, -2.092114210128784, -1.67488694190979, 10.61332893371582, -15.68217945098877, -18.11452293395996, 80.01753234863281, 0.261962890625, 0.6103515625, -0.6884765625, 
361, 3736076775, -0.9239776730537415, 0.12503884732723236, -0.23007339239120483, 0.27874642610549927, -2.9353034496307373, -1.3606761693954468, 10.602322578430176, -22.48180389404297, -8.93761920928955, 71.93622589111328, 0.268310546875, 0.612060546875, -0.6845703125, 
362, 3736085108, -0.9250537753105164, 0.12586912512779236, -0.23074735701084137, 0.2742099165916443, -3.726069927215576, -1.4758199453353882, 9.906951904296875, -25.750598907470703, -6.364161968231201, 60.143798828125, 0.273193359375, 0.610107421875, -0.683837890625, 
363, 3736093441, -0.9258725643157959, 0.12733866274356842, -0.23092593252658844, 0.2705932855606079, -4.295408725738525, -1.3139907121658325, 9.017786979675293, -29.45829200744629, -12.699468612670898, 44.60563278198242, 0.280517578125, 0.61279296875, -0.681640625, 
364, 3736101774, -0.9265733957290649, 0.12923066318035126, -0.2303490936756134, 0.26777422428131104, -4.246430397033691, -1.983567237854004, 8.196499824523926, -29.782934188842773, -22.086763381958008, 31.32807731628418, 0.281005859375, 0.61376953125, -0.68115234375, 
365, 3736110107, -0.9273298978805542, 0.13085006177425385, -0.22898121178150177, 0.26553237438201904, -3.9399378299713135, -3.135915756225586, 7.64317512512207, -21.399065017700195, -30.34979248046875, 23.648420333862305, 0.282958984375, 0.6142578125, -0.6787109375, 
366, 3736118440, -0.9282928109169006, 0.13188405334949493, -0.22671811282634735, 0.26359203457832336, -4.080998420715332, -3.562049388885498, 7.623356819152832, -9.41468334197998, -39.697933197021484, 20.77629280090332, 0.282470703125, 0.617431640625, -0.67529296875, 
367, 3736126773, -0.9294886589050293, 0.13233615458011627, -0.22364598512649536, 0.26176875829696655, -3.7997543811798096, -3.4536826610565186, 7.908917427062988, 1.8041560649871826, -48.47303771972656, 20.485380172729492, 0.279052734375, 0.6171875, -0.677978515625, 
368, 3736135106, -0.9307299852371216, 0.1323794424533844, -0.220716193318367, 0.25981590151786804, -2.463247537612915, -3.05409574508667, 8.800437927246094, 6.130742073059082, -45.515262603759766, 23.809904098510742, 0.280517578125, 0.61474609375, -0.68212890625, 
369, 3736143439, -0.93174809217453, 0.13247522711753845, -0.2188100814819336, 0.25772202014923096, -1.4901015758514404, -1.8533668518066406, 9.337528228759766, 1.0344452857971191, -32.220218658447266, 26.53002166748047, 0.274169921875, 0.613525390625, -0.684326171875, 
370, 3736151772, -0.9324332475662231, 0.1331523060798645, -0.21804611384868622, 0.25553348660469055, -1.9644684791564941, -1.52009916305542, 9.989668846130371, -11.41907024383545, -18.77748680114746, 26.886537551879883, 0.273681640625, 0.614501953125, -0.68310546875, 
371, 3736160105, -0.9328164458274841, 0.1341034471988678, -0.218144491314888, 0.2535458505153656, -2.455200433731079, -2.152416706085205, 10.217312812805176, -17.86187171936035, -7.436638355255127, 24.015478134155273, 0.273193359375, 0.614013671875, -0.680908203125, 
372, 3736168438, -0.9330133199691772, 0.13519345223903656, -0.21849247813224792, 0.2519376575946808, -3.2910702228546143, -2.290583372116089, 10.128717422485352, -19.77164077758789, -3.4322845935821533, 18.532691955566406, 0.275634765625, 0.6162109375, -0.681396484375, 
373, 3736176771, -0.9330587983131409, 0.13629917800426483, -0.21871043741703033, 0.2509824335575104, -3.7938432693481445, -2.5900230407714844, 9.829090118408203, -17.801464080810547, -3.5093817710876465, 9.349211692810059, 0.278076171875, 0.6142578125, -0.6767578125, 
374, 3736185104, -0.9329903721809387, 0.13727392256259918, -0.2187272012233734, 0.2506904602050781, -3.4784929752349854, -2.6591293811798096, 9.508036613464355, -13.685789108276367, -4.031757831573486, 0.4550497829914093, 0.279541015625, 0.6171875, -0.679443359375, 
375, 3736193437, -0.9329017400741577, 0.1379842311143875, -0.21864955127239227, 0.2506980895996094, -3.11782169342041, -3.3347275257110596, 9.250229835510254, -9.072920799255371, -3.7251553535461426, -2.8371098041534424, 0.277099609375, 0.61767578125, -0.677001953125, 
376, 3736201770, -0.9328635931015015, 0.13838230073451996, -0.21863403916358948, 0.2506343126296997, -2.9010398387908936, -3.1149842739105225, 9.042471885681152, -5.432420253753662, -2.116760492324829, -0.6943506002426147, 0.279296875, 0.621826171875, -0.677001953125, 
377, 3736210103, -0.9328611493110657, 0.1383274644613266, -0.21874529123306274, 0.2505766451358795, -2.9341750144958496, -3.562166213989258, 8.833818435668945, 0.05492972582578659, 0.9552444219589233, 0.9558847546577454, 0.2802734375, 0.620849609375, -0.675048828125, 
378, 3736218436, -0.9328064918518066, 0.1380695402622223, -0.21893948316574097, 0.2507527768611908, -3.36643648147583, -3.0875582695007324, 8.79122257232666, 2.95082426071167, 3.3398020267486572, -1.457398772239685, 0.27783203125, 0.618896484375, -0.675048828125, 
379, 3736226769, -0.9326649904251099, 0.13783152401447296, -0.21922054886817932, 0.25116416811943054, -3.3616244792938232, -2.8919498920440674, 8.97823429107666, 2.964348554611206, 5.076882839202881, -4.665863513946533, 0.27783203125, 0.619873046875, -0.674560546875, 
380, 3736235102, -0.9324567317962646, 0.13746881484985352, -0.21967212855815887, 0.2517412602901459, -3.019057273864746, -2.8845739364624023, 8.993683815002441, 4.322236061096191, 8.227202415466309, -6.325870990753174, 0.28076171875, 0.619384765625, -0.67236328125, 
381, 3736243435, -0.9321620464324951, 0.13732391595840454, -0.22022545337677002, 0.25242751836776733, -3.087149143218994, -2.3298933506011963, 9.033111572265625, 1.3636893033981323, 9.230283737182617, -8.487354278564453, 0.27783203125, 0.619384765625, -0.673583984375, 
382, 3736251768, -0.9318211674690247, 0.13718445599079132, -0.22093363106250763, 0.25314250588417053, -2.9548282623291016, -2.9264159202575684, 9.147431373596191, 0.7360634803771973, 11.404393196105957, -8.743547439575195, 0.27880859375, 0.619384765625, -0.675537109375, 
383, 3736260101, -0.9313758015632629, 0.13730955123901367, -0.22164051234722137, 0.254093199968338, -3.4479188919067383, -2.6557633876800537, 8.985276222229004, -2.1181955337524414, 11.218589782714844, -12.932963371276855, 0.280517578125, 0.617919921875, -0.67578125, 
384, 3736268434, -0.9308532476425171, 0.1377398818731308, -0.22214896976947784, 0.2553282082080841, -3.748398780822754, -2.803203821182251, 8.853475570678711, -4.625701904296875, 8.393135070800781, -18.14992332458496, 0.27880859375, 0.619873046875, -0.672119140625, 
385, 3736276767, -0.9303250908851624, 0.138092502951622, -0.22243312001228333, 0.25681066513061523, -3.3137595653533936, -3.9245593547821045, 8.623969078063965, -2.0915825366973877, 6.2692790031433105, -21.52662467956543, 0.27587890625, 0.620361328125, -0.675537109375, 
386, 3736285100, -0.9298956990242004, 0.1379101574420929, -0.2226341962814331, 0.2582855522632599, -2.997875452041626, -4.062403678894043, 8.465108871459961, 5.203649520874023, 6.79214334487915, -19.59989356994629, 0.27587890625, 0.623779296875, -0.67529296875, 
387, 3736293433, -0.9295170307159424, 0.13732174038887024, -0.22293594479560852, 0.25969797372817993, -2.9947633743286133, -3.999725103378296, 8.519468307495117, 9.951967239379883, 9.235665321350098, -17.187517166137695, 0.27392578125, 0.622314453125, -0.673828125, 
388, 3736301766, -0.9290909171104431, 0.13654568791389465, -0.2233990579843521, 0.2612294852733612, -3.2059783935546875, -3.733999490737915, 8.458028793334961, 12.041321754455566, 12.350640296936035, -17.99859619140625, 0.2744140625, 0.620849609375, -0.6748046875, 
389, 3736310099, -0.9285634160041809, 0.13585318624973297, -0.2239825576543808, 0.26296108961105347, -3.2439486980438232, -3.283135414123535, 8.484678268432617, 10.975104331970215, 14.266945838928223, -20.949026107788086, 0.2734375, 0.619384765625, -0.6748046875, 
390, 3736318432, -0.9279784560203552, 0.13504590094089508, -0.22471833229064941, 0.2648075520992279, -3.086688995361328, -3.5494534969329834, 8.61472225189209, 12.127105712890625, 17.026063919067383, -21.986019134521484, 0.27490234375, 0.620361328125, -0.676025390625, 
391, 3736326765, -0.9273428916931152, 0.13393831253051758, -0.22559854388237, 0.266839861869812, -3.092064142227173, -3.794916868209839, 8.779547691345215, 15.92135238647461, 20.457048416137695, -23.34760284423828, 0.2744140625, 0.61669921875, -0.675537109375, 
392, 3736335098, -0.9266191720962524, 0.13283668458461761, -0.22656115889549255, 0.26908010244369507, -3.309863567352295, -3.1347224712371826, 9.006454467773438, 16.01807403564453, 22.151487350463867, -26.18651580810547, 0.2734375, 0.619140625, -0.6767578125, 
393, 3736343431, -0.9257944822311401, 0.13199560344219208, -0.227585107088089, 0.2714582085609436, -3.287090539932251, -2.9722461700439453, 9.080363273620605, 12.721979141235352, 22.529064178466797, -29.018041610717773, 0.2734375, 0.61962890625, -0.67724609375, 
394, 3736351764, -0.9249565601348877, 0.1308542788028717, -0.22861747443675995, 0.2739880084991455, -3.0731234550476074, -3.9716949462890625, 9.026615142822266, 16.957660675048828, 24.079580307006836, -30.043874740600586, 0.27001953125, 0.61474609375, -0.6767578125, 
395, 3736360097, -0.9241108298301697, 0.12899646162986755, -0.22961817681789398, 0.276870459318161, -3.1892001628875732, -4.036510467529297, 8.817853927612305, 27.28858184814453, 27.0324649810791, -32.36304473876953, 0.26953125, 0.6162109375, -0.6796875, 
396, 3736368430, -0.9232099056243896, 0.12633320689201355, -0.23053309321403503, 0.2803226709365845, -3.442112922668457, -3.9893081188201904, 8.606588363647461, 39.548988342285156, 30.196325302124023, -37.421966552734375, 0.269287109375, 0.617431640625, -0.683349609375, 
397, 3736376763, -0.9221667051315308, 0.12310492992401123, -0.23136231303215027, 0.2844783067703247, -3.5715954303741455, -3.5779976844787598, 8.577412605285645, 49.04024124145508, 32.959495544433594, -45.25678253173828, 0.270751953125, 0.611083984375, -0.6845703125, 
398, 3736385096, -0.9209742546081543, 0.11968669295310974, -0.2320801168680191, 0.28917625546455383, -3.3897812366485596, -2.7560513019561768, 8.738051414489746, 53.35287857055664, 33.682647705078125, -52.305320739746094, 0.269775390625, 0.6103515625, -0.6884765625, 
399, 3736393429, -0.9196492433547974, 0.11605701595544815, -0.2327495664358139, 0.29428964853286743, -3.3924055099487305, -3.018303394317627, 8.724469184875488, 57.33331298828125, 35.01880645751953, -57.49739456176758, 0.26611328125, 0.603759765625, -0.69189453125, 
400, 3736401762, -0.9180569052696228, 0.11234322190284729, -0.23325508832931519, 0.3002418577671051, -3.572646141052246, -2.667339324951172, 8.708929061889648, 61.3164176940918, 35.47967529296875, -69.18098449707031, 0.265625, 0.600830078125, -0.6953125, 
401, 3736410095, -0.9161385893821716, 0.10916811227798462, -0.23339159786701202, 0.30708861351013184, -4.12108039855957, -1.2624990940093994, 8.6575345993042, 58.403438568115234, 31.02684783935547, -84.11732482910156, 0.26025390625, 0.59912109375, -0.70068359375, 
402, 3736418428, -0.9138503670692444, 0.106450155377388, -0.2332136183977127, 0.3148971199989319, -4.152560710906982, -1.8177909851074219, 8.668831825256348, 56.50550079345703, 27.761417388916016, -99.73597717285156, 0.25537109375, 0.596435546875, -0.7041015625, 
403, 3736426761, -0.9112651348114014, 0.10369466990232468, -0.23263712227344513, 0.3236137330532074, -3.670405149459839, -2.6848747730255127, 8.56859302520752, 61.167118072509766, 25.19780921936035, -112.90348815917969, 0.25, 0.59521484375, -0.711181640625, 
404, 3736435094, -0.908495306968689, 0.10058437287807465, -0.2315671741962433, 0.33301404118537903, -3.6399424076080322, -2.538865804672241, 8.57581615447998, 69.7463607788086, 22.16058921813965, -121.85655975341797, 0.23876953125, 0.59033203125, -0.716064453125, 
405, 3736443427, -0.9055664539337158, 0.09713888168334961, -0.22999878227710724, 0.3429529070854187, -3.60541033744812, -2.487356662750244, 8.751384735107422, 77.69517517089844, 18.715585708618164, -128.94375610351562, 0.231201171875, 0.587158203125, -0.722412109375, 
406, 3736451760, -0.9023139476776123, 0.09343045949935913, -0.22804459929466248, 0.3536926507949829, -3.2711589336395264, -2.44974946975708, 8.726383209228516, 84.90755462646484, 17.247283935546875, -140.11927795410156, 0.220947265625, 0.581787109375, -0.732177734375, 
407, 3736460093, -0.8984728455543518, 0.09007083624601364, -0.22616232931613922, 0.3653585612773895, -2.880624532699585, -1.239742398262024, 9.015475273132324, 82.35547637939453, 19.47671890258789, -155.4855499267578, 0.208740234375, 0.576904296875, -0.737060546875, 
408, 3736468426, -0.8939437866210938, 0.08725423365831375, -0.22456887364387512, 0.3779186010360718, -3.1753029823303223, -1.7217214107513428, 9.062768936157227, 76.14649200439453, 23.56648826599121, -171.31163024902344, 0.195556640625, 0.5712890625, -0.740966796875, 
409, 3736476759, -0.8885213732719421, 0.08506722003221512, -0.22339396178722382, 0.3916516900062561, -3.1195240020751953, -1.8493833541870117, 9.298874855041504, 68.7497787475586, 29.604642868041992, -191.83193969726562, 0.184814453125, 0.568359375, -0.746337890625, 
410, 3736485092, -0.8820917010307312, 0.08358944952487946, -0.22267664968967438, 0.406625896692276, -3.1512351036071777, -1.715357780456543, 9.570575714111328, 60.28692626953125, 35.92556381225586, -214.0542755126953, 0.167236328125, 0.564453125, -0.75439453125, 
411, 3736493425, -0.874675989151001, 0.08291714638471603, -0.22208793461322784, 0.42278391122817993, -3.7015109062194824, -2.186446189880371, 9.615346908569336, 52.246185302734375, 37.3580436706543, -236.26605224609375, 0.154052734375, 0.562255859375, -0.75927734375, 
412, 3736501758, -0.8664666414260864, 0.08258625119924545, -0.22106695175170898, 0.43993985652923584, -3.9416496753692627, -3.211034059524536, 9.396234512329102, 52.83838653564453, 33.7398681640625, -254.40487670898438, 0.138671875, 0.560302734375, -0.767333984375, 
413, 3736510091, -0.8577312231063843, 0.08192992210388184, -0.21901902556419373, 0.45784062147140503, -3.8369526863098145, -4.128633499145508, 9.119625091552734, 64.54950714111328, 25.907163619995117, -266.66204833984375, 0.11669921875, 0.55615234375, -0.767822265625, 
414, 3736518424, -0.8487070202827454, 0.0806586891412735, -0.21543869376182556, 0.4762136936187744, -3.8367767333984375, -4.2149338722229, 8.875611305236816, 82.59700775146484, 13.113348007202148, -273.9081726074219, 0.0986328125, 0.5478515625, -0.771484375, 
415, 3736526757, -0.839393138885498, 0.07896772772073746, -0.2102690488100052, 0.4949474334716797, -3.712153911590576, -4.0611772537231445, 8.762558937072754, 98.61099243164062, -1.4471122026443481, -280.55596923828125, 0.07421875, 0.540771484375, -0.77978515625, 
416, 3736535090, -0.8295523524284363, 0.07716408371925354, -0.20374199748039246, 0.5141794085502625, -3.1922428607940674, -3.24899959564209, 8.440634727478027, 110.06194305419922, -14.266733169555664, -291.02178955078125, 0.048828125, 0.5283203125, -0.787109375, 
417, 3736543423, -0.819036602973938, 0.07612323760986328, -0.1968252807855606, 0.53352290391922, -2.141674280166626, -1.4724076986312866, 8.874485969543457, 103.67478942871094, -22.12360191345215, -299.6405944824219, 0.0244140625, 0.515869140625, -0.79541015625, 
418, 3736551756, -0.8077366352081299, 0.07605266571044922, -0.19025790691375732, 0.5527947545051575, -1.4545010328292847, -1.95504629611969, 9.307647705078125, 89.20431518554688, -23.23406219482422, -306.8296203613281, -0.00244140625, 0.503662109375, -0.8056640625, 
419, 3736560089, -0.795401930809021, 0.07610027492046356, -0.18399769067764282, 0.5724437832832336, -0.6316139698028564, -3.3302714824676514, 9.04810619354248, 85.4168472290039, -17.64478302001953, -318.89398193359375, -0.03076171875, 0.4892578125, -0.812255859375, 
420, 3736568422, -0.7819725275039673, 0.07690423727035522, -0.17812450230121613, 0.592350423336029, -0.2913127541542053, -1.9214164018630981, 9.20241928100586, 73.64755249023438, -16.29961585998535, -331.82427978515625, -0.052734375, 0.475341796875, -0.81591796875, 
421, 3736576755, -0.7674979567527771, 0.07810197025537491, -0.17248690128326416, 0.6124523878097534, 0.11973227560520172, -1.6860811710357666, 9.823121070861816, 66.82064056396484, -14.228705406188965, -343.17205810546875, -0.08056640625, 0.461181640625, -0.822265625, 
422, 3736585088, -0.7518666982650757, 0.07972347736358643, -0.16638921201229095, 0.6329755187034607, -0.10677681863307953, -3.900336265563965, 10.034496307373047, 66.02674865722656, -19.435932159423828, -358.8470764160156, -0.10546875, 0.443359375, -0.828857421875, 
423, 3736593421, -0.7354230284690857, 0.08148560672998428, -0.15844441950321198, 0.6537667512893677, -1.3937143087387085, -4.736546516418457, 9.411429405212402, 80.32635498046875, -37.62383270263672, -371.0548095703125, -0.13671875, 0.427978515625, -0.830078125, 
424, 3736601754, -0.7184973955154419, 0.08308003842830658, -0.14776338636875153, 0.6745575070381165, -2.3480186462402344, -4.758395671844482, 8.891653060913086, 106.13375091552734, -62.72557067871094, -378.0762939453125, -0.165283203125, 0.405029296875, -0.83544921875, 
425, 3736610087, -0.7010303735733032, 0.08459893614053726, -0.13404254615306854, 0.6952945590019226, -1.5608857870101929, -4.202620029449463, 8.597359657287598, 134.32098388671875, -91.05260467529297, -385.9041748046875, -0.198486328125, 0.3779296875, -0.83837890625, 
426, 3736618420, -0.6830137968063354, 0.08661643415689468, -0.1171664148569107, 0.7157264947891235, -1.055105447769165, -3.0376193523406982, 8.39453125, 158.52349853515625, -125.56092834472656, -392.8052978515625, -0.228515625, 0.345947265625, -0.844970703125, 
427, 3736626753, -0.6647853851318359, 0.09033983945846558, -0.09817187488079071, 0.7350265383720398, -1.3611797094345093, -0.3672834038734436, 7.156032562255859, 161.2496795654297, -163.2969512939453, -389.5411376953125, -0.269775390625, 0.311767578125, -0.8486328125, 
428, 3736635086, -0.6469904184341431, 0.09705869853496552, -0.07890566438436508, 0.7521697282791138, -1.0562013387680054, 2.9922850131988525, 7.473036289215088, 134.2601318359375, -199.29318237304688, -369.8101806640625, -0.30517578125, 0.27099609375, -0.843017578125, 
429, 3736643419, -0.630147397518158, 0.10728532075881958, -0.06381282955408096, 0.7663776278495789, 0.7495602369308472, 3.9356062412261963, 11.018732070922852, 57.907981872558594, -203.43463134765625, -332.07305908203125, -0.3427734375, 0.23876953125, -0.837646484375, 
430, 3736651752, -0.614935576915741, 0.11986195296049118, -0.05328856781125069, 0.7775925397872925, 1.801400065422058, 0.7301597595214844, 10.046757698059082, -10.78641128540039, -194.4056396484375, -284.2441711425781, -0.380615234375, 0.217529296875, -0.82470703125, 
431, 3736660085, -0.6019084453582764, 0.1325318068265915, -0.0436132475733757, 0.7862836718559265, 1.2846931219100952, -3.772798538208008, 8.483391761779785, -18.97463607788086, -194.03021240234375, -238.20339965820312, -0.4111328125, 0.201904296875, -0.8115234375, 
432, 3736668418, -0.5904442667961121, 0.14340795576572418, -0.03351912647485733, 0.7935292720794678, 2.5924885272979736, -4.2014546394348145, 8.814844131469727, 2.4571986198425293, -181.62042236328125, -209.01602172851562, -0.43896484375, 0.185302734375, -0.797607421875, 
433, 3736676751, -0.5799481868743896, 0.15152738988399506, -0.023760247975587845, 0.8000860214233398, 4.8880815505981445, -3.127694845199585, 9.11775016784668, 22.71721839904785, -150.6668243408203, -190.92337036132812, -0.467041015625, 0.1689453125, -0.782958984375, 
434, 3736685084, -0.570109486579895, 0.15704089403152466, -0.015459505841135979, 0.8062734603881836, 5.524507522583008, -2.4016342163085938, 9.273497581481934, 28.762950897216797, -111.29708862304688, -176.8551483154297, -0.482666015625, 0.15087890625, -0.77587890625, 
435, 3736693417, -0.5612300038337708, 0.16099083423614502, -0.009001176804304123, 0.8118032813072205, 4.141747951507568, -2.011941909790039, 9.363706588745117, 22.474390029907227, -81.17024993896484, -156.74334716796875, -0.496826171875, 0.13623046875, -0.767333984375, 
436, 3736701750, -0.5532299280166626, 0.1644519567489624, -0.004378531128168106, 0.8166245818138123, 2.9808125495910645, -1.3213920593261719, 9.733893394470215, 7.6640238761901855, -63.19179916381836, -137.33877563476562, -0.508544921875, 0.119384765625, -0.760009765625, 
437, 3736710083, -0.5458288192749023, 0.16802650690078735, -0.0025794617831707, 0.8208739161491394, 3.708860397338867, -0.16602034866809845, 9.8262939453125, -23.640625, -44.33843994140625, -119.870849609375, -0.521240234375, 0.10888671875, -0.755615234375, 
438, 3736718416, -0.5389721393585205, 0.1723213493824005, -0.003199447877705097, 0.8245039582252502, 3.8759169578552246, -0.7520288825035095, 9.309268951416016, -55.06578063964844, -35.73674011230469, -103.5217056274414, -0.52490234375, 0.105712890625, -0.756591796875, 
439, 3736726749, -0.5321908593177795, 0.17741531133651733, -0.00475649069994688, 0.8278144001960754, 3.2438125610351562, -1.7567787170410156, 9.095723152160645, -71.5091323852539, -38.634193420410156, -98.10152435302734, -0.529541015625, 0.103271484375, -0.748046875, 
440, 3736735082, -0.525181233882904, 0.1834845244884491, -0.007403726689517498, 0.8309427499771118, 3.4561820030212402, -0.8639851808547974, 9.642986297607422, -91.56511688232422, -42.165260314941406, -96.78399658203125, -0.536376953125, 0.101318359375, -0.745849609375, 
441, 3736743415, -0.5181805491447449, 0.19004860520362854, -0.010884789749979973, 0.8338192105293274, 3.985668659210205, -1.0834540128707886, 9.628447532653809, -104.73442077636719, -42.45577621459961, -92.79463958740234, -0.54052734375, 0.10400390625, -0.737548828125, 
442, 3736751748, -0.511420488357544, 0.1963750571012497, -0.01463167741894722, 0.8364653587341309, 4.723313808441162, -2.8232972621917725, 9.440972328186035, -105.43170166015625, -38.453956604003906, -87.67919158935547, -0.546875, 0.10595703125, -0.734375, 
443, 3736760081, -0.5050190687179565, 0.20178841054439545, -0.018212154507637024, 0.8389922380447388, 5.255991458892822, -3.6144516468048096, 8.998716354370117, -96.21571350097656, -29.529428482055664, -82.96283721923828, -0.550537109375, 0.108154296875, -0.728271484375, 
444, 3736768414, -0.4990796446800232, 0.20604689419269562, -0.02139917016029358, 0.8414325714111328, 5.200918674468994, -4.289134979248047, 8.69460391998291, -82.3291244506836, -19.279417037963867, -77.8506851196289, -0.557373046875, 0.107177734375, -0.72265625, 
445, 3736776747, -0.49368900060653687, 0.2091442346572876, -0.024198120459914207, 0.843769371509552, 5.225488185882568, -4.7101616859436035, 8.322737693786621, -68.39877319335938, -8.96493148803711, -71.53085327148438, -0.56005859375, 0.109130859375, -0.722412109375, 
446, 3736785080, -0.48889294266700745, 0.21108891069889069, -0.026619043201208115, 0.8460017442703247, 5.038018703460693, -4.968348503112793, 7.9213948249816895, -54.459197998046875, 1.3490461111068726, -64.6429443359375, -0.56103515625, 0.110107421875, -0.717529296875, 
447, 3736793413, -0.48479801416397095, 0.21207652986049652, -0.02862464264035225, 0.8480433821678162, 4.842747688293457, -5.176619529724121, 7.823336124420166, -41.263404846191406, 8.88929271697998, -56.0455207824707, -0.56005859375, 0.108154296875, -0.71826171875, 
