sep=,
PacketCounter,SampleTimeFine,Quat_W,Quat_X,Quat_Y,Quat_Z,Acc_X,Acc_Y,Acc_Z,Gyr_X,Gyr_Y,Gyr_Z,Mag_X,Mag_Y,Mag_Z,
0, 3599032257, -0.4804461896419525, 0.581692099571228, 0.34360575675964355, 0.559235155582428, 0, 0, 0, 0, 0, 0, -0.8037109375, 0.017578125, 0.29150390625, 
1, 3599040590, -0.4805850684642792, 0.5817344784736633, 0.3433409035205841, 0.559234619140625, 9.69819450378418, -1.6198275089263916, 1.0730363130569458, -1.318569540977478, 1.5326403379440308, 3.235244035720825, -0.8056640625, 0.0205078125, 0.2919921875, 
2, 3599048923, -0.48073500394821167, 0.5817736387252808, 0.34308481216430664, 0.5592221021652222, 9.659798622131348, -1.5816876888275146, 1.0523251295089722, -1.1281789541244507, 1.1517568826675415, 3.188523769378662, -0.806640625, 0.02197265625, 0.287353515625, 
3, 3599057256, -0.4808630049228668, 0.5818304419517517, 0.34284400939941406, 0.5592004656791687, 9.61067008972168, -1.5863038301467896, 1.0575017929077148, -1.2182897329330444, 1.042922019958496, 3.167161464691162, -0.8017578125, 0.02197265625, 0.28662109375, 
4, 3599065589, -0.4809878468513489, 0.5818920135498047, 0.34260091185569763, 0.5591781735420227, 9.563859939575195, -1.5752202272415161, 1.0474176406860352, -1.332145094871521, 0.6959003210067749, 3.0652682781219482, -0.8046875, 0.02099609375, 0.287109375, 
5, 3599073922, -0.48108312487602234, 0.5819863080978394, 0.3423639237880707, 0.5591432452201843, 9.557977676391602, -1.5619043111801147, 1.0306826829910278, -1.6340856552124023, 0.46739572286605835, 3.1506404876708984, -0.80419921875, 0.0234375, 0.285400390625, 
6, 3599082255, -0.4811805188655853, 0.5820872783660889, 0.3421003222465515, 0.5591156482696533, 9.53519058227539, -1.5146777629852295, 1.0510560274124146, -1.9446324110031128, 0.356332391500473, 3.2426979541778564, -0.8056640625, 0.02392578125, 0.287353515625, 
7, 3599090588, -0.4812508523464203, 0.5822026133537292, 0.34184402227401733, 0.5590918064117432, 9.518696784973145, -1.5210130214691162, 1.0716276168823242, -2.174238443374634, 0.4047945737838745, 3.1381664276123047, -0.802734375, 0.025390625, 0.28662109375, 
8, 3599098921, -0.48133206367492676, 0.5822818279266357, 0.3415755331516266, 0.5591034293174744, 9.54736042022705, -1.5210078954696655, 1.0636818408966064, -2.1532862186431885, 0.7926453948020935, 2.7982912063598633, -0.80615234375, 0.025390625, 0.284423828125, 
9, 3599107254, -0.48141056299209595, 0.582331657409668, 0.34133487939834595, 0.5591309666633606, 9.56242847442627, -1.5086827278137207, 1.0373815298080444, -1.7958396673202515, 1.2555201053619385, 2.427729845046997, -0.80615234375, 0.0263671875, 0.283935546875, 
10, 3599115587, -0.4815119206905365, 0.58232581615448, 0.3410913348197937, 0.5591984987258911, 9.611205101013184, -1.4934351444244385, 1.0118327140808105, -1.4997904300689697, 1.8240026235580444, 1.9903414249420166, -0.8017578125, 0.0283203125, 0.2861328125, 
11, 3599123920, -0.4816116690635681, 0.5822775959968567, 0.34087347984313965, 0.5592955350875854, 9.62756061553955, -1.4701727628707886, 1.0151058435440063, -1.1278717517852783, 2.513742685317993, 1.489019513130188, -0.8046875, 0.02392578125, 0.283935546875, 
12, 3599132253, -0.4817413091659546, 0.5821690559387207, 0.3406737744808197, 0.5594184398651123, 9.661738395690918, -1.4704928398132324, 0.9802479147911072, -0.5155633091926575, 2.8989038467407227, 1.012645959854126, -0.8017578125, 0.02734375, 0.28662109375, 
13, 3599140586, -0.48184382915496826, 0.5820397734642029, 0.340528666973114, 0.5595532655715942, 9.666784286499023, -1.4948217868804932, 0.9476171135902405, -0.18588250875473022, 2.9712131023406982, 0.29590845108032227, -0.80419921875, 0.02734375, 0.283447265625, 
14, 3599148919, -0.48194482922554016, 0.5818814039230347, 0.3404117524623871, 0.5597018599510193, 9.675239562988281, -1.5251415967941284, 0.9138585329055786, 0.099729023873806, 2.806718587875366, -0.2672589421272278, -0.8056640625, 0.024658203125, 0.281005859375, 
15, 3599157252, -0.482010155916214, 0.5817244052886963, 0.340347021818161, 0.5598483085632324, 9.684486389160156, -1.5613956451416016, 0.8582292199134827, 0.2634296119213104, 2.571887254714966, -0.8394297957420349, -0.80615234375, 0.02783203125, 0.281494140625, 
16, 3599165585, -0.4820629954338074, 0.5815631747245789, 0.3403085470199585, 0.5599936842918396, 9.720561027526855, -1.5781421661376953, 0.82603520154953, 0.35620439052581787, 2.05806565284729, -1.2548927068710327, -0.806640625, 0.026123046875, 0.27783203125, 
17, 3599173918, -0.48207682371139526, 0.5814296007156372, 0.34031134843826294, 0.5601187348365784, 9.719829559326172, -1.6510831117630005, 0.8073716163635254, 0.3184233605861664, 1.5312830209732056, -1.5233298540115356, -0.806640625, 0.0302734375, 0.279296875, 
18, 3599182251, -0.482083797454834, 0.5812954902648926, 0.34033191204071045, 0.5602395534515381, 9.726578712463379, -1.6789721250534058, 0.8036028146743774, 0.3618651032447815, 1.0555754899978638, -1.7875151634216309, -0.8046875, 0.028076171875, 0.277099609375, 
19, 3599190584, -0.48205944895744324, 0.5811910033226013, 0.3403724133968353, 0.5603442788124084, 9.66418743133545, -1.7125898599624634, 0.8173668384552002, 0.202903151512146, 0.7147267460823059, -1.849783182144165, -0.8056640625, 0.027587890625, 0.278564453125, 
20, 3599198917, -0.48203185200691223, 0.5810946226119995, 0.34042003750801086, 0.5604389309883118, 9.64297866821289, -1.7761844396591187, 0.8039200901985168, 0.1839742362499237, 0.21540290117263794, -1.9166874885559082, -0.806640625, 0.026123046875, 0.278564453125, 
21, 3599207250, -0.48198699951171875, 0.581020176410675, 0.34049832820892334, 0.5605071783065796, 9.630950927734375, -1.7926576137542725, 0.8106817007064819, 0.3034902513027191, -0.15381348133087158, -1.9272406101226807, -0.80859375, 0.02978515625, 0.2802734375, 
22, 3599215583, -0.4819593131542206, 0.5809482336044312, 0.340584933757782, 0.5605527758598328, 9.620308876037598, -1.843571662902832, 0.8069131374359131, 0.548387885093689, -0.6190703511238098, -1.7899227142333984, -0.8056640625, 0.025146484375, 0.279541015625, 
23, 3599223916, -0.4819287955760956, 0.5808908343315125, 0.3406844437122345, 0.5605780482292175, 9.616586685180664, -1.8564763069152832, 0.8113225102424622, 0.6692102551460266, -0.7011896371841431, -1.6201515197753906, -0.8056640625, 0.027099609375, 0.278076171875, 
24, 3599232249, -0.4819200932979584, 0.5808193683624268, 0.34078317880630493, 0.5605995059013367, 9.6152982711792, -1.8182995319366455, 0.8334603905677795, 0.8980734944343567, -0.8026732802391052, -1.5782209634780884, -0.8056640625, 0.02880859375, 0.280029296875, 
25, 3599240582, -0.4819132089614868, 0.5807540416717529, 0.3409042954444885, 0.5605996251106262, 9.624593734741211, -1.8645193576812744, 0.8616905212402344, 1.194455862045288, -0.8743162751197815, -1.4822444915771484, -0.80859375, 0.027099609375, 0.27685546875, 
26, 3599248915, -0.48191720247268677, 0.5806794166564941, 0.3410217761993408, 0.5606021285057068, 9.668254852294922, -1.8573936223983765, 0.8748339414596558, 1.2345166206359863, -0.9873006343841553, -1.5222282409667969, -0.80517578125, 0.026611328125, 0.277099609375, 
27, 3599257248, -0.48190680146217346, 0.5806167125701904, 0.34114816784858704, 0.5605990886688232, 9.652247428894043, -1.8807708024978638, 0.8867335319519043, 1.2057260274887085, -0.9702672362327576, -1.5174129009246826, -0.806640625, 0.02685546875, 0.282470703125, 
28, 3599265581, -0.48190397024154663, 0.5805578231811523, 0.3412514925003052, 0.5605995059013367, 9.649611473083496, -1.8691086769104004, 0.9346071481704712, 1.0480191707611084, -1.0737229585647583, -1.3687478303909302, -0.80615234375, 0.028564453125, 0.2783203125, 
29, 3599273914, -0.4818766713142395, 0.5805257558822632, 0.3413565456867218, 0.5605922937393188, 9.666085243225098, -1.8797581195831299, 0.9000518918037415, 0.7240759134292603, -1.1781010627746582, -1.3068894147872925, -0.806640625, 0.024658203125, 0.280517578125, 
30, 3599282247, -0.4818461239337921, 0.580508291721344, 0.34141623973846436, 0.5606002807617188, 9.696200370788574, -1.8907681703567505, 0.9235679507255554, 0.12162920832633972, -1.1599407196044922, -1.0969551801681519, -0.80712890625, 0.024658203125, 0.278564453125, 
31, 3599290580, -0.48178818821907043, 0.5805318355560303, 0.3414444625377655, 0.5606085658073425, 9.724569320678711, -1.8981785774230957, 0.9296478629112244, -0.5569303035736084, -1.1170625686645508, -0.7712958455085754, -0.80615234375, 0.026123046875, 0.280517578125, 
32, 3599298913, -0.48172447085380554, 0.5805718302726746, 0.34142595529556274, 0.5606331825256348, 9.74074935913086, -1.8992118835449219, 0.9264259338378906, -1.2100419998168945, -1.1062531471252441, -0.5718634128570557, -0.806640625, 0.027587890625, 0.27978515625, 
33, 3599307246, -0.48162978887557983, 0.5806522965431213, 0.34138521552085876, 0.560655951499939, 9.70605754852295, -1.9373141527175903, 0.9621448516845703, -1.8269095420837402, -1.1574560403823853, -0.3333436846733093, -0.80615234375, 0.023193359375, 0.282958984375, 
34, 3599315579, -0.4815331697463989, 0.5807446241378784, 0.3413352072238922, 0.5606738328933716, 9.668701171875, -1.9735924005508423, 0.9870299696922302, -2.004467487335205, -1.5114960670471191, -0.28185904026031494, -0.81005859375, 0.027099609375, 0.28173828125, 
35, 3599323912, -0.4814315736293793, 0.5808465480804443, 0.3413395583629608, 0.5606527328491211, 9.655963897705078, -2.0130231380462646, 1.0361913442611694, -1.4707692861557007, -2.0037243366241455, -0.354757159948349, -0.80517578125, 0.024169921875, 0.282470703125, 
36, 3599332245, -0.4813525676727295, 0.5809305906295776, 0.3413764238357544, 0.5606111288070679, 9.653515815734863, -2.0296525955200195, 1.030874490737915, -0.8515195846557617, -2.4158577919006348, -0.4882841408252716, -0.80712890625, 0.025634765625, 0.279296875, 
37, 3599340578, -0.4812808036804199, 0.5810011029243469, 0.341476708650589, 0.560538649559021, 9.634930610656738, -2.0576837062835693, 1.0626245737075806, -0.04344174265861511, -2.667492151260376, -0.6998064517974854, -0.8056640625, 0.027587890625, 0.27685546875, 
38, 3599348911, -0.4812617897987366, 0.5810227394104004, 0.3416071832180023, 0.560452938079834, 9.60826587677002, -2.1068291664123535, 1.1075729131698608, 0.936520516872406, -2.6171345710754395, -0.7809012532234192, -0.80859375, 0.025634765625, 0.279296875, 
39, 3599357244, -0.4812713861465454, 0.5810154676437378, 0.34177905321121216, 0.5603474378585815, 9.61941909790039, -2.147824287414551, 1.1211973428726196, 1.8299195766448975, -2.4235422611236572, -0.7904040813446045, -0.80419921875, 0.025146484375, 0.279541015625, 
40, 3599365577, -0.48134827613830566, 0.5809442400932312, 0.3419550657272339, 0.560248076915741, 9.6118745803833, -2.2211451530456543, 1.1672273874282837, 2.8204987049102783, -1.8809558153152466, -0.7498311996459961, -0.80810546875, 0.022705078125, 0.281982421875, 
41, 3599373910, -0.4814593493938446, 0.5808441042900085, 0.34215909242630005, 0.560131847858429, 9.619989395141602, -2.2491037845611572, 1.1887093782424927, 3.5543463230133057, -1.5285807847976685, -0.6300589442253113, -0.80712890625, 0.025146484375, 0.280029296875, 
42, 3599382243, -0.4816526174545288, 0.5806798934936523, 0.34234219789505005, 0.5600236654281616, 9.654671669006348, -2.2993338108062744, 1.19257652759552, 4.397029399871826, -0.7261379361152649, -0.30145394802093506, -0.80615234375, 0.024169921875, 0.281982421875, 
43, 3599390576, -0.48187369108200073, 0.5805011987686157, 0.3425043821334839, 0.5599198341369629, 9.676630020141602, -2.306345224380493, 1.2145907878875732, 4.572051525115967, -0.030660241842269897, 0.09778234362602234, -0.80859375, 0.026123046875, 0.28125, 
44, 3599398909, -0.48214417695999146, 0.5803247094154358, 0.34257379174232483, 0.5598273873329163, 9.76832103729248, -2.3457210063934326, 1.21978759765625, 4.14101505279541, 0.6087863445281982, 1.031113862991333, -0.8076171875, 0.027587890625, 0.27783203125, 
45, 3599407242, -0.4824230670928955, 0.5801951289176941, 0.3425590693950653, 0.5597307085990906, 9.841312408447266, -2.354757070541382, 1.2488470077514648, 3.3122406005859375, 1.0939198732376099, 2.1399283409118652, -0.80712890625, 0.026123046875, 0.2783203125, 
46, 3599415575, -0.4827136993408203, 0.5801209211349487, 0.3423982560634613, 0.5596553087234497, 9.887702941894531, -2.3142201900482178, 1.273625373840332, 1.7657043933868408, 1.5788229703903198, 3.381373643875122, -0.80517578125, 0.02783203125, 0.278564453125, 
47, 3599423908, -0.48296380043029785, 0.5801461935043335, 0.34210023283958435, 0.5595957040786743, 9.876042366027832, -2.202871561050415, 1.2243540287017822, -0.30071112513542175, 1.9417767524719238, 4.66193151473999, -0.806640625, 0.026123046875, 0.279541015625, 
48, 3599432241, -0.483175665140152, 0.580278217792511, 0.3416019380092621, 0.5595802068710327, 9.804530143737793, -2.1557939052581787, 1.1940158605575562, -3.1423287391662598, 2.344637155532837, 6.030167102813721, -0.80712890625, 0.028564453125, 0.27734375, 
49, 3599440574, -0.48327237367630005, 0.5805575251579285, 0.3409491777420044, 0.5596050024032593, 9.753868103027344, -2.104933738708496, 1.1833324432373047, -6.339420795440674, 2.2951252460479736, 6.944979667663574, -0.80712890625, 0.03076171875, 0.27783203125, 
50, 3599448907, -0.48328107595443726, 0.5809541344642639, 0.3401399850845337, 0.559678316116333, 9.677596092224121, -2.04933762550354, 1.1359574794769287, -9.327116012573242, 2.1265835762023926, 7.595607757568359, -0.80810546875, 0.030029296875, 0.2763671875, 
51, 3599457240, -0.4831976592540741, 0.5814599990844727, 0.33925408124923706, 0.5597628951072693, 9.631197929382324, -2.053866147994995, 1.0960675477981567, -11.356740951538086, 1.7346606254577637, 8.084840774536133, -0.805908203125, 0.027587890625, 0.2734375, 
52, 3599465573, -0.4830721318721771, 0.5820125341415405, 0.33830684423446655, 0.559870183467865, 9.621196746826172, -2.024801254272461, 1.0368410348892212, -12.532970428466797, 1.4637128114700317, 8.177358627319336, -0.81005859375, 0.032470703125, 0.275634765625, 
53, 3599473906, -0.4829140603542328, 0.5825929641723633, 0.33738625049591064, 0.5599584579467773, 9.619120597839355, -2.0148239135742188, 1.00607168674469, -12.73442554473877, 1.0736591815948486, 8.11132526397705, -0.80712890625, 0.031982421875, 0.2744140625, 
54, 3599482239, -0.48282498121261597, 0.5831349492073059, 0.33649522066116333, 0.5600073337554932, 9.656044006347656, -2.0293681621551514, 0.9834150075912476, -11.533503532409668, 0.8868290185928345, 8.335577011108398, -0.8076171875, 0.033447265625, 0.27392578125, 
55, 3599490572, -0.4827937185764313, 0.5836243629455566, 0.3356897532939911, 0.5600079894065857, 9.690591812133789, -2.0453972816467285, 0.9673346877098083, -9.819705963134766, 0.8965111374855042, 8.325127601623535, -0.80908203125, 0.033447265625, 0.272216796875, 
56, 3599498905, -0.4828755259513855, 0.5840190052986145, 0.33495408296585083, 0.5599661469459534, 9.696881294250488, -2.049713611602783, 0.980293869972229, -7.542726516723633, 1.0484035015106201, 8.328021049499512, -0.8076171875, 0.032958984375, 0.27099609375, 
57, 3599507238, -0.48305413126945496, 0.5843341946601868, 0.33432093262672424, 0.5598618388175964, 9.721691131591797, -2.0073676109313965, 0.9632189869880676, -5.170643329620361, 1.2182258367538452, 8.449790954589844, -0.80859375, 0.035888671875, 0.270751953125, 
58, 3599515571, -0.483344703912735, 0.584555983543396, 0.3337453305721283, 0.5597229599952698, 9.702239036560059, -1.9616405963897705, 0.9673055410385132, -3.1271145343780518, 1.5161452293395996, 8.488314628601074, -0.80908203125, 0.035888671875, 0.271240234375, 
59, 3599523904, -0.4836687445640564, 0.5847387313842773, 0.33323946595191956, 0.5595536828041077, 9.72060489654541, -1.871111512184143, 0.9737309217453003, -1.8432517051696777, 1.5376096963882446, 8.371001243591309, -0.8056640625, 0.0361328125, 0.271484375, 
60, 3599532237, -0.4840388894081116, 0.5849031209945679, 0.3327259421348572, 0.5593674778938293, 9.728140830993652, -1.7698311805725098, 0.9582142233848572, -1.3937472105026245, 1.5286189317703247, 8.655241012573242, -0.80712890625, 0.0390625, 0.272705078125, 
61, 3599540570, -0.48436710238456726, 0.5850982069969177, 0.3322080373764038, 0.5591870546340942, 9.672481536865234, -1.6892163753509521, 0.9557973742485046, -1.9319281578063965, 1.4525961875915527, 8.629935264587402, -0.80712890625, 0.04052734375, 0.268798828125, 
62, 3599548903, -0.4846626818180084, 0.5853111743927002, 0.3316577076911926, 0.5590344667434692, 9.645301818847656, -1.6350932121276855, 0.9449279308319092, -2.8257362842559814, 1.3478081226348877, 8.37407398223877, -0.8076171875, 0.041015625, 0.268798828125, 
63, 3599557236, -0.4848724603652954, 0.5855810046195984, 0.3310769200325012, 0.5589143633842468, 9.64527702331543, -1.6361287832260132, 0.8942877650260925, -4.142180919647217, 1.241381287574768, 8.163885116577148, -0.806640625, 0.04248046875, 0.268798828125, 
64, 3599565569, -0.4850594699382782, 0.585847795009613, 0.33046281337738037, 0.5588359236717224, 9.657257080078125, -1.5799343585968018, 0.8884593844413757, -4.798494338989258, 1.4443228244781494, 7.817837238311768, -0.806640625, 0.0458984375, 0.265869140625, 
65, 3599573902, -0.4851664900779724, 0.5861865878105164, 0.3298076391220093, 0.5587748289108276, 9.638047218322754, -1.5814706087112427, 0.7943976521492004, -6.271056652069092, 1.2173806428909302, 7.894320964813232, -0.806640625, 0.04541015625, 0.266845703125, 
66, 3599582235, -0.48525309562683105, 0.5864982604980469, 0.3291163444519043, 0.5587800145149231, 9.780510902404785, -1.5081474781036377, 0.8121151924133301, -6.853012561798096, 1.830355167388916, 7.325761318206787, -0.80810546875, 0.044921875, 0.26708984375, 
67, 3599590568, -0.4853506088256836, 0.5868090987205505, 0.32848143577575684, 0.5587428212165833, 9.762495994567871, -1.5972352027893066, 0.7170107364654541, -6.114630222320557, 1.4455777406692505, 7.369970798492432, -0.80908203125, 0.0458984375, 0.2666015625, 
68, 3599598901, -0.4854526221752167, 0.5870891809463501, 0.32790374755859375, 0.5586990118026733, 9.72071361541748, -1.5625779628753662, 0.7358777523040771, -5.443717002868652, 0.9986606240272522, 6.716552257537842, -0.806640625, 0.04638671875, 0.268798828125, 
69, 3599607234, -0.4855349659919739, 0.5873585939407349, 0.3274173140525818, 0.5586296916007996, 9.742528915405273, -1.476070523262024, 0.7107006311416626, -4.672959327697754, 0.4440612494945526, 6.083881378173828, -0.80615234375, 0.04541015625, 0.264404296875, 
70, 3599615567, -0.48562976717948914, 0.5875823497772217, 0.3270048499107361, 0.5585536360740662, 9.727867126464844, -1.5180623531341553, 0.7249573469161987, -3.73337721824646, 0.046835631132125854, 5.2954230308532715, -0.8056640625, 0.0478515625, 0.267822265625, 
71, 3599623900, -0.4856790602207184, 0.5878047943115234, 0.32669925689697266, 0.5584557056427002, 9.643386840820312, -1.4722216129302979, 0.6745571494102478, -3.108825445175171, -0.7809780836105347, 4.347875595092773, -0.80810546875, 0.046875, 0.265625, 
72, 3599632233, -0.4857141077518463, 0.5880109667778015, 0.3264760971069336, 0.5583388209342957, 9.584757804870605, -1.4720611572265625, 0.701569139957428, -2.4457497596740723, -1.6767336130142212, 3.5105209350585938, -0.806884765625, 0.0498046875, 0.2666015625, 
73, 3599640566, -0.48569586873054504, 0.5882209539413452, 0.3263499438762665, 0.5582069754600525, 9.595929145812988, -1.4536124467849731, 0.7732073068618774, -2.0421719551086426, -2.461655855178833, 2.5502941608428955, -0.8056640625, 0.0498046875, 0.26318359375, 
74, 3599648899, -0.48566508293151855, 0.588405191898346, 0.326289564371109, 0.5580745935440063, 9.583980560302734, -1.4954742193222046, 0.7924935221672058, -1.5186935663223267, -3.011183738708496, 1.7039484977722168, -0.80322265625, 0.0478515625, 0.267333984375, 
75, 3599657232, -0.4855925440788269, 0.5885752439498901, 0.32629647850990295, 0.5579543709754944, 9.531769752502441, -1.5300949811935425, 0.8470951914787292, -1.2445956468582153, -3.193301200866699, 0.7991769909858704, -0.804931640625, 0.04931640625, 0.267333984375, 
76, 3599665565, -0.48551151156425476, 0.588705837726593, 0.3263469934463501, 0.5578576922416687, 9.507280349731445, -1.5882236957550049, 0.8725208640098572, -0.9269023537635803, -3.262101173400879, -0.054686401039361954, -0.806396484375, 0.048583984375, 0.26953125, 
77, 3599673898, -0.48541510105133057, 0.5888108611106873, 0.32645612955093384, 0.557766854763031, 9.492941856384277, -1.625285029411316, 0.9221978783607483, -0.35503894090652466, -3.2465786933898926, -0.6985257863998413, -0.807861328125, 0.051513671875, 0.27197265625, 
78, 3599682231, -0.48533210158348083, 0.5888780355453491, 0.32656508684158325, 0.5577043890953064, 9.498384475708008, -1.6291906833648682, 0.9208424091339111, -0.07894306629896164, -2.9265029430389404, -1.0325610637664795, -0.8046875, 0.0498046875, 0.265380859375, 
79, 3599690564, -0.4852403700351715, 0.588934600353241, 0.3266775608062744, 0.5576587915420532, 9.528244972229004, -1.6457068920135498, 0.9391703009605408, -0.16925884783267975, -2.510451316833496, -1.2125779390335083, -0.808349609375, 0.04736328125, 0.26904296875, 
80, 3599698897, -0.48514944314956665, 0.5889718532562256, 0.3267746865749359, 0.5576413869857788, 9.556079864501953, -1.6598674058914185, 0.9373563528060913, -0.2928987741470337, -2.275158643722534, -1.429581642150879, -0.805908203125, 0.048583984375, 0.269287109375, 
81, 3599707230, -0.48500990867614746, 0.5890198945999146, 0.32687467336654663, 0.557653546333313, 9.572586059570312, -1.7011361122131348, 0.9729777574539185, -0.8536713123321533, -2.1083333492279053, -1.899603009223938, -0.807373046875, 0.04736328125, 0.26904296875, 
82, 3599715563, -0.4848423898220062, 0.5890657901763916, 0.3269832134246826, 0.5576871633529663, 9.577596664428711, -1.6907355785369873, 1.0136053562164307, -1.1442904472351074, -2.3403983116149902, -2.41206693649292, -0.804443359375, 0.046630859375, 0.271728515625, 
83, 3599723896, -0.4846264719963074, 0.5891229510307312, 0.3271162807941437, 0.5577364563941956, 9.6428861618042, -1.7185581922531128, 1.012433409690857, -1.4462565183639526, -2.4419586658477783, -2.958930492401123, -0.804931640625, 0.045654296875, 0.273193359375, 
84, 3599732229, -0.48437872529029846, 0.5891768932342529, 0.32725247740745544, 0.55781489610672, 9.665940284729004, -1.743496298789978, 1.0163973569869995, -1.8614122867584229, -2.577765703201294, -3.5073318481445312, -0.808349609375, 0.044921875, 0.27197265625, 
85, 3599740562, -0.48408064246177673, 0.5892434120178223, 0.3273916244506836, 0.5579217076301575, 9.665732383728027, -1.7357115745544434, 0.9654855132102966, -2.3870160579681396, -2.457864999771118, -3.98101544380188, -0.803955078125, 0.044677734375, 0.275634765625, 
86, 3599748895, -0.4837758541107178, 0.5892942547798157, 0.32752230763435364, 0.5580555200576782, 9.671270370483398, -1.7639862298965454, 0.9621222615242004, -2.6306588649749756, -2.3164234161376953, -4.283187389373779, -0.808837890625, 0.04443359375, 0.274169921875, 
87, 3599757228, -0.483431339263916, 0.5893450975418091, 0.3276725709438324, 0.558212399482727, 9.657687187194824, -1.833495020866394, 0.9532896280288696, -2.7995078563690186, -2.2144787311553955, -4.83061408996582, -0.805908203125, 0.044189453125, 0.277099609375, 
88, 3599765561, -0.48309358954429626, 0.58937007188797, 0.32783040404319763, 0.5583857297897339, 9.63155460357666, -1.9081056118011475, 0.9372251033782959, -2.5709009170532227, -2.153439998626709, -5.119415283203125, -0.805419921875, 0.043701171875, 0.275146484375, 
89, 3599773894, -0.48275595903396606, 0.5893834829330444, 0.32804325222969055, 0.558538556098938, 9.610898971557617, -1.9749658107757568, 0.9475387930870056, -1.9937608242034912, -2.3455464839935303, -5.428194046020508, -0.806640625, 0.04150390625, 0.274658203125, 
90, 3599782227, -0.48244762420654297, 0.5893657207489014, 0.32830145955085754, 0.5586719512939453, 9.610932350158691, -2.032653331756592, 0.9462974667549133, -1.0626320838928223, -2.687061071395874, -5.629649639129639, -0.80224609375, 0.040771484375, 0.2763671875, 
91, 3599790560, -0.4821682274341583, 0.5893334150314331, 0.32863301038742065, 0.5587522387504578, 9.597917556762695, -2.086022138595581, 0.9596118330955505, 0.018096458166837692, -3.1046502590179443, -5.6662278175354, -0.80712890625, 0.04150390625, 0.275634765625, 
92, 3599798893, -0.48192253708839417, 0.5892692804336548, 0.3290219008922577, 0.5588029623031616, 9.59003734588623, -2.1348013877868652, 1.0073539018630981, 1.0788588523864746, -3.57523512840271, -5.87439489364624, -0.80419921875, 0.0400390625, 0.2724609375, 
93, 3599807226, -0.4816965162754059, 0.5891856551170349, 0.3294963538646698, 0.5588063597679138, 9.663961410522461, -2.158562421798706, 1.064477562904358, 2.2381081581115723, -4.039954662322998, -6.1364545822143555, -0.80419921875, 0.037841796875, 0.27880859375, 
94, 3599815559, -0.4815143942832947, 0.5890628695487976, 0.3299931585788727, 0.5587993860244751, 9.70512580871582, -2.1854560375213623, 1.0954068899154663, 3.3760976791381836, -4.0802459716796875, -6.119062423706055, -0.8046875, 0.037841796875, 0.28173828125, 
95, 3599823892, -0.48137909173965454, 0.5888922810554504, 0.3305422365665436, 0.5587713122367859, 9.75417709350586, -2.1982758045196533, 1.1261937618255615, 4.265833377838135, -3.7104530334472656, -6.230560779571533, -0.80224609375, 0.037353515625, 0.280029296875, 
96, 3599832225, -0.48131000995635986, 0.5886602997779846, 0.3310822546482086, 0.5587556958198547, 9.75820255279541, -2.1932759284973145, 1.1874990463256836, 4.873402118682861, -2.9813430309295654, -6.087837219238281, -0.8037109375, 0.038818359375, 0.27978515625, 
97, 3599840558, -0.4812510311603546, 0.5884202718734741, 0.3315817415714264, 0.5587631464004517, 9.745010375976562, -2.184814691543579, 1.1864105463027954, 4.799428939819336, -2.2131214141845703, -5.793198108673096, -0.8056640625, 0.03369140625, 0.28125, 
98, 3599848891, -0.4812321364879608, 0.5881544351577759, 0.33201390504837036, 0.5588027238845825, 9.717473983764648, -2.2049977779388428, 1.2092173099517822, 4.573229789733887, -1.365828037261963, -5.337981224060059, -0.8056640625, 0.036376953125, 0.28125, 
99, 3599857224, -0.48118799924850464, 0.5879279375076294, 0.33237266540527344, 0.558866024017334, 9.69231128692627, -2.168915271759033, 1.2073088884353638, 3.49369215965271, -0.8674773573875427, -4.848390579223633, -0.80419921875, 0.0341796875, 0.2802734375, 
100, 3599865557, -0.4811302721500397, 0.5877233147621155, 0.33264675736427307, 0.5589674711227417, 9.661710739135742, -2.1571731567382812, 1.1961562633514404, 2.421070098876953, -0.4830331802368164, -4.483131408691406, -0.80419921875, 0.03369140625, 0.27978515625, 
101, 3599873890, -0.4810212552547455, 0.5875840783119202, 0.33283665776252747, 0.5590949058532715, 9.649677276611328, -2.171518087387085, 1.2070077657699585, 0.8003551959991455, -0.19884328544139862, -4.00819206237793, -0.803955078125, 0.036865234375, 0.28564453125, 
102, 3599882223, -0.4808216392993927, 0.587525486946106, 0.3328963816165924, 0.5592924952507019, 9.659796714782715, -2.2025034427642822, 1.209945797920227, -0.5833641886711121, -0.30245286226272583, -3.704151153564453, -0.8076171875, 0.0341796875, 0.28369140625, 
103, 3599890556, -0.4806188941001892, 0.5874927639961243, 0.33297738432884216, 0.5594528913497925, 9.660216331481934, -2.226353645324707, 1.2140766382217407, -1.6493003368377686, -0.4591350853443146, -3.5796914100646973, -0.80615234375, 0.033447265625, 0.28515625, 
104, 3599898889, -0.48040899634361267, 0.5874865055084229, 0.3330165445804596, 0.5596164464950562, 9.676259994506836, -2.2890090942382812, 1.1885367631912231, -2.3518476486206055, -0.6279841661453247, -3.2800304889678955, -0.80615234375, 0.0322265625, 0.28125, 
105, 3599907222, -0.4801924228668213, 0.5874929428100586, 0.33303236961364746, 0.5597861409187317, 9.711943626403809, -2.3113415241241455, 1.1896002292633057, -2.5633442401885986, -0.31882038712501526, -3.0399742126464844, -0.806640625, 0.03125, 0.28271484375, 
106, 3599915555, -0.4800029993057251, 0.5875008702278137, 0.3329724073410034, 0.5599759221076965, 9.74022388458252, -2.337710380554199, 1.2002067565917969, -2.571336507797241, 0.10323818027973175, -2.3827643394470215, -0.80419921875, 0.03369140625, 0.27978515625, 
107, 3599923888, -0.47987353801727295, 0.5875020623207092, 0.3328872323036194, 0.5601361989974976, 9.726045608520508, -2.3840065002441406, 1.1351494789123535, -2.558375358581543, 0.7117299437522888, -1.5157480239868164, -0.8076171875, 0.03125, 0.283203125, 
108, 3599932221, -0.4798157215118408, 0.5874800086021423, 0.33275076746940613, 0.5602898001670837, 9.695213317871094, -2.3740437030792236, 1.1324446201324463, -2.263401746749878, 1.251319408416748, -0.7028290033340454, -0.80712890625, 0.033203125, 0.28466796875, 
109, 3599940554, -0.4797886312007904, 0.5874832272529602, 0.33257055282592773, 0.5604166984558105, 9.681495666503906, -2.3846917152404785, 1.08956778049469, -2.325157880783081, 1.5216008424758911, 0.26898789405822754, -0.806640625, 0.03271484375, 0.28173828125, 
110, 3599948887, -0.4798143804073334, 0.5874905586242676, 0.3323212265968323, 0.560534656047821, 9.677766799926758, -2.341698169708252, 1.060559868812561, -2.4205963611602783, 1.8488996028900146, 1.2209153175354004, -0.80712890625, 0.03125, 0.28369140625, 
111, 3599957220, -0.4798533022403717, 0.5875425934791565, 0.3320421278476715, 0.5606122612953186, 9.678783416748047, -2.2909626960754395, 1.0476114749908447, -2.6500742435455322, 1.7023603916168213, 2.1268138885498047, -0.80517578125, 0.02880859375, 0.279541015625, 
112, 3599965553, -0.47992023825645447, 0.5876120328903198, 0.33174556493759155, 0.5606575608253479, 9.664290428161621, -2.2514894008636475, 1.045815110206604, -2.7114202976226807, 1.319581389427185, 2.6603329181671143, -0.8056640625, 0.03076171875, 0.28125, 
113, 3599973886, -0.47996756434440613, 0.5877293348312378, 0.3314335346221924, 0.5606787204742432, 9.675629615783691, -2.217310905456543, 1.0205707550048828, -3.009570360183716, 0.9976872205734253, 3.1267170906066895, -0.80517578125, 0.03125, 0.282958984375, 
114, 3599982219, -0.48001882433891296, 0.5878483653068542, 0.33112114667892456, 0.5606945157051086, 9.704320907592773, -2.172293186187744, 1.046421766281128, -3.0171008110046387, 0.7045579552650452, 3.0983364582061768, -0.81005859375, 0.03271484375, 0.28173828125, 
115, 3599990552, -0.4800492227077484, 0.5879936814308167, 0.3308164179325104, 0.5606963634490967, 9.703666687011719, -2.1270220279693604, 1.0384551286697388, -3.188537120819092, 0.5008991956710815, 3.191213846206665, -0.80810546875, 0.03271484375, 0.28125, 
116, 3599998885, -0.4800930321216583, 0.5881102681159973, 0.3305104076862335, 0.5607167482376099, 9.697880744934082, -2.0792019367218018, 1.0380152463912964, -2.972378730773926, 0.6710802316665649, 2.9498252868652344, -0.80419921875, 0.03271484375, 0.27880859375, 
117, 3600007218, -0.48013558983802795, 0.5882112979888916, 0.33022192120552063, 0.5607442855834961, 9.73710823059082, -2.049145460128784, 1.0315234661102295, -2.7894158363342285, 0.998045802116394, 2.7841265201568604, -0.80615234375, 0.0341796875, 0.2822265625, 
118, 3600015551, -0.48021984100341797, 0.5882593393325806, 0.3299601674079895, 0.560775876045227, 9.708621978759766, -1.9952900409698486, 1.0314818620681763, -2.166503429412842, 1.2365144491195679, 2.4899215698242188, -0.80712890625, 0.036865234375, 0.2822265625, 
119, 3600023884, -0.48028984665870667, 0.5882916450500488, 0.3297117352485657, 0.5608283281326294, 9.703429222106934, -1.9661924839019775, 1.0001978874206543, -1.9150995016098022, 1.5885051488876343, 2.1955368518829346, -0.80517578125, 0.03515625, 0.28125, 
120, 3600032217, -0.48037171363830566, 0.588286817073822, 0.3294605016708374, 0.5609107613563538, 9.715940475463867, -1.9291101694107056, 0.9721137285232544, -1.9095157384872437, 1.959655523300171, 1.8205958604812622, -0.806640625, 0.03369140625, 0.27783203125, 
121, 3600040550, -0.48043742775917053, 0.5882681012153625, 0.32922300696372986, 0.5610135793685913, 9.699431419372559, -1.9266276359558105, 0.945137619972229, -1.7574695348739624, 2.2988905906677246, 1.50892174243927, -0.80810546875, 0.0341796875, 0.27880859375, 
122, 3600048883, -0.48050156235694885, 0.5882353782653809, 0.3289799690246582, 0.5611357092857361, 9.661381721496582, -1.9574055671691895, 0.9411895275115967, -1.802140712738037, 2.325862169265747, 1.2467601299285889, -0.806640625, 0.03515625, 0.28271484375, 
123, 3600057216, -0.4805481731891632, 0.5882238745689392, 0.328795850276947, 0.5612155795097351, 9.59447193145752, -1.978737235069275, 0.8988558650016785, -1.4439513683319092, 1.6187556982040405, 1.1136685609817505, -0.8056640625, 0.03662109375, 0.27685546875, 
124, 3600065549, -0.48058971762657166, 0.5882182121276855, 0.3286394476890564, 0.5612773299217224, 9.588312149047852, -1.9802645444869995, 0.9045407772064209, -1.378020167350769, 0.9878513216972351, 0.8791189193725586, -0.80810546875, 0.03515625, 0.275146484375, 
125, 3600073882, -0.48061227798461914, 0.5882264971733093, 0.3285233974456787, 0.5613173842430115, 9.606368064880371, -1.9963370561599731, 0.9220229387283325, -1.0643227100372314, 0.5849394202232361, 0.7312991619110107, -0.80517578125, 0.03564453125, 0.27783203125, 
126, 3600082215, -0.48065340518951416, 0.588218092918396, 0.3284244239330292, 0.5613489747047424, 9.612898826599121, -1.9799855947494507, 0.9130961894989014, -0.734180748462677, 0.37372449040412903, 0.6027925610542297, -0.8056640625, 0.03759765625, 0.2744140625, 
127, 3600090548, -0.48068708181381226, 0.5882185101509094, 0.32833853363990784, 0.5613698959350586, 9.614129066467285, -1.9783047437667847, 0.9278599619865417, -0.6043678522109985, 0.34306424856185913, 0.663114070892334, -0.8046875, 0.03466796875, 0.27734375, 
128, 3600098881, -0.4807433485984802, 0.5881983041763306, 0.32825005054473877, 0.5613945126533508, 9.615459442138672, -1.94990074634552, 0.9632661938667297, -0.3622877299785614, 0.3985702693462372, 0.6334015727043152, -0.81005859375, 0.0341796875, 0.277587890625, 
129, 3600107214, -0.48080047965049744, 0.5881724953651428, 0.3281756639480591, 0.5614162683486938, 9.55441665649414, -1.9518249034881592, 0.9612205028533936, -0.15483804047107697, 0.5806362628936768, 0.6269211173057556, -0.8076171875, 0.03466796875, 0.27490234375, 
130, 3600115547, -0.48089757561683655, 0.5880945324897766, 0.32813113927841187, 0.5614407062530518, 9.554043769836426, -1.9173409938812256, 0.9685734510421753, -0.008683226071298122, 0.8807582259178162, 0.2668363153934479, -0.80615234375, 0.03271484375, 0.27734375, 
131, 3600123880, -0.48095792531967163, 0.5880153775215149, 0.3280836045742035, 0.561499834060669, 9.547993659973145, -1.899001121520996, 0.9491250514984131, 0.261098712682724, 1.1317522525787354, -0.05299584940075874, -0.80615234375, 0.037109375, 0.27587890625, 
132, 3600132213, -0.4810398817062378, 0.5878855586051941, 0.32804688811302185, 0.561586856842041, 9.553354263305664, -1.869096040725708, 0.9419876337051392, 0.646003782749176, 1.5337163209915161, -0.49776139855384827, -0.806640625, 0.0361328125, 0.2744140625, 
133, 3600140546, -0.48110049962997437, 0.5877385139465332, 0.3280450403690338, 0.5616898536682129, 9.556656837463379, -1.8997100591659546, 0.9300829768180847, 0.8669779300689697, 1.7111462354660034, -1.0165009498596191, -0.8076171875, 0.0361328125, 0.275146484375, 
134, 3600148879, -0.4811720848083496, 0.5875730514526367, 0.32804635167121887, 0.5618009567260742, 9.554359436035156, -1.9099743366241455, 0.9017333388328552, 1.0616716146469116, 1.6915512084960938, -1.194801688194275, -0.80712890625, 0.0361328125, 0.27685546875, 
135, 3600157212, -0.4812307357788086, 0.5874210000038147, 0.32807019352912903, 0.5618959665298462, 9.570381164550781, -1.9545035362243652, 0.8908137083053589, 1.1208149194717407, 1.5052334070205688, -1.2089662551879883, -0.80859375, 0.03515625, 0.274658203125, 
136, 3600165545, -0.4812878966331482, 0.5872796177864075, 0.32809212803840637, 0.561981737613678, 9.583465576171875, -1.9555540084838867, 0.8667787313461304, 1.065462350845337, 1.1028848886489868, -1.1966712474822998, -0.8076171875, 0.0380859375, 0.276611328125, 
137, 3600173878, -0.48131635785102844, 0.587168276309967, 0.32813048362731934, 0.5620512366294861, 9.603306770324707, -1.9963799715042114, 0.8653867244720459, 0.834191620349884, 0.7519698739051819, -1.2071475982666016, -0.80615234375, 0.0390625, 0.274658203125, 
138, 3600182211, -0.48136866092681885, 0.5870599746704102, 0.3282008171081543, 0.5620784163475037, 9.635388374328613, -2.001451253890991, 0.869177520275116, 0.6940561532974243, 0.18686863780021667, -1.160811424255371, -0.80859375, 0.037841796875, 0.269775390625, 
139, 3600190544, -0.48136159777641296, 0.5870076417922974, 0.3282431662082672, 0.5621143579483032, 9.642175674438477, -1.9911082983016968, 0.8590778708457947, 0.33899158239364624, -0.16295774281024933, -1.0252609252929688, -0.81103515625, 0.034423828125, 0.274169921875, 
140, 3600198877, -0.48135772347450256, 0.586959719657898, 0.3282586634159088, 0.5621588230133057, 9.650823593139648, -1.99235999584198, 0.8421542644500732, 0.24818912148475647, -0.21182972192764282, -0.9053863286972046, -0.80712890625, 0.03564453125, 0.273193359375, 
141, 3600207210, -0.48134279251098633, 0.5869287848472595, 0.32828089594841003, 0.5621907711029053, 9.649435043334961, -1.9985615015029907, 0.8480982780456543, -0.003688449738547206, -0.2622129023075104, -0.8004961013793945, -0.8076171875, 0.03759765625, 0.270751953125, 
142, 3600215543, -0.48134753108024597, 0.5868865251541138, 0.3282979726791382, 0.5622208714485168, 9.656861305236816, -2.017516851425171, 0.8611308932304382, 0.07365373522043228, -0.283395916223526, -0.7579252123832703, -0.8076171875, 0.036865234375, 0.270263671875, 
143, 3600223876, -0.48135390877723694, 0.5868527889251709, 0.32833683490753174, 0.5622279047966003, 9.666029930114746, -2.0352628231048584, 0.8755938410758972, 0.428103506565094, -0.4552673399448395, -0.6166883111000061, -0.80859375, 0.03759765625, 0.271240234375, 
144, 3600232209, -0.4813804030418396, 0.5868092179298401, 0.3283863961696625, 0.5622219443321228, 9.65217399597168, -2.042351484298706, 0.9011433124542236, 0.8852663040161133, -0.7198367714881897, -0.6004488468170166, -0.80908203125, 0.035888671875, 0.271728515625, 
145, 3600240542, -0.48141518235206604, 0.5867661833763123, 0.3284807801246643, 0.5621818900108337, 9.651243209838867, -2.0366897583007812, 0.923302173614502, 1.3600006103515625, -1.0022337436676025, -0.5756798982620239, -0.80712890625, 0.037109375, 0.271240234375, 
146, 3600248875, -0.48147791624069214, 0.5867080688476562, 0.3285927474498749, 0.5621232986450195, 9.663698196411133, -1.990230917930603, 0.921385645866394, 1.5583059787750244, -1.1912411451339722, -0.5823652148246765, -0.80517578125, 0.03759765625, 0.27001953125, 
147, 3600257208, -0.4815167188644409, 0.5866732001304626, 0.32868432998657227, 0.5620728135108948, 9.67656135559082, -1.9579910039901733, 0.9194930791854858, 1.3636122941970825, -1.111965298652649, -0.4189208447933197, -0.81005859375, 0.032958984375, 0.269287109375, 
148, 3600265541, -0.4815322756767273, 0.5866525769233704, 0.3287018835544586, 0.5620707273483276, 9.655879974365234, -1.8956466913223267, 0.9225090146064758, 0.8575006127357483, -0.7947072982788086, -0.30040374398231506, -0.80712890625, 0.03662109375, 0.274658203125, 
149, 3600273874, -0.4815397262573242, 0.5866377949714661, 0.32870668172836304, 0.562076985836029, 9.658761978149414, -1.8910043239593506, 0.924089789390564, 0.05126689374446869, -0.3781941831111908, -0.24389874935150146, -0.80712890625, 0.03857421875, 0.274169921875, 
150, 3600282207, -0.4814756512641907, 0.5866600871086121, 0.32860657572746277, 0.5621670484542847, 9.64013671875, -1.8888298273086548, 0.9028390049934387, -0.7977297902107239, -0.08135081827640533, -0.3208182752132416, -0.806640625, 0.03759765625, 0.272705078125, 
151, 3600290540, -0.48143336176872253, 0.5866701006889343, 0.32854530215263367, 0.5622287392616272, 9.628950119018555, -1.8716846704483032, 0.8921955227851868, -1.2759732007980347, 0.09043105691671371, -0.3498392105102539, -0.806640625, 0.03759765625, 0.273681640625, 
152, 3600298873, -0.48138752579689026, 0.5866802930831909, 0.3284943103790283, 0.5622869729995728, 9.610896110534668, -1.918907880783081, 0.8440424799919128, -1.3371144533157349, -0.22491861879825592, -0.5486056804656982, -0.8095703125, 0.0380859375, 0.271728515625, 
153, 3600307206, -0.4813133478164673, 0.586705207824707, 0.3284998834133148, 0.5623212456703186, 9.603242874145508, -1.9324334859848022, 0.8441570401191711, -0.9890937805175781, -0.8331542611122131, -0.8859452605247498, -0.810546875, 0.035888671875, 0.273681640625, 
154, 3600315539, -0.481242835521698, 0.5867311954498291, 0.3285525441169739, 0.5623236298561096, 9.57550048828125, -1.9917758703231812, 0.8591008186340332, -0.30931752920150757, -1.6475844383239746, -1.1064070463180542, -0.80908203125, 0.035888671875, 0.272705078125, 
155, 3600323872, -0.48118680715560913, 0.5867483019828796, 0.3287229537963867, 0.5622541904449463, 9.59951400756836, -2.028599977493286, 0.903357207775116, 0.9492252469062805, -2.616929531097412, -1.4273788928985596, -0.80712890625, 0.037109375, 0.271240234375, 
156, 3600332205, -0.4811435639858246, 0.5867507457733154, 0.3289402425289154, 0.5621617436408997, 9.624154090881348, -2.0487101078033447, 0.9208069443702698, 1.707662582397461, -3.1827478408813477, -1.7088279724121094, -0.80712890625, 0.03564453125, 0.272216796875, 
157, 3600340538, -0.48112112283706665, 0.5867382287979126, 0.3292182385921478, 0.5620311498641968, 9.630931854248047, -2.055424451828003, 0.9481134414672852, 2.5237834453582764, -3.44132399559021, -1.763693928718567, -0.8076171875, 0.0341796875, 0.27587890625, 
158, 3600348871, -0.4811166524887085, 0.5867263674736023, 0.3294510543346405, 0.5619109272956848, 9.614295959472656, -2.0670130252838135, 0.9707091450691223, 2.62052845954895, -3.273038387298584, -1.3901870250701904, -0.80810546875, 0.03466796875, 0.274658203125, 
159, 3600357204, -0.4811270833015442, 0.5867152214050293, 0.3296775817871094, 0.5617808699607849, 9.63570785522461, -2.055845022201538, 1.0223934650421143, 2.382699728012085, -2.9595706462860107, -1.09170401096344, -0.80859375, 0.03564453125, 0.275634765625, 
160, 3600365537, -0.48115071654319763, 0.586728036403656, 0.32983189821243286, 0.5616563558578491, 9.631165504455566, -2.0624430179595947, 1.0600186586380005, 1.6641697883605957, -2.763007402420044, -0.4412820041179657, -0.80712890625, 0.032470703125, 0.2724609375, 
161, 3600373870, -0.48116064071655273, 0.5867735743522644, 0.3299294412136078, 0.5615432262420654, 9.636077880859375, -2.0429508686065674, 1.0721763372421265, 0.9298862814903259, -2.4098381996154785, 0.08943210542201996, -0.80615234375, 0.034423828125, 0.2724609375, 
162, 3600382203, -0.48115721344947815, 0.5868529677391052, 0.3299406170845032, 0.561456561088562, 9.631580352783203, -2.031360387802124, 1.0824921131134033, -0.16336758434772491, -2.171036958694458, 0.5629368424415588, -0.8076171875, 0.034423828125, 0.273193359375, 
163, 3600390536, -0.481122225522995, 0.5869612693786621, 0.32990843057632446, 0.5613923072814941, 9.631146430969238, -2.0190606117248535, 1.075492024421692, -1.0714690685272217, -1.8442761898040771, 0.7504586577415466, -0.80615234375, 0.03466796875, 0.27880859375, 
164, 3600398869, -0.481107234954834, 0.5870695114135742, 0.3298434913158417, 0.5613300800323486, 9.64151382446289, -2.023056745529175, 1.0675296783447266, -1.6664875745773315, -1.6427433490753174, 1.0090086460113525, -0.80908203125, 0.037109375, 0.275634765625, 
165, 3600407202, -0.48106497526168823, 0.5872004628181458, 0.32975703477859497, 0.5612801313400269, 9.630270957946777, -2.0476644039154053, 1.070451021194458, -1.7652816772460938, -1.5771963596343994, 1.1395388841629028, -0.8076171875, 0.03466796875, 0.2763671875, 
166, 3600415535, -0.481049507856369, 0.5873342156410217, 0.3296630382537842, 0.5612084865570068, 9.625345230102539, -2.0668373107910156, 1.0445300340652466, -1.6579327583312988, -1.797248363494873, 1.4496504068374634, -0.80615234375, 0.0361328125, 0.2724609375, 
167, 3600423868, -0.48101598024368286, 0.5874934792518616, 0.3295721411705017, 0.5611240863800049, 9.64836311340332, -2.0459046363830566, 1.0475013256072998, -1.7591345310211182, -2.005056858062744, 1.602311372756958, -0.80810546875, 0.033203125, 0.27685546875, 
168, 3600432201, -0.4810018241405487, 0.5876530408859253, 0.32948172092437744, 0.5610218644142151, 9.655043601989746, -2.064763069152832, 1.0640556812286377, -1.3599365949630737, -2.319061517715454, 1.7752841711044312, -0.80615234375, 0.03564453125, 0.27490234375, 
169, 3600440534, -0.4809942841529846, 0.5878298878669739, 0.329407662153244, 0.5608868598937988, 9.694856643676758, -2.055511236190796, 1.085532784461975, -1.3043283224105835, -2.544851303100586, 2.0810670852661133, -0.80859375, 0.03662109375, 0.279052734375, 
170, 3600448867, -0.4809911251068115, 0.5880141854286194, 0.3292970061302185, 0.5607612133026123, 9.735952377319336, -2.027308225631714, 1.0834685564041138, -1.616411805152893, -2.489062786102295, 2.2786805629730225, -0.8056640625, 0.0361328125, 0.27880859375, 
171, 3600457200, -0.4809831380844116, 0.5882151126861572, 0.32916951179504395, 0.5606322288513184, 9.788125038146973, -2.011715888977051, 1.1027661561965942, -1.9086703062057495, -2.3296914100646973, 2.5791356563568115, -0.80810546875, 0.0361328125, 0.28173828125, 
172, 3600465533, -0.4810028076171875, 0.5884100198745728, 0.32901236414909363, 0.5605030059814453, 9.819164276123047, -2.0187439918518066, 1.108106017112732, -2.436093330383301, -2.070834159851074, 2.8471121788024902, -0.8095703125, 0.03466796875, 0.278076171875, 
173, 3600473866, -0.48099324107170105, 0.5886250734329224, 0.3287925124168396, 0.5604144334793091, 9.844562530517578, -1.9750696420669556, 1.0979021787643433, -2.908829689025879, -1.5086016654968262, 3.1094017028808594, -0.806640625, 0.03662109375, 0.27734375, 
174, 3600482199, -0.4810013771057129, 0.5888254642486572, 0.32852956652641296, 0.5603509545326233, 9.823870658874512, -1.954282283782959, 1.0484837293624878, -3.213587522506714, -1.0290520191192627, 3.24892258644104, -0.8046875, 0.0380859375, 0.27490234375, 
175, 3600490532, -0.48100748658180237, 0.5890189409255981, 0.3282633423805237, 0.5602985620498657, 9.783326148986816, -1.9541499614715576, 1.0526478290557861, -3.1609761714935303, -0.6708112955093384, 3.2693371772766113, -0.80712890625, 0.03369140625, 0.27978515625, 
176, 3600498865, -0.48103171586990356, 0.5891833305358887, 0.3280141055583954, 0.5602506995201111, 9.704362869262695, -1.9246881008148193, 1.0162824392318726, -2.802478790283203, -0.6460677981376648, 2.998440742492676, -0.806640625, 0.0380859375, 0.27978515625, 
177, 3600507198, -0.48105478286743164, 0.5893304944038391, 0.3278326392173767, 0.560182511806488, 9.683832168579102, -1.9207005500793457, 1.0035581588745117, -1.9922752380371094, -0.9246481657028198, 2.607542037963867, -0.80615234375, 0.0380859375, 0.27783203125, 
178, 3600515531, -0.4811112880706787, 0.5894342660903931, 0.3277171850204468, 0.5600922703742981, 9.634403228759766, -1.9274464845657349, 0.9921627640724182, -0.8808478713035583, -1.268673062324524, 2.1742773056030273, -0.8046875, 0.03662109375, 0.2783203125, 
179, 3600523864, -0.4811795949935913, 0.5895057916641235, 0.3277004361152649, 0.5599682331085205, 9.615334510803223, -1.8795264959335327, 0.9871017336845398, 0.39629065990448, -1.6820869445800781, 1.6513882875442505, -0.80712890625, 0.03759765625, 0.27734375, 
180, 3600532197, -0.4812847971916199, 0.5895338654518127, 0.32774779200553894, 0.559820294380188, 9.587845802307129, -1.8849848508834839, 0.9819092750549316, 1.2753968238830566, -1.9586437940597534, 1.2485787868499756, -0.8046875, 0.039794921875, 0.27734375, 
181, 3600540530, -0.4813832938671112, 0.5895423889160156, 0.3278445601463318, 0.5596700310707092, 9.586806297302246, -1.8496700525283813, 1.015951156616211, 2.048536777496338, -2.024343967437744, 0.8516605496406555, -0.806640625, 0.03662109375, 0.28076171875, 
182, 3600548863, -0.48148906230926514, 0.5895285606384277, 0.32796722650527954, 0.5595216155052185, 9.576982498168945, -1.841017723083496, 1.0575520992279053, 2.319612503051758, -2.1714470386505127, 0.47912704944610596, -0.807373046875, 0.038330078125, 0.28173828125, 
183, 3600557196, -0.48157545924186707, 0.5895059704780579, 0.3280879855155945, 0.5594002604484558, 9.594118118286133, -1.8294174671173096, 1.0762046575546265, 2.2094967365264893, -1.7632840871810913, 0.2314886599779129, -0.80322265625, 0.039306640625, 0.28125, 
184, 3600565529, -0.48164474964141846, 0.5894786715507507, 0.32816973328590393, 0.5593213438987732, 9.602022171020508, -1.8346754312515259, 1.1021101474761963, 1.7182155847549438, -1.4479215145111084, 0.031672000885009766, -0.803466796875, 0.041259765625, 0.27978515625, 
185, 3600573862, -0.48168498277664185, 0.5894484519958496, 0.3282357156276703, 0.55927973985672, 9.613720893859863, -1.8397040367126465, 1.1080540418624878, 1.1056767702102661, -0.9049766063690186, -0.24184958636760712, -0.806396484375, 0.041259765625, 0.28173828125, 
186, 3600582195, -0.4817475378513336, 0.5893898606300354, 0.32828670740127563, 0.5592578649520874, 9.60955810546875, -1.8474005460739136, 1.1078823804855347, 0.3889649510383606, -0.36925479769706726, -0.37960290908813477, -0.806884765625, 0.041259765625, 0.278564453125, 
187, 3600590528, -0.48173677921295166, 0.5893669128417969, 0.328268438577652, 0.5593019723892212, 9.621152877807617, -1.880103349685669, 1.1340761184692383, -0.3891570568084717, 0.06148697808384895, -0.4844163954257965, -0.80419921875, 0.037841796875, 0.28125, 
188, 3600598861, -0.4817100763320923, 0.589339554309845, 0.32822737097740173, 0.559377908706665, 9.586061477661133, -1.8914262056350708, 1.091809630393982, -0.710359513759613, 0.18607459962368011, -0.7331818342208862, -0.8046875, 0.036865234375, 0.28125, 
189, 3600607194, -0.4816691279411316, 0.5893100500106812, 0.32820144295692444, 0.5594594478607178, 9.557435989379883, -1.9360384941101074, 1.0919244289398193, -0.8189383149147034, 0.33084625005722046, -0.9331523180007935, -0.8046875, 0.0380859375, 0.27880859375, 
190, 3600615527, -0.48162996768951416, 0.5892603397369385, 0.3281736969947815, 0.5595617890357971, 9.5684232711792, -1.9567961692810059, 1.0770676136016846, -0.7788776159286499, 0.4471348226070404, -1.2195191383361816, -0.8056640625, 0.0390625, 0.2783203125, 
191, 3600623860, -0.48158785700798035, 0.5891992449760437, 0.32815802097320557, 0.5596714615821838, 9.605280876159668, -1.9576616287231445, 1.0722755193710327, -0.6670458912849426, 0.7280718684196472, -1.3524571657180786, -0.808349609375, 0.0380859375, 0.281005859375, 
192, 3600632193, -0.48155972361564636, 0.5891147255897522, 0.32812607288360596, 0.5598033666610718, 9.635980606079102, -1.9159917831420898, 1.0760889053344727, -0.6961692571640015, 1.0466359853744507, -1.459396481513977, -0.80615234375, 0.03759765625, 0.27978515625, 
193, 3600640526, -0.4815199673175812, 0.5890195965766907, 0.32808223366737366, 0.559963583946228, 9.67932415008545, -1.9232395887374878, 1.0602879524230957, -0.8671954870223999, 1.5963687896728516, -1.5957156419754028, -0.812744140625, 0.03857421875, 0.280517578125, 
194, 3600648859, -0.48147711157798767, 0.5889067649841309, 0.3279998004436493, 0.5601670742034912, 9.6693115234375, -1.8938207626342773, 1.0506670475006104, -1.064988613128662, 2.056630849838257, -1.7389247417449951, -0.8017578125, 0.039306640625, 0.279296875, 
195, 3600657192, -0.4814223349094391, 0.5887964963912964, 0.3279201090335846, 0.5603768229484558, 9.678799629211426, -1.9038811922073364, 0.9978898167610168, -1.3882914781570435, 2.2841620445251465, -1.8166382312774658, -0.8056640625, 0.038818359375, 0.2802734375, 
196, 3600665525, -0.48135530948638916, 0.5886739492416382, 0.3278321921825409, 0.5606143474578857, 9.68578052520752, -1.9024287462234497, 0.9697092175483704, -1.5958950519561768, 2.3753232955932617, -2.165350914001465, -0.80517578125, 0.03759765625, 0.27880859375, 
197, 3600673858, -0.4812644124031067, 0.5885456204414368, 0.3277629017829895, 0.5608677864074707, 9.72710132598877, -1.9197865724563599, 0.9157006144523621, -1.6802937984466553, 2.544710159301758, -2.550332546234131, -0.80712890625, 0.037109375, 0.27880859375, 
198, 3600682191, -0.481179803609848, 0.5883967280387878, 0.32771608233451843, 0.5611236095428467, 9.708085060119629, -1.9217606782913208, 0.9100212454795837, -1.3762527704238892, 2.3857226371765137, -2.878783702850342, -0.806640625, 0.03466796875, 0.27734375, 
199, 3600690524, -0.4810876250267029, 0.588241696357727, 0.3277299106121063, 0.561357319355011, 9.698441505432129, -1.9514950513839722, 0.8757932782173157, -0.7823099493980408, 2.0356526374816895, -3.2214255332946777, -0.80810546875, 0.03759765625, 0.278564453125, 
200, 3600698857, -0.4810313582420349, 0.5880555510520935, 0.3278160095214844, 0.5615502595901489, 9.668208122253418, -2.0087335109710693, 0.8372244834899902, 0.23709812760353088, 1.4500856399536133, -3.5016958713531494, -0.8056640625, 0.037109375, 0.2763671875, 
201, 3600707190, -0.4809737503528595, 0.5878713130950928, 0.3279689848423004, 0.561703085899353, 9.67136001586914, -2.0357940196990967, 0.8407374024391174, 1.1297029256820679, 0.843079686164856, -3.6765644550323486, -0.8037109375, 0.0361328125, 0.27734375, 
202, 3600715523, -0.48094621300697327, 0.5876703858375549, 0.3281713128089905, 0.5618188977241516, 9.680139541625977, -2.059819459915161, 0.836785614490509, 1.8806099891662598, 0.2902221083641052, -3.7704923152923584, -0.80859375, 0.0361328125, 0.277587890625, 
203, 3600723856, -0.48092028498649597, 0.5874814391136169, 0.3284241259098053, 0.5618910193443298, 9.679702758789062, -2.075470209121704, 0.8536422848701477, 2.552548408508301, -0.28910788893699646, -3.7275373935699463, -0.8056640625, 0.03662109375, 0.275390625, 
204, 3600732189, -0.48090556263923645, 0.5872985124588013, 0.3286578059196472, 0.5619577765464783, 9.672904968261719, -2.067746877670288, 0.9148947596549988, 2.8273377418518066, -0.4911273717880249, -3.4706523418426514, -0.80615234375, 0.0341796875, 0.2763671875, 
205, 3600740522, -0.4809066653251648, 0.5871261358261108, 0.3288940489292145, 0.5619989633560181, 9.701337814331055, -2.047976016998291, 0.9128846526145935, 2.6732168197631836, -0.43810588121414185, -3.1051368713378906, -0.80517578125, 0.03369140625, 0.27734375, 
206, 3600748855, -0.48091474175453186, 0.5869518518447876, 0.3290890157222748, 0.5620601177215576, 9.717500686645508, -2.0452048778533936, 0.9262033104896545, 2.1499946117401123, -0.13378313183784485, -2.9570860862731934, -0.80712890625, 0.03515625, 0.27734375, 
207, 3600757188, -0.4809075891971588, 0.5868012309074402, 0.32923009991645813, 0.562140941619873, 9.70518684387207, -2.0325264930725098, 0.9177327752113342, 1.546882152557373, 0.30592361092567444, -2.5663669109344482, -0.80615234375, 0.0341796875, 0.27734375, 
208, 3600765521, -0.4808996617794037, 0.586649477481842, 0.3293391168117523, 0.5622420310974121, 9.687895774841309, -2.059581995010376, 0.9264358878135681, 1.3183263540267944, 0.45189914107322693, -2.5218238830566406, -0.80615234375, 0.033203125, 0.2744140625, 
209, 3600773854, -0.48087459802627563, 0.5865206718444824, 0.3294639587402344, 0.5623248219490051, 9.637054443359375, -2.070444107055664, 0.9210874438285828, 1.1245290040969849, 0.1812591403722763, -2.486501932144165, -0.80712890625, 0.0341796875, 0.27880859375, 
210, 3600782187, -0.4808679521083832, 0.5863776206970215, 0.32960718870162964, 0.5623956322669983, 9.603934288024902, -2.125631332397461, 0.9339616298675537, 1.4756232500076294, -0.03885679319500923, -2.568723440170288, -0.8095703125, 0.035400390625, 0.273193359375, 
211, 3600790520, -0.4808575212955475, 0.586246132850647, 0.32979172468185425, 0.5624333620071411, 9.596738815307617, -2.1276936531066895, 0.9437839388847351, 1.9230271577835083, -0.49125543236732483, -2.569312810897827, -0.8056640625, 0.03369140625, 0.275390625, 
212, 3600798853, -0.48087671399116516, 0.5860952734947205, 0.32998672127723694, 0.5624595880508423, 9.603918075561523, -2.1295104026794434, 0.9431102871894836, 2.29988956451416, -0.5524990558624268, -2.5335044860839844, -0.806640625, 0.03369140625, 0.2744140625, 
213, 3600807186, -0.4809044897556305, 0.5859609246253967, 0.3301711678504944, 0.5624678730964661, 9.620462417602539, -2.106992483139038, 0.9519063234329224, 2.385389804840088, -0.5340312123298645, -2.090762138366699, -0.8056640625, 0.03125, 0.27783203125, 
214, 3600815519, -0.48095592856407166, 0.5858289003372192, 0.33031222224235535, 0.5624785423278809, 9.683615684509277, -2.1183457374572754, 0.9490723609924316, 2.0853185653686523, -0.3174884021282196, -1.6633882522583008, -0.806640625, 0.033203125, 0.2763671875, 
215, 3600823852, -0.48100000619888306, 0.5857279300689697, 0.3304128348827362, 0.5624869465827942, 9.716266632080078, -2.1603877544403076, 0.9805343747138977, 1.6477508544921875, -0.16172826290130615, -1.1397565603256226, -0.80908203125, 0.031982421875, 0.274658203125, 
216, 3600832185, -0.4810602068901062, 0.5856495499610901, 0.3304768204689026, 0.5624793767929077, 9.750540733337402, -2.1906583309173584, 1.0131500959396362, 1.2237584590911865, -0.31618213653564453, -0.6193265914916992, -0.8046875, 0.03173828125, 0.27490234375, 
217, 3600840518, -0.48110708594322205, 0.585620105266571, 0.33051401376724243, 0.5624481439590454, 9.766763687133789, -2.2110934257507324, 1.0360536575317383, 0.8862910270690918, -0.6013710498809814, -0.020363319665193558, -0.80712890625, 0.032470703125, 0.27392578125, 
218, 3600848851, -0.48116347193717957, 0.5856220722198486, 0.33054375648498535, 0.5623803734779358, 9.749839782714844, -2.212639093399048, 1.0598868131637573, 0.7401617169380188, -1.2273316383361816, 0.39267903566360474, -0.8095703125, 0.031494140625, 0.27685546875, 
219, 3600857184, -0.48123103380203247, 0.585655927658081, 0.3305678963661194, 0.5622730851173401, 9.75114631652832, -2.1787712574005127, 1.082734227180481, 0.878119945526123, -1.5223308801651, 1.0381577014923096, -0.80615234375, 0.033203125, 0.275390625, 
220, 3600865517, -0.4813361167907715, 0.5856795907020569, 0.33058491349220276, 0.5621485710144043, 9.775774955749512, -2.160099506378174, 1.1083831787109375, 1.2990131378173828, -1.5760694742202759, 1.3585150241851807, -0.81005859375, 0.031494140625, 0.275634765625, 
221, 3600873850, -0.48146572709083557, 0.5857020020484924, 0.3305973410606384, 0.562006950378418, 9.756237983703613, -2.1246705055236816, 1.1463578939437866, 1.5196542739868164, -1.351919412612915, 1.785606861114502, -0.806640625, 0.033935546875, 0.27294921875, 
222, 3600882183, -0.48166710138320923, 0.5856673121452332, 0.3306015431880951, 0.561867892742157, 9.73006820678711, -2.055410861968994, 1.147611141204834, 2.1519415378570557, -0.6653298139572144, 2.007016181945801, -0.80859375, 0.0361328125, 0.276123046875, 
223, 3600890516, -0.4818821847438812, 0.5856005549430847, 0.3305981159210205, 0.5617551803588867, 9.739761352539062, -2.0320544242858887, 1.1760045289993286, 2.54532527923584, 0.06338243186473846, 1.9784564971923828, -0.80908203125, 0.0341796875, 0.276611328125, 
224, 3600898849, -0.48213252425193787, 0.5854791402816772, 0.33058539032936096, 0.5616744160652161, 9.704296112060547, -1.9246071577072144, 1.185912013053894, 2.9177048206329346, 0.7694388031959534, 1.7587629556655884, -0.8046875, 0.03369140625, 0.27685546875, 
225, 3600907182, -0.48237144947052, 0.5853409767150879, 0.3305855989456177, 0.5616132020950317, 9.674113273620605, -1.891366958618164, 1.1999821662902832, 3.0045883655548096, 1.1161786317825317, 1.4679901599884033, -0.8076171875, 0.03515625, 0.274658203125, 
226, 3600915515, -0.4826057553291321, 0.5851766467094421, 0.33058860898017883, 0.5615811944007874, 9.683415412902832, -1.89802086353302, 1.1883565187454224, 3.013962984085083, 1.3054165840148926, 0.9955356121063232, -0.80859375, 0.03564453125, 0.277587890625, 
227, 3600923848, -0.4828050136566162, 0.5850184559822083, 0.3306150734424591, 0.56155925989151, 9.660411834716797, -1.856328010559082, 1.1716556549072266, 2.841732978820801, 1.2313402891159058, 0.5966964364051819, -0.806640625, 0.037109375, 0.271728515625, 
228, 3600932181, -0.4829525947570801, 0.584863007068634, 0.3306247591972351, 0.56158846616745, 9.607601165771484, -1.9139974117279053, 1.1365504264831543, 2.6548004150390625, 1.165614366531372, -0.02786828950047493, -0.80712890625, 0.03759765625, 0.273681640625, 
229, 3600940514, -0.4830884039402008, 0.5847136974334717, 0.33068814873695374, 0.5615898370742798, 9.583580017089844, -1.9351859092712402, 1.1334642171859741, 2.450244903564453, 0.8161847591400146, -0.303887277841568, -0.80615234375, 0.034423828125, 0.2705078125, 
230, 3600948847, -0.4832145571708679, 0.5845673680305481, 0.3307441771030426, 0.5616006851196289, 9.562176704406738, -1.9726324081420898, 1.1041637659072876, 2.2605204582214355, 0.6601173281669617, -0.4649239778518677, -0.8056640625, 0.0380859375, 0.270751953125, 
231, 3600957180, -0.4833301305770874, 0.5844573974609375, 0.3307913839817047, 0.5615879893302917, 9.525449752807617, -1.969349980354309, 1.0896636247634888, 1.9661359786987305, 0.41478413343429565, -0.05596710368990898, -0.8076171875, 0.035888671875, 0.268798828125, 
232, 3600965513, -0.48349183797836304, 0.5843405723571777, 0.3308352828025818, 0.5615442991256714, 9.503805160522461, -1.944951057434082, 1.0882701873779297, 1.778204083442688, 0.3837396502494812, 0.32959115505218506, -0.80908203125, 0.036865234375, 0.269775390625, 
233, 3600973846, -0.4836077392101288, 0.584278404712677, 0.3308236300945282, 0.5615161657333374, 9.512344360351562, -1.9472473859786987, 1.1174956560134888, 1.2670209407806396, 0.3136334717273712, 0.7378820180892944, -0.80908203125, 0.03759765625, 0.273193359375, 
234, 3600982179, -0.4837224781513214, 0.5842265486717224, 0.3307650685310364, 0.5615057349205017, 9.5603609085083, -1.9233207702636719, 1.0984764099121094, 0.916234016418457, 0.4380674362182617, 0.9557310938835144, -0.806640625, 0.037109375, 0.272705078125, 
235, 3600990512, -0.4838278889656067, 0.5841735601425171, 0.3306920826435089, 0.5615128874778748, 9.55385971069336, -1.8941372632980347, 1.1055933237075806, 0.48714426159858704, 0.8857786655426025, 0.9582412838935852, -0.8046875, 0.03759765625, 0.2705078125, 
236, 3600998845, -0.4839359223842621, 0.5841107964515686, 0.3305895924568176, 0.5615456104278564, 9.560039520263672, -1.8512487411499023, 1.094849944114685, 0.06087221950292587, 1.1967610120773315, 0.887878954410553, -0.806640625, 0.036376953125, 0.270263671875, 
237, 3601007178, -0.48402154445648193, 0.5840471386909485, 0.33046263456344604, 0.5616127252578735, 9.583475112915039, -1.8515628576278687, 1.069608449935913, -0.29043978452682495, 1.721494197845459, 0.7890335917472839, -0.80615234375, 0.03955078125, 0.270263671875, 
238, 3601015511, -0.4840993285179138, 0.5839822292327881, 0.33030468225479126, 0.5617062449455261, 9.63697624206543, -1.8490105867385864, 1.0639331340789795, -0.6724505424499512, 1.8937245607376099, 0.7074011564254761, -0.806640625, 0.04052734375, 0.270263671875, 
239, 3601023844, -0.48416197299957275, 0.5839182734489441, 0.33014634251594543, 0.5618117451667786, 9.665976524353027, -1.8243762254714966, 1.0452691316604614, -0.8898898363113403, 2.1367011070251465, 0.6074800491333008, -0.80712890625, 0.038818359375, 0.267333984375, 
240, 3601032177, -0.4842429459095001, 0.5838321447372437, 0.32999560236930847, 0.5619198679924011, 9.676254272460938, -1.8480335474014282, 1.0085198879241943, -0.8358950018882751, 2.206961154937744, 0.44856932759284973, -0.80810546875, 0.041015625, 0.268310546875, 
241, 3601040510, -0.4842814803123474, 0.5837545394897461, 0.3298583924770355, 0.5620478391647339, 9.682995796203613, -1.8370656967163086, 0.9576033353805542, -0.929924726486206, 2.1714084148406982, 0.04027838259935379, -0.80615234375, 0.037841796875, 0.265869140625, 
242, 3601048843, -0.48432567715644836, 0.5836659669876099, 0.32974767684936523, 0.562166690826416, 9.688610076904297, -1.8440333604812622, 0.9107629656791687, -0.7062868475914001, 1.8507181406021118, -0.22189611196517944, -0.80517578125, 0.039794921875, 0.266845703125, 
243, 3601057176, -0.4843323230743408, 0.5835996866226196, 0.32967740297317505, 0.562270998954773, 9.685965538024902, -1.884602427482605, 0.8992196321487427, -0.638972818851471, 1.3032395839691162, -0.5342873334884644, -0.80517578125, 0.0390625, 0.270263671875, 
244, 3601065509, -0.4843323826789856, 0.5835306644439697, 0.32963716983795166, 0.562366247177124, 9.684885025024414, -1.8937866687774658, 0.882868230342865, -0.37253338098526, 0.8103446364402771, -0.8650951385498047, -0.80859375, 0.0390625, 0.270751953125, 
245, 3601073842, -0.48433658480644226, 0.583451509475708, 0.3296569883823395, 0.5624333024024963, 9.712860107421875, -1.9017335176467896, 0.8699716925621033, 0.296267032623291, 0.49306121468544006, -1.0849933624267578, -0.80615234375, 0.038330078125, 0.264892578125, 
246, 3601082175, -0.4843589663505554, 0.5833643674850464, 0.3296942114830017, 0.5624824166297913, 9.706836700439453, -1.9486204385757446, 0.8745423555374146, 0.38714635372161865, 0.2386094331741333, -1.1233891248703003, -0.80810546875, 0.036865234375, 0.267333984375, 
247, 3601090508, -0.48436522483825684, 0.5832939147949219, 0.32975006103515625, 0.5625173449516296, 9.712752342224121, -1.967389464378357, 0.8675826191902161, 0.676817774772644, -0.06383068114519119, -1.1066118478775024, -0.80615234375, 0.035888671875, 0.27001953125, 
248, 3601098841, -0.48437777161598206, 0.5832279324531555, 0.3297920227050781, 0.5625503063201904, 9.72972583770752, -1.9649074077606201, 0.8934544324874878, 0.9440510272979736, -0.2581402659416199, -0.9619937539100647, -0.80810546875, 0.038818359375, 0.266845703125, 
249, 3601107174, -0.48440778255462646, 0.5831656455993652, 0.3298788070678711, 0.5625383853912354, 9.687353134155273, -1.994563102722168, 0.8955645561218262, 1.2659450769424438, -0.6014735102653503, -0.8212692141532898, -0.80615234375, 0.039306640625, 0.266845703125, 
250, 3601115507, -0.48443326354026794, 0.5831140875816345, 0.32994896173477173, 0.562528669834137, 9.662954330444336, -2.001129388809204, 0.9179601073265076, 1.1795995235443115, -0.8017255067825317, -0.7583093643188477, -0.8076171875, 0.036865234375, 0.265380859375, 
251, 3601123840, -0.4844530522823334, 0.5830827355384827, 0.3300415575504303, 0.5624898672103882, 9.649550437927246, -1.9801709651947021, 0.9396644830703735, 1.1443287134170532, -1.1396796703338623, -0.627625584602356, -0.80615234375, 0.039306640625, 0.266357421875, 
252, 3601132173, -0.4844874143600464, 0.5830478072166443, 0.33012717962265015, 0.5624459981918335, 9.598363876342773, -1.9730473756790161, 0.9649399518966675, 0.8885961771011353, -1.1613492965698242, -0.5674833655357361, -0.80859375, 0.039794921875, 0.266357421875, 
253, 3601140506, -0.48449477553367615, 0.5830460786819458, 0.3301966190338135, 0.5624008178710938, 9.597248077392578, -1.9849783182144165, 0.9580446481704712, 0.6976933479309082, -1.3215664625167847, -0.3612631559371948, -0.8056640625, 0.036865234375, 0.266845703125, 
254, 3601148839, -0.48451173305511475, 0.5830447673797607, 0.3302382230758667, 0.5623630285263062, 9.55740737915039, -2.0093765258789062, 0.9758123159408569, 0.6210554242134094, -1.2462092638015747, -0.18736810982227325, -0.810546875, 0.039306640625, 0.267578125, 
255, 3601157172, -0.4845315217971802, 0.5830415487289429, 0.3302968144416809, 0.5623149275779724, 9.528818130493164, -1.989585041999817, 0.9965625405311584, 0.7360122799873352, -1.205329179763794, -0.16551919281482697, -0.8056640625, 0.04150390625, 0.266357421875, 
256, 3601165505, -0.4845714271068573, 0.5830251574516296, 0.330341100692749, 0.5622715950012207, 9.538272857666016, -1.9796133041381836, 1.0127496719360352, 0.9629287123680115, -1.0896295309066772, -0.06108994781970978, -0.8076171875, 0.039306640625, 0.267822265625, 
257, 3601173838, -0.4846286177635193, 0.5829923748970032, 0.33041128516197205, 0.5622150301933289, 9.524060249328613, -1.959414005279541, 1.0252526998519897, 1.3605897426605225, -0.9505698084831238, -0.04835967347025871, -0.80322265625, 0.03857421875, 0.2685546875, 
258, 3601182171, -0.48470598459243774, 0.5829350352287292, 0.3304811716079712, 0.562166690826416, 9.537008285522461, -1.9504445791244507, 1.0454672574996948, 1.5419386625289917, -0.7696053981781006, -0.15409524738788605, -0.8076171875, 0.037841796875, 0.267333984375, 
259, 3601190504, -0.48477068543434143, 0.5828807353973389, 0.3305431008338928, 0.5621306896209717, 9.538838386535645, -1.934600830078125, 1.0384852886199951, 1.4080272912979126, -0.5322381854057312, -0.15814228355884552, -0.80517578125, 0.04052734375, 0.267822265625, 
260, 3601198837, -0.484823614358902, 0.5828202366828918, 0.3305797576904297, 0.5621262192726135, 9.553472518920898, -1.9274265766143799, 1.0660167932510376, 1.15086030960083, -0.32832327485084534, -0.3556024134159088, -0.80615234375, 0.038330078125, 0.266845703125, 
261, 3601207170, -0.48484569787979126, 0.5827721953392029, 0.3306238055229187, 0.5621311068534851, 9.620960235595703, -1.8918697834014893, 1.0630415678024292, 0.6986410617828369, -0.3273499011993408, -0.5907410383224487, -0.8046875, 0.0390625, 0.271484375, 
262, 3601215503, -0.4848507344722748, 0.5827289819717407, 0.3306305706501007, 0.5621675848960876, 9.612627029418945, -1.92319917678833, 1.0387144088745117, 0.16107511520385742, -0.13637018203735352, -0.6903292536735535, -0.8095703125, 0.0439453125, 0.26953125, 
263, 3601223836, -0.4848186671733856, 0.5827004909515381, 0.33064141869544983, 0.5622184872627258, 9.64771842956543, -1.9313749074935913, 0.9973709583282471, -0.32968080043792725, -0.13503824174404144, -0.9571527242660522, -0.8076171875, 0.037353515625, 0.268310546875, 
264, 3601232169, -0.4847525656223297, 0.5826817154884338, 0.33061638474464417, 0.5623096227645874, 9.655508041381836, -1.9618960618972778, 0.9835802912712097, -0.715354323387146, -0.06716052442789078, -1.201102614402771, -0.8046875, 0.04052734375, 0.267822265625, 
265, 3601240502, -0.4846830368041992, 0.5826746225357056, 0.33061841130256653, 0.5623757839202881, 9.637210845947266, -1.9848569631576538, 0.9669209718704224, -0.9098432064056396, -0.28890296816825867, -1.1817383766174316, -0.8076171875, 0.04052734375, 0.269775390625, 
266, 3601248835, -0.48465850949287415, 0.5826499462127686, 0.3306444585323334, 0.5624072551727295, 9.614980697631836, -2.0269010066986084, 0.9272444844245911, -0.45370492339134216, -0.49630141258239746, -1.0000566244125366, -0.80859375, 0.04052734375, 0.268310546875, 
267, 3601257168, -0.4846172034740448, 0.5826634168624878, 0.33068063855171204, 0.5624076724052429, 9.626289367675781, -2.052229404449463, 0.9322299957275391, -0.25801217555999756, -1.074875831604004, -0.7059027552604675, -0.80615234375, 0.039794921875, 0.265380859375, 
268, 3601265501, -0.4845944344997406, 0.582688570022583, 0.3307347595691681, 0.5623691082000732, 9.606258392333984, -2.062321662902832, 0.9313126802444458, 0.09819217771291733, -1.6841872930526733, -0.48311012983322144, -0.8056640625, 0.038818359375, 0.265380859375, 
269, 3601273834, -0.48457416892051697, 0.582735538482666, 0.33081331849098206, 0.5622919201850891, 9.59472370147705, -2.07376766204834, 0.9682464599609375, 0.3677563965320587, -2.1423490047454834, -0.21303358674049377, -0.80712890625, 0.03955078125, 0.269287109375, 
270, 3601282167, -0.48456650972366333, 0.5827947854995728, 0.3308965265750885, 0.5621881484985352, 9.631332397460938, -2.0543174743652344, 0.9769595861434937, 0.5050486326217651, -2.5916996002197266, -0.012781502678990364, -0.8076171875, 0.037353515625, 0.270263671875, 
271, 3601290500, -0.4845639169216156, 0.5828635692596436, 0.3309900760650635, 0.5620641112327576, 9.650611877441406, -2.0699117183685303, 1.0043359994888306, 0.6923400163650513, -2.704991340637207, 0.21471135318279266, -0.80615234375, 0.0390625, 0.270263671875, 
272, 3601298833, -0.48458415269851685, 0.5829319953918457, 0.33106717467308044, 0.5619302988052368, 9.646821975708008, -2.06831955909729, 1.0369257926940918, 0.7451820969581604, -2.733013153076172, 0.4912169575691223, -0.8037109375, 0.03857421875, 0.27001953125, 
273, 3601307166, -0.4846038222312927, 0.5830118656158447, 0.33114489912986755, 0.5617846846580505, 9.630932807922363, -2.0830233097076416, 1.0642386674880981, 0.7727429866790771, -2.7559123039245605, 0.7087074518203735, -0.806640625, 0.03759765625, 0.272216796875, 
274, 3601315499, -0.4846250116825104, 0.5830951929092407, 0.33116984367370605, 0.5616652369499207, 9.610197067260742, -2.0482850074768066, 1.0672141313552856, 0.815083384513855, -2.5037660598754883, 0.9531952738761902, -0.80517578125, 0.03955078125, 0.268798828125, 
275, 3601323832, -0.48466283082962036, 0.5831755995750427, 0.33121854066848755, 0.5615204572677612, 9.62109661102295, -2.031665086746216, 1.0558422803878784, 0.6874220371246338, -2.4782540798187256, 1.076886534690857, -0.8056640625, 0.03955078125, 0.269775390625, 
276, 3601332165, -0.48472267389297485, 0.583230197429657, 0.3312525749206543, 0.5613919496536255, 9.588641166687012, -1.9756693840026855, 1.1112468242645264, 0.7622411251068115, -2.1070525646209717, 1.0385162830352783, -0.80810546875, 0.0380859375, 0.274169921875, 
277, 3601340498, -0.4847542345523834, 0.5832943916320801, 0.3312818109989166, 0.5612807273864746, 9.611540794372559, -1.975142478942871, 1.1044998168945312, 0.4407569468021393, -1.9833102226257324, 0.8896207809448242, -0.80810546875, 0.038330078125, 0.267333984375, 
278, 3601348831, -0.484748899936676, 0.5833703875541687, 0.33126065135002136, 0.5612189769744873, 9.614786148071289, -1.9482126235961914, 1.0983707904815674, 0.22249804437160492, -1.8352086544036865, 0.7178261280059814, -0.8076171875, 0.0400390625, 0.271240234375, 
279, 3601357164, -0.4847530424594879, 0.5834240317344666, 0.3312684893608093, 0.5611549615859985, 9.642261505126953, -1.9520251750946045, 1.126050591468811, -0.08826665580272675, -1.5052204132080078, 0.48530009388923645, -0.80810546875, 0.041015625, 0.270263671875, 
280, 3601365497, -0.4847584366798401, 0.5834671258926392, 0.33125075697898865, 0.5611160397529602, 9.673949241638184, -1.9457019567489624, 1.0930616855621338, -0.44658416509628296, -1.1959285736083984, 0.3781045079231262, -0.80859375, 0.0400390625, 0.269287109375, 
281, 3601373830, -0.4847390055656433, 0.5835202932357788, 0.33122718334198, 0.5610913634300232, 9.708703994750977, -1.9615029096603394, 1.0882693529129028, -0.6975781321525574, -1.0842249393463135, 0.2915796637535095, -0.80517578125, 0.04150390625, 0.269775390625, 
282, 3601382163, -0.4847222864627838, 0.5835611820220947, 0.33117157220840454, 0.5610960721969604, 9.737208366394043, -1.963984727859497, 1.0817172527313232, -0.8668113350868225, -0.7216809988021851, 0.23720063269138336, -0.80322265625, 0.0390625, 0.2705078125, 
283, 3601390496, -0.48470768332481384, 0.583611249923706, 0.3311111330986023, 0.5610922574996948, 9.744997024536133, -1.9873594045639038, 1.067933440208435, -1.014784812927246, -0.6260887384414673, 0.47256985306739807, -0.80810546875, 0.0400390625, 0.272216796875, 
284, 3601398829, -0.48470309376716614, 0.5836620330810547, 0.33105170726776123, 0.5610786080360413, 9.732745170593262, -1.9851783514022827, 1.0319404602050781, -1.110197901725769, -0.7990104556083679, 0.49303555488586426, -0.80859375, 0.038818359375, 0.268310546875, 
285, 3601407162, -0.4846849739551544, 0.5837318897247314, 0.33097976446151733, 0.5610638856887817, 9.71103572845459, -1.9958512783050537, 1.0117199420928955, -1.2142938375473022, -0.804747998714447, 0.6996142864227295, -0.80419921875, 0.0419921875, 0.27392578125, 
286, 3601415495, -0.48463526368141174, 0.5838342308998108, 0.33086690306663513, 0.5610671639442444, 9.700569152832031, -2.0000851154327393, 0.9827716946601868, -1.0443434715270996, -1.1609907150268555, 0.8265329003334045, -0.80859375, 0.03857421875, 0.270263671875, 
287, 3601423828, -0.48462775349617004, 0.5839254856109619, 0.3308364748954773, 0.5609966516494751, 9.65187931060791, -1.9988518953323364, 1.0078507661819458, -0.6990124583244324, -1.6472258567810059, 0.9192052483558655, -0.80615234375, 0.041015625, 0.270751953125, 
288, 3601432161, -0.48462969064712524, 0.5840182304382324, 0.33084163069725037, 0.5608953237533569, 9.640787124633789, -2.0014562606811523, 0.9970626831054688, -0.24182400107383728, -2.265425443649292, 0.8211796283721924, -0.80517578125, 0.04150390625, 0.270263671875, 
289, 3601440494, -0.4846305251121521, 0.5841034054756165, 0.33090537786483765, 0.5607683658599854, 9.662165641784668, -1.9847233295440674, 1.048763394355774, 0.3918849527835846, -2.6409811973571777, 0.5725421905517578, -0.80517578125, 0.0390625, 0.270751953125, 
290, 3601448827, -0.4846626818180084, 0.5841574668884277, 0.33099257946014404, 0.5606328248977661, 9.685489654541016, -1.9639225006103516, 1.0650728940963745, 1.1672022342681885, -2.675048351287842, 0.4609665870666504, -0.80712890625, 0.03857421875, 0.272705078125, 
291, 3601457160, -0.48470836877822876, 0.5841897130012512, 0.3311271667480469, 0.5604803562164307, 9.702032089233398, -1.9499614238739014, 1.0835891962051392, 1.7677534818649292, -2.705247402191162, 0.278260201215744, -0.80322265625, 0.03955078125, 0.2705078125, 
292, 3601465493, -0.48478731513023376, 0.5841820240020752, 0.3312588930130005, 0.560342013835907, 9.715193748474121, -1.9523160457611084, 1.1095267534255981, 2.3871569633483887, -2.318446636199951, 0.20930670201778412, -0.8076171875, 0.0400390625, 0.274658203125, 
293, 3601473826, -0.4848698079586029, 0.584151566028595, 0.3314051032066345, 0.5602157711982727, 9.722136497497559, -1.9152432680130005, 1.1509045362472534, 2.4510903358459473, -1.9232960939407349, 0.0092083178460598, -0.806640625, 0.04052734375, 0.273193359375, 
294, 3601482159, -0.4849800765514374, 0.5840868353843689, 0.3315237760543823, 0.560117781162262, 9.727884292602539, -1.8988213539123535, 1.1519417762756348, 2.391741991043091, -1.2567367553710938, -0.006326716393232346, -0.80419921875, 0.04052734375, 0.275390625, 
295, 3601490492, -0.4850686490535736, 0.5840166807174683, 0.3316066265106201, 0.5600653886795044, 9.744268417358398, -1.883257508277893, 1.1530882120132446, 1.940086007118225, -0.5734770894050598, -0.10880926251411438, -0.806640625, 0.03759765625, 0.274169921875, 
296, 3601498825, -0.4851687550544739, 0.5839269757270813, 0.33166390657424927, 0.5600380301475525, 9.72768783569336, -1.8393537998199463, 1.1056795120239258, 1.1180741786956787, -0.02190016768872738, -0.23403726518154144, -0.8046875, 0.04052734375, 0.2744140625, 
297, 3601507158, -0.4852038025856018, 0.5838751792907715, 0.3316367268562317, 0.5600779056549072, 9.755518913269043, -1.8606833219528198, 1.0842350721359253, 0.11996427178382874, 0.5149357318878174, -0.1684648096561432, -0.8076171875, 0.041015625, 0.274169921875, 
298, 3601515491, -0.4852133095264435, 0.5838498473167419, 0.33155933022499084, 0.560141921043396, 9.710714340209961, -1.8939297199249268, 1.0309034585952759, -0.8068228363990784, 0.5641407370567322, -0.09497758746147156, -0.80224609375, 0.039794921875, 0.27587890625, 
299, 3601523824, -0.4851914346218109, 0.58385169506073, 0.3314695358276367, 0.5602120161056519, 9.650179862976074, -1.9070338010787964, 0.995003342628479, -1.313702940940857, 0.5023592114448547, -0.061192404478788376, -0.8076171875, 0.03955078125, 0.269287109375, 
300, 3601532157, -0.4851415753364563, 0.5838966369628906, 0.3313656747341156, 0.5602698922157288, 9.628292083740234, -1.9454728364944458, 0.9433024525642395, -1.5810898542404175, -0.1910821944475174, 0.060846615582704544, -0.806640625, 0.041015625, 0.274658203125, 
301, 3601540490, -0.4850919246673584, 0.5839625000953674, 0.331332266330719, 0.5602641105651855, 9.578737258911133, -1.9490424394607544, 0.9215937256813049, -1.1847864389419556, -1.1020780801773071, 0.06991405040025711, -0.80859375, 0.03857421875, 0.276611328125, 
302, 3601548823, -0.48508450388908386, 0.5840176343917847, 0.3313750922679901, 0.5601876378059387, 9.566104888916016, -1.9647852182388306, 0.9310235977172852, -0.6190193295478821, -1.9193516969680786, 0.043070338666439056, -0.8056640625, 0.0419921875, 0.272216796875, 
303, 3601557156, -0.48504897952079773, 0.5840985774993896, 0.3314467668533325, 0.5600916743278503, 9.55752944946289, -1.9399008750915527, 0.950208842754364, 0.04788581281900406, -2.578662157058716, 0.004367227200418711, -0.806640625, 0.04052734375, 0.271728515625, 
304, 3601565489, -0.4850471019744873, 0.5841633081436157, 0.3315565288066864, 0.5599610209465027, 9.536128044128418, -1.91297447681427, 0.9675796627998352, 0.8025835752487183, -2.9850058555603027, 0.025037914514541626, -0.80615234375, 0.04150390625, 0.269287109375, 
305, 3601573822, -0.4850578010082245, 0.5842235684394836, 0.3316977620124817, 0.5598050951957703, 9.504213333129883, -1.9140211343765259, 1.0547930002212524, 1.3663272857666016, -3.1536245346069336, 0.10687538981437683, -0.80615234375, 0.04052734375, 0.275634765625, 
306, 3601582155, -0.4851323366165161, 0.5842390656471252, 0.33187857270240784, 0.5596171021461487, 9.511261940002441, -1.8537862300872803, 1.0952858924865723, 1.8837860822677612, -3.056443929672241, 0.13187485933303833, -0.80810546875, 0.037109375, 0.273193359375, 
307, 3601590488, -0.4851706624031067, 0.5842636823654175, 0.3320256471633911, 0.5594710111618042, 9.508465766906738, -1.8164838552474976, 1.116560697555542, 1.8264613151550293, -2.713571548461914, 0.045221928507089615, -0.8056640625, 0.0419921875, 0.274658203125, 
308, 3601598821, -0.48520854115486145, 0.5842617154121399, 0.3321371078491211, 0.5593739748001099, 9.506631851196289, -1.7903532981872559, 1.1195030212402344, 1.5830237865447998, -2.0626888275146484, -0.19384853541851044, -0.806640625, 0.0400390625, 0.275146484375, 
309, 3601607154, -0.4852244257926941, 0.5842310190200806, 0.3322385251522064, 0.5593320727348328, 9.489042282104492, -1.7917025089263916, 1.1323370933532715, 1.190306305885315, -1.2489244937896729, -0.7072859406471252, -0.80908203125, 0.0390625, 0.274169921875, 
310, 3601615487, -0.48522526025772095, 0.5841668844223022, 0.3323078751564026, 0.5593570470809937, 9.530949592590332, -1.8046408891677856, 1.108583688735962, 0.8694623708724976, -0.5024744272232056, -1.2322752475738525, -0.802734375, 0.0380859375, 0.27392578125, 
311, 3601623820, -0.4851979613304138, 0.5840703845024109, 0.3323737382888794, 0.559442400932312, 9.526068687438965, -1.84514582157135, 1.0439447164535522, 0.42595189809799194, 0.3202931880950928, -1.9047256708145142, -0.8046875, 0.03662109375, 0.271484375, 
312, 3601632153, -0.4851221442222595, 0.5839599967002869, 0.3324444890022278, 0.5595812201499939, 9.584921836853027, -1.9798133373260498, 0.9688392877578735, -0.4454059600830078, 0.5070210099220276, -2.85078763961792, -0.806640625, 0.037109375, 0.2763671875, 
313, 3601640486, -0.48489055037498474, 0.5839215517044067, 0.3325195014476776, 0.5597777366638184, 9.6043062210083, -2.1288862228393555, 0.9540425539016724, -2.0393543243408203, -0.2298109233379364, -4.027224063873291, -0.80712890625, 0.037109375, 0.276123046875, 
314, 3601648819, -0.48446789383888245, 0.5840227007865906, 0.33257821202278137, 0.5600032210350037, 9.57880687713623, -2.340391159057617, 0.9943150281906128, -4.565634727478027, -2.042017936706543, -4.979150772094727, -0.80615234375, 0.040771484375, 0.277587890625, 
315, 3601657152, -0.48386818170547485, 0.5843138694763184, 0.3325784504413605, 0.5602177381515503, 9.68867301940918, -2.4203405380249023, 1.0082342624664307, -7.851865291595459, -3.8083505630493164, -4.872262954711914, -0.80712890625, 0.037109375, 0.275146484375, 
316, 3601665485, -0.48307281732559204, 0.5847983360290527, 0.3323935270309448, 0.5605082511901855, 9.868109703063965, -2.6776905059814453, 1.0405373573303223, -12.409869194030762, -4.530416488647461, -4.5905070304870605, -0.80615234375, 0.034912109375, 0.27099609375, 
317, 3601673818, -0.481964647769928, 0.5855487585067749, 0.3320058286190033, 0.5609087347984314, 9.921759605407715, -3.1016714572906494, 1.1043827533721924, -18.830259323120117, -5.597634315490723, -4.810201168060303, -0.80517578125, 0.03564453125, 0.2744140625, 
318, 3601682151, -0.4805975556373596, 0.5865128040313721, 0.3313942551612854, 0.5614358186721802, 9.898183822631836, -3.5319807529449463, 1.5119370222091675, -24.51573371887207, -6.113839626312256, -4.952591896057129, -0.80322265625, 0.033203125, 0.279052734375, 
319, 3601690484, -0.47914543747901917, 0.5878004431724548, 0.3303472101688385, 0.5619471073150635, 9.90658950805664, -4.112656593322754, 1.9023098945617676, -30.751707077026367, -6.059232234954834, -0.43072932958602905, -0.80419921875, 0.03125, 0.278564453125, 
320, 3601698817, -0.4776972234249115, 0.5894535779953003, 0.32861804962158203, 0.5624622106552124, 9.786478042602539, -4.642470359802246, 2.242798328399658, -38.13956832885742, -4.567049503326416, 6.649784088134766, -0.806640625, 0.03125, 0.2822265625, 
321, 3601707150, -0.47651955485343933, 0.5912489295005798, 0.3262045979499817, 0.5629814267158508, 9.837930679321289, -4.980639934539795, 2.4490957260131836, -42.46794509887695, 0.3094077408313751, 15.002042770385742, -0.80419921875, 0.02978515625, 0.279541015625, 
322, 3601715483, -0.4757213890552521, 0.5929110646247864, 0.3231334984302521, 0.5636788010597229, 9.794014930725098, -5.451204299926758, 2.560176372528076, -44.53851318359375, 8.641890525817871, 21.349987030029297, -0.80419921875, 0.03125, 0.27490234375, 
323, 3601723816, -0.4750346541404724, 0.5944492816925049, 0.3194162845611572, 0.5647555589675903, 9.79432487487793, -5.822220802307129, 2.411079168319702, -49.37778091430664, 17.577604293823242, 24.62059211730957, -0.8076171875, 0.03271484375, 0.275390625, 
324, 3601732149, -0.47432413697242737, 0.5958882570266724, 0.3151756823062897, 0.5662168264389038, 9.818097114562988, -5.991861820220947, 2.0883724689483643, -54.52783203125, 24.57065773010254, 25.57220458984375, -0.8046875, 0.031982421875, 0.27001953125, 
325, 3601740482, -0.4735376834869385, 0.5972652435302734, 0.31074756383895874, 0.5678694248199463, 9.688531875610352, -6.266348838806152, 1.7343605756759644, -57.18316650390625, 27.750896453857422, 25.195711135864258, -0.8037109375, 0.035888671875, 0.26416015625, 
326, 3601748815, -0.47274813055992126, 0.5985997319221497, 0.30633866786956787, 0.5695154666900635, 9.554070472717285, -6.851280689239502, 1.3932989835739136, -56.665504455566406, 27.659786224365234, 24.623178482055664, -0.805908203125, 0.036376953125, 0.260986328125, 
327, 3601757148, -0.4721220135688782, 0.5999329686164856, 0.3022470474243164, 0.5708165168762207, 9.436676979064941, -7.663414478302002, 1.1802650690078735, -51.46281433105469, 23.68667984008789, 25.78116226196289, -0.81005859375, 0.04052734375, 0.25732421875, 
328, 3601765481, -0.47182974219322205, 0.6013304591178894, 0.29876434803009033, 0.5714206695556641, 9.321247100830078, -8.515141487121582, 1.2667551040649414, -42.12286376953125, 14.815755844116211, 27.772184371948242, -0.8095703125, 0.0419921875, 0.25341796875, 
329, 3601773814, -0.47191447019577026, 0.6027383804321289, 0.29602518677711487, 0.5712930560112, 9.30544662475586, -9.118660926818848, 1.5133981704711914, -29.55159568786621, 5.457569122314453, 29.774812698364258, -0.80810546875, 0.044921875, 0.2490234375, 
330, 3601782147, -0.47252964973449707, 0.6039828658103943, 0.29383403062820435, 0.5706011056900024, 9.711457252502441, -9.513524055480957, 1.7080657482147217, -16.790945053100586, 0.29165685176849365, 32.05765151977539, -0.8076171875, 0.04736328125, 0.244873046875, 
331, 3601790480, -0.4737347364425659, 0.6050221920013428, 0.2919703423976898, 0.5694563388824463, 10.298019409179688, -9.814538955688477, 1.7314115762710571, -6.856938362121582, -1.227691650390625, 36.41819763183594, -0.80517578125, 0.056396484375, 0.244873046875, 
332, 3601798813, -0.4755157232284546, 0.6059072613716125, 0.2900361120700836, 0.5680174231529236, 10.605485916137695, -10.303711891174316, 1.685441493988037, -0.47601568698883057, 0.10344325006008148, 42.309417724609375, -0.80712890625, 0.060302734375, 0.2431640625, 
333, 3601807146, -0.47772809863090515, 0.6067835092544556, 0.2877383530139923, 0.5663919448852539, 10.88781452178955, -10.586516380310059, 1.6644871234893799, 1.1234043836593628, 2.9167375564575195, 50.395870208740234, -0.807861328125, 0.07275390625, 0.238525390625, 
334, 3601815479, -0.48040908575057983, 0.6077802181243896, 0.28467145562171936, 0.5646024942398071, 11.152681350708008, -10.737701416015625, 1.4806240797042847, -1.0929886102676392, 7.300273418426514, 61.42758560180664, -0.808349609375, 0.078125, 0.23193359375, 
335, 3601823812, -0.4835403561592102, 0.6090087294578552, 0.28075939416885376, 0.5625608563423157, 11.381414413452148, -10.808929443359375, 1.3166530132293701, -4.441555976867676, 10.956351280212402, 75.14947509765625, -0.804443359375, 0.086669921875, 0.23046875, 
336, 3601832145, -0.4871008098125458, 0.6105785965919495, 0.27579036355018616, 0.5602409243583679, 11.439668655395508, -10.69829273223877, 1.2463642358779907, -10.213393211364746, 14.453694343566895, 89.81060791015625, -0.806640625, 0.100341796875, 0.225830078125, 
337, 3601840478, -0.49081435799598694, 0.6126700043678284, 0.2697615921497345, 0.5576460361480713, 11.42440414428711, -10.607940673828125, 1.144784688949585, -19.550495147705078, 16.022520065307617, 104.390380859375, -0.802001953125, 0.116943359375, 0.22119140625, 
338, 3601848811, -0.4946596026420593, 0.6152346730232239, 0.262702614068985, 0.5547875165939331, 11.504249572753906, -10.490748405456543, 0.9403558969497681, -28.545101165771484, 17.404315948486328, 116.84727478027344, -0.80078125, 0.13330078125, 0.218017578125, 
339, 3601857144, -0.4985002279281616, 0.6182038187980652, 0.2548304796218872, 0.5517123937606812, 11.635164260864258, -10.390167236328125, 0.8940542340278625, -36.76919174194336, 18.210739135742188, 127.39290618896484, -0.79931640625, 0.146240234375, 0.21337890625, 
340, 3601865477, -0.5024693012237549, 0.6214426159858704, 0.2463390827178955, 0.5483195781707764, 11.773658752441406, -10.529386520385742, 0.7559129595756531, -41.09145736694336, 17.963062286376953, 135.91705322265625, -0.794189453125, 0.16748046875, 0.208251953125, 
341, 3601873810, -0.5065992474555969, 0.6247467994689941, 0.2376418113708496, 0.5445905327796936, 11.821836471557617, -10.786033630371094, 0.5329886078834534, -40.60025405883789, 16.76091194152832, 142.2727508544922, -0.78857421875, 0.18603515625, 0.206298828125, 
342, 3601882143, -0.5110665559768677, 0.6279796361923218, 0.22898197174072266, 0.5403919816017151, 11.831637382507324, -11.051551818847656, 0.3652198314666748, -35.36326599121094, 13.923961639404297, 146.6095733642578, -0.786376953125, 0.205078125, 0.2041015625, 
343, 3601890476, -0.5158698558807373, 0.6310399174690247, 0.22073131799697876, 0.535675585269928, 11.774115562438965, -11.220060348510742, 0.31109532713890076, -26.604766845703125, 9.094326972961426, 149.57481384277344, -0.77978515625, 0.224609375, 0.203369140625, 
344, 3601898809, -0.5209600925445557, 0.6339998245239258, 0.21267321705818176, 0.530488908290863, 11.894401550292969, -11.16031551361084, 0.3286784887313843, -18.47247314453125, 4.130624294281006, 152.3215789794922, -0.773681640625, 0.24267578125, 0.202392578125, 
345, 3601907142, -0.5263190865516663, 0.6368553638458252, 0.20489025115966797, 0.5248114466667175, 12.041590690612793, -10.87241268157959, 0.2878058850765228, -14.022558212280273, 0.5552645921707153, 155.82382202148438, -0.767578125, 0.2646484375, 0.2021484375, 
346, 3601915475, -0.5316687226295471, 0.639756441116333, 0.19680774211883545, 0.518951416015625, 12.266722679138184, -10.76925277709961, 0.2537960112094879, -13.352822303771973, -0.7968767881393433, 159.12887573242188, -0.757080078125, 0.285400390625, 0.203369140625, 
347, 3601923808, -0.537087619304657, 0.6425979733467102, 0.18863871693611145, 0.5128583312034607, 12.53267765045166, -10.775230407714844, 0.26744934916496277, -15.024432182312012, -0.03578392043709755, 162.62716674804688, -0.75048828125, 0.30810546875, 0.2060546875, 
348, 3601932141, -0.5422823429107666, 0.645613431930542, 0.17984724044799805, 0.5067264437675476, 12.616338729858398, -10.809897422790527, 0.39233750104904175, -19.57916259765625, 0.5339547991752625, 166.58241271972656, -0.742431640625, 0.32763671875, 0.205078125, 
349, 3601940474, -0.547443687915802, 0.6487227082252502, 0.17086389660835266, 0.5002734065055847, 12.60903263092041, -11.061446189880371, 0.4792500138282776, -24.118024826049805, 0.25377970933914185, 171.3820343017578, -0.73046875, 0.345703125, 0.205322265625, 
350, 3601948807, -0.5525495409965515, 0.6519588828086853, 0.16126865148544312, 0.49359384179115295, 12.794896125793457, -11.213913917541504, 0.5090600252151489, -26.907163619995117, 0.21218156814575195, 177.65489196777344, -0.722412109375, 0.368408203125, 0.210205078125, 
351, 3601957140, -0.5578489303588867, 0.6551925539970398, 0.15143169462680817, 0.4864150583744049, 12.84581470489502, -11.14891242980957, 0.3869664967060089, -28.026453018188477, -0.3569454550743103, 185.73228454589844, -0.70849609375, 0.3916015625, 0.21337890625, 
352, 3601965473, -0.563235342502594, 0.6585043668746948, 0.1412278115749359, 0.4787444770336151, 12.689980506896973, -11.322942733764648, 0.4365568459033966, -29.130146026611328, -2.4636080265045166, 192.46322631835938, -0.694580078125, 0.413818359375, 0.216552734375, 
353, 3601973806, -0.5684816241264343, 0.6618616580963135, 0.13086622953414917, 0.47079235315322876, 12.785486221313477, -11.51711654663086, 0.5044125318527222, -31.38347625732422, -4.214046955108643, 196.3293914794922, -0.68212890625, 0.4345703125, 0.220703125, 
354, 3601982139, -0.5736725330352783, 0.6652604937553406, 0.12032614648342133, 0.46244296431541443, 13.066610336303711, -11.504351615905762, 0.5941619277000427, -34.233097076416016, -5.489764213562012, 199.47845458984375, -0.668701171875, 0.455322265625, 0.223388671875, 
355, 3601990472, -0.5785337686538696, 0.6687538027763367, 0.109508216381073, 0.45395874977111816, 13.00635051727295, -11.340446472167969, 0.6089012026786804, -37.95793151855469, -6.992409706115723, 202.4429931640625, -0.6533203125, 0.478515625, 0.2255859375, 
356, 3601998805, -0.5830596685409546, 0.6723723411560059, 0.09834329783916473, 0.4452964961528778, 12.954304695129395, -11.010398864746094, 0.573784589767456, -43.93606948852539, -7.15432071685791, 205.1464385986328, -0.633544921875, 0.498046875, 0.237060546875, 
357, 3602007138, -0.5873469114303589, 0.6760554909706116, 0.08672183752059937, 0.43641236424446106, 13.048171997070312, -10.685182571411133, 0.2557683289051056, -51.277801513671875, -4.109830379486084, 208.43934631347656, -0.614990234375, 0.516357421875, 0.239990234375, 
358, 3602015471, -0.5913035273551941, 0.679742157459259, 0.07449904829263687, 0.427509605884552, 12.996905326843262, -10.643776893615723, -0.10747511684894562, -58.00642776489258, 0.36337900161743164, 212.2312774658203, -0.5986328125, 0.535888671875, 0.2470703125, 
359, 3602023804, -0.5949098467826843, 0.6833862662315369, 0.06171073764562607, 0.4186418354511261, 12.79371166229248, -10.927775382995605, -0.27078336477279663, -62.13645935058594, 2.820791006088257, 216.43331909179688, -0.57958984375, 0.55224609375, 0.251220703125, 
360, 3602032137, -0.5986847877502441, 0.6867796778678894, 0.048812270164489746, 0.40930604934692383, 12.545309066772461, -11.238429069519043, -0.4132388234138489, -60.270328521728516, 2.8705151081085205, 220.875, -0.560302734375, 0.571044921875, 0.260009765625, 
361, 3602040470, -0.6027029752731323, 0.6897307634353638, 0.03596489876508713, 0.399663507938385, 12.555327415466309, -11.605873107910156, -0.5064211487770081, -52.305824279785156, 0.2459338754415512, 225.17271423339844, -0.53955078125, 0.58642578125, 0.2666015625, 
362, 3602048803, -0.6072544455528259, 0.6922128200531006, 0.02347433567047119, 0.3892763555049896, 12.506091117858887, -11.557084083557129, -0.42273563146591187, -42.34247589111328, -4.954735279083252, 229.5574951171875, -0.51611328125, 0.60595703125, 0.274658203125, 
363, 3602057136, -0.6120736002922058, 0.6943170428276062, 0.011263500899076462, 0.37837326526641846, 12.257319450378418, -11.183249473571777, -0.18282106518745422, -33.66200256347656, -12.071905136108398, 233.61550903320312, -0.491455078125, 0.62451171875, 0.282470703125, 
364, 3602065469, -0.6169721484184265, 0.6962701678276062, -0.0007202178239822388, 0.36681926250457764, 12.14710521697998, -10.516932487487793, 0.005933459848165512, -30.256380081176758, -19.37154769897461, 236.3776092529297, -0.467529296875, 0.639404296875, 0.28564453125, 
365, 3602073802, -0.6216761469841003, 0.6982139945030212, -0.012529436498880386, 0.35477155447006226, 12.052800178527832, -9.998961448669434, 0.09171213209629059, -31.258398056030273, -25.558448791503906, 238.85308837890625, -0.442626953125, 0.6611328125, 0.287353515625, 
366, 3602082135, -0.6261188983917236, 0.700183629989624, -0.024375373497605324, 0.3422389626502991, 11.68393611907959, -9.713874816894531, 0.20179007947444916, -34.15779113769531, -29.949813842773438, 241.2043914794922, -0.416259765625, 0.6728515625, 0.298583984375, 
367, 3602090468, -0.6301445364952087, 0.7022225260734558, -0.036128707230091095, 0.3293932378292084, 11.129867553710938, -9.598919868469238, 0.3941977322101593, -38.53194046020508, -33.97978973388672, 241.89002990722656, -0.3876953125, 0.6884765625, 0.30712890625, 
368, 3602098801, -0.6338188052177429, 0.7042339444160461, -0.04777839407324791, 0.31630566716194153, 10.763912200927734, -9.805498123168945, 0.401595801115036, -41.25239181518555, -36.87942123413086, 240.62258911132812, -0.35888671875, 0.7021484375, 0.31982421875, 
369, 3602107134, -0.6372313499450684, 0.7060651779174805, -0.05923355743288994, 0.3031560182571411, 10.604687690734863, -9.957174301147461, 0.4358121156692505, -41.49673843383789, -38.256805419921875, 239.04408264160156, -0.330078125, 0.71728515625, 0.318359375, 
370, 3602115467, -0.6406229138374329, 0.7075210809707642, -0.07057534903287888, 0.2898951768875122, 10.213624000549316, -10.099295616149902, 0.4842800199985504, -37.95347595214844, -38.7104377746582, 238.43212890625, -0.3017578125, 0.72607421875, 0.331787109375, 
371, 3602123800, -0.6440947651863098, 0.7084295749664307, -0.0818517655134201, 0.27671942114830017, 10.020827293395996, -10.199647903442383, 0.6210123896598816, -32.083030700683594, -36.392494201660156, 238.60079956054688, -0.270751953125, 0.737060546875, 0.337646484375, 
372, 3602132133, -0.6478062272071838, 0.7086214423179626, -0.09324964880943298, 0.2636496424674988, 9.783839225769043, -10.153578758239746, 0.7358377575874329, -23.679866790771484, -31.792491912841797, 239.94566345214844, -0.241455078125, 0.74853515625, 0.343505859375, 
373, 3602140466, -0.6517525315284729, 0.7080546617507935, -0.10471963882446289, 0.2508288025856018, 9.370908737182617, -10.070466041564941, 0.8302918672561646, -14.63820743560791, -26.307273864746094, 240.87342834472656, -0.208740234375, 0.756103515625, 0.351318359375, 
374, 3602148799, -0.65586918592453, 0.7067664861679077, -0.11635270714759827, 0.23829105496406555, 8.96271800994873, -9.904264450073242, 0.7702224254608154, -6.620687007904053, -19.818899154663086, 241.01976013183594, -0.17919921875, 0.7666015625, 0.350341796875, 
375, 3602157132, -0.660012423992157, 0.704892635345459, -0.12807351350784302, 0.22607772052288055, 8.519044876098633, -9.663702964782715, 0.5811296701431274, -0.8944050073623657, -14.02434253692627, 240.50299072265625, -0.151123046875, 0.7724609375, 0.3525390625, 
376, 3602165465, -0.6640130877494812, 0.7026482820510864, -0.1398002803325653, 0.21408404409885406, 8.018575668334961, -9.582221984863281, 0.3588642477989197, 1.4921808242797852, -10.420611381530762, 238.33128356933594, -0.119384765625, 0.780517578125, 0.3564453125, 
377, 3602173798, -0.6677024960517883, 0.700252115726471, -0.1513361632823944, 0.20229056477546692, 7.484441757202148, -9.468419075012207, 0.07048435509204865, 0.7778394818305969, -9.201475143432617, 234.47657775878906, -0.09033203125, 0.785888671875, 0.35498046875, 
378, 3602182131, -0.6710859537124634, 0.6977806687355042, -0.16260769963264465, 0.19054797291755676, 6.829781532287598, -9.521215438842773, -0.18682998418807983, -0.6033843755722046, -10.278641700744629, 230.41151428222656, -0.058837890625, 0.792724609375, 0.35888671875, 
379, 3602190464, -0.6742028594017029, 0.6953135132789612, -0.1733330935239792, 0.17874249815940857, 6.2170915603637695, -9.958908081054688, -0.2659890353679657, -1.9413771629333496, -15.351338386535645, 225.4014434814453, -0.03369140625, 0.793701171875, 0.3583984375, 
380, 3602198797, -0.6771241426467896, 0.6928423643112183, -0.18341097235679626, 0.1668432652950287, 5.933112144470215, -10.165142059326172, -0.2241201400756836, -2.377423048019409, -21.767000198364258, 219.32493591308594, -0.003173828125, 0.800537109375, 0.361083984375, 
381, 3602207130, -0.6799402236938477, 0.6902863383293152, -0.192851722240448, 0.15491393208503723, 5.820654392242432, -10.333294868469238, -0.20875607430934906, -1.2333886623382568, -27.534442901611328, 213.79014587402344, 0.02783203125, 0.800048828125, 0.364990234375, 
382, 3602215463, -0.6827577352523804, 0.687508225440979, -0.201882004737854, 0.1429051160812378, 5.702823162078857, -10.450225830078125, -0.16281282901763916, 1.5482120513916016, -31.653152465820312, 211.02210998535156, 0.055419921875, 0.802490234375, 0.3623046875, 
383, 3602223796, -0.6856356263160706, 0.6844012141227722, -0.2106771618127823, 0.13083547353744507, 5.4082489013671875, -10.540182113647461, -0.06871695071458817, 5.474288463592529, -33.962188720703125, 210.608154296875, 0.0830078125, 0.8017578125, 0.362548828125, 
384, 3602232129, -0.6885803937911987, 0.6808933019638062, -0.21941503882408142, 0.11875240504741669, 5.209826946258545, -10.544291496276855, 0.017380427569150925, 9.969873428344727, -34.100650787353516, 211.352783203125, 0.111572265625, 0.80224609375, 0.36474609375, 
385, 3602240462, -0.6915830969810486, 0.6769261360168457, -0.22822630405426025, 0.10677241533994675, 4.971869945526123, -10.509734153747559, 0.15190811455249786, 15.030304908752441, -31.864782333374023, 212.6685028076172, 0.13720703125, 0.801513671875, 0.363037109375, 
386, 3602248795, -0.6946098208427429, 0.6725124716758728, -0.23712258040905, 0.094977468252182, 4.642043113708496, -10.511994361877441, 0.2097427099943161, 19.973751068115234, -28.757761001586914, 213.09364318847656, 0.16552734375, 0.7978515625, 0.36083984375, 
387, 3602257128, -0.697651743888855, 0.6676877737045288, -0.24602241814136505, 0.08337901532649994, 4.073503017425537, -10.410873413085938, 0.22602036595344543, 24.65850067138672, -26.414852142333984, 212.65260314941406, 0.194091796875, 0.794677734375, 0.3564453125, 
388, 3602265461, -0.700599730014801, 0.6626664400100708, -0.25469571352005005, 0.07188336551189423, 3.525796890258789, -10.349335670471191, 0.4913184940814972, 26.303363800048828, -27.105419158935547, 210.17774963378906, 0.226318359375, 0.794921875, 0.352294921875, 
389, 3602273794, -0.7032944560050964, 0.6577083468437195, -0.26297497749328613, 0.06037050485610962, 3.291341543197632, -10.140008926391602, 0.89670330286026, 23.70156478881836, -30.231565475463867, 206.2466278076172, 0.25390625, 0.789794921875, 0.34814453125, 
390, 3602282127, -0.7054973244667053, 0.6530941724777222, -0.2708626389503479, 0.048773713409900665, 3.064220905303955, -9.744386672973633, 1.2340086698532104, 15.952777862548828, -33.286048889160156, 201.96900939941406, 0.2802734375, 0.786865234375, 0.345458984375, 
391, 3602290460, -0.7069530487060547, 0.6490175127983093, -0.2785989046096802, 0.03714970499277115, 2.644235372543335, -9.092880249023438, 1.2940568923950195, 4.024139404296875, -32.5740966796875, 198.2646026611328, 0.303955078125, 0.779296875, 0.3447265625, 
392, 3602298793, -0.7074940204620361, 0.645599901676178, -0.28636112809181213, 0.02557499334216118, 2.0507309436798096, -8.703402519226074, 1.2154724597930908, -10.381768226623535, -28.710895538330078, 195.1942596435547, 0.332275390625, 0.774658203125, 0.34228515625, 
393, 3602307126, -0.7071530818939209, 0.642806887626648, -0.2941744029521942, 0.014107372611761093, 1.5143520832061768, -8.663934707641602, 1.0240721702575684, -23.8751220703125, -24.01359748840332, 191.66525268554688, 0.35791015625, 0.76611328125, 0.344482421875, 
394, 3602315459, -0.7062858939170837, 0.6402620673179626, -0.30202704668045044, 0.002869110554456711, 1.121904730796814, -8.867805480957031, 0.7773985862731934, -30.038909912109375, -19.51595687866211, 188.899169921875, 0.38037109375, 0.75390625, 0.34912109375, 
395, 3602323792, -0.7053770422935486, 0.6374927759170532, -0.30981212854385376, -0.008156538009643555, 0.6050485968589783, -9.400186538696289, 0.5594915151596069, -27.323328018188477, -18.12339973449707, 186.94630432128906, 0.40625, 0.74267578125, 0.3505859375, 
396, 3602332125, -0.7048614025115967, 0.634140133857727, -0.317308247089386, -0.018868718296289444, 0.08091074228286743, -10.18674087524414, 0.5922019481658936, -16.936737060546875, -19.910972595214844, 184.08314514160156, 0.426513671875, 0.734619140625, 0.35302734375, 
397, 3602340458, -0.7049145698547363, 0.6300186514854431, -0.3245302140712738, -0.029251862317323685, -0.08104148507118225, -10.592048645019531, 0.8416954278945923, -3.1349799633026123, -22.391279220581055, 181.44097900390625, 0.449462890625, 0.722412109375, 0.352294921875, 
398, 3602348791, -0.7055352926254272, 0.6250514984130859, -0.3316480815410614, -0.039291370660066605, -0.11979708820581436, -10.382421493530273, 0.9577877521514893, 11.443138122558594, -23.28009605407715, 181.06993103027344, 0.4697265625, 0.714599609375, 0.35009765625, 
399, 3602357124, -0.7065801024436951, 0.6193068027496338, -0.33881500363349915, -0.049109652638435364, -0.4185226857662201, -10.004733085632324, 0.9656732082366943, 23.696727752685547, -23.271198272705078, 182.3472900390625, 0.48974609375, 0.70361328125, 0.34228515625, 
400, 3602365457, -0.7077295780181885, 0.6130685806274414, -0.3461705446243286, -0.058613263070583344, -0.49290382862091064, -9.467247009277344, 1.0785083770751953, 30.94382095336914, -19.559207916259766, 183.48565673828125, 0.51708984375, 0.694091796875, 0.342041015625, 
401, 3602373790, -0.7087085843086243, 0.6065664291381836, -0.35383206605911255, -0.06794017553329468, -0.673974335193634, -8.992605209350586, 1.2548221349716187, 33.19452667236328, -14.512880325317383, 185.37738037109375, 0.535888671875, 0.683837890625, 0.336181640625, 
402, 3602382123, -0.7092541456222534, 0.6002017259597778, -0.3616127669811249, -0.07717982679605484, -0.6439240574836731, -8.4069242477417, 1.4520565271377563, 28.738121032714844, -10.35155963897705, 185.65774536132812, 0.555419921875, 0.669921875, 0.33349609375, 
403, 3602390456, -0.709124743938446, 0.5942618250846863, -0.3695131242275238, -0.08636660873889923, -0.3176812529563904, -7.699814319610596, 1.524206280708313, 19.452116012573242, -4.976343631744385, 184.33348083496094, 0.573974609375, 0.659912109375, 0.3271484375, 
404, 3602398789, -0.7081567645072937, 0.5889780521392822, -0.37749308347702026, -0.09550745785236359, -0.6375188231468201, -7.256276607513428, 1.4023104906082153, 6.484076023101807, 1.2635873556137085, 182.63096618652344, 0.59423828125, 0.648681640625, 0.3271484375, 
405, 3602407122, -0.706329345703125, 0.5844652652740479, -0.3854120969772339, -0.10469350218772888, -1.4315470457077026, -6.954496383666992, 1.1808521747589111, -8.255228042602539, 5.731603622436523, 179.27024841308594, 0.61474609375, 0.635986328125, 0.326904296875, 
406, 3602415455, -0.7037805318832397, 0.5806432366371155, -0.3931777775287628, -0.11384962499141693, -1.9596936702728271, -6.7488627433776855, 0.801522970199585, -20.874191284179688, 9.354806900024414, 175.5821075439453, 0.63134765625, 0.616455078125, 0.32958984375, 
407, 3602423788, -0.7008568644523621, 0.5770716071128845, -0.40082934498786926, -0.12299516797065735, -2.271322011947632, -7.128730773925781, 0.40530115365982056, -26.363977432250977, 10.698589324951172, 173.34373474121094, 0.649169921875, 0.60400390625, 0.3271484375, 
408, 3602432121, -0.6981388330459595, 0.5729530453681946, -0.40861690044403076, -0.13176852464675903, -2.1108312606811523, -8.126709938049316, -0.11993737518787384, -17.229612350463867, 12.960308074951172, 173.97203063964844, 0.663818359375, 0.5869140625, 0.33251953125, 
409, 3602440454, -0.6961557865142822, 0.5674183368682861, -0.4169672727584839, -0.1398061215877533, -1.581236481666565, -8.895068168640137, -0.6031603813171387, 7.362916469573975, 17.410179138183594, 177.50177001953125, 0.6787109375, 0.572265625, 0.33544921875, 
410, 3602448787, -0.6952787637710571, 0.5599156618118286, -0.4260861575603485, -0.14675268530845642, -1.4083760976791382, -8.844029426574707, -0.9916678667068481, 42.522216796875, 23.208351135253906, 182.7084197998047, 0.693359375, 0.555908203125, 0.3349609375, 
411, 3602457120, -0.6956243515014648, 0.5503062605857849, -0.43579286336898804, -0.1528339982032776, -1.545241355895996, -8.839587211608887, -0.8496001958847046, 78.38126373291016, 24.021589279174805, 188.3422393798828, 0.708740234375, 0.545654296875, 0.333251953125, 
412, 3602465453, -0.6969903707504272, 0.5389764308929443, -0.4456877112388611, -0.15835094451904297, -1.740689754486084, -8.008529663085938, -0.5585689544677734, 106.30354309082031, 20.4207763671875, 193.0675811767578, 0.725341796875, 0.529541015625, 0.324951171875, 
413, 3602473786, -0.6985957622528076, 0.5269336104393005, -0.4554741680622101, -0.1638655960559845, -1.775267481803894, -6.030426979064941, -0.22779379785060883, 114.72659301757812, 16.319852828979492, 195.55743408203125, 0.739013671875, 0.51708984375, 0.318359375, 
414, 3602482119, -0.6994060277938843, 0.5156899690628052, -0.46477800607681274, -0.16994164884090424, -1.6930034160614014, -3.5624263286590576, 0.20107083022594452, 96.65111541748047, 14.466526985168457, 194.78805541992188, 0.753173828125, 0.506103515625, 0.308837890625, 
415, 3602490452, -0.6985380053520203, 0.5063584446907043, -0.47353678941726685, -0.17723502218723297, -1.8507853746414185, -2.092087745666504, 0.30398520827293396, 57.33464431762695, 15.71656608581543, 193.78155517578125, 0.7705078125, 0.4892578125, 0.30810546875, 
416, 3602498785, -0.6956679821014404, 0.49942517280578613, -0.4817456901073456, -0.18586395680904388, -2.4736526012420654, -1.5718343257904053, 0.2725129723548889, 10.290910720825195, 20.096364974975586, 192.58023071289062, 0.783935546875, 0.4716796875, 0.298095703125, 
417, 3602507118, -0.6910320520401001, 0.4945777654647827, -0.4895171821117401, -0.1955612599849701, -3.2566747665405273, -2.062199831008911, -0.062397003173828125, -29.961496353149414, 25.52410316467285, 189.9559783935547, 0.79833984375, 0.45068359375, 0.306640625, 
418, 3602515451, -0.685421884059906, 0.49090129137039185, -0.496868371963501, -0.20576271414756775, -3.5457088947296143, -2.9107577800750732, -0.4295492172241211, -52.267452239990234, 27.883142471313477, 187.13717651367188, 0.8125, 0.429443359375, 0.31298828125, 
419, 3602523784, -0.679699718952179, 0.48727792501449585, -0.5039125680923462, -0.21597355604171753, -4.078071594238281, -3.59425950050354, -0.707657516002655, -54.42766189575195, 25.766597747802734, 184.59698486328125, 0.819091796875, 0.40478515625, 0.321044921875, 
420, 3602532117, -0.6747032999992371, 0.4828449785709381, -0.5106594562530518, -0.22553765773773193, -4.932315349578857, -4.3969855308532715, -0.6904596090316772, -38.421714782714844, 19.947973251342773, 180.5108184814453, 0.830810546875, 0.383544921875, 0.325439453125, 
421, 3602540450, -0.6709471940994263, 0.4770997166633606, -0.5170902013778687, -0.234152689576149, -5.5387444496154785, -4.871895790100098, -0.37009409070014954, -12.303374290466309, 10.476044654846191, 174.47500610351562, 0.843017578125, 0.3603515625, 0.325439453125, 
422, 3602548783, -0.668617844581604, 0.47003671526908875, -0.5230438113212585, -0.24175333976745605, -5.305605888366699, -4.801229476928711, 0.4431452453136444, 14.875018119812012, -1.6090623140335083, 167.25379943847656, 0.85107421875, 0.342041015625, 0.32666015625, 
423, 3602557116, -0.6673829555511475, 0.4620524048805237, -0.528565526008606, -0.24845513701438904, -4.869752883911133, -4.063491344451904, 1.0352765321731567, 35.46830368041992, -10.754759788513184, 158.69287109375, 0.85986328125, 0.326416015625, 0.323486328125, 
424, 3602565449, -0.6665528416633606, 0.4540382921695709, -0.5334619283676147, -0.2549092173576355, -4.742964744567871, -2.602818250656128, 1.6061713695526123, 37.96207046508789, -17.90570068359375, 151.76626586914062, 0.87255859375, 0.3076171875, 0.320068359375, 
425, 3602573782, -0.6649526953697205, 0.446995347738266, -0.5378957986831665, -0.26211678981781006, -4.677976131439209, -0.9258779287338257, 2.0584774017333984, 17.117475509643555, -17.855525970458984, 150.872802734375, 0.881103515625, 0.294189453125, 0.317138671875, 
426, 3602582115, -0.6615586876869202, 0.4420555531978607, -0.5421043634414673, -0.27028441429138184, -4.076908111572266, -0.34897947311401367, 2.4466464519500732, -21.06776237487793, -4.895786285400391, 149.6388702392578, 0.886474609375, 0.275146484375, 0.315673828125, 
427, 3602590448, -0.6558701395988464, 0.4392607510089874, -0.5465023517608643, -0.2796843647956848, -3.577362298965454, -0.5990597605705261, 2.188452959060669, -63.00008010864258, 14.345707893371582, 154.07717895507812, 0.89404296875, 0.255126953125, 0.31298828125, 
428, 3602598781, -0.6483404040336609, 0.4380677342414856, -0.5510139465332031, -0.2900669574737549, -3.963528871536255, -1.544493317604065, 1.839647889137268, -95.53533935546875, 29.509668350219727, 159.1074676513672, 0.900390625, 0.232421875, 0.320068359375, 
429, 3602607114, -0.6397082209587097, 0.4377599358558655, -0.5552745461463928, -0.3013530671596527, -4.378181457519531, -2.5659754276275635, 1.7841193675994873, -117.89840698242188, 33.635860443115234, 162.90625, 0.902587890625, 0.205810546875, 0.32958984375, 
430, 3602615447, -0.6307153701782227, 0.43770700693130493, -0.5591166615486145, -0.31305429339408875, -4.564547538757324, -3.0988502502441406, 1.7520923614501953, -127.2384033203125, 31.340925216674805, 164.01132202148438, 0.908203125, 0.18115234375, 0.337158203125, 
431, 3602623780, -0.6218240261077881, 0.43738555908203125, -0.5626365542411804, -0.3247659206390381, -4.53658390045166, -3.4604861736297607, 1.8196971416473389, -125.74510955810547, 26.468889236450195, 163.36419677734375, 0.912109375, 0.150634765625, 0.343017578125, 
432, 3602632113, -0.613068699836731, 0.4365435838699341, -0.5661860704421997, -0.33617517352104187, -4.437082767486572, -2.8197860717773438, 1.816935658454895, -118.0262680053711, 25.238203048706055, 164.80157470703125, 0.9150390625, 0.123046875, 0.348876953125, 
433, 3602640446, -0.6043214201927185, 0.4350754916667938, -0.5700625777244568, -0.3471848964691162, -4.770143985748291, -2.009136199951172, 1.7140816450119019, -108.0527572631836, 27.364103317260742, 167.8087158203125, 0.917236328125, 0.099609375, 0.3544921875, 
434, 3602648779, -0.5955638289451599, 0.4331399202346802, -0.5742713212966919, -0.3576447069644928, -4.833078861236572, -1.4490007162094116, 1.4587600231170654, -98.35729217529297, 31.334186553955078, 169.35952758789062, 0.919189453125, 0.07080078125, 0.361083984375, 
435, 3602657112, -0.5866945385932922, 0.43083664774894714, -0.5788758993148804, -0.3675265908241272, -4.649057388305664, -0.6194959878921509, 1.0259950160980225, -89.47554016113281, 37.02098846435547, 170.01905822753906, 0.922607421875, 0.04345703125, 0.364501953125, 
436, 3602665445, -0.577619731426239, 0.428377628326416, -0.5838155746459961, -0.37684375047683716, -4.579650402069092, 0.17336495220661163, 0.6256441473960876, -83.2720718383789, 43.991111755371094, 170.1313018798828, 0.92333984375, 0.01904296875, 0.369140625, 
437, 3602673778, -0.5682448744773865, 0.4261544644832611, -0.5886322259902954, -0.38601306080818176, -4.796758651733398, 1.4026103019714355, 0.48379096388816833, -86.33934020996094, 47.44533157348633, 167.4873046875, 0.915771484375, -0.0068359375, 0.37451171875, 
438, 3602682111, -0.5586959719657898, 0.42424076795578003, -0.5931122303009033, -0.3950950503349304, -5.030812740325928, 1.8923708200454712, 0.08260279148817062, -90.88397979736328, 48.440521240234375, 163.62908935546875, 0.91552734375, -0.0302734375, 0.380859375, 
439, 3602690444, -0.549136221408844, 0.422508180141449, -0.5972017049789429, -0.4040915369987488, -5.1145453453063965, 2.0560266971588135, -0.2316899597644806, -93.73573303222656, 46.950496673583984, 158.89952087402344, 0.91650390625, -0.059326171875, 0.389404296875, 
440, 3602698777, -0.5397509336471558, 0.4207237660884857, -0.6010275483131409, -0.41283196210861206, -5.5253119468688965, 2.6058499813079834, -0.48572519421577454, -91.71929168701172, 44.77762985229492, 155.2316131591797, 0.907958984375, -0.08154296875, 0.391357421875, 
441, 3602707110, -0.5307511687278748, 0.41849198937416077, -0.6047987341880798, -0.4211769998073578, -6.265798568725586, 3.0090739727020264, -0.8413507342338562, -83.18389892578125, 40.88162612915039, 153.14736938476562, 0.90625, -0.10546875, 0.389404296875, 
442, 3602715443, -0.5225073099136353, 0.4155009388923645, -0.6086258888244629, -0.42886286973953247, -6.6712164878845215, 2.8865833282470703, -1.0176589488983154, -67.50855255126953, 34.43971252441406, 150.90249633789062, 0.899169921875, -0.13134765625, 0.400390625, 
443, 3602723776, -0.5152645707130432, 0.4116894006729126, -0.612608790397644, -0.43557852506637573, -6.7135820388793945, 2.9227306842803955, -1.0962289571762085, -46.8318977355957, 27.842548370361328, 145.47337341308594, 0.8984375, -0.1533203125, 0.401611328125, 
444, 3602732109, -0.5090052485466003, 0.4073250889778137, -0.6166422367095947, -0.4413115382194519, -6.437501907348633, 3.534503936767578, -1.2127310037612915, -28.788314819335938, 22.2020206451416, 137.8407440185547, 0.896728515625, -0.1708984375, 0.40234375, 
445, 3602740442, -0.5034886002540588, 0.4028007686138153, -0.6202722787857056, -0.44667285680770874, -6.531055450439453, 5.062396049499512, -1.1878023147583008, -22.779638290405273, 14.158638954162598, 129.55227661132812, 0.892578125, -0.189208984375, 0.403564453125, 
446, 3602748775, -0.49837878346443176, 0.398614764213562, -0.6230736970901489, -0.4522255063056946, -6.638757705688477, 6.192702770233154, -1.2857221364974976, -29.612319946289062, 5.995017051696777, 121.14105987548828, 0.887939453125, -0.207275390625, 0.4052734375, 
447, 3602757108, -0.4930063784122467, 0.3957952857017517, -0.6243571639060974, -0.45877307653427124, -6.672250747680664, 8.122089385986328, -0.9997929930686951, -58.36091232299805, 0.8591129779815674, 109.32343292236328, 0.88623046875, -0.222412109375, 0.403076171875, 
448, 3602765441, -0.4868910610675812, 0.394966185092926, -0.6235923767089844, -0.4669853448867798, -7.066164970397949, 9.447904586791992, -1.0477769374847412, -103.1292495727539, -3.131946086883545, 97.24579620361328, 0.883056640625, -0.240478515625, 0.399169921875, 
449, 3602773774, -0.47997409105300903, 0.3962455987930298, -0.6204855442047119, -0.4770911931991577, -7.348113536834717, 9.406079292297363, -1.1378103494644165, -152.8667449951172, -8.704092025756836, 84.08514404296875, 0.877685546875, -0.259765625, 0.392333984375, 
450, 3602782107, -0.4729096591472626, 0.3986695110797882, -0.6157260537147522, -0.48816436529159546, -7.146161079406738, 6.884515762329102, -1.350443720817566, -180.3316650390625, -16.105337142944336, 72.79093933105469, 0.8779296875, -0.27685546875, 0.388916015625, 
451, 3602790440, -0.46661436557769775, 0.4009825885295868, -0.6104015111923218, -0.4988964796066284, -6.936775207519531, 4.36154842376709, -1.2866264581680298, -176.2902069091797, -25.177021026611328, 63.12553787231445, 0.87744140625, -0.298095703125, 0.37939453125, 
