sep=,
PacketCounter,SampleTimeFine,Quat_W,Quat_X,Quat_Y,Quat_Z,Acc_X,Acc_Y,Acc_Z,Gyr_X,Gyr_Y,Gyr_Z,Mag_X,Mag_Y,Mag_Z,
0, 3636589088, -0.26475590467453003, 0.6488246917724609, 0.07259580492973328, 0.7096930146217346, 0, 0, 0, 0, 0, 0, -0.8193359375, -0.11376953125, 0.10693359375, 
1, 3636597421, -0.26487597823143005, 0.6487775444984436, 0.07259711623191833, 0.7096911668777466, 9.618334770202637, -2.3968963623046875, 1.4135158061981201, 1.1476713418960571, 0.03340096026659012, 0.9569734334945679, -0.818359375, -0.1142578125, 0.109375, 
2, 3636605754, -0.26499348878860474, 0.6487120985984802, 0.07256817817687988, 0.7097100615501404, 9.647196769714355, -2.4166882038116455, 1.4104690551757812, 0.8698338866233826, 0.48351994156837463, 1.1145011186599731, -0.82275390625, -0.1162109375, 0.111328125, 
3, 3636614087, -0.26510414481163025, 0.6486459374427795, 0.07251729816198349, 0.7097342014312744, 9.611797332763672, -2.4075324535369873, 1.4137378931045532, 0.5966324210166931, 0.6309554576873779, 1.219852328300476, -0.81982421875, -0.11474609375, 0.11083984375, 
4, 3636622420, -0.2651859223842621, 0.6486015915870667, 0.072427898645401, 0.7097533345222473, 9.624021530151367, -2.3980979919433594, 1.4049400091171265, -0.11640388518571854, 0.4657948315143585, 1.3255622386932373, -0.81884765625, -0.11767578125, 0.1103515625, 
5, 3636630753, -0.265237420797348, 0.6485821604728699, 0.07230160385370255, 0.7097649574279785, 9.609143257141113, -2.3733632564544678, 1.4296172857284546, -0.8232543468475342, 0.2803221642971039, 1.4059141874313354, -0.81591796875, -0.11865234375, 0.115966796875, 
6, 3636639086, -0.2652735710144043, 0.6485869288444519, 0.0721638947725296, 0.7097610235214233, 9.614904403686523, -2.386638641357422, 1.4130274057388306, -1.151295781135559, -0.0887405127286911, 1.444284200668335, -0.81787109375, -0.115966796875, 0.1064453125, 
7, 3636647419, -0.2652871310710907, 0.6486117839813232, 0.07202569395303726, 0.7097472548484802, 9.622157096862793, -2.398397445678711, 1.4036037921905518, -1.4146870374679565, -0.37211084365844727, 1.2794311046600342, -0.81884765625, -0.11474609375, 0.10986328125, 
8, 3636655752, -0.26529523730278015, 0.6486542820930481, 0.07189949601888657, 0.7097182273864746, 9.640040397644043, -2.430307388305664, 1.4323643445968628, -1.401393175125122, -0.7498950958251953, 1.1965688467025757, -0.8203125, -0.119140625, 0.116455078125, 
9, 3636664085, -0.2653037905693054, 0.6487118601799011, 0.0718001276254654, 0.7096723914146423, 9.623756408691406, -2.4747607707977295, 1.4109529256820679, -1.1695845127105713, -1.1220955848693848, 1.0331246852874756, -0.82275390625, -0.117431640625, 0.10888671875, 
10, 3636672418, -0.2653293013572693, 0.6487659215927124, 0.0717521533370018, 0.7096182107925415, 9.611632347106934, -2.4906842708587646, 1.4722410440444946, -0.49954164028167725, -1.3559024333953857, 0.771705687046051, -0.8173828125, -0.1162109375, 0.108154296875, 
11, 3636680751, -0.26539498567581177, 0.6488324999809265, 0.07173854112625122, 0.709534227848053, 9.571213722229004, -2.5141398906707764, 1.4853284358978271, 0.18052911758422852, -1.8062516450881958, 0.9734945893287659, -0.8173828125, -0.11328125, 0.10546875, 
12, 3636689084, -0.26549485325813293, 0.6488962173461914, 0.07174021005630493, 0.7094385027885437, 9.553399085998535, -2.5391740798950195, 1.5338075160980225, 0.6541619300842285, -1.9285340309143066, 1.2159075736999512, -0.8193359375, -0.11572265625, 0.109375, 
13, 3636697417, -0.265586793422699, 0.6489675641059875, 0.07170119881629944, 0.7093427181243896, 9.496493339538574, -2.5856196880340576, 1.5689395666122437, 0.16426409780979156, -1.842316746711731, 1.5038886070251465, -0.81884765625, -0.116455078125, 0.1064453125, 
14, 3636705750, -0.26571452617645264, 0.6490239500999451, 0.07163327932357788, 0.709250271320343, 9.46893310546875, -2.5796725749969482, 1.5497801303863525, 0.2475103735923767, -1.5470359325408936, 2.0897116661071777, -0.8154296875, -0.11474609375, 0.107666015625, 
15, 3636714083, -0.26590195298194885, 0.649054229259491, 0.07153314352035522, 0.7091623544692993, 9.482678413391113, -2.495797634124756, 1.5289077758789062, 0.5626423358917236, -1.054089903831482, 2.906191110610962, -0.81884765625, -0.1142578125, 0.109375, 
16, 3636722416, -0.2661493420600891, 0.6490346789360046, 0.07140207290649414, 0.7091007828712463, 9.489313125610352, -2.361614942550659, 1.5535985231399536, 0.9467021226882935, -0.1825142204761505, 3.6331229209899902, -0.818359375, -0.11181640625, 0.109375, 
17, 3636730749, -0.2663998007774353, 0.6489700675010681, 0.07123373448848724, 0.7090826034545898, 9.554425239562988, -2.326894998550415, 1.5060830116271973, 0.7388426065444946, 0.8041332960128784, 3.782095193862915, -0.8203125, -0.11376953125, 0.10986328125, 
18, 3636739082, -0.2666485905647278, 0.6488777995109558, 0.071007639169693, 0.7090962529182434, 9.592572212219238, -2.3730568885803223, 1.4759716987609863, 0.22517473995685577, 1.548073172569275, 4.148251533508301, -0.818359375, -0.11279296875, 0.1064453125, 
19, 3636747415, -0.26689547300338745, 0.6487560272216797, 0.07074794173240662, 0.7091405987739563, 9.572246551513672, -2.3051626682281494, 1.4814773797988892, -0.035386066883802414, 2.248392105102539, 4.2793450355529785, -0.81884765625, -0.1103515625, 0.10693359375, 
20, 3636755748, -0.26713502407073975, 0.6486199498176575, 0.07047232985496521, 0.7092024683952332, 9.552797317504883, -2.2694947719573975, 1.4614394903182983, -0.22726230323314667, 2.577406883239746, 4.279985427856445, -0.8154296875, -0.10986328125, 0.10693359375, 
21, 3636764081, -0.2673722505569458, 0.648501992225647, 0.07019805908203125, 0.7092480659484863, 9.522396087646484, -2.2479443550109863, 1.4501276016235352, -0.2802581787109375, 2.267781972885132, 4.316613674163818, -0.82080078125, -0.112548828125, 0.10498046875, 
22, 3636772414, -0.2675825357437134, 0.6484091281890869, 0.06994857639074326, 0.7092783451080322, 9.49176025390625, -2.2455670833587646, 1.4336981773376465, -0.3613528311252594, 1.7508867979049683, 3.9177486896514893, -0.81689453125, -0.111328125, 0.107421875, 
23, 3636780747, -0.26778045296669006, 0.6483567357063293, 0.06972247362136841, 0.7092737555503845, 9.478011131286621, -2.223083019256592, 1.4025068283081055, -0.3534892201423645, 0.9655796885490417, 3.7563271522521973, -0.81787109375, -0.11865234375, 0.112548828125, 
24, 3636789080, -0.2679537832736969, 0.6483294367790222, 0.06951501965522766, 0.7092536091804504, 9.414957046508789, -2.201481580734253, 1.4094228744506836, -0.4735944867134094, 0.4701237380504608, 3.4325127601623535, -0.81689453125, -0.10986328125, 0.1064453125, 
25, 3636797413, -0.2681146264076233, 0.6483246684074402, 0.06929762661457062, 0.7092186212539673, 9.401612281799316, -2.182377815246582, 1.432458519935608, -0.7441063523292542, 0.16370058059692383, 3.4764411449432373, -0.81787109375, -0.11279296875, 0.10595703125, 
26, 3636805746, -0.26823729276657104, 0.6483415961265564, 0.06904923915863037, 0.7091809511184692, 9.38662052154541, -2.1475131511688232, 1.408012866973877, -1.4709099531173706, -0.014792220667004585, 3.4104835987091064, -0.818359375, -0.10986328125, 0.10400390625, 
27, 3636814079, -0.2683160901069641, 0.6483755111694336, 0.06874282658100128, 0.7091498374938965, 9.349365234375, -2.120272159576416, 1.4171077013015747, -2.4917659759521484, 0.07233460992574692, 3.495549440383911, -0.81689453125, -0.1083984375, 0.10400390625, 
28, 3636822412, -0.26833176612854004, 0.6484341025352478, 0.06835613399744034, 0.7091276049613953, 9.375809669494629, -2.114448070526123, 1.3959550857543945, -3.9423253536224365, 0.12635503709316254, 3.5817153453826904, -0.81689453125, -0.1103515625, 0.10400390625, 
29, 3636830745, -0.26829370856285095, 0.6485025882720947, 0.06790948659181595, 0.7091223001480103, 9.3525390625, -2.0961337089538574, 1.4023476839065552, -5.054341793060303, 0.37240540981292725, 3.5500051975250244, -0.818359375, -0.1064453125, 0.10498046875, 
30, 3636839078, -0.26820987462997437, 0.648573100566864, 0.06740781664848328, 0.7091376781463623, 9.350958824157715, -2.0973801612854004, 1.4213759899139404, -6.030679225921631, 0.6769073605537415, 3.50907301902771, -0.8193359375, -0.11181640625, 0.10888671875, 
31, 3636847411, -0.2680855691432953, 0.6486448049545288, 0.06688964366912842, 0.7091680765151978, 9.331168174743652, -2.1321845054626465, 1.4147979021072388, -6.5660176277160645, 0.8422473669052124, 3.2229113578796387, -0.8193359375, -0.10595703125, 0.101806640625, 
32, 3636855744, -0.2679438292980194, 0.6487067341804504, 0.06639230251312256, 0.7092117667198181, 9.343523025512695, -2.140813112258911, 1.3999662399291992, -6.4981913566589355, 0.9447042942047119, 2.792541027069092, -0.81640625, -0.10693359375, 0.10107421875, 
33, 3636864077, -0.26779747009277344, 0.6487475633621216, 0.06595225632190704, 0.7092708349227905, 9.34903335571289, -2.169428586959839, 1.4146490097045898, -5.91287899017334, 1.091986060142517, 2.182563304901123, -0.818359375, -0.109375, 0.1015625, 
34, 3636872410, -0.26766157150268555, 0.6487523317337036, 0.06559079885482788, 0.7093511819839478, 9.388890266418457, -2.1938223838806152, 1.4317121505737305, -4.945327281951904, 1.332887887954712, 1.4515843391418457, -0.818359375, -0.107421875, 0.100341796875, 
35, 3636880743, -0.267536997795105, 0.6487234234809875, 0.06532450020313263, 0.709449052810669, 9.405223846435547, -2.1839048862457275, 1.4508626461029053, -3.8051352500915527, 1.5002000331878662, 0.641739010810852, -0.818359375, -0.10693359375, 0.101806640625, 
36, 3636889076, -0.26740652322769165, 0.6486594676971436, 0.0651407316327095, 0.7095735669136047, 9.456262588500977, -2.1633124351501465, 1.465140461921692, -2.9474682807922363, 1.747889757156372, -0.3047453463077545, -0.81787109375, -0.10302734375, 0.102294921875, 
37, 3636897409, -0.2672473192214966, 0.6485812067985535, 0.06500868499279022, 0.709717333316803, 9.473674774169922, -2.1493725776672363, 1.4479289054870605, -2.664405345916748, 1.8645881414413452, -1.1016554832458496, -0.81884765625, -0.10546875, 0.102294921875, 
38, 3636905742, -0.2670423686504364, 0.6484911441802979, 0.0649084523320198, 0.709885835647583, 9.525289535522461, -2.1359429359436035, 1.4588085412979126, -2.7413506507873535, 2.0221927165985107, -1.9624730348587036, -0.818359375, -0.10693359375, 0.1044921875, 
39, 3636914075, -0.2667728364467621, 0.6484119296073914, 0.06479115784168243, 0.7100702524185181, 9.545210838317871, -2.1670753955841064, 1.4590693712234497, -3.5374155044555664, 2.0860490798950195, -2.455828905105591, -0.8193359375, -0.107421875, 0.100830078125, 
40, 3636922408, -0.2664235532283783, 0.648347795009613, 0.06464962661266327, 0.7102728486061096, 9.550408363342285, -2.1795530319213867, 1.429669976234436, -4.558526992797852, 2.0945017337799072, -3.105559825897217, -0.81982421875, -0.10595703125, 0.100341796875, 
41, 3636930741, -0.2659807801246643, 0.6483161449432373, 0.06445789337158203, 0.71048504114151, 9.533011436462402, -2.2529141902923584, 1.4317853450775146, -6.009010314941406, 1.9891502857208252, -3.5371341705322266, -0.81689453125, -0.115234375, 0.108154296875, 
42, 3636939074, -0.2654635012149811, 0.6483181715011597, 0.06422902643680573, 0.7106972336769104, 9.48591136932373, -2.3055942058563232, 1.4373674392700195, -7.1596269607543945, 1.7042174339294434, -3.943938732147217, -0.81787109375, -0.1083984375, 0.099609375, 
43, 3636947407, -0.26488542556762695, 0.6483622789382935, 0.06399139761924744, 0.7108941078186035, 9.457507133483887, -2.3358404636383057, 1.4368385076522827, -7.928745746612549, 1.1593003273010254, -4.324746131896973, -0.81640625, -0.109375, 0.1015625, 
44, 3636955740, -0.26428088545799255, 0.6484250426292419, 0.06375698745250702, 0.7110830545425415, 9.450898170471191, -2.3757731914520264, 1.4020788669586182, -8.191113471984863, 0.8477287888526917, -4.609038829803467, -0.8193359375, -0.111572265625, 0.09912109375, 
45, 3636964073, -0.2636851370334625, 0.6484963893890381, 0.06357960402965546, 0.7112550139427185, 9.463637351989746, -2.416978597640991, 1.4032098054885864, -7.576013565063477, 0.43920737504959106, -4.9203033447265625, -0.82177734375, -0.112548828125, 0.098388671875, 
46, 3636972406, -0.26313409209251404, 0.6485496163368225, 0.06347475945949554, 0.7114198803901672, 9.485539436340332, -2.4485206604003906, 1.3578013181686401, -6.392403602600098, 0.3019149601459503, -5.161767482757568, -0.8193359375, -0.112060546875, 0.1025390625, 
47, 3636980739, -0.2626357972621918, 0.6485911011695862, 0.06342548131942749, 0.711570680141449, 9.518985748291016, -2.4958362579345703, 1.4431604146957397, -5.323650360107422, 0.16413600742816925, -5.058030605316162, -0.8212890625, -0.114501953125, 0.10546875, 
48, 3636989072, -0.26223456859588623, 0.6485962271690369, 0.06350579857826233, 0.7117065787315369, 9.422877311706543, -2.536940574645996, 1.3946837186813354, -3.044623613357544, -0.024423178285360336, -5.283845901489258, -0.818359375, -0.113037109375, 0.10107421875, 
49, 3636997405, -0.26188454031944275, 0.648590624332428, 0.06368088722229004, 0.7118249535560608, 9.403754234313965, -2.541506052017212, 1.4416860342025757, -1.6083561182022095, -0.345010906457901, -5.53199577331543, -0.818359375, -0.113037109375, 0.10009765625, 
50, 3637005738, -0.2615854740142822, 0.6485500931739807, 0.06393371522426605, 0.7119494080543518, 9.40491008758545, -2.5168895721435547, 1.4587373733520508, -0.27119070291519165, -0.21017760038375854, -5.82197380065918, -0.821044921875, -0.1162109375, 0.09765625, 
51, 3637014071, -0.26132917404174805, 0.648493230342865, 0.0642598420381546, 0.7120658159255981, 9.37909984588623, -2.5235378742218018, 1.499204397201538, 0.892451286315918, -0.3228546679019928, -6.002248287200928, -0.82080078125, -0.114501953125, 0.1025390625, 
52, 3637022404, -0.2610829472541809, 0.6484294533729553, 0.06461432576179504, 0.7121821641921997, 9.387862205505371, -2.522956132888794, 1.5094813108444214, 1.2869871854782104, -0.3746722340583801, -6.202116012573242, -0.816650390625, -0.115966796875, 0.10107421875, 
53, 3637030737, -0.26083675026893616, 0.6483593583106995, 0.06498595327138901, 0.7123022675514221, 9.427839279174805, -2.5180509090423584, 1.527919054031372, 1.4725879430770874, -0.314888596534729, -6.334413051605225, -0.815185546875, -0.115478515625, 0.102294921875, 
54, 3637039070, -0.26059865951538086, 0.6482723355293274, 0.06536751985549927, 0.7124336361885071, 9.448836326599121, -2.5297272205352783, 1.5381929874420166, 1.6936132907867432, -0.10218799859285355, -6.440455913543701, -0.817138671875, -0.117431640625, 0.1015625, 
55, 3637047403, -0.2603520452976227, 0.6481698751449585, 0.06575353443622589, 0.7125815153121948, 9.451951026916504, -2.5430715084075928, 1.5367963314056396, 1.7009899616241455, 0.19728082418441772, -6.597445487976074, -0.818115234375, -0.118896484375, 0.10205078125, 
56, 3637055736, -0.2601121664047241, 0.6480525732040405, 0.06612608581781387, 0.7127413153648376, 9.501686096191406, -2.5599889755249023, 1.5418757200241089, 1.6732244491577148, 0.47780802845954895, -6.504517555236816, -0.818115234375, -0.120361328125, 0.103271484375, 
57, 3637064069, -0.2598689794540405, 0.647929847240448, 0.06648214161396027, 0.7129084467887878, 9.47750186920166, -2.594069242477417, 1.545182466506958, 1.4940015077590942, 0.6768305897712708, -6.386922359466553, -0.820556640625, -0.1220703125, 0.099609375, 
58, 3637072402, -0.25963693857192993, 0.6478047966957092, 0.06681608408689499, 0.7130753993988037, 9.462453842163086, -2.6158103942871094, 1.5298923254013062, 1.3846030235290527, 0.7627150416374207, -6.117640018463135, -0.818603515625, -0.12255859375, 0.100341796875, 
59, 3637080735, -0.25941991806030273, 0.6476868391036987, 0.06714687496423721, 0.713230550289154, 9.446235656738281, -2.626254081726074, 1.519702672958374, 1.473151683807373, 0.636078417301178, -5.85980749130249, -0.818603515625, -0.119873046875, 0.10400390625, 
60, 3637089068, -0.2592311501502991, 0.6475770473480225, 0.06747806072235107, 0.7133675217628479, 9.466741561889648, -2.658421754837036, 1.5363118648529053, 1.717895746231079, 0.39614981412887573, -5.548313140869141, -0.819580078125, -0.12255859375, 0.103515625, 
61, 3637097401, -0.2590661346912384, 0.6474801898002625, 0.0678124725818634, 0.7134836912155151, 9.495003700256348, -2.6555564403533936, 1.5417749881744385, 1.9312620162963867, 0.11792793869972229, -5.2273406982421875, -0.820068359375, -0.12548828125, 0.103271484375, 
62, 3637105734, -0.25892409682273865, 0.6473800539970398, 0.0681239515542984, 0.7135964632034302, 9.501871109008789, -2.634225368499756, 1.5206736326217651, 1.9271126985549927, 0.19953490793704987, -4.819100856781006, -0.818115234375, -0.123046875, 0.100341796875, 
63, 3637114067, -0.2587953805923462, 0.6472814679145813, 0.06840738654136658, 0.7137054800987244, 9.521269798278809, -2.645906448364258, 1.5507882833480835, 1.7701998949050903, 0.2857780158519745, -4.39831018447876, -0.816650390625, -0.125, 0.104736328125, 
64, 3637122400, -0.2586817741394043, 0.6471677422523499, 0.06865797936916351, 0.7138258814811707, 9.526029586791992, -2.6185741424560547, 1.5172343254089355, 1.6232510805130005, 0.6437370181083679, -4.038353443145752, -0.822021484375, -0.1259765625, 0.10498046875, 
65, 3637130733, -0.25858116149902344, 0.6470538377761841, 0.0688726156949997, 0.7139447927474976, 9.530190467834473, -2.6571569442749023, 1.5310083627700806, 1.3911858797073364, 0.7947584986686707, -3.563465118408203, -0.816650390625, -0.12353515625, 0.102294921875, 
66, 3637139066, -0.2585109770298004, 0.6469245553016663, 0.0690695270895958, 0.7140681743621826, 9.524524688720703, -2.687488079071045, 1.4994993209838867, 1.5365724563598633, 1.0551782846450806, -3.1581456661224365, -0.818115234375, -0.1240234375, 0.102783203125, 
67, 3637147399, -0.25848251581192017, 0.646793007850647, 0.06924956291913986, 0.7141802906990051, 9.514962196350098, -2.6914749145507812, 1.514539122581482, 1.7611066102981567, 1.0993629693984985, -2.5451455116271973, -0.819580078125, -0.12744140625, 0.100830078125, 
68, 3637155732, -0.25849783420562744, 0.6466556191444397, 0.06941795349121094, 0.7142828106880188, 9.493999481201172, -2.706098794937134, 1.457786202430725, 2.065122127532959, 1.1313040256500244, -1.9994856119155884, -0.818115234375, -0.12451171875, 0.097412109375, 
69, 3637164065, -0.2585643529891968, 0.646536648273468, 0.06958867609500885, 0.7143499255180359, 9.480236053466797, -2.694352149963379, 1.4606623649597168, 2.5143961906433105, 0.6996528506278992, -1.362587809562683, -0.819580078125, -0.12744140625, 0.106201171875, 
70, 3637172398, -0.2586629092693329, 0.6464401483535767, 0.06973947584629059, 0.7143867015838623, 9.513151168823242, -2.6694536209106445, 1.4666155576705933, 2.549999475479126, 0.2883906662464142, -0.7513551712036133, -0.819580078125, -0.123046875, 0.103271484375, 
71, 3637180731, -0.2587796747684479, 0.6463740468025208, 0.06984216719865799, 0.714394211769104, 9.539698600769043, -2.6266820430755615, 1.4809490442276, 2.163864850997925, -0.06074415519833565, -0.0062626805156469345, -0.817626953125, -0.12646484375, 0.102783203125, 
72, 3637189064, -0.25888732075691223, 0.6463441848754883, 0.06988208740949631, 0.7143783569335938, 9.554473876953125, -2.6051440238952637, 1.4939355850219727, 1.3540706634521484, -0.4318687915802002, 0.5734002590179443, -0.820068359375, -0.125, 0.10009765625, 
73, 3637197397, -0.2589806020259857, 0.6463391184806824, 0.06986386328935623, 0.7143509984016418, 9.567171096801758, -2.5679564476013184, 1.5198789834976196, 0.5842607617378235, -0.5606828331947327, 1.0174998044967651, -0.816162109375, -0.12255859375, 0.098876953125, 
74, 3637205730, -0.25904926657676697, 0.6463550329208374, 0.06978146731853485, 0.7143197655677795, 9.537030220031738, -2.5396244525909424, 1.523891806602478, -0.34173232316970825, -0.6179050207138062, 1.375714898109436, -0.817626953125, -0.126953125, 0.099365234375, 
75, 3637214063, -0.25910091400146484, 0.646388828754425, 0.06964127719402313, 0.7142839431762695, 9.524352073669434, -2.574695587158203, 1.5449124574661255, -1.1141295433044434, -0.6249232888221741, 1.755599856376648, -0.818603515625, -0.12353515625, 0.101318359375, 
76, 3637222396, -0.2591426372528076, 0.6464216709136963, 0.0694744884967804, 0.7142555713653564, 9.467787742614746, -2.555917739868164, 1.5319733619689941, -1.4720118045806885, -0.48437803983688354, 1.8688403367996216, -0.818603515625, -0.1240234375, 0.100830078125, 
77, 3637230729, -0.25920093059539795, 0.6464531421661377, 0.06929248571395874, 0.7142235040664673, 9.39193058013916, -2.570612907409668, 1.5093854665756226, -1.460587739944458, -0.41119810938835144, 2.174827814102173, -0.821044921875, -0.126953125, 0.102783203125, 
78, 3637239062, -0.25928419828414917, 0.6464781761169434, 0.06908097118139267, 0.7141910195350647, 9.319085121154785, -2.573573589324951, 1.484340786933899, -1.51194429397583, -0.2467547506093979, 2.680529832839966, -0.818115234375, -0.125, 0.100830078125, 
79, 3637247395, -0.2594185471534729, 0.646497905254364, 0.0688556581735611, 0.7141461968421936, 9.315844535827637, -2.5573089122772217, 1.4686020612716675, -1.1549330949783325, -0.18389742076396942, 3.3375351428985596, -0.817626953125, -0.12060546875, 0.099365234375, 
80, 3637255728, -0.259579062461853, 0.646514892578125, 0.06861189007759094, 0.714095950126648, 9.323275566101074, -2.532465696334839, 1.472907304763794, -1.0966349840164185, -0.136972114443779, 3.7828381061553955, -0.820068359375, -0.12548828125, 0.100830078125, 
81, 3637264061, -0.25974413752555847, 0.6465355157852173, 0.06832384318113327, 0.7140448093414307, 9.344976425170898, -2.4603958129882812, 1.4696474075317383, -1.49419367313385, 0.004559333901852369, 4.215616703033447, -0.817626953125, -0.1240234375, 0.100830078125, 
82, 3637272394, -0.2598981559276581, 0.6465705037117004, 0.06800628453493118, 0.713987410068512, 9.38142204284668, -2.422677993774414, 1.484405517578125, -1.934963345527649, -0.1216035857796669, 4.417713165283203, -0.820068359375, -0.1240234375, 0.10302734375, 
83, 3637280727, -0.26001712679862976, 0.6466277837753296, 0.06761465221643448, 0.7139293551445007, 9.465250015258789, -2.3696577548980713, 1.463742733001709, -3.045109987258911, -0.08886858820915222, 4.742757320404053, -0.818115234375, -0.120361328125, 0.102783203125, 
84, 3637289060, -0.26009854674339294, 0.6466875672340393, 0.06718786060810089, 0.7138859033584595, 9.51271915435791, -2.3136978149414062, 1.4339879751205444, -3.7550852298736572, 0.08314380049705505, 4.648547649383545, -0.820556640625, -0.12158203125, 0.103515625, 
85, 3637297393, -0.2601456940174103, 0.646753191947937, 0.06670008599758148, 0.7138550281524658, 9.536887168884277, -2.3311831951141357, 1.4211623668670654, -4.682679653167725, 0.3485584855079651, 4.804180145263672, -0.820556640625, -0.1201171875, 0.10009765625, 
86, 3637305726, -0.26016905903816223, 0.6468191146850586, 0.06621284037828445, 0.7138321399688721, 9.560661315917969, -2.300448179244995, 1.3977372646331787, -4.90580415725708, 0.3699975907802582, 4.547780990600586, -0.817626953125, -0.122802734375, 0.107177734375, 
87, 3637314059, -0.26020824909210205, 0.6468839645385742, 0.06574326753616333, 0.7138025760650635, 9.584452629089355, -2.3347010612487793, 1.3551770448684692, -4.574151039123535, 0.29712510108947754, 4.559154510498047, -0.818603515625, -0.120849609375, 0.103271484375, 
88, 3637322392, -0.2602750062942505, 0.6469421982765198, 0.06533102691173553, 0.7137633562088013, 9.57783031463623, -2.356060266494751, 1.3358526229858398, -3.7416892051696777, 0.06923528015613556, 4.359747886657715, -0.821533203125, -0.1201171875, 0.0986328125, 
89, 3637330725, -0.2603932023048401, 0.6470090746879578, 0.06499671190977097, 0.7136900424957275, 9.559316635131836, -2.3784406185150146, 1.3281152248382568, -2.51143741607666, -0.5212624669075012, 4.2900261878967285, -0.820068359375, -0.12060546875, 0.10205078125, 
90, 3637339058, -0.26056644320487976, 0.647085428237915, 0.06474460661411285, 0.7135805487632751, 9.533967018127441, -2.3473031520843506, 1.3322432041168213, -1.2230156660079956, -1.2116942405700684, 4.247557640075684, -0.820556640625, -0.120849609375, 0.103515625, 
91, 3637347391, -0.2607746720314026, 0.647185206413269, 0.06455887854099274, 0.7134305834770203, 9.56056022644043, -2.3201849460601807, 1.3412944078445435, -0.300211638212204, -1.9761254787445068, 4.158010005950928, -0.818115234375, -0.1181640625, 0.09716796875, 
92, 3637355724, -0.2610015869140625, 0.6473004221916199, 0.06440269201993942, 0.7132573127746582, 9.598036766052246, -2.269749164581299, 1.3576525449752808, 0.11116578429937363, -2.4571094512939453, 4.184136867523193, -0.8212890625, -0.117431640625, 0.10302734375, 
93, 3637364057, -0.26121655106544495, 0.6474356055259705, 0.06424562633037567, 0.7130701541900635, 9.588088989257812, -2.2216880321502686, 1.3987953662872314, -0.05218900740146637, -2.749905586242676, 4.135673999786377, -0.819091796875, -0.119384765625, 0.1044921875, 
94, 3637372390, -0.2613941729068756, 0.6475852727890015, 0.06407584249973297, 0.7128844261169434, 9.57612419128418, -2.191905975341797, 1.4192593097686768, -0.5724141597747803, -2.898827075958252, 3.8961048126220703, -0.819580078125, -0.118408203125, 0.1015625, 
95, 3637380723, -0.2615290880203247, 0.6477398872375488, 0.06386126577854156, 0.7127137184143066, 9.562328338623047, -2.1824004650115967, 1.424468994140625, -1.4151225090026855, -2.6555685997009277, 3.8229756355285645, -0.821533203125, -0.12158203125, 0.103515625, 
96, 3637389056, -0.26162832975387573, 0.6479071378707886, 0.06361518800258636, 0.712547242641449, 9.512454986572266, -2.174927234649658, 1.4403693675994873, -2.097562313079834, -2.696397542953491, 3.754970073699951, -0.819091796875, -0.116943359375, 0.10302734375, 
97, 3637397389, -0.26169124245643616, 0.6480791568756104, 0.06337793171405792, 0.712388813495636, 9.480039596557617, -2.197535514831543, 1.4418728351593018, -2.351886510848999, -2.697114944458008, 3.295860767364502, -0.818603515625, -0.116943359375, 0.10205078125, 
98, 3637405722, -0.26174724102020264, 0.6482465267181396, 0.0631609559059143, 0.7122353315353394, 9.437630653381348, -2.242382526397705, 1.449419379234314, -2.2111616134643555, -2.722242832183838, 3.0235042572021484, -0.8232421875, -0.117431640625, 0.102783203125, 
99, 3637414055, -0.2618057429790497, 0.6484070420265198, 0.06300963461399078, 0.7120809555053711, 9.407081604003906, -2.2639875411987305, 1.4627201557159424, -1.5119954347610474, -2.8624801635742188, 2.465114116668701, -0.819580078125, -0.118896484375, 0.1025390625, 
100, 3637422388, -0.26189592480659485, 0.6485451459884644, 0.06292703747749329, 0.7119293212890625, 9.429540634155273, -2.23861026763916, 1.4866479635238647, -0.4872468113899231, -2.874544858932495, 2.129542112350464, -0.82177734375, -0.117919921875, 0.10400390625, 
101, 3637430721, -0.2620062530040741, 0.6486587524414062, 0.06291721761226654, 0.711786150932312, 9.425721168518066, -2.235969066619873, 1.5051532983779907, 0.4961477220058441, -2.7682459354400635, 1.632651448249817, -0.8203125, -0.115966796875, 0.10400390625, 
102, 3637439054, -0.26213058829307556, 0.6487345099449158, 0.06298036873340607, 0.711665689945221, 9.44395923614502, -2.2208263874053955, 1.5224308967590332, 1.4417228698730469, -2.4807260036468506, 0.996419370174408, -0.81787109375, -0.115966796875, 0.1044921875, 
103, 3637447387, -0.2622314393520355, 0.6487826704978943, 0.06308090686798096, 0.7115756273269653, 9.480130195617676, -2.185490846633911, 1.5669182538986206, 1.6817539930343628, -2.05952525138855, 0.3117508590221405, -0.81884765625, -0.1123046875, 0.107421875, 
104, 3637455720, -0.2622983455657959, 0.6487935185432434, 0.06321994215250015, 0.7115288972854614, 9.484027862548828, -2.17029070854187, 1.559192180633545, 1.842175841331482, -1.5132249593734741, -0.5642688274383545, -0.822265625, -0.116943359375, 0.10693359375, 
105, 3637464053, -0.26231512427330017, 0.6487900018692017, 0.06337675452232361, 0.7115119695663452, 9.528573989868164, -2.2107369899749756, 1.578881025314331, 1.6024264097213745, -1.177422285079956, -1.3187615871429443, -0.818359375, -0.115966796875, 0.10400390625, 
106, 3637472386, -0.26228055357933044, 0.6487777829170227, 0.06353461742401123, 0.7115218043327332, 9.519067764282227, -2.226144790649414, 1.644698977470398, 1.1559704542160034, -0.9385184645652771, -1.9482828378677368, -0.81884765625, -0.11474609375, 0.107421875, 
107, 3637480719, -0.26220619678497314, 0.6487636566162109, 0.06369341909885406, 0.7115478515625, 9.539579391479492, -2.2932989597320557, 1.6535385847091675, 0.8065153956413269, -0.7780963778495789, -2.391409158706665, -0.81787109375, -0.116455078125, 0.10693359375, 
108, 3637489052, -0.2620941400527954, 0.6487579941749573, 0.06383838504552841, 0.711581289768219, 9.531723022460938, -2.3396189212799072, 1.6488412618637085, 0.2949223220348358, -0.8148528337478638, -2.669323444366455, -0.820556640625, -0.126708984375, 0.115966796875, 
109, 3637497385, -0.2619556784629822, 0.6487482786178589, 0.06393943727016449, 0.7116319537162781, 9.509997367858887, -2.377929210662842, 1.628070592880249, -0.3688577711582184, -0.4533079266548157, -2.5849246978759766, -0.818359375, -0.117431640625, 0.108642578125, 
110, 3637505718, -0.2618030905723572, 0.6487277150154114, 0.06398853659629822, 0.7117025256156921, 9.491077423095703, -2.39003324508667, 1.601408839225769, -0.9841372966766357, -0.02552458643913269, -2.3594422340393066, -0.81884765625, -0.1162109375, 0.1083984375, 
111, 3637514051, -0.2616332173347473, 0.648707389831543, 0.06397367268800735, 0.7117847800254822, 9.452168464660645, -2.403437614440918, 1.5677964687347412, -1.7719289064407349, 0.31935831904411316, -1.979429841041565, -0.81689453125, -0.115966796875, 0.105712890625, 
112, 3637522384, -0.26145848631858826, 0.6486817002296448, 0.06388235092163086, 0.7118806838989258, 9.425104141235352, -2.3896892070770264, 1.5441864728927612, -2.559950828552246, 0.7362812161445618, -1.4195536375045776, -0.81787109375, -0.116943359375, 0.1044921875, 
113, 3637530717, -0.2612755000591278, 0.6486678123474121, 0.06372828781604767, 0.7119743227958679, 9.397599220275879, -2.4234061241149902, 1.536151647567749, -3.286191463470459, 0.8473957777023315, -0.901557207107544, -0.818359375, -0.119873046875, 0.110595703125, 
114, 3637539050, -0.2610917389392853, 0.6486547589302063, 0.06356357038021088, 0.7120682597160339, 9.383317947387695, -2.4198524951934814, 1.5141546726226807, -3.401864767074585, 0.8495729565620422, -0.8342171311378479, -0.8173828125, -0.118408203125, 0.107177734375, 
115, 3637547383, -0.26091715693473816, 0.6486534476280212, 0.0634428933262825, 0.7121443152427673, 9.359851837158203, -2.4518275260925293, 1.5224827527999878, -2.914093255996704, 0.45352569222450256, -1.0430501699447632, -0.81982421875, -0.114990234375, 0.10595703125, 
116, 3637555716, -0.2607550323009491, 0.6486658453941345, 0.06340506672859192, 0.7121956944465637, 9.344630241394043, -2.489384412765503, 1.5393935441970825, -2.0216422080993652, -0.21419905126094818, -1.5793098211288452, -0.81982421875, -0.119873046875, 0.107421875, 
117, 3637564049, -0.26062673330307007, 0.6486696004867554, 0.06348728388547897, 0.7122319340705872, 9.361409187316895, -2.496150493621826, 1.589652419090271, -0.4976973831653595, -0.6406503319740295, -2.2527847290039062, -0.817138671875, -0.118896484375, 0.106689453125, 
118, 3637572382, -0.26052993535995483, 0.6486423015594482, 0.0636756420135498, 0.7122753262519836, 9.367186546325684, -2.4737119674682617, 1.5869145393371582, 0.925339937210083, -0.6492568254470825, -2.9645276069641113, -0.81884765625, -0.117919921875, 0.10888671875, 
119, 3637580715, -0.2604663074016571, 0.6485695838928223, 0.0639311671257019, 0.7123419642448425, 9.413926124572754, -2.4401960372924805, 1.5976289510726929, 2.0268287658691406, -0.18712478876113892, -3.3419532775878906, -0.817138671875, -0.121337890625, 0.106201171875, 
120, 3637589048, -0.2604243755340576, 0.6484423875808716, 0.06422025710344315, 0.7124469876289368, 9.444066047668457, -2.4588541984558105, 1.6005202531814575, 2.704453468322754, 0.5651780962944031, -3.6328537464141846, -0.819580078125, -0.124267578125, 0.110107421875, 
121, 3637597381, -0.26039811968803406, 0.6482700109481812, 0.0645095631480217, 0.7125874161720276, 9.50066089630127, -2.4642465114593506, 1.6251559257507324, 2.9802160263061523, 1.3571702241897583, -3.6288585662841797, -0.822509765625, -0.120361328125, 0.10400390625, 
122, 3637605714, -0.26035401225090027, 0.6480575203895569, 0.06475336849689484, 0.7127746343612671, 9.575228691101074, -2.4092984199523926, 1.6329172849655151, 2.4759232997894287, 2.293473243713379, -3.6205339431762695, -0.819091796875, -0.120849609375, 0.106689453125, 
123, 3637614047, -0.2602737247943878, 0.6478212475776672, 0.0649355947971344, 0.7130019664764404, 9.58897876739502, -2.3899967670440674, 1.5684634447097778, 1.5999163389205933, 3.0927395820617676, -3.5725584030151367, -0.818115234375, -0.119873046875, 0.105224609375, 
124, 3637622380, -0.2601431608200073, 0.6475896835327148, 0.06503511965274811, 0.7132509350776672, 9.610894203186035, -2.4084649085998535, 1.519469141960144, 0.3036055266857147, 3.468808174133301, -3.4208197593688965, -0.8212890625, -0.118896484375, 0.10546875, 
125, 3637630713, -0.25996553897857666, 0.6473764777183533, 0.0650794506072998, 0.7135051488876343, 9.639598846435547, -2.407172679901123, 1.4730021953582764, -0.7260227799415588, 3.512915849685669, -3.374483585357666, -0.819580078125, -0.124267578125, 0.105712890625, 
126, 3637639046, -0.2597493827342987, 0.6472002267837524, 0.06507378816604614, 0.7137443423271179, 9.611722946166992, -2.4672493934631348, 1.4256004095077515, -1.6794612407684326, 3.140510320663452, -3.239675760269165, -0.819091796875, -0.122314453125, 0.103759765625, 
127, 3637647379, -0.25953805446624756, 0.6470582485198975, 0.0650888979434967, 0.7139484286308289, 9.569328308105469, -2.5143468379974365, 1.3778384923934937, -1.5227535963058472, 2.4401657581329346, -3.201587677001953, -0.820556640625, -0.122802734375, 0.10693359375, 
128, 3637655712, -0.25935643911361694, 0.6469583511352539, 0.065163254737854, 0.7140982747077942, 9.535463333129883, -2.5763423442840576, 1.352013111114502, -0.779146671295166, 1.3427495956420898, -3.225050449371338, -0.821044921875, -0.123046875, 0.10302734375, 
129, 3637664045, -0.25925642251968384, 0.6468881368637085, 0.06533260643482208, 0.7141827344894409, 9.543627738952637, -2.6338295936584473, 1.3529131412506104, 0.8338715434074402, 0.2254309058189392, -2.9921910762786865, -0.822998046875, -0.12353515625, 0.1025390625, 
130, 3637672378, -0.2592410147190094, 0.646846354007721, 0.06558007001876831, 0.7142034769058228, 9.566217422485352, -2.6391522884368896, 1.3680320978164673, 2.30812406539917, -0.8473572731018066, -2.619375705718994, -0.820556640625, -0.125732421875, 0.110595703125, 
131, 3637680711, -0.25932732224464417, 0.6467925310134888, 0.06591592729091644, 0.7141897678375244, 9.584681510925293, -2.612753391265869, 1.3769216537475586, 4.159188747406006, -1.233030915260315, -2.2810115814208984, -0.820556640625, -0.12646484375, 0.105224609375, 
132, 3637689044, -0.2594924569129944, 0.6467224359512329, 0.06629329919815063, 0.7141585350036621, 9.598381042480469, -2.5600576400756836, 1.4041757583618164, 5.33695650100708, -1.3309541940689087, -1.8433667421340942, -0.818115234375, -0.122314453125, 0.104248046875, 
133, 3637697377, -0.25969386100769043, 0.646629273891449, 0.06667712330818176, 0.7141338586807251, 9.585131645202637, -2.4971461296081543, 1.4158978462219238, 5.803853511810303, -1.0101613998413086, -1.576799750328064, -0.821044921875, -0.1240234375, 0.103515625, 
134, 3637705710, -0.25989988446235657, 0.6465131640434265, 0.06703013181686401, 0.7141309976577759, 9.598520278930664, -2.453479290008545, 1.4363454580307007, 5.600936412811279, -0.5018981099128723, -1.3690680265426636, -0.819580078125, -0.1240234375, 0.104248046875, 
135, 3637714043, -0.260082870721817, 0.6463914513587952, 0.06734130531549454, 0.7141452431678772, 9.580098152160645, -2.4142673015594482, 1.4449363946914673, 4.994314670562744, -0.1383296698331833, -1.2768566608428955, -0.819091796875, -0.1240234375, 0.104248046875, 
136, 3637722376, -0.26023685932159424, 0.6462765336036682, 0.06763824820518494, 0.7141651511192322, 9.556877136230469, -2.4270052909851074, 1.4788094758987427, 4.561460018157959, -0.15976880490779877, -1.4609463214874268, -0.819580078125, -0.12255859375, 0.103759765625, 
137, 3637730709, -0.26035505533218384, 0.6461820006370544, 0.06792740523815155, 0.7141801118850708, 9.549497604370117, -2.447127342224121, 1.4720276594161987, 4.104092121124268, -0.3795645534992218, -1.6951886415481567, -0.817138671875, -0.1240234375, 0.103759765625, 
138, 3637739042, -0.2604466676712036, 0.6461089253425598, 0.06822162866592407, 0.7141849398612976, 9.546298027038574, -2.446110486984253, 1.4859530925750732, 3.8444406986236572, -0.7526359558105469, -1.9561461210250854, -0.820068359375, -0.12548828125, 0.107177734375, 
139, 3637747375, -0.26052847504615784, 0.6460542678833008, 0.06854626536369324, 0.7141733765602112, 9.55395793914795, -2.492535352706909, 1.4954251050949097, 4.011778831481934, -1.168636679649353, -2.2374162673950195, -0.818603515625, -0.125732421875, 0.107177734375, 
140, 3637755708, -0.2606240212917328, 0.6460086107254028, 0.06889860332012177, 0.714146077632904, 9.519994735717773, -2.5194969177246094, 1.513243317604065, 4.382595539093018, -1.5108939409255981, -2.2936906814575195, -0.819580078125, -0.12451171875, 0.102783203125, 
141, 3637764041, -0.26073890924453735, 0.6459628343582153, 0.06926961243152618, 0.7141094207763672, 9.536905288696289, -2.531083345413208, 1.5131208896636963, 4.753387451171875, -1.6130179166793823, -2.226632833480835, -0.819091796875, -0.12646484375, 0.103759765625, 
142, 3637772374, -0.2608737051486969, 0.6459174752235413, 0.06964787095785141, 0.7140645384788513, 9.514741897583008, -2.545295476913452, 1.521708607673645, 5.002229690551758, -1.7270269393920898, -2.0757133960723877, -0.818603515625, -0.1259765625, 0.106689453125, 
143, 3637780707, -0.2610253393650055, 0.6458799839019775, 0.07001569867134094, 0.7140069603919983, 9.498919486999512, -2.593024969100952, 1.5634543895721436, 5.03788423538208, -1.8340176343917847, -1.757277250289917, -0.819580078125, -0.12890625, 0.104736328125, 
144, 3637789040, -0.26119306683540344, 0.6458474397659302, 0.07036669552326202, 0.7139407396316528, 9.501253128051758, -2.587474822998047, 1.5698143243789673, 5.001461029052734, -1.912986159324646, -1.420859932899475, -0.821044921875, -0.126953125, 0.103271484375, 
145, 3637797373, -0.2613649070262909, 0.6458143591880798, 0.07067340612411499, 0.7138773202896118, 9.474753379821777, -2.617030620574951, 1.616527795791626, 4.608283042907715, -1.6898608207702637, -0.9946649074554443, -0.820068359375, -0.1240234375, 0.104248046875, 
146, 3637805706, -0.26156294345855713, 0.6457676291465759, 0.07093130052089691, 0.7138214111328125, 9.456314086914062, -2.5922508239746094, 1.6210877895355225, 4.39632511138916, -1.3184032440185547, -0.34644535183906555, -0.816650390625, -0.1259765625, 0.105224609375, 
147, 3637814039, -0.26176658272743225, 0.6457276940345764, 0.0711134821176529, 0.7137649059295654, 9.470865249633789, -2.5647270679473877, 1.6417980194091797, 3.6887059211730957, -1.0830339193344116, 0.38726159930229187, -0.820068359375, -0.13330078125, 0.111328125, 
148, 3637822372, -0.2619759142398834, 0.6456702947616577, 0.0712192952632904, 0.7137295007705688, 9.477993965148926, -2.5423219203948975, 1.6354695558547974, 3.022274971008301, -0.4738248884677887, 1.031510829925537, -0.817138671875, -0.12646484375, 0.106201171875, 
149, 3637830705, -0.2621711492538452, 0.6456055045127869, 0.0712389349937439, 0.7137144804000854, 9.490135192871094, -2.508657217025757, 1.6524882316589355, 2.065685749053955, 0.10424993932247162, 1.5724068880081177, -0.820556640625, -0.12744140625, 0.105224609375, 
150, 3637839038, -0.2623577415943146, 0.6455325484275818, 0.07118576020002365, 0.7137172818183899, 9.491418838500977, -2.4722745418548584, 1.6362334489822388, 1.278022289276123, 0.5699167251586914, 2.065403938293457, -0.819580078125, -0.125, 0.103271484375, 
151, 3637847371, -0.2625306248664856, 0.64545077085495, 0.07107119262218475, 0.7137389779090881, 9.482499122619629, -2.4420928955078125, 1.6223094463348389, 0.5757055282592773, 1.0569971799850464, 2.3936502933502197, -0.817138671875, -0.126953125, 0.106689453125, 
152, 3637855704, -0.26268139481544495, 0.6453720331192017, 0.07090802490711212, 0.7137709259986877, 9.467591285705566, -2.3914272785186768, 1.5860872268676758, -0.12664958834648132, 1.2492318153381348, 2.579660654067993, -0.817138671875, -0.124755859375, 0.106201171875, 
153, 3637864037, -0.262828528881073, 0.6452993154525757, 0.0707339271903038, 0.713799774646759, 9.45005989074707, -2.408740282058716, 1.5656429529190063, -0.27551954984664917, 1.2204670906066895, 2.6505610942840576, -0.816162109375, -0.123779296875, 0.103271484375, 
154, 3637872370, -0.262964129447937, 0.6452334523200989, 0.07055418193340302, 0.7138271331787109, 9.422365188598633, -2.4153780937194824, 1.5303406715393066, -0.4645013213157654, 1.1258480548858643, 2.608015775680542, -0.819091796875, -0.124755859375, 0.107666015625, 
155, 3637880703, -0.26310187578201294, 0.6451837420463562, 0.0704025849699974, 0.7138362526893616, 9.422845840454102, -2.3846194744110107, 1.5066498517990112, -0.20546460151672363, 0.7294678092002869, 2.4528958797454834, -0.819091796875, -0.12451171875, 0.102783203125, 
156, 3637889036, -0.2632521688938141, 0.6451524496078491, 0.07028059661388397, 0.7138211727142334, 9.432161331176758, -2.392340660095215, 1.4909517765045166, 0.1476660817861557, 0.21416063606739044, 2.425949811935425, -0.816162109375, -0.122314453125, 0.103271484375, 
157, 3637897369, -0.26341909170150757, 0.6451359987258911, 0.07018716633319855, 0.7137837409973145, 9.458106994628906, -2.391680955886841, 1.4973429441452026, 0.5499376654624939, -0.1919146627187729, 2.423081159591675, -0.818115234375, -0.123046875, 0.102294921875, 
158, 3637905702, -0.2635970115661621, 0.6451229453086853, 0.07012494653463364, 0.7137358784675598, 9.469474792480469, -2.3556361198425293, 1.5135648250579834, 0.9453702569007874, -0.443651407957077, 2.3025918006896973, -0.819580078125, -0.1220703125, 0.1015625, 
159, 3637914035, -0.2637811303138733, 0.645112156867981, 0.07006646692752838, 0.7136834263801575, 9.517244338989258, -2.3416121006011963, 1.534043550491333, 1.0418589115142822, -0.4904997944831848, 2.3429338932037354, -0.818115234375, -0.120361328125, 0.101806640625, 
160, 3637922368, -0.2639686167240143, 0.6450963020324707, 0.0700201541185379, 0.7136329412460327, 9.509757041931152, -2.3128771781921387, 1.54788339138031, 1.1988486051559448, -0.48929592967033386, 2.263145685195923, -0.816650390625, -0.123046875, 0.101806640625, 
161, 3637930701, -0.2641420066356659, 0.6450640559196472, 0.06994737684726715, 0.7136051058769226, 9.538969993591309, -2.288318157196045, 1.5742870569229126, 0.8599467873573303, -0.01991506852209568, 2.2545394897460938, -0.817138671875, -0.123046875, 0.101318359375, 
162, 3637939034, -0.26430264115333557, 0.6450234651565552, 0.06984648108482361, 0.7135921716690063, 9.518959999084473, -2.2672722339630127, 1.566191554069519, 0.47944721579551697, 0.2586013078689575, 2.3230316638946533, -0.817626953125, -0.118896484375, 0.101806640625, 
163, 3637947367, -0.26444289088249207, 0.6449747681617737, 0.06971324980258942, 0.7135972380638123, 9.496667861938477, -2.2715210914611816, 1.5375185012817383, -0.0010886050295084715, 0.6212733387947083, 2.3305881023406982, -0.818603515625, -0.120849609375, 0.103759765625, 
164, 3637955700, -0.2645510137081146, 0.6449238657951355, 0.06953520327806473, 0.7136204242706299, 9.439610481262207, -2.259214162826538, 1.514031171798706, -0.7410582304000854, 0.9108678698539734, 2.350823402404785, -0.817626953125, -0.120849609375, 0.101318359375, 
165, 3637964033, -0.2646331191062927, 0.6448894739151001, 0.0693349838256836, 0.713640570640564, 9.405330657958984, -2.2595572471618652, 1.4999158382415771, -1.2427643537521362, 0.8037235140800476, 2.314835548400879, -0.817626953125, -0.119873046875, 0.100830078125, 
166, 3637972366, -0.26469165086746216, 0.644873857498169, 0.069124236702919, 0.7136534452438354, 9.340487480163574, -2.2588589191436768, 1.4835312366485596, -1.6195753812789917, 0.544840395450592, 2.226210355758667, -0.821044921875, -0.118896484375, 0.10107421875, 
167, 3637980699, -0.26474106311798096, 0.6448869705200195, 0.06893007457256317, 0.7136421203613281, 9.340018272399902, -2.2727432250976562, 1.4908909797668457, -1.6130692958831787, 0.0034579215571284294, 2.1025190353393555, -0.818115234375, -0.119384765625, 0.10009765625, 
168, 3637989032, -0.26479625701904297, 0.6449158787727356, 0.06876889616250992, 0.7136110663414001, 9.340291023254395, -2.2775955200195312, 1.4793568849563599, -1.283644676208496, -0.4641427993774414, 1.9544943571090698, -0.82177734375, -0.118896484375, 0.103515625, 
169, 3637997365, -0.26485246419906616, 0.644954264163971, 0.0686408281326294, 0.7135679125785828, 9.367531776428223, -2.2566676139831543, 1.4630143642425537, -0.9663609862327576, -0.7608579993247986, 1.723837971687317, -0.818115234375, -0.123291015625, 0.103759765625, 
170, 3638005698, -0.264912486076355, 0.6449942588806152, 0.06855073571205139, 0.7135180830955505, 9.433038711547852, -2.2513527870178223, 1.4653199911117554, -0.5667534470558167, -0.9951515197753906, 1.4524552822113037, -0.819580078125, -0.11962890625, 0.09912109375, 
171, 3638014031, -0.26496997475624084, 0.6450155377388, 0.06850883364677429, 0.7134813666343689, 9.422196388244629, -2.2646830081939697, 1.5019396543502808, -0.05362340435385704, -0.8459742069244385, 0.9339463114738464, -0.819580078125, -0.117431640625, 0.1015625, 
172, 3638022364, -0.2650422751903534, 0.6450139284133911, 0.06851063668727875, 0.713455855846405, 9.429035186767578, -2.2698044776916504, 1.488735556602478, 0.574091911315918, -0.6949782967567444, 0.6287527084350586, -0.818603515625, -0.1201171875, 0.09912109375, 
173, 3638030697, -0.26512062549591064, 0.6449858546257019, 0.06855112314224243, 0.7134482264518738, 9.423026084899902, -2.2605345249176025, 1.5086489915847778, 1.0923701524734497, -0.382100373506546, 0.2563472390174866, -0.818115234375, -0.1201171875, 0.099609375, 
174, 3638039030, -0.26520705223083496, 0.6449289321899414, 0.06862416118383408, 0.7134606838226318, 9.372727394104004, -2.267637252807617, 1.5100438594818115, 1.563364863395691, -0.062050480395555496, -0.05521148070693016, -0.818115234375, -0.12060546875, 0.099609375, 
175, 3638047363, -0.26529812812805176, 0.6448605060577393, 0.06873904168605804, 0.713477611541748, 9.329106330871582, -2.273672580718994, 1.5020719766616821, 2.057847738265991, -0.028982507064938545, -0.4031296670436859, -0.819580078125, -0.119384765625, 0.10205078125, 
176, 3638055696, -0.26538920402526855, 0.644798994064331, 0.06887194514274597, 0.7134865522384644, 9.254552841186523, -2.289860248565674, 1.5049149990081787, 2.2129673957824707, -0.26081693172454834, -0.5326352119445801, -0.819091796875, -0.12060546875, 0.1005859375, 
177, 3638064029, -0.26544418931007385, 0.6447646021842957, 0.06901534646749496, 0.7134832143783569, 9.229811668395996, -2.261676549911499, 1.5178420543670654, 1.9126659631729126, -0.6819661855697632, -0.9024022817611694, -0.821044921875, -0.1220703125, 0.09765625, 
178, 3638072362, -0.2654452919960022, 0.6447528600692749, 0.06912712007761002, 0.7134826183319092, 9.275967597961426, -2.26127290725708, 1.5018006563186646, 1.0340465307235718, -0.8423880934715271, -1.1462241411209106, -0.817138671875, -0.119384765625, 0.101806640625, 
179, 3638080695, -0.2653760313987732, 0.6447617411613464, 0.06917976588010788, 0.7134953141212463, 9.326584815979004, -2.277937173843384, 1.5257443189620972, -0.2517751157283783, -0.7492803335189819, -1.33405339717865, -0.819091796875, -0.1220703125, 0.102783203125, 
180, 3638089028, -0.26524731516838074, 0.6447794437408447, 0.06916927546262741, 0.7135282158851624, 9.414519309997559, -2.294156312942505, 1.5250530242919922, -1.4555927515029907, -0.5111704468727112, -1.429133415222168, -0.816650390625, -0.120849609375, 0.101318359375, 
181, 3638097361, -0.2650567889213562, 0.6447975635528564, 0.06909286230802536, 0.7135899066925049, 9.486071586608887, -2.31636118888855, 1.5319868326187134, -2.6735498905181885, -0.05203532427549362, -1.5492385625839233, -0.817626953125, -0.122314453125, 0.103271484375, 
182, 3638105694, -0.26483026146888733, 0.6448052525520325, 0.0689629316329956, 0.7136796712875366, 9.548524856567383, -2.3398241996765137, 1.5131487846374512, -3.513030529022217, 0.4343149662017822, -1.5468820333480835, -0.818603515625, -0.118896484375, 0.10400390625, 
183, 3638114027, -0.26456722617149353, 0.6448031663894653, 0.06879213452339172, 0.7137954831123352, 9.581989288330078, -2.386274814605713, 1.4701929092407227, -4.220188140869141, 0.9025176167488098, -1.6365830898284912, -0.819091796875, -0.1220703125, 0.102294921875, 
184, 3638122360, -0.2643195390701294, 0.6447910666465759, 0.06862984597682953, 0.7139137387275696, 9.57302188873291, -2.4500412940979004, 1.4621951580047607, -3.971679449081421, 0.9767475724220276, -1.59017014503479, -0.820068359375, -0.120849609375, 0.1044921875, 
185, 3638130693, -0.26409512758255005, 0.6447778940200806, 0.06849328428506851, 0.7140219211578369, 9.555879592895508, -2.491983413696289, 1.4320303201675415, -3.495561361312866, 0.8590244650840759, -1.5454473495483398, -0.820068359375, -0.12060546875, 0.10009765625, 
186, 3638139026, -0.2639184892177582, 0.6447775959968567, 0.06838682293891907, 0.7140977382659912, 9.519989013671875, -2.5362837314605713, 1.3936125040054321, -2.796959400177002, 0.3502746820449829, -1.2228363752365112, -0.822509765625, -0.12548828125, 0.1064453125, 
187, 3638147359, -0.2637864351272583, 0.6447986960411072, 0.06829676032066345, 0.7141360640525818, 9.518139839172363, -2.509552478790283, 1.3703484535217285, -2.2789111137390137, -0.17767314612865448, -0.7665187120437622, -0.821044921875, -0.1240234375, 0.10302734375, 
188, 3638155692, -0.26367995142936707, 0.6448456048965454, 0.06820450723171234, 0.714141845703125, 9.525038719177246, -2.494150400161743, 1.377089500427246, -2.1399283409118652, -0.7198752164840698, -0.3616345524787903, -0.821533203125, -0.12158203125, 0.1015625, 
189, 3638164025, -0.26358872652053833, 0.644923210144043, 0.06808938086032867, 0.7141164541244507, 9.531360626220703, -2.5125396251678467, 1.3669400215148926, -2.3074452877044678, -1.166741132736206, 0.1413649618625641, -0.820068359375, -0.121337890625, 0.10302734375, 
190, 3638172358, -0.26349908113479614, 0.6450670957565308, 0.06794331967830658, 0.7140334248542786, 9.49550724029541, -2.5195205211639404, 1.4491856098175049, -2.788506269454956, -2.2481229305267334, 0.6928906440734863, -0.818115234375, -0.121826171875, 0.102294921875, 
191, 3638180691, -0.2633986473083496, 0.6452658176422119, 0.06775765866041183, 0.7139084935188293, 9.466044425964355, -2.4818429946899414, 1.5032089948654175, -3.4251227378845215, -2.9908077716827393, 1.1486191749572754, -0.817626953125, -0.12255859375, 0.102294921875, 
192, 3638189024, -0.2632734477519989, 0.6455309987068176, 0.06752803176641464, 0.713736891746521, 9.483444213867188, -2.447577714920044, 1.6208523511886597, -4.282533168792725, -3.9562339782714844, 1.5215367078781128, -0.814697265625, -0.122314453125, 0.103759765625, 
193, 3638197357, -0.26310789585113525, 0.645861029624939, 0.06723392754793167, 0.7135270833969116, 9.544391632080078, -2.4721736907958984, 1.704486608505249, -5.463042736053467, -4.6999688148498535, 1.8992189168930054, -0.818603515625, -0.123046875, 0.102783203125, 
194, 3638205690, -0.2629081904888153, 0.6462332606315613, 0.06688770651817322, 0.713296115398407, 9.520922660827637, -2.4804587364196777, 1.8735295534133911, -6.4197845458984375, -5.181182861328125, 2.139531373977661, -0.820068359375, -0.122802734375, 0.105712890625, 
195, 3638214023, -0.2626679837703705, 0.6466400623321533, 0.06648772954940796, 0.7130531668663025, 9.560014724731445, -2.4767000675201416, 2.0800766944885254, -7.414412975311279, -5.437480449676514, 2.2982120513916016, -0.819091796875, -0.122802734375, 0.104736328125, 
196, 3638222356, -0.26239052414894104, 0.6470140814781189, 0.066037118434906, 0.7128579020500183, 9.56637191772461, -2.483987808227539, 2.2459213733673096, -8.172748565673828, -4.574382781982422, 2.1776201725006104, -0.820068359375, -0.121337890625, 0.1064453125, 
197, 3638230689, -0.2620559632778168, 0.6473395824432373, 0.06547871232032776, 0.7127370834350586, 9.63587760925293, -2.449009418487549, 2.3701813220977783, -9.625048637390137, -3.0744128227233887, 2.268627405166626, -0.818603515625, -0.122802734375, 0.106689453125, 
198, 3638239022, -0.261674702167511, 0.6475818753242493, 0.06482978165149689, 0.7127164006233215, 9.633666038513184, -2.509000778198242, 2.494555711746216, -10.724334716796875, -1.11005699634552, 2.175750494003296, -0.818115234375, -0.12255859375, 0.102294921875, 
199, 3638247355, -0.2612212002277374, 0.6477515697479248, 0.06405822932720184, 0.7127982974052429, 9.697044372558594, -2.5212771892547607, 2.610936164855957, -12.396689414978027, 0.90679532289505, 2.1302337646484375, -0.817626953125, -0.123291015625, 0.105712890625, 
200, 3638255688, -0.2607691287994385, 0.6478284001350403, 0.06322214752435684, 0.7129684686660767, 9.824698448181152, -2.567650318145752, 2.688838005065918, -12.763666152954102, 2.824200391769409, 2.315757989883423, -0.817626953125, -0.123779296875, 0.106689453125, 
201, 3638264021, -0.26042497158050537, 0.6477804780006409, 0.062468960881233215, 0.7132042050361633, 9.852758407592773, -2.786905288696289, 2.8092730045318604, -10.600822448730469, 4.425576686859131, 2.296623706817627, -0.820068359375, -0.123291015625, 0.105224609375, 
202, 3638272354, -0.2601796090602875, 0.6476444602012634, 0.06177851930260658, 0.7134774327278137, 9.861050605773926, -2.9932572841644287, 2.894249200820923, -8.820993423461914, 5.48480224609375, 2.4907286167144775, -0.821044921875, -0.119384765625, 0.10400390625, 
203, 3638280687, -0.2601276636123657, 0.6474224328994751, 0.06124337762594223, 0.713744044303894, 9.85891056060791, -3.1101183891296387, 2.9821267127990723, -5.263916969299316, 5.862227439880371, 2.9577267169952393, -0.819580078125, -0.123779296875, 0.105712890625, 
204, 3638289020, -0.2603367567062378, 0.6471005082130432, 0.06092264503240585, 0.7139872908592224, 9.848297119140625, -3.2048914432525635, 3.0719187259674072, -0.454486221075058, 6.103719234466553, 3.609302043914795, -0.824951171875, -0.1220703125, 0.10400390625, 
205, 3638297353, -0.26085591316223145, 0.6466981172561646, 0.06079701706767082, 0.714172899723053, 10.04061508178711, -3.3933541774749756, 3.188711643218994, 4.548320293426514, 5.90907621383667, 5.050692081451416, -0.820556640625, -0.119140625, 0.0986328125, 
206, 3638305686, -0.2617594599723816, 0.6462118029594421, 0.06090591847896576, 0.7142733931541443, 10.120048522949219, -3.453270673751831, 3.3147287368774414, 10.649762153625488, 5.488953113555908, 6.982418060302734, -0.822998046875, -0.11767578125, 0.097412109375, 
207, 3638314019, -0.2631109356880188, 0.6456557512283325, 0.061294883489608765, 0.7142462730407715, 10.042769432067871, -3.408838987350464, 3.44169282913208, 17.727027893066406, 4.356112003326416, 9.276043891906738, -0.822509765625, -0.11767578125, 0.095947265625, 
208, 3638322352, -0.2648548185825348, 0.6450347900390625, 0.06193344667553902, 0.7141076326370239, 10.033652305603027, -3.3500633239746094, 3.6654090881347656, 24.002267837524414, 3.4818222522735596, 11.280465126037598, -0.82421875, -0.11328125, 0.093994140625, 
209, 3638330685, -0.2670457363128662, 0.6443792581558228, 0.06280487775802612, 0.713807225227356, 10.10696029663086, -3.368699789047241, 3.919098377227783, 30.506071090698242, 1.8451486825942993, 14.140836715698242, -0.821533203125, -0.11083984375, 0.089599609375, 
210, 3638339018, -0.2696952819824219, 0.6436946392059326, 0.06390751898288727, 0.7133308053016663, 9.94750690460205, -3.151005506515503, 4.277935028076172, 37.112030029296875, 0.1936182826757431, 17.23868751525879, -0.8232421875, -0.10595703125, 0.08837890625, 
211, 3638347351, -0.2727647125720978, 0.642899751663208, 0.06515593081712723, 0.7127676010131836, 9.859439849853516, -2.976304292678833, 4.67244291305542, 42.72367858886719, 0.23068228363990784, 20.261873245239258, -0.8203125, -0.104736328125, 0.08740234375, 
212, 3638355684, -0.2761366665363312, 0.6419396996498108, 0.06653238832950592, 0.7122070789337158, 9.865765571594238, -2.4690659046173096, 4.928551197052002, 47.29029846191406, 1.769051432609558, 21.968027114868164, -0.82666015625, -0.099609375, 0.084716796875, 
213, 3638364017, -0.27951285243034363, 0.640707790851593, 0.06787893921136856, 0.7118722200393677, 10.041515350341797, -1.9161558151245117, 5.141890048980713, 47.829986572265625, 6.399783134460449, 21.13717269897461, -0.8251953125, -0.094482421875, 0.082763671875, 
214, 3638372350, -0.28264662623405457, 0.6391509175300598, 0.06903806328773499, 0.7119229435920715, 10.127766609191895, -1.6009317636489868, 5.342115879058838, 44.77846908569336, 13.612459182739258, 18.6606502532959, -0.82373046875, -0.089111328125, 0.0791015625, 
215, 3638380683, -0.28532809019088745, 0.6371990442276001, 0.06993739306926727, 0.7125149369239807, 10.09595775604248, -1.3886373043060303, 5.457176208496094, 39.24074935913086, 22.636394500732422, 14.023283004760742, -0.825927734375, -0.084228515625, 0.075439453125, 
216, 3638389016, -0.28747817873954773, 0.634878933429718, 0.0705939382314682, 0.7136560082435608, 10.092220306396484, -1.4242684841156006, 5.573339462280273, 33.16312026977539, 31.678316116333008, 8.44874382019043, -0.826904296875, -0.083740234375, 0.072509765625, 
217, 3638397349, -0.2891823947429657, 0.6321871280670166, 0.07114583253860474, 0.715300440788269, 10.006157875061035, -1.652775526046753, 5.692377090454102, 29.16870880126953, 39.4804573059082, 2.640141487121582, -0.82861328125, -0.08056640625, 0.06298828125, 
218, 3638405682, -0.29059118032455444, 0.6292779445648193, 0.07176774740219116, 0.717229962348938, 9.829922676086426, -2.0015530586242676, 5.900905609130859, 27.929750442504883, 43.74855041503906, -2.2238714694976807, -0.833251953125, -0.078369140625, 0.056396484375, 
219, 3638414015, -0.29188916087150574, 0.6261802315711975, 0.07265572994947433, 0.7193215489387512, 9.809287071228027, -2.2696988582611084, 6.048593521118164, 30.11806869506836, 45.575401306152344, -6.437860012054443, -0.8291015625, -0.0771484375, 0.041748046875, 
220, 3638422348, -0.29318130016326904, 0.6229782104492188, 0.0738193541765213, 0.7214546203613281, 9.902019500732422, -2.4408814907073975, 6.232123374938965, 33.24219512939453, 46.117279052734375, -9.156333923339844, -0.833984375, -0.076171875, 0.03369140625, 
221, 3638430681, -0.29451635479927063, 0.6196696162223816, 0.07518745958805084, 0.723615825176239, 9.983914375305176, -2.453580856323242, 6.398491382598877, 35.95942306518555, 46.32466506958008, -10.679414749145508, -0.830322265625, -0.080810546875, 0.031982421875, 
222, 3638439014, -0.2958093583583832, 0.6162856221199036, 0.07660850882530212, 0.7258259057998657, 10.050689697265625, -2.2732205390930176, 6.550956726074219, 36.462520599365234, 47.543174743652344, -11.849838256835938, -0.831298828125, -0.0771484375, 0.016357421875, 
223, 3638447347, -0.29710355401039124, 0.6127769351005554, 0.07789655029773712, 0.7281273603439331, 10.240978240966797, -2.1863696575164795, 6.793560028076172, 35.463539123535156, 49.74769592285156, -11.183839797973633, -0.836181640625, -0.075439453125, 0.009765625, 
224, 3638455680, -0.2982604503631592, 0.6091492772102356, 0.07884486764669418, 0.7305920720100403, 10.516745567321777, -1.9966315031051636, 7.007330417633057, 31.30895233154297, 53.91232681274414, -10.518996238708496, -0.83447265625, -0.076171875, -0.0009765625, 
225, 3638464013, -0.2992328405380249, 0.6052728295326233, 0.07930071651935577, 0.7333616018295288, 10.856757164001465, -1.9818017482757568, 7.2256622314453125, 25.39996910095215, 60.382568359375, -9.72951602935791, -0.837890625, -0.076904296875, -0.008544921875, 
226, 3638472346, -0.3000561594963074, 0.6012093424797058, 0.07926294207572937, 0.7363658547401428, 10.932294845581055, -2.141068935394287, 7.458902835845947, 19.801782608032227, 66.4930191040039, -8.330719947814941, -0.834716796875, -0.07666015625, -0.019287109375, 
227, 3638480679, -0.30081456899642944, 0.596869170665741, 0.07907259464263916, 0.739600419998169, 11.125865936279297, -2.421776294708252, 7.803825855255127, 18.48834228515625, 71.30875396728516, -8.932790756225586, -0.835693359375, -0.079345703125, -0.032470703125, 
228, 3638489012, -0.30161625146865845, 0.5922635197639465, 0.07894238084554672, 0.7429826259613037, 11.300334930419922, -2.8857076168060303, 8.154561042785645, 20.514270782470703, 75.46925354003906, -9.933087348937988, -0.839111328125, -0.07666015625, -0.0439453125, 
229, 3638497345, -0.30241549015045166, 0.5873200297355652, 0.07900506258010864, 0.7465665936470032, 11.428752899169922, -3.0612714290618896, 8.38533878326416, 26.01226043701172, 78.61229705810547, -11.892850875854492, -0.83642578125, -0.077880859375, -0.05712890625, 
230, 3638505678, -0.30353716015815735, 0.5820143222808838, 0.0796152651309967, 0.7501928806304932, 11.579058647155762, -3.071427583694458, 8.581767082214355, 33.334110260009766, 81.89372253417969, -14.414525032043457, -0.834228515625, -0.080322265625, -0.0712890625, 
231, 3638514011, -0.30481141805648804, 0.5762926936149597, 0.08056061714887619, 0.7539829015731812, 11.742698669433594, -2.8895773887634277, 8.770768165588379, 39.42969512939453, 85.71530151367188, -16.608366012573242, -0.83642578125, -0.0791015625, -0.085693359375, 
232, 3638522344, -0.30613794922828674, 0.5702348351478577, 0.08162134885787964, 0.757926881313324, 11.918076515197754, -2.538050889968872, 8.900002479553223, 42.417789459228516, 90.54440307617188, -18.050708770751953, -0.837890625, -0.079345703125, -0.09765625, 
233, 3638530677, -0.30736202001571655, 0.5638173222541809, 0.0825270414352417, 0.7621228098869324, 12.051342010498047, -2.22164249420166, 9.063016891479492, 41.07659912109375, 96.20980834960938, -19.310365676879883, -0.838623046875, -0.082763671875, -0.112060546875, 
234, 3638539010, -0.3083118796348572, 0.5571561455726624, 0.08302121609449387, 0.7665712237358093, 12.188752174377441, -1.9047315120697021, 9.14730167388916, 35.535911560058594, 102.7464828491211, -20.396337509155273, -0.83447265625, -0.085693359375, -0.12890625, 
235, 3638547343, -0.3089003562927246, 0.5502121448516846, 0.08293648064136505, 0.7713443040847778, 12.37427806854248, -1.6310210227966309, 9.28618335723877, 27.32622528076172, 109.61405181884766, -21.397624969482422, -0.834228515625, -0.08544921875, -0.143798828125, 
236, 3638555676, -0.30911174416542053, 0.5430731177330017, 0.0822199136018753, 0.7763792872428894, 12.385804176330566, -1.6410460472106934, 9.363336563110352, 18.465757369995117, 116.56214904785156, -22.022735595703125, -0.8330078125, -0.0908203125, -0.162353515625, 
237, 3638564009, -0.30888548493385315, 0.5356833934783936, 0.0808032751083374, 0.7817335724830627, 12.579693794250488, -1.649604082107544, 9.376498222351074, 8.251138687133789, 123.42113494873047, -23.027671813964844, -0.830322265625, -0.0908203125, -0.179443359375, 
238, 3638572342, -0.3082824945449829, 0.5281199216842651, 0.0788259357213974, 0.7872999310493469, 12.792060852050781, -1.8336528539657593, 9.34561824798584, 0.12759923934936523, 129.49758911132812, -24.120521545410156, -0.828369140625, -0.090576171875, -0.19921875, 
239, 3638580675, -0.3074590861797333, 0.5203155279159546, 0.07647039741277695, 0.7930299043655396, 12.876286506652832, -2.220144033432007, 9.330581665039062, -4.9120192527771, 133.94287109375, -24.630149841308594, -0.822509765625, -0.095703125, -0.210205078125, 
240, 3638589008, -0.3065705895423889, 0.5123777985572815, 0.07395274937152863, 0.7987603545188904, 12.799010276794434, -2.4913389682769775, 9.372947692871094, -6.394830703735352, 136.73202514648438, -24.407169342041016, -0.82177734375, -0.095458984375, -0.234619140625, 
241, 3638597341, -0.30569934844970703, 0.5042281150817871, 0.07138362526893616, 0.8044935464859009, 12.874640464782715, -2.5573389530181885, 9.399502754211426, -6.142733573913574, 138.5728302001953, -24.000751495361328, -0.815673828125, -0.100341796875, -0.257080078125, 
242, 3638605674, -0.3048595190048218, 0.49604716897010803, 0.06883978098630905, 0.810100257396698, 13.03782844543457, -2.569570779800415, 9.482242584228516, -5.192838668823242, 138.7090606689453, -23.4091796875, -0.81201171875, -0.10205078125, -0.273681640625, 
243, 3638614007, -0.3040592074394226, 0.4877256453037262, 0.06625952571630478, 0.8156499862670898, 13.1596097946167, -2.3499016761779785, 9.555501937866211, -4.885745525360107, 139.3169403076172, -22.537851333618164, -0.807861328125, -0.10546875, -0.29443359375, 
244, 3638622340, -0.3032217025756836, 0.47926583886146545, 0.06350445002317429, 0.8211770057678223, 13.402661323547363, -1.9097466468811035, 9.439791679382324, -6.29896354675293, 142.17176818847656, -21.890047073364258, -0.806640625, -0.107421875, -0.313720703125, 
245, 3638630673, -0.30219191312789917, 0.4704696834087372, 0.06023764982819557, 0.8268694877624512, 13.509978294372559, -1.6664317846298218, 9.265569686889648, -12.287854194641113, 148.2606658935547, -21.597715377807617, -0.7978515625, -0.10986328125, -0.33349609375, 
246, 3638639006, -0.30091357231140137, 0.4613315463066101, 0.05623932182788849, 0.832745373249054, 13.582001686096191, -1.4059319496154785, 8.957951545715332, -20.742156982421875, 156.9362335205078, -20.812137603759766, -0.792724609375, -0.108642578125, -0.3544921875, 
247, 3638647339, -0.29943978786468506, 0.4516383111476898, 0.05147188529372215, 0.8388758897781372, 13.46142578125, -1.5111925601959229, 8.628114700317383, -28.901487350463867, 167.1796417236328, -19.57907485961914, -0.7900390625, -0.108642578125, -0.37353515625, 
248, 3638655672, -0.29785770177841187, 0.4413944482803345, 0.046015217900276184, 0.8451852202415466, 13.396662712097168, -1.8307223320007324, 8.18925952911377, -35.1734733581543, 178.16481018066406, -17.748647689819336, -0.781982421875, -0.111572265625, -0.397216796875, 
249, 3638664005, -0.29628151655197144, 0.4304533302783966, 0.04004693031311035, 0.8516612648963928, 13.497502326965332, -2.159174919128418, 7.661655902862549, -38.54938507080078, 188.64076232910156, -15.628398895263672, -0.770751953125, -0.109130859375, -0.421875, 
250, 3638672338, -0.29490187764167786, 0.41896772384643555, 0.03383082151412964, 0.8581129908561707, 13.615818977355957, -2.4736692905426025, 7.153248310089111, -37.8415641784668, 196.73361206054688, -12.130870819091797, -0.7626953125, -0.107421875, -0.44287109375, 
251, 3638680671, -0.29395848512649536, 0.4069787263870239, 0.027825264260172844, 0.8643991947174072, 13.610696792602539, -2.87337064743042, 6.724812030792236, -30.93858528137207, 200.36793518066406, -7.700482368469238, -0.752685546875, -0.10693359375, -0.470947265625, 
252, 3638689004, -0.29358527064323425, 0.39476901292800903, 0.022454800084233284, 0.8703242540359497, 13.126265525817871, -3.1317734718322754, 6.298440456390381, -18.953947067260742, 199.32276916503906, -3.1597299575805664, -0.739990234375, -0.1083984375, -0.49658203125, 
253, 3638697337, -0.29380786418914795, 0.3825260400772095, 0.01789703778922558, 0.8758047819137573, 12.297637939453125, -2.9785590171813965, 5.980535507202148, -5.927433013916016, 193.56448364257812, 1.3906298875808716, -0.728515625, -0.104248046875, -0.518798828125, 
254, 3638705670, -0.2945139408111572, 0.37055668234825134, 0.014285340905189514, 0.8807658553123474, 11.526841163635254, -2.604041576385498, 5.806238651275635, 7.239735126495361, 184.47836303710938, 4.3542304039001465, -0.71875, -0.104736328125, -0.54345703125, 
255, 3638714003, -0.2955727279186249, 0.35881540179252625, 0.011574618518352509, 0.885300874710083, 10.762893676757812, -2.4267516136169434, 5.747217655181885, 18.911264419555664, 175.3771514892578, 5.848748207092285, -0.703369140625, -0.10498046875, -0.56005859375, 
256, 3638722336, -0.2967360019683838, 0.34735944867134094, 0.009544644504785538, 0.8894951343536377, 10.152472496032715, -2.0330376625061035, 5.781381607055664, 26.806941986083984, 168.0578155517578, 5.1503214836120605, -0.689208984375, -0.105712890625, -0.58056640625, 
257, 3638730669, -0.2977626323699951, 0.3359909951686859, 0.007938286289572716, 0.8935256004333496, 9.866079330444336, -1.5562933683395386, 5.829334735870361, 30.80772590637207, 163.9261016845703, 2.1758673191070557, -0.6806640625, -0.110107421875, -0.599365234375, 
258, 3638739002, -0.29857197403907776, 0.3246123790740967, 0.006642771884799004, 0.8974636197090149, 9.78774356842041, -1.4531822204589844, 5.932777404785156, 33.86808395385742, 162.85975646972656, -1.5930908918380737, -0.671142578125, -0.10888671875, -0.62109375, 
259, 3638747335, -0.299184113740921, 0.3130473792552948, 0.005614027380943298, 0.9013668894767761, 9.491531372070312, -1.3214118480682373, 5.952418804168701, 36.855125427246094, 163.4127197265625, -5.0460524559021, -0.656982421875, -0.114013671875, -0.63818359375, 
260, 3638755668, -0.29955774545669556, 0.30132362246513367, 0.004837874323129654, 0.9052344560623169, 9.37891674041748, -1.3471319675445557, 5.9302473068237305, 39.809226989746094, 164.6479949951172, -9.001582145690918, -0.643798828125, -0.117431640625, -0.65966796875, 
261, 3638764001, -0.29971566796302795, 0.28946682810783386, 0.0043747201561927795, 0.9090455770492554, 9.273829460144043, -1.5958518981933594, 5.971620559692383, 43.16880416870117, 164.34278869628906, -12.709261894226074, -0.627685546875, -0.125244140625, -0.678955078125, 
262, 3638772334, -0.29970139265060425, 0.2776739299297333, 0.0043932124972343445, 0.9127215147018433, 8.858041763305664, -1.8149254322052002, 6.079610824584961, 48.443260192871094, 161.43374633789062, -16.26857566833496, -0.61669921875, -0.130615234375, -0.688720703125, 
263, 3638780667, -0.29953712224960327, 0.26610490679740906, 0.004936795681715012, 0.9162122011184692, 8.281241416931152, -1.833914041519165, 6.349790573120117, 53.36312484741211, 155.37437438964844, -19.32622718811035, -0.601318359375, -0.134033203125, -0.707275390625, 
264, 3638789000, -0.2991378903388977, 0.2548348605632782, 0.00581195205450058, 0.9195354580879211, 8.050542831420898, -1.4867202043533325, 6.637855529785156, 55.64793395996094, 149.9812774658203, -22.841812133789062, -0.590087890625, -0.14697265625, -0.7158203125, 
265, 3638797333, -0.2984141707420349, 0.24381296336650848, 0.00662075262516737, 0.9227480292320251, 8.089790344238281, -1.0440833568572998, 6.815204620361328, 52.47671127319336, 146.3836669921875, -26.185443878173828, -0.576416015625, -0.1533203125, -0.73828125, 
266, 3638805666, -0.29731976985931396, 0.23299790918827057, 0.006836804561316967, 0.9258886575698853, 8.007905006408691, -0.6733816862106323, 6.899365425109863, 43.05312728881836, 146.2351531982422, -28.640907287597656, -0.561279296875, -0.158447265625, -0.75048828125, 
267, 3638813999, -0.2958073318004608, 0.2223021388053894, 0.006168185733258724, 0.9290022253990173, 7.95427942276001, -0.5217115879058838, 6.945949554443359, 29.779996871948242, 147.937744140625, -30.953990936279297, -0.5478515625, -0.1630859375, -0.765869140625, 
268, 3638822332, -0.29402682185173035, 0.21173053979873657, 0.004482231102883816, 0.9320417046546936, 7.734645843505859, -0.6457107663154602, 6.941061019897461, 15.648564338684082, 150.51043701171875, -31.009449005126953, -0.53369140625, -0.170166015625, -0.776611328125, 
269, 3638830665, -0.29203784465789795, 0.20126837491989136, 0.0019598593935370445, 0.9349890351295471, 7.20937967300415, -0.6395950317382812, 6.777716159820557, 3.6989657878875732, 151.9884796142578, -30.812349319458008, -0.519287109375, -0.1767578125, -0.78564453125, 
270, 3638838998, -0.28992289304733276, 0.1909061074256897, -0.0009969603270292282, 0.9378176331520081, 6.669600963592529, -1.2522186040878296, 6.4749884605407715, -2.448491334915161, 152.33709716796875, -30.805259704589844, -0.50390625, -0.176513671875, -0.8046875, 
271, 3638847331, -0.2878226041793823, 0.18055331707000732, -0.003982522990554571, 0.9405031204223633, 6.590504169464111, -1.946373462677002, 6.323679447174072, -3.005023241043091, 151.77894592285156, -29.91854476928711, -0.486328125, -0.179443359375, -0.816650390625, 
272, 3638855664, -0.28590112924575806, 0.17029312252998352, -0.006532437168061733, 0.942985475063324, 6.799698352813721, -2.312560558319092, 6.680014133453369, 2.8801608085632324, 148.5171356201172, -27.941030502319336, -0.470947265625, -0.18115234375, -0.832763671875, 
273, 3638863997, -0.2844201326370239, 0.1599300056695938, -0.007610659580677748, 0.9452370405197144, 6.587095737457275, -3.1578855514526367, 6.9968581199646, 23.212024688720703, 143.3598175048828, -24.71692657470703, -0.454345703125, -0.1865234375, -0.83935546875, 
274, 3638872330, -0.2833370566368103, 0.14916621148586273, -0.006733749993145466, 0.9473267197608948, 6.431367874145508, -3.4773898124694824, 7.162377834320068, 51.219303131103516, 140.6485595703125, -23.208812713623047, -0.439453125, -0.190185546875, -0.850341796875, 
275, 3638880663, -0.2824694812297821, 0.13787002861499786, -0.0041985297575592995, 0.9493097066879272, 6.492237567901611, -2.683788776397705, 7.402950763702393, 75.19087982177734, 140.8074188232422, -23.304542541503906, -0.4208984375, -0.2041015625, -0.860107421875, 
276, 3638888996, -0.28163450956344604, 0.12623687088489532, -0.0008041318506002426, 0.9511831402778625, 6.408151626586914, -1.6499239206314087, 7.6613922119140625, 87.91146087646484, 141.73719787597656, -24.09849739074707, -0.40673828125, -0.213134765625, -0.86962890625, 
277, 3638897329, -0.28075408935546875, 0.11452049762010574, 0.0028642620891332626, 0.9529205560684204, 5.8085784912109375, -0.6885036826133728, 7.909925937652588, 91.61279296875, 141.5027313232422, -24.613574981689453, -0.388916015625, -0.224609375, -0.88037109375, 
278, 3638905662, -0.2796629071235657, 0.10299276560544968, 0.0059713926166296005, 0.9545411467552185, 5.012259006500244, 0.09217958897352219, 8.07127857208252, 83.32674407958984, 141.03123474121094, -26.059402465820312, -0.378662109375, -0.239013671875, -0.88427734375, 
279, 3638913995, -0.27822571992874146, 0.09201260656118393, 0.007753279991447926, 0.9560688138008118, 4.456782817840576, 0.7623534798622131, 8.254948616027832, 63.21612548828125, 138.7938232421875, -28.295902252197266, -0.356689453125, -0.24658203125, -0.895263671875, 
280, 3638922328, -0.2762833833694458, 0.08175568282604218, 0.00782078318297863, 0.9575625658035278, 4.1672821044921875, 1.0694973468780518, 8.519240379333496, 37.39812469482422, 135.733642578125, -32.58782196044922, -0.34423828125, -0.251953125, -0.900146484375, 
281, 3638930661, -0.27396360039711, 0.07226889580488205, 0.00623298529535532, 0.9590024948120117, 4.019201278686523, 0.7830905914306641, 8.910555839538574, 12.115923881530762, 131.82440185546875, -35.38800811767578, -0.323486328125, -0.259765625, -0.906982421875, 
282, 3638938994, -0.27146345376968384, 0.06355024129152298, 0.0033615052234381437, 0.9603443145751953, 3.6966073513031006, 0.19892427325248718, 9.230352401733398, -7.7355146408081055, 126.37248992919922, -36.07709884643555, -0.308837890625, -0.264404296875, -0.91455078125, 
283, 3638947327, -0.26878634095191956, 0.05550349876284599, -0.0003057066351175308, 0.961601197719574, 3.5952751636505127, -0.12599529325962067, 9.485322952270508, -21.05538558959961, 120.45962524414062, -37.35329055786133, -0.29345703125, -0.26318359375, -0.92041015625, 
284, 3638955660, -0.2659505605697632, 0.04789154976606369, -0.004385669250041246, 0.9627881646156311, 3.74403977394104, -0.13069353997707367, 9.725871086120605, -28.090139389038086, 116.1111831665039, -38.897701263427734, -0.27685546875, -0.26025390625, -0.929443359375, 
285, 3638963993, -0.2630471885204315, 0.040238745510578156, -0.008501691743731499, 0.963907778263092, 3.5744078159332275, -0.5527084469795227, 9.497601509094238, -28.620317459106445, 116.8435287475586, -39.50603485107422, -0.2607421875, -0.26171875, -0.939208984375, 
286, 3638972326, -0.2601780295372009, 0.03228573501110077, -0.012420443817973137, 0.9649426937103271, 3.371476650238037, -1.1280354261398315, 9.262998580932617, -24.757465362548828, 119.95775604248047, -38.83369064331055, -0.2470703125, -0.260498046875, -0.93701171875, 
287, 3638980659, -0.257335364818573, 0.023870227858424187, -0.015743590891361237, 0.9659008383750916, 3.2604355812072754, -1.3580538034439087, 9.092214584350586, -15.34697437286377, 124.05582427978516, -38.38287353515625, -0.228271484375, -0.256591796875, -0.949462890625, 
288, 3638988992, -0.25457286834716797, 0.014858616515994072, -0.018154026940464973, 0.9667707681655884, 3.3173210620880127, -1.7815423011779785, 8.97097110748291, -0.9622138142585754, 128.56736755371094, -37.18666458129883, -0.2177734375, -0.258056640625, -0.95556640625, 
289, 3638997325, -0.2518899738788605, 0.005312011111527681, -0.019496431574225426, 0.9675466418266296, 3.1923105716705322, -1.7512407302856445, 8.880661964416504, 14.971755981445312, 132.06378173828125, -35.880069732666016, -0.197021484375, -0.262451171875, -0.9619140625, 
290, 3639005658, -0.24931079149246216, -0.004684976767748594, -0.020022382959723473, 0.9682070016860962, 2.956815242767334, -1.5036489963531494, 8.839405059814453, 27.5036563873291, 135.0300750732422, -34.04097366333008, -0.1826171875, -0.264404296875, -0.963623046875, 
291, 3639013991, -0.24679259955883026, -0.01494341529905796, -0.020099623128771782, 0.9687463641166687, 2.7562365531921387, -1.0675439834594727, 8.918002128601074, 34.21773147583008, 137.15936279296875, -32.717464447021484, -0.162353515625, -0.2685546875, -0.968505859375, 
292, 3639022324, -0.24430564045906067, -0.025381220504641533, -0.02017039619386196, 0.9691581130027771, 2.609523296356201, -0.8085730671882629, 8.900055885314941, 34.98980712890625, 139.3501739501953, -31.814054489135742, -0.146484375, -0.27587890625, -0.97021484375, 
293, 3639030657, -0.24185813963413239, -0.035718947649002075, -0.020641252398490906, 0.96943598985672, 2.32208251953125, -0.37133872509002686, 8.883857727050781, 29.158750534057617, 139.6217041015625, -31.01386070251465, -0.125, -0.283203125, -0.969482421875, 
294, 3639038990, -0.23943457007408142, -0.04581664502620697, -0.021935850381851196, 0.9695845246315002, 1.857625126838684, 0.12070558220148087, 8.745708465576172, 17.44234275817871, 138.99301147460938, -30.7309513092041, -0.107666015625, -0.28515625, -0.978515625, 
295, 3639047323, -0.23707106709480286, -0.0557175949215889, -0.0242200568318367, 0.9695925116539001, 1.5265167951583862, 0.1840675324201584, 8.272363662719727, 3.4059479236602783, 139.9527587890625, -30.16192054748535, -0.0888671875, -0.285888671875, -0.983154296875, 
296, 3639055656, -0.23481860756874084, -0.06561702489852905, -0.027095966041088104, 0.9694450497627258, 1.4486724138259888, -0.7770885229110718, 7.77558708190918, -4.511415958404541, 141.6883087158203, -28.614469528198242, -0.067626953125, -0.287841796875, -0.987548828125, 
297, 3639063989, -0.23275679349899292, -0.07540161162614822, -0.030224818736314774, 0.9691382646560669, 1.3716437816619873, -0.5791974067687988, 7.608710289001465, -8.599111557006836, 141.32826232910156, -25.848766326904297, -0.05517578125, -0.2900390625, -0.985595703125, 
298, 3639072322, -0.23078596591949463, -0.08526407182216644, -0.03301583603024483, 0.9687008261680603, 1.3100697994232178, -1.0802775621414185, 7.375813961029053, -3.88323974609375, 141.10116577148438, -23.81731414794922, -0.029541015625, -0.287353515625, -0.989990234375, 
299, 3639080655, -0.2288767397403717, -0.0950966402888298, -0.035508908331394196, 0.9681500792503357, 1.4591686725616455, -1.0926016569137573, 7.211592674255371, -0.2401120960712433, 140.16941833496094, -22.320383071899414, -0.01513671875, -0.286376953125, -0.9951171875, 
300, 3639088988, -0.2270694524049759, -0.10478377342224121, -0.03812921419739723, 0.9674757719039917, 1.4770087003707886, -0.2417142540216446, 7.120007514953613, -2.4766321182250977, 138.43804931640625, -20.79348373413086, 0.007080078125, -0.2880859375, -0.994140625, 
301, 3639097321, -0.22543178498744965, -0.11408284306526184, -0.04149612411856651, 0.9666680693626404, 1.080703854560852, 0.6876683235168457, 6.826498985290527, -14.039067268371582, 136.0461883544922, -19.420555114746094, 0.024169921875, -0.287353515625, -0.994384765625, 
302, 3639105654, -0.22394394874572754, -0.12314434349536896, -0.046206261962652206, 0.9656879305839539, 0.4494191110134125, 0.8463156819343567, 6.130123138427734, -32.86282730102539, 136.90138244628906, -19.114652633666992, 0.0439453125, -0.283203125, -0.9990234375, 
303, 3639113987, -0.22257786989212036, -0.132192462682724, -0.05244908481836319, 0.9644877910614014, -0.425062358379364, 0.3632926344871521, 4.90315055847168, -53.71638107299805, 142.09921264648438, -19.450672149658203, 0.060546875, -0.279296875, -0.999267578125, 
304, 3639122320, -0.22127455472946167, -0.14127828180789948, -0.05951251834630966, 0.9630887508392334, -1.7828527688980103, -0.7825473546981812, 3.575599431991577, -64.62942504882812, 145.0663299560547, -19.446739196777344, 0.079833984375, -0.271240234375, -1.0029296875, 
305, 3639130653, -0.21996250748634338, -0.15005886554718018, -0.06628362834453583, 0.9616177678108215, -2.510572910308838, -2.1408627033233643, 3.013733386993408, -61.84098434448242, 140.6414337158203, -19.051706314086914, 0.098876953125, -0.262939453125, -1.001708984375, 
306, 3639138986, -0.2186507284641266, -0.15813623368740082, -0.07176286727190018, 0.9602283239364624, -2.2798938751220703, -2.9574038982391357, 3.225200891494751, -46.69917678833008, 126.9052963256836, -17.245450973510742, 0.12109375, -0.255615234375, -1.00146484375, 
307, 3639147319, -0.21737822890281677, -0.16514155268669128, -0.0749635100364685, 0.9590928554534912, -2.2234883308410645, -3.049274444580078, 3.7248716354370117, -19.75692367553711, 105.64724731445312, -13.6046781539917, 0.1337890625, -0.2509765625, -1.00244140625, 
308, 3639155652, -0.21600894629955292, -0.17116987705230713, -0.07593511044979095, 0.9582685828208923, -2.36531925201416, -3.0306575298309326, 4.270233631134033, 7.350987911224365, 85.14981079101562, -11.743844032287598, 0.1494140625, -0.251220703125, -1.000732421875, 
309, 3639163985, -0.21454256772994995, -0.17621290683746338, -0.07565749436616898, 0.957705557346344, -2.0685837268829346, -1.8527287244796753, 5.036927700042725, 21.327547073364258, 68.2714614868164, -11.894665718078613, 0.155517578125, -0.252685546875, -1.00146484375, 
310, 3639172318, -0.21314887702465057, -0.18034112453460693, -0.07525904476642609, 0.9572795629501343, -2.068687915802002, -0.089933842420578, 5.686521053314209, 20.245800018310547, 55.12998962402344, -11.993596076965332, 0.16796875, -0.256103515625, -1.002197265625, 
311, 3639180651, -0.21182368695735931, -0.18383416533470154, -0.07573045045137405, 0.9568721652030945, -2.447638988494873, 0.7672253251075745, 6.177221298217773, 6.726993560791016, 49.527862548828125, -13.964683532714844, 0.173828125, -0.25927734375, -0.99560546875, 
312, 3639188984, -0.21061807870864868, -0.18704767525196075, -0.07799773663282394, 0.9563332796096802, -3.0035367012023926, 1.0476176738739014, 6.1428751945495605, -18.101577758789062, 50.96158981323242, -16.836204528808594, 0.17919921875, -0.2568359375, -0.998291015625, 
313, 3639197317, -0.2093587964773178, -0.1902357041835785, -0.08210887014865875, 0.9556363821029663, -3.459923505783081, 0.22759737074375153, 5.878054618835449, -42.524959564208984, 56.75379943847656, -21.8660831451416, 0.185546875, -0.254638671875, -0.998046875, 
314, 3639205650, -0.20802757143974304, -0.19355949759483337, -0.08754898607730865, 0.9547763466835022, -3.212879180908203, -0.6206481456756592, 5.651220798492432, -59.525638580322266, 62.54945755004883, -25.652666091918945, 0.1943359375, -0.24365234375, -0.998291015625, 
315, 3639213983, -0.20668599009513855, -0.19711975753307343, -0.09357332438230515, 0.9537674188613892, -2.3280999660491943, -1.2972321510314941, 5.570319175720215, -66.74486541748047, 68.04521942138672, -26.6434383392334, 0.205078125, -0.236572265625, -0.99755859375, 
316, 3639222316, -0.20544518530368805, -0.20110078155994415, -0.09910015761852264, 0.952645480632782, -2.114659547805786, -2.5332722663879395, 5.241870880126953, -59.36966323852539, 72.01611328125, -23.100385665893555, 0.21630859375, -0.227783203125, -0.999755859375, 
317, 3639230649, -0.20430923998355865, -0.20539066195487976, -0.10352213680744171, 0.9515036344528198, -2.464752197265625, -3.159553289413452, 4.929797172546387, -44.4005241394043, 73.16313934326172, -18.193580627441406, 0.226318359375, -0.22021484375, -0.998291015625, 
318, 3639238982, -0.20322513580322266, -0.20977434515953064, -0.10666155815124512, 0.9504321217536926, -2.962347984313965, -3.0515992641448975, 4.780153751373291, -27.341747283935547, 70.20393371582031, -13.958497047424316, 0.234130859375, -0.215087890625, -0.99560546875, 
319, 3639247315, -0.20214635133743286, -0.21397806704044342, -0.1085851639509201, 0.9495067596435547, -3.6060056686401367, -3.0741515159606934, 4.681169033050537, -11.790916442871094, 64.3297119140625, -11.037675857543945, 0.241943359375, -0.21142578125, -0.993408203125, 
320, 3639255648, -0.2010694295167923, -0.2178833931684494, -0.10980618745088577, 0.9487066268920898, -4.010131359100342, -2.82684588432312, 4.616923809051514, -3.229170799255371, 57.80268096923828, -9.755722999572754, 0.25146484375, -0.210205078125, -0.993896484375, 
321, 3639263981, -0.2000385820865631, -0.2213239222764969, -0.11085286736488342, 0.9480061531066895, -4.150514602661133, -2.3239176273345947, 4.63054895401001, -2.2408151626586914, 51.17821502685547, -9.58525276184082, 0.26025390625, -0.208740234375, -0.9912109375, 
322, 3639272314, -0.19916296005249023, -0.22428706288337708, -0.11215653270483017, 0.9473404288291931, -4.297399044036865, -2.018402099609375, 4.573746681213379, -7.309625625610352, 45.030670166015625, -9.191635131835938, 0.26416015625, -0.214111328125, -0.989990234375, 
323, 3639280647, -0.1985301375389099, -0.2268030047416687, -0.11401838809251785, 0.9466517567634583, -4.198147296905518, -1.9733531475067139, 4.421572208404541, -16.591930389404297, 40.69718551635742, -8.344876289367676, 0.271484375, -0.20751953125, -0.9931640625, 
324, 3639288980, -0.19828897714614868, -0.2289734184741974, -0.11665910482406616, 0.9458577036857605, -3.796210289001465, -1.6102086305618286, 4.232085704803467, -29.059125900268555, 37.773345947265625, -5.961033344268799, 0.2744140625, -0.204833984375, -0.990478515625, 
325, 3639297313, -0.198497474193573, -0.2308676540851593, -0.11996924877166748, 0.9449389576911926, -3.7809531688690186, -1.1903185844421387, 3.8569836616516113, -40.1265754699707, 35.92591857910156, -2.2862303256988525, 0.28173828125, -0.203857421875, -0.98828125, 
326, 3639305646, -0.19901089370250702, -0.23274831473827362, -0.12377981096506119, 0.943877637386322, -4.0497727394104, -1.5003372430801392, 3.2967369556427, -47.87933349609375, 36.816471099853516, 0.4182177782058716, 0.28466796875, -0.19970703125, -0.990234375, 
327, 3639313979, -0.19969166815280914, -0.23474836349487305, -0.1279739886522293, 0.9426784515380859, -4.099900245666504, -1.8137881755828857, 2.680032730102539, -53.28426742553711, 39.80043029785156, 1.9839708805084229, 0.29248046875, -0.191650390625, -0.986572265625, 
328, 3639322312, -0.20044976472854614, -0.2369317263364792, -0.13219091296195984, 0.9413885474205017, -4.45340633392334, -1.9286396503448486, 2.061103105545044, -53.502872467041016, 42.16946029663086, 3.4424009323120117, 0.29248046875, -0.18603515625, -0.988525390625, 
329, 3639330645, -0.2012835592031479, -0.23905614018440247, -0.1360226422548294, 0.9401268362998962, -4.863038539886475, -2.3169867992401123, 1.6407606601715088, -48.84406280517578, 40.31007385253906, 5.543055534362793, 0.300537109375, -0.175048828125, -0.984130859375, 
330, 3639338978, -0.20216646790504456, -0.24098072946071625, -0.1391575038433075, 0.9389864802360535, -5.081910610198975, -2.284249782562256, 1.3971120119094849, -40.35307312011719, 35.11083984375, 7.708175182342529, 0.304931640625, -0.17236328125, -0.9873046875, 
331, 3639347311, -0.20309874415397644, -0.24250993132591248, -0.1414131373167038, 0.9380542635917664, -5.274874210357666, -2.0010318756103516, 1.1756585836410522, -29.816679000854492, 26.933626174926758, 9.980998039245605, 0.309326171875, -0.167236328125, -0.9833984375, 
332, 3639355644, -0.20399442315101624, -0.24359622597694397, -0.1428622454404831, 0.9373586177825928, -5.148429870605469, -1.9394711256027222, 1.005013108253479, -20.113975524902344, 18.091846466064453, 10.62109088897705, 0.312744140625, -0.163330078125, -0.987548828125, 
333, 3639363977, -0.2048225998878479, -0.2441914677619934, -0.14370249211788177, 0.936894416809082, -4.820818901062012, -1.7181389331817627, 0.8570751547813416, -12.899868965148926, 9.523259162902832, 10.234232902526855, 0.314697265625, -0.162353515625, -0.985595703125, 
334, 3639372310, -0.20565742254257202, -0.2442423403263092, -0.14416509866714478, 0.9366273880004883, -4.553281307220459, -1.162145733833313, 0.9110896587371826, -9.264593124389648, 0.6609370112419128, 9.899020195007324, 0.315185546875, -0.160400390625, -0.984619140625, 
335, 3639380643, -0.20662491023540497, -0.24372702836990356, -0.14445562660694122, 0.9365038275718689, -4.61806058883667, -0.5924451947212219, 1.0092109441757202, -8.735276222229004, -7.793671131134033, 10.71634578704834, 0.313720703125, -0.161376953125, -0.985107421875, 
336, 3639388976, -0.2077341377735138, -0.2426285743713379, -0.1447104662656784, 0.9365044832229614, -5.223804950714111, -0.5793339610099792, 1.0658462047576904, -10.234734535217285, -16.17229461669922, 11.0892915725708, 0.313720703125, -0.161376953125, -0.986083984375, 
337, 3639397309, -0.20894409716129303, -0.24089118838310242, -0.14515982568264008, 0.9366140365600586, -5.6360673904418945, -0.5402621030807495, 1.1488902568817139, -14.607657432556152, -24.379751205444336, 10.210163116455078, 0.311767578125, -0.159912109375, -0.98876953125, 
338, 3639405642, -0.21025024354457855, -0.23852697014808655, -0.14579170942306519, 0.9368287324905396, -5.571208953857422, -0.512962818145752, 1.3983573913574219, -18.94613265991211, -32.49935531616211, 9.238157272338867, 0.30517578125, -0.159423828125, -0.988037109375, 
339, 3639413975, -0.21165350079536438, -0.23561348021030426, -0.14638082683086395, 0.9371580481529236, -5.4021687507629395, -0.4429357945919037, 1.8122552633285522, -19.99189567565918, -40.285221099853516, 9.240646362304688, 0.2998046875, -0.157470703125, -0.98828125, 
340, 3639422308, -0.2130751609802246, -0.2321663200855255, -0.1467876434326172, 0.9376324415206909, -5.330568313598633, -0.36829379200935364, 2.27329683303833, -19.043304443359375, -48.18617248535156, 8.528779029846191, 0.29638671875, -0.156982421875, -0.987548828125, 
341, 3639430641, -0.21432927250862122, -0.22825834155082703, -0.14699923992156982, 0.9382727742195129, -4.996254920959473, -0.46571362018585205, 2.6816179752349854, -16.9273681640625, -54.945919036865234, 5.609674453735352, 0.2900390625, -0.1533203125, -0.99072265625, 
342, 3639438974, -0.21530388295650482, -0.22402770817279816, -0.1470443159341812, 0.9390618801116943, -4.355983257293701, -0.45700690150260925, 3.057180881500244, -14.630949974060059, -59.44568634033203, 1.3986314535140991, 0.283935546875, -0.14794921875, -0.99365234375, 
343, 3639447307, -0.2160043567419052, -0.21957619488239288, -0.14692537486553192, 0.9399706125259399, -3.9213173389434814, -0.5050479173660278, 3.5156233310699463, -12.003104209899902, -62.683837890625, -2.407644033432007, 0.274169921875, -0.149658203125, -0.9970703125, 
344, 3639455640, -0.2164805680513382, -0.21497006714344025, -0.14660723507404327, 0.94097501039505, -4.020644664764404, -0.6941338777542114, 3.868016004562378, -9.093318939208984, -65.0237045288086, -5.33157205581665, 0.268310546875, -0.147216796875, -0.997802734375, 
345, 3639463973, -0.2167871594429016, -0.210244283080101, -0.14611965417861938, 0.9420474767684937, -4.389886856079102, -0.7261683344841003, 4.060242176055908, -6.545565128326416, -67.03998565673828, -7.445626735687256, 0.25927734375, -0.144287109375, -0.999267578125, 
346, 3639472306, -0.2169615626335144, -0.20541784167289734, -0.14550718665122986, 0.943166196346283, -4.60063362121582, -0.9385414719581604, 4.227707386016846, -4.826253414154053, -68.47990417480469, -9.159226417541504, 0.25048828125, -0.1435546875, -1.002197265625, 
347, 3639480639, -0.21709516644477844, -0.2005380392074585, -0.14483004808425903, 0.9442890286445618, -4.436543941497803, -1.1265209913253784, 4.400306701660156, -3.9483485221862793, -69.42021942138672, -9.609221458435059, 0.239501953125, -0.144287109375, -1.000732421875, 
348, 3639488972, -0.21720725297927856, -0.1956360638141632, -0.14404885470867157, 0.9454104900360107, -4.087937831878662, -1.3355937004089355, 4.542179107666016, -2.681028127670288, -69.84745788574219, -9.657607078552246, 0.230224609375, -0.142822265625, -1.004150390625, 
349, 3639497305, -0.21729245781898499, -0.19076648354530334, -0.14318200945854187, 0.9465171694755554, -3.6151604652404785, -1.5163222551345825, 4.674459457397461, -1.352078914642334, -69.73280334472656, -9.655993461608887, 0.225341796875, -0.1435546875, -1.0048828125, 
350, 3639505638, -0.21735045313835144, -0.18588031828403473, -0.14228998124599457, 0.9476099610328674, -3.2198832035064697, -1.4371907711029053, 4.682552337646484, -1.1057713031768799, -69.79063415527344, -9.947612762451172, 0.21337890625, -0.14111328125, -1.00830078125, 
351, 3639513971, -0.21738000214099884, -0.1809568554162979, -0.1415722370147705, 0.948663055896759, -2.7635228633880615, -1.522628664970398, 4.496597766876221, -3.411984443664551, -69.75111389160156, -10.708691596984863, 0.2060546875, -0.139892578125, -1.009765625, 
352, 3639522304, -0.21755501627922058, -0.17592714726924896, -0.14129115641117096, 0.9496104717254639, -2.0655579566955566, -1.3349956274032593, 4.430787563323975, -10.074610710144043, -69.70050811767578, -9.798539161682129, 0.1943359375, -0.141357421875, -1.00927734375, 
353, 3639530637, -0.2180609107017517, -0.17050231993198395, -0.14146484434604645, 0.9504575133323669, -2.243317127227783, -0.948742687702179, 4.5812578201293945, -18.1054630279541, -74.05521392822266, -7.0357537269592285, 0.187744140625, -0.1376953125, -1.012451171875, 
354, 3639538970, -0.21879613399505615, -0.16443586349487305, -0.1419139951467514, 0.9512901306152344, -3.0202066898345947, -1.2861673831939697, 4.644386291503906, -24.28152847290039, -81.87063598632812, -5.8980231285095215, 0.175537109375, -0.137451171875, -1.013916015625, 
355, 3639547303, -0.21961677074432373, -0.15775102376937866, -0.14257487654685974, 0.95213383436203, -2.9555423259735107, -1.7801077365875244, 4.695788860321045, -28.997282028198242, -89.67727661132812, -6.495077610015869, 0.16455078125, -0.134521484375, -1.013671875, 
356, 3639555636, -0.22041626274585724, -0.15042048692703247, -0.14323320984840393, 0.9530363082885742, -2.6420435905456543, -1.8049523830413818, 4.947263240814209, -30.83872413635254, -98.06365203857422, -8.21387004852295, 0.152587890625, -0.126220703125, -1.018798828125, 
357, 3639563969, -0.22112254798412323, -0.14251096546649933, -0.14366726577281952, 0.9540223479270935, -2.6407692432403564, -2.153911828994751, 5.311561584472656, -29.203792572021484, -106.48931884765625, -10.364604949951172, 0.142333984375, -0.124755859375, -1.017333984375, 
358, 3639572302, -0.22171667218208313, -0.1341492235660553, -0.1437997817993164, 0.955076277256012, -2.227576971054077, -2.3636040687561035, 5.617946624755859, -26.36294937133789, -113.08252716064453, -12.345083236694336, 0.1240234375, -0.1181640625, -1.0185546875, 
359, 3639580635, -0.22221988439559937, -0.12555070221424103, -0.1436985582113266, 0.9561430811882019, -1.5678982734680176, -2.3289108276367188, 5.860095977783203, -23.719135284423828, -116.91838836669922, -13.616776466369629, 0.111083984375, -0.11767578125, -1.017333984375, 
360, 3639588968, -0.22272056341171265, -0.11693239212036133, -0.14350733160972595, 0.9571475982666016, -0.9625973701477051, -2.2918524742126465, 5.982308387756348, -22.817323684692383, -117.17192077636719, -13.343086242675781, 0.09912109375, -0.112060546875, -1.01904296875, 
361, 3639597301, -0.22330635786056519, -0.10851316899061203, -0.14335215091705322, 0.9580255150794983, -0.5135017037391663, -2.1928319931030273, 6.0613226890563965, -22.95872688293457, -114.5649642944336, -11.49980354309082, 0.08154296875, -0.10986328125, -1.023193359375, 
362, 3639605634, -0.2240627408027649, -0.10038468986749649, -0.14325249195098877, 0.9587498903274536, -0.2311975210905075, -2.185242176055908, 6.171016693115234, -23.4642391204834, -110.5108413696289, -8.291166305541992, 0.066162109375, -0.107421875, -1.02099609375, 
363, 3639613967, -0.22508108615875244, -0.09238246083259583, -0.14322714507579803, 0.9593193531036377, -0.4372401535511017, -2.0586884021759033, 6.4596405029296875, -24.60538101196289, -109.0630111694336, -4.212998390197754, 0.0498046875, -0.10205078125, -1.017333984375, 
364, 3639622300, -0.22622135281562805, -0.08431392163038254, -0.14304684102535248, 0.9598209261894226, -1.226179599761963, -2.1585452556610107, 6.666408061981201, -23.172279357910156, -110.42716979980469, -2.329820156097412, 0.035400390625, -0.101806640625, -1.015625, 
365, 3639630633, -0.2273045778274536, -0.07606995105743408, -0.14262951910495758, 0.9603157043457031, -1.2275424003601074, -2.3771369457244873, 6.841903209686279, -20.41883087158203, -113.49182891845703, -3.1316583156585693, 0.02197265625, -0.098876953125, -1.016845703125, 
366, 3639638966, -0.22820723056793213, -0.06762509793043137, -0.14174072444438934, 0.9608650207519531, -0.657670259475708, -2.3069050312042236, 7.0781426429748535, -14.642223358154297, -117.19023895263672, -5.587429523468018, 0.007080078125, -0.09521484375, -1.017578125, 
367, 3639647299, -0.2288944125175476, -0.05901363864541054, -0.14024168252944946, 0.9614886045455933, -0.16008837521076202, -2.297712802886963, 7.3839287757873535, -6.635249137878418, -121.07669830322266, -8.42680835723877, -0.009521484375, -0.09423828125, -1.016357421875, 
368, 3639655632, -0.2293575406074524, -0.0502995103597641, -0.13807252049446106, 0.9621872901916504, 0.25239962339401245, -2.3266122341156006, 7.625388145446777, 2.108630895614624, -124.05191802978516, -11.27710247039795, -0.0244140625, -0.095458984375, -1.017333984375, 
369, 3639663965, -0.2296077013015747, -0.04156411811709404, -0.13543292880058289, 0.9629195928573608, 0.5767404437065125, -2.2712180614471436, 7.703916549682617, 8.597192764282227, -125.53791046142578, -13.917561531066895, -0.042724609375, -0.0947265625, -1.01171875, 
370, 3639672298, -0.22966620326042175, -0.03292475640773773, -0.13267728686332703, 0.9636232256889343, 1.0005357265472412, -2.074873924255371, 7.478565692901611, 10.370976448059082, -124.1568832397461, -16.119646072387695, -0.05615234375, -0.09423828125, -1.009521484375, 
371, 3639680631, -0.22970953583717346, -0.024439511820673943, -0.13023310899734497, 0.964198648929596, 1.647367000579834, -1.83376145362854, 7.411172389984131, 6.62581205368042, -121.12516784667969, -15.776374816894531, -0.07275390625, -0.097900390625, -1.005615234375, 
372, 3639688964, -0.22992725670337677, -0.016091305762529373, -0.12815631926059723, 0.9646004438400269, 1.6995848417282104, -1.6567109823226929, 7.280981063842773, 1.6969002485275269, -118.32235717773438, -12.790986061096191, -0.087646484375, -0.09765625, -1.00439453125, 
373, 3639697297, -0.23037827014923096, -0.00794061180204153, -0.12645746767520905, 0.9648185968399048, 1.5813969373703003, -1.8945808410644531, 7.114726543426514, -2.950230836868286, -114.9288101196289, -8.852665901184082, -0.10693359375, -0.098388671875, -1.000244140625, 
374, 3639705630, -0.23102372884750366, 0.00016145175322890282, -0.12504293024539948, 0.9648812413215637, 1.607810378074646, -1.987991452217102, 7.0173115730285645, -6.979036808013916, -113.65312957763672, -5.7248215675354, -0.120849609375, -0.094970703125, -0.998046875, 
375, 3639713963, -0.23174837231636047, 0.008468471467494965, -0.12371407449245453, 0.9648415446281433, 1.5627005100250244, -2.075376033782959, 7.220821380615234, -8.826028823852539, -116.26445007324219, -4.702651023864746, -0.133056640625, -0.096435546875, -0.99267578125, 
376, 3639722296, -0.23245859146118164, 0.01715019904077053, -0.12214375287294388, 0.964755654335022, 1.7091439962387085, -2.378786325454712, 7.560651779174805, -7.012296676635742, -121.95948028564453, -5.411539554595947, -0.14892578125, -0.0966796875, -0.993896484375, 
377, 3639730629, -0.233098566532135, 0.02628898248076439, -0.12002778053283691, 0.9646610021591187, 1.9796432256698608, -2.6320788860321045, 7.8443379402160645, -1.1526832580566406, -129.65916442871094, -7.211204528808594, -0.163330078125, -0.09375, -0.988525390625, 
378, 3639738962, -0.2335980236530304, 0.03585287928581238, -0.11727093160152435, 0.9645712971687317, 2.228445529937744, -2.4857048988342285, 8.075098991394043, 5.831395149230957, -137.11170959472656, -10.025553703308105, -0.1796875, -0.0927734375, -0.982421875, 
379, 3639747295, -0.23391351103782654, 0.04573090001940727, -0.11420083791017532, 0.9644453525543213, 2.690781593322754, -2.2281317710876465, 8.296082496643066, 8.943025588989258, -141.9934844970703, -13.009037971496582, -0.195556640625, -0.0947265625, -0.973388671875, 
380, 3639755628, -0.23412786424160004, 0.055791888386011124, -0.11117243021726608, 0.9642175436019897, 3.2439804077148438, -1.8972456455230713, 8.506083488464355, 7.463013172149658, -144.2039031982422, -14.285579681396484, -0.2158203125, -0.099609375, -0.96923828125, 
381, 3639763961, -0.2343359887599945, 0.06577936559915543, -0.10843931138515472, 0.9638486504554749, 3.7276947498321533, -1.8939498662948608, 8.709489822387695, 3.6743898391723633, -142.34019470214844, -13.572638511657715, -0.234375, -0.099609375, -0.965576171875, 
382, 3639772294, -0.2345428168773651, 0.07541777193546295, -0.10631554573774338, 0.9633287191390991, 3.917160749435425, -1.6892434358596802, 8.656208992004395, -3.6140224933624268, -135.92149353027344, -12.03276538848877, -0.24951171875, -0.0986328125, -0.95703125, 
383, 3639780627, -0.23471564054489136, 0.08457446843385696, -0.10499319434165955, 0.962671160697937, 4.170196533203125, -1.5601567029953003, 8.382974624633789, -12.813631057739258, -126.98253631591797, -10.500632286071777, -0.271728515625, -0.098388671875, -0.949951171875, 
384, 3639788960, -0.23483595252037048, 0.09332866966724396, -0.10448402166366577, 0.9618880152702332, 4.5332136154174805, -1.670254111289978, 8.131335258483887, -22.621891021728516, -119.16468811035156, -9.26694107055664, -0.28173828125, -0.09326171875, -0.943603515625, 
385, 3639797293, -0.234920933842659, 0.10187225788831711, -0.10454045236110687, 0.960993766784668, 4.645926475524902, -1.627974271774292, 7.910531997680664, -29.53472900390625, -114.55226135253906, -8.338740348815918, -0.295654296875, -0.09130859375, -0.9404296875, 
386, 3639805626, -0.23494476079940796, 0.11039851605892181, -0.10476232320070267, 0.9600215554237366, 4.801878452301025, -2.188804864883423, 7.771359920501709, -31.95745849609375, -113.90076446533203, -8.647703170776367, -0.30712890625, -0.087158203125, -0.9296875, 
387, 3639813959, -0.2349662184715271, 0.11921244859695435, -0.10458296537399292, 0.9589813947677612, 4.90744686126709, -2.7017557621002197, 7.796004295349121, -27.601472854614258, -118.97802734375, -9.46852970123291, -0.323974609375, -0.08544921875, -0.923095703125, 
388, 3639822292, -0.23503196239471436, 0.12849172949790955, -0.10334554314613342, 0.9579004645347595, 4.705826759338379, -3.043877363204956, 7.962212085723877, -15.226686477661133, -128.78225708007812, -11.1692533493042, -0.3369140625, -0.083984375, -0.916259765625, 
389, 3639830625, -0.23512214422225952, 0.13842171430587769, -0.10099322348833084, 0.956744909286499, 4.596091270446777, -2.7446701526641846, 8.253252983093262, -2.6179747581481934, -140.98284912109375, -13.48608112335205, -0.350830078125, -0.083984375, -0.908935546875, 
390, 3639838958, -0.2351323962211609, 0.1489751636981964, -0.09795034676790237, 0.9554728269577026, 4.856440544128418, -2.046407461166382, 8.492602348327637, 4.0499372482299805, -151.67120361328125, -16.35684585571289, -0.37060546875, -0.08251953125, -0.898681640625, 
391, 3639847291, -0.23501186072826385, 0.16009587049484253, -0.09505612403154373, 0.9539950489997864, 5.250715255737305, -1.1421879529953003, 8.734538078308105, -0.19766950607299805, -158.73130798339844, -17.852832794189453, -0.385498046875, -0.081787109375, -0.889892578125, 
392, 3639855624, -0.23460936546325684, 0.17147766053676605, -0.09313511103391647, 0.9523041248321533, 5.6433281898498535, -0.26444169878959656, 8.836698532104492, -14.793018341064453, -159.2695770263672, -19.08004379272461, -0.4072265625, -0.082763671875, -0.87744140625, 
393, 3639863957, -0.23371395468711853, 0.1826643943786621, -0.09288612008094788, 0.9504668712615967, 6.015229225158691, 0.16877901554107666, 8.52357006072998, -37.34318542480469, -150.8604736328125, -20.84659767150879, -0.423095703125, -0.083251953125, -0.867919921875, 
394, 3639872290, -0.2322980910539627, 0.19331392645835876, -0.09430138021707535, 0.9485662579536438, 6.4166483879089355, -0.4749322235584259, 8.078742980957031, -58.82535171508789, -138.15823364257812, -22.601816177368164, -0.436767578125, -0.0771484375, -0.853759765625, 
395, 3639880623, -0.23052281141281128, 0.20352394878864288, -0.09663635492324829, 0.9466268420219421, 6.757328987121582, -1.4979125261306763, 7.931715488433838, -70.37482452392578, -128.9332275390625, -24.11493682861328, -0.4541015625, -0.07373046875, -0.84375, 
396, 3639888956, -0.2284635305404663, 0.2135782688856125, -0.09914974123239517, 0.9446489214897156, 6.927013874053955, -2.1202375888824463, 8.091986656188965, -73.09976959228516, -126.26158142089844, -27.020492553710938, -0.466796875, -0.065185546875, -0.835693359375, 
397, 3639897289, -0.226345494389534, 0.2239217609167099, -0.10094539076089859, 0.9425712823867798, 6.7653374671936035, -3.148843765258789, 8.27243709564209, -64.95155334472656, -132.2768096923828, -29.92721939086914, -0.473876953125, -0.05810546875, -0.82275390625, 
398, 3639905622, -0.22431984543800354, 0.23481526970863342, -0.10129062831401825, 0.9403649568557739, 6.645188808441162, -4.059366703033447, 8.395421981811523, -47.798675537109375, -144.65512084960938, -33.60336685180664, -0.493896484375, -0.054443359375, -0.8134765625, 
399, 3639913955, -0.22249585390090942, 0.2463056892156601, -0.09986697882413864, 0.9380080699920654, 6.798409461975098, -4.2175421714782715, 8.644926071166992, -26.277938842773438, -158.37692260742188, -37.02738952636719, -0.5107421875, -0.052490234375, -0.796875, 
400, 3639922288, -0.22092613577842712, 0.25821664929389954, -0.09687863290309906, 0.9354858994483948, 7.16582727432251, -3.893096923828125, 8.786836624145508, -6.793998718261719, -169.7196502685547, -39.16800308227539, -0.521240234375, -0.05419921875, -0.78271484375, 
401, 3639930621, -0.2196102738380432, 0.2703394889831543, -0.09295576810836792, 0.9327651262283325, 7.57181978225708, -3.3163063526153564, 8.855049133300781, 5.2722649574279785, -176.10009765625, -38.851707458496094, -0.5419921875, -0.0576171875, -0.7685546875, 
402, 3639938954, -0.21842961013317108, 0.2822036147117615, -0.08878043293952942, 0.9299308657646179, 7.997304916381836, -2.663811683654785, 8.6317138671875, 9.599985122680664, -174.3673553466797, -37.42987823486328, -0.556396484375, -0.0615234375, -0.7529296875, 
403, 3639947287, -0.21720224618911743, 0.2935338616371155, -0.08494283258914948, 0.9270648956298828, 7.91547966003418, -2.1916496753692627, 8.381860733032227, 6.710294246673584, -166.35447692871094, -35.92027282714844, -0.574462890625, -0.066162109375, -0.73388671875, 
404, 3639955620, -0.21566025912761688, 0.3038795590400696, -0.08187064528465271, 0.9243638515472412, 8.162044525146484, -2.032712459564209, 7.835565567016602, -1.2299962043762207, -150.71820068359375, -36.232826232910156, -0.5888671875, -0.067626953125, -0.720703125, 
405, 3639963953, -0.2136421501636505, 0.3132950961589813, -0.0798712968826294, 0.9218607544898987, 8.933109283447266, -2.2445027828216553, 7.506613731384277, -13.836356163024902, -134.10643005371094, -37.28879928588867, -0.601318359375, -0.071533203125, -0.7041015625, 
406, 3639972286, -0.21147280931472778, 0.32226210832595825, -0.07829324156045914, 0.9194020628929138, 9.1628999710083, -2.7494399547576904, 7.650317668914795, -18.502504348754883, -127.06783294677734, -37.082340240478516, -0.610107421875, -0.07421875, -0.692626953125, 
407, 3639980619, -0.20948021113872528, 0.33133846521377563, -0.07607850432395935, 0.9168142676353455, 8.716950416564941, -3.8152918815612793, 8.037860870361328, -10.089664459228516, -130.811767578125, -37.35195541381836, -0.6220703125, -0.07666015625, -0.6787109375, 
408, 3639988952, -0.2078695297241211, 0.3407093584537506, -0.07260286808013916, 0.9140239357948303, 8.588356018066406, -4.51663875579834, 8.263130187988281, 6.450181007385254, -139.73272705078125, -38.06545639038086, -0.634033203125, -0.078857421875, -0.662353515625, 
409, 3639997285, -0.20675481855869293, 0.3504961431026459, -0.06763269007205963, 0.9109525084495544, 8.888498306274414, -4.4698944091796875, 8.393569946289062, 26.1315860748291, -150.79159545898438, -38.39316940307617, -0.646484375, -0.084228515625, -0.645751953125, 
410, 3640005618, -0.20618626475334167, 0.3606395125389099, -0.061374373733997345, 0.9075589179992676, 9.267958641052246, -4.05527925491333, 8.60838508605957, 43.545692443847656, -161.23609924316406, -37.229000091552734, -0.661865234375, -0.08740234375, -0.630126953125, 
411, 3640013951, -0.20608723163604736, 0.3710222840309143, -0.054467178881168365, 0.9038292765617371, 9.603692054748535, -3.353520393371582, 8.957294464111328, 53.0546989440918, -167.87310791015625, -33.792938232421875, -0.6708984375, -0.09716796875, -0.611572265625, 
412, 3640022284, -0.20616310834884644, 0.3813154697418213, -0.04768522083759308, 0.8999027013778687, 10.087519645690918, -2.4537148475646973, 9.233691215515137, 52.45359420776367, -167.79562377929688, -30.397266387939453, -0.679931640625, -0.103271484375, -0.588623046875, 
413, 3640030617, -0.20611898601055145, 0.39137059450149536, -0.041651248931884766, 0.8958865404129028, 10.24001407623291, -1.8817315101623535, 9.229018211364746, 43.22368621826172, -162.86944580078125, -27.5103702545166, -0.69287109375, -0.110107421875, -0.57275390625, 
414, 3640038950, -0.20562702417373657, 0.40085065364837646, -0.036832671612501144, 0.8920107483863831, 10.219989776611328, -1.4540534019470215, 8.898080825805664, 27.510011672973633, -151.57518005371094, -26.59606170654297, -0.704833984375, -0.11474609375, -0.553466796875, 
415, 3640047283, -0.20445546507835388, 0.40946516394615173, -0.03336155414581299, 0.8884970545768738, 10.72486400604248, -1.383743166923523, 8.41494369506836, 9.896879196166992, -134.56536865234375, -28.045597076416016, -0.714599609375, -0.120849609375, -0.53369140625, 
416, 3640055616, -0.2026032954454422, 0.41698840260505676, -0.031179919838905334, 0.8854965567588806, 11.438661575317383, -1.7633687257766724, 7.923388957977295, -6.4181108474731445, -114.64651489257812, -30.08513641357422, -0.7177734375, -0.12109375, -0.52197265625, 
417, 3640063949, -0.20024895668029785, 0.4235824942588806, -0.03006424754858017, 0.8829371333122253, 12.065665245056152, -2.408785820007324, 7.555257320404053, -19.476816177368164, -97.37663269042969, -30.87031364440918, -0.727783203125, -0.12451171875, -0.507568359375, 
418, 3640072282, -0.19780392944812775, 0.4295476973056793, -0.02930777706205845, 0.8806288242340088, 12.228326797485352, -2.8910396099090576, 7.30177640914917, -22.55384635925293, -87.49110412597656, -30.35923194885254, -0.7333984375, -0.128173828125, -0.494384765625, 
419, 3640080615, -0.1955670267343521, 0.4353230595588684, -0.02820819802582264, 0.8783252835273743, 11.876017570495605, -3.678521156311035, 7.227512836456299, -16.629526138305664, -85.93953704833984, -29.749771118164062, -0.736328125, -0.13037109375, -0.482177734375, 
420, 3640088948, -0.19380854070186615, 0.44125425815582275, -0.026275280863046646, 0.875811755657196, 11.156905174255371, -4.143684387207031, 7.047778606414795, -4.2218241691589355, -91.74855041503906, -28.507619857788086, -0.74267578125, -0.134521484375, -0.47607421875, 
421, 3640097281, -0.19262829422950745, 0.44768238067626953, -0.02326502837240696, 0.8728901147842407, 10.74966812133789, -4.436460494995117, 7.037985801696777, 10.812838554382324, -103.04696655273438, -27.12713050842285, -0.743408203125, -0.14013671875, -0.461669921875, 
422, 3640105614, -0.19205188751220703, 0.45466503500938416, -0.01930893212556839, 0.8694980144500732, 10.525266647338867, -4.087049961090088, 7.153932094573975, 24.243404388427734, -115.5409164428711, -24.678865432739258, -0.7509765625, -0.137939453125, -0.44873046875, 
423, 3640113947, -0.1919330507516861, 0.4620625972747803, -0.01474825944751501, 0.8657054305076599, 10.493081092834473, -3.4839069843292236, 7.362149715423584, 33.15700912475586, -124.48896789550781, -22.003726959228516, -0.75537109375, -0.14794921875, -0.432373046875, 
424, 3640122280, -0.19209662079811096, 0.4695490002632141, -0.009962290525436401, 0.8617000579833984, 10.657102584838867, -3.0724599361419678, 7.593132972717285, 37.32844161987305, -127.7865982055664, -19.567182540893555, -0.762939453125, -0.15234375, -0.414306640625, 
425, 3640130613, -0.1923414170742035, 0.47687819600105286, -0.0052337925881147385, 0.8576525449752808, 10.7589693069458, -2.639840841293335, 7.730983257293701, 37.61027908325195, -125.83002471923828, -18.071685791015625, -0.77099609375, -0.153564453125, -0.39990234375, 
426, 3640138946, -0.1924552321434021, 0.4837968647480011, -0.0007608160376548767, 0.8537588715553284, 10.705606460571289, -2.3117423057556152, 7.808233737945557, 34.805484771728516, -119.51790618896484, -18.346223831176758, -0.77294921875, -0.15869140625, -0.38525390625, 
427, 3640147279, -0.19227559864521027, 0.4901100695133209, 0.0032928213477134705, 0.8501850366592407, 10.897842407226562, -2.237224578857422, 7.668455123901367, 29.562793731689453, -108.95762634277344, -19.819217681884766, -0.778564453125, -0.165283203125, -0.366455078125, 
428, 3640155612, -0.19179460406303406, 0.49572455883026123, 0.006825314834713936, 0.8470116853713989, 11.671356201171875, -2.3633828163146973, 7.380621910095215, 23.241249084472656, -96.9363784790039, -20.943056106567383, -0.783935546875, -0.16796875, -0.3525390625, 
429, 3640163945, -0.1913461983203888, 0.500777006149292, 0.01002565398812294, 0.8441041707992554, 12.24545955657959, -2.537384510040283, 7.199331760406494, 21.07625389099121, -87.49964904785156, -19.031469345092773, -0.784423828125, -0.1728515625, -0.342041015625, 
430, 3640172278, -0.1911962330341339, 0.5054063200950623, 0.0132888313382864, 0.8413294553756714, 11.921928405761719, -2.7924256324768066, 7.082737445831299, 24.932666778564453, -81.99684143066406, -16.430334091186523, -0.788330078125, -0.1796875, -0.332275390625, 
431, 3640180611, -0.19155538082122803, 0.5099316239356995, 0.01688765548169613, 0.838447630405426, 10.80739688873291, -3.177767038345337, 6.983449935913086, 32.66783142089844, -82.13763427734375, -12.592264175415039, -0.7939453125, -0.179931640625, -0.319091796875, 
432, 3640188944, -0.19237524271011353, 0.5147318243980408, 0.020790286362171173, 0.8352329134941101, 9.865389823913574, -2.789280891418457, 7.023410797119141, 38.73286437988281, -88.52432250976562, -8.488154411315918, -0.798583984375, -0.18359375, -0.307861328125, 
433, 3640197277, -0.19345709681510925, 0.520036518573761, 0.024804366752505302, 0.8315795063972473, 9.676790237426758, -2.1398799419403076, 7.2151947021484375, 40.68072509765625, -97.4696044921875, -4.951446533203125, -0.800048828125, -0.18896484375, -0.300048828125, 
434, 3640205610, -0.19461725652217865, 0.5257187485694885, 0.028701813891530037, 0.8276011347770691, 9.803140640258789, -1.7830876111984253, 7.443122386932373, 38.99126052856445, -103.94878387451172, -2.2401812076568604, -0.800048828125, -0.187744140625, -0.28466796875, 
435, 3640213943, -0.19580796360969543, 0.5314992070198059, 0.03243733197450638, 0.823479950428009, 9.936342239379883, -1.6516807079315186, 7.57393741607666, 37.184059143066406, -105.49826049804688, -0.2938881516456604, -0.806640625, -0.19140625, -0.268798828125, 
436, 3640222276, -0.19698087871074677, 0.5371098518371582, 0.03612858057022095, 0.8193961381912231, 9.87402057647705, -1.5651636123657227, 7.5761308670043945, 36.971187591552734, -103.34532928466797, -0.3535442352294922, -0.808837890625, -0.192138671875, -0.251953125, 
437, 3640230609, -0.19811666011810303, 0.5423510074615479, 0.039891112595796585, 0.8154860734939575, 9.922382354736328, -1.4267903566360474, 7.5369648933410645, 38.433021545410156, -97.97675323486328, -1.9500689506530762, -0.8095703125, -0.195556640625, -0.2353515625, 
438, 3640238942, -0.1992218792438507, 0.5470172762870789, 0.04380118101835251, 0.8118916153907776, 10.134622573852539, -1.3551636934280396, 7.421146392822266, 41.23555374145508, -89.72825622558594, -4.571269989013672, -0.8134765625, -0.198974609375, -0.22216796875, 
439, 3640247275, -0.20032383501529694, 0.5510127544403076, 0.047905512154102325, 0.8086802959442139, 10.252748489379883, -1.4109426736831665, 7.113615036010742, 45.00013732910156, -79.77713012695312, -7.51917839050293, -0.81494140625, -0.19873046875, -0.213134765625, 
440, 3640255608, -0.20150700211524963, 0.5542875528335571, 0.0522921122610569, 0.8058717846870422, 10.341079711914062, -1.705291986465454, 6.637084007263184, 50.45909118652344, -69.5481185913086, -10.343006134033203, -0.818603515625, -0.201904296875, -0.201416015625, 
441, 3640263941, -0.20276358723640442, 0.5569862723350525, 0.05690101906657219, 0.8033798933029175, 10.679434776306152, -1.9487876892089844, 6.234003067016602, 54.86469650268555, -61.21674728393555, -12.512848854064941, -0.818603515625, -0.2041015625, -0.189697265625, 
442, 3640272274, -0.20411957800388336, 0.5593429207801819, 0.061604030430316925, 0.8010489344596863, 11.117935180664062, -1.663487195968628, 6.0525312423706055, 57.481231689453125, -56.48640823364258, -12.855077743530273, -0.818603515625, -0.20947265625, -0.17919921875, 
443, 3640280607, -0.20556879043579102, 0.5616817474365234, 0.06613855063915253, 0.798676609992981, 11.196596145629883, -1.1814639568328857, 5.913943767547607, 56.43792724609375, -55.971431732177734, -10.43154525756836, -0.8203125, -0.212646484375, -0.17041015625, 
444, 3640288940, -0.20693136751651764, 0.5641978979110718, 0.07017841935157776, 0.7962027192115784, 10.938441276550293, -0.7241736054420471, 5.7112135887146, 49.916561126708984, -57.469757080078125, -7.112866401672363, -0.82080078125, -0.214111328125, -0.162353515625, 
445, 3640297273, -0.20791426301002502, 0.5669989585876465, 0.07340472936630249, 0.7936620116233826, 10.799846649169922, -0.3956455886363983, 5.348238945007324, 37.3231201171875, -59.084468841552734, -4.493639945983887, -0.82421875, -0.2177734375, -0.150634765625, 
446, 3640305606, -0.20826131105422974, 0.5701154470443726, 0.07551700621843338, 0.7911363244056702, 10.778258323669434, -0.21628408133983612, 5.036327838897705, 19.282846450805664, -59.941162109375, -2.470335006713867, -0.821533203125, -0.217041015625, -0.138671875, 
