sep=,
PacketCounter,SampleTimeFine,Quat_W,Quat_X,Quat_Y,Quat_Z,Acc_X,Acc_Y,Acc_Z,Gyr_X,Gyr_Y,Gyr_Z,Mag_X,Mag_Y,Mag_Z,
0, 3824481572, -0.24411258101463318, 0.6463167667388916, 0.04598569869995117, 0.7215073704719543, 0, 0, 0, 0, 0, 0, -0.8525390625, -0.023193359375, 0.045654296875, 
1, 3824489905, -0.24377679824829102, 0.6462820172309875, 0.04604627937078476, 0.7216480374336243, 9.442989349365234, -2.404215097427368, 1.5003795623779297, -2.5614616870880127, 0.6614875793457031, -4.543107032775879, -0.85107421875, -0.02490234375, 0.045166015625, 
2, 3824498238, -0.24337679147720337, 0.6462672352790833, 0.046062666922807693, 0.7217953205108643, 9.459332466125488, -2.4660916328430176, 1.4804868698120117, -3.544740915298462, 0.6048800945281982, -4.76800012588501, -0.85107421875, -0.02734375, 0.043212890625, 
3, 3824506571, -0.24295717477798462, 0.6462699174880981, 0.046052224934101105, 0.721934974193573, 9.451541900634766, -2.542067289352417, 1.4833029508590698, -4.037379741668701, 0.4424603283405304, -4.687878608703613, -0.84765625, -0.0263671875, 0.0439453125, 
4, 3824514904, -0.24254515767097473, 0.6462851762771606, 0.04605673626065254, 0.7220595479011536, 9.413183212280273, -2.612916946411133, 1.4804881811141968, -3.7023966312408447, 0.09492635726928711, -4.672049045562744, -0.85107421875, -0.025146484375, 0.046630859375, 
5, 3824523237, -0.242209792137146, 0.6462959051132202, 0.04612283036112785, 0.7221580743789673, 9.408782958984375, -2.6608941555023193, 1.4554463624954224, -2.6456305980682373, -0.17836473882198334, -4.420363903045654, -0.8515625, -0.025390625, 0.042724609375, 
6, 3824531570, -0.24195972084999084, 0.6463013291358948, 0.04625186324119568, 0.7222290635108948, 9.40203857421875, -2.6816322803497314, 1.4568567276000977, -1.1130026578903198, -0.5537926554679871, -4.013558864593506, -0.8515625, -0.02783203125, 0.042236328125, 
7, 3824539903, -0.24179182946681976, 0.6463009119033813, 0.04644215479493141, 0.7222734093666077, 9.366071701049805, -2.6534111499786377, 1.4689366817474365, 0.2343958467245102, -0.8761476874351501, -3.6750917434692383, -0.84423828125, -0.023681640625, 0.0439453125, 
8, 3824548236, -0.24168771505355835, 0.6462814211845398, 0.04669231176376343, 0.7223094701766968, 9.381187438964844, -2.624877452850342, 1.4998975992202759, 1.4919524192810059, -0.9263259768486023, -3.5396692752838135, -0.849609375, -0.02783203125, 0.044921875, 
9, 3824556569, -0.24162647128105164, 0.6462607383728027, 0.04700205475091934, 0.7223281860351562, 9.400052070617676, -2.643052101135254, 1.536124587059021, 2.473284959793091, -1.2402029037475586, -3.603039264678955, -0.84814453125, -0.02978515625, 0.04345703125, 
10, 3824564902, -0.24157485365867615, 0.6462292075157166, 0.0472949780523777, 0.7223547697067261, 9.47327995300293, -2.6272339820861816, 1.6328532695770264, 2.4304580688476562, -0.997431218624115, -3.3743810653686523, -0.85009765625, -0.02734375, 0.042724609375, 
11, 3824573235, -0.24153397977352142, 0.6461730003356934, 0.04758606478571892, 0.7223995327949524, 9.526008605957031, -2.606520652770996, 1.638748288154602, 2.4898316860198975, -0.5569943785667419, -3.358551502227783, -0.8486328125, -0.02783203125, 0.04736328125, 
12, 3824581568, -0.2414463311433792, 0.6460853219032288, 0.04775451496243477, 0.7224962115287781, 9.569141387939453, -2.5746283531188965, 1.6910114288330078, 1.0135554075241089, 0.5712999105453491, -2.8949592113494873, -0.84814453125, -0.0263671875, 0.04248046875, 
13, 3824589901, -0.24130865931510925, 0.6459565758705139, 0.04781758040189743, 0.7226530909538269, 9.553982734680176, -2.5259087085723877, 1.64810311794281, -0.4080475866794586, 1.8383591175079346, -2.706028461456299, -0.85009765625, -0.0322265625, 0.04248046875, 
14, 3824598234, -0.24110093712806702, 0.6458240151405334, 0.04774513840675354, 0.7228455543518066, 9.521531105041504, -2.5541470050811768, 1.624621033668518, -2.3600573539733887, 2.5891895294189453, -2.2960987091064453, -0.845703125, -0.029296875, 0.04345703125, 
15, 3824606567, -0.2408316731452942, 0.6456957459449768, 0.047565191984176636, 0.7230618000030518, 9.47351360321045, -2.5965685844421387, 1.5480271577835083, -4.059433460235596, 3.08656644821167, -2.0541720390319824, -0.84912109375, -0.029296875, 0.04345703125, 
16, 3824614900, -0.24051730334758759, 0.6456055641174316, 0.047329336404800415, 0.7232624888420105, 9.409993171691895, -2.6372017860412598, 1.488730788230896, -5.077523231506348, 2.7123939990997314, -1.9064804315567017, -0.8505859375, -0.03076171875, 0.043701171875, 
17, 3824623233, -0.24018776416778564, 0.645573079586029, 0.04709472507238388, 0.7234163284301758, 9.375704765319824, -2.6939189434051514, 1.4668852090835571, -5.373827934265137, 1.711696743965149, -1.8934682607650757, -0.85302734375, -0.033447265625, 0.042236328125, 
18, 3824631566, -0.2398906946182251, 0.6455901265144348, 0.04689352586865425, 0.7235127091407776, 9.374777793884277, -2.7710182666778564, 1.4672948122024536, -4.8644890785217285, 0.6180714964866638, -1.6265679597854614, -0.8525390625, -0.031494140625, 0.042236328125, 
19, 3824639899, -0.23965933918952942, 0.645658016204834, 0.04675668478012085, 0.7235376238822937, 9.408978462219238, -2.7966437339782715, 1.4477745294570923, -3.8421223163604736, -0.6740257740020752, -1.3081060647964478, -0.8525390625, -0.032470703125, 0.041748046875, 
20, 3824648232, -0.23951417207717896, 0.6457436680793762, 0.04667404294013977, 0.7235146164894104, 9.42994213104248, -2.8134663105010986, 1.4910279512405396, -2.4868476390838623, -1.4196816682815552, -0.7293268442153931, -0.849365234375, -0.03271484375, 0.0419921875, 
21, 3824656565, -0.2394554316997528, 0.6458223462104797, 0.046619709581136703, 0.7234672904014587, 9.488113403320312, -2.786755084991455, 1.525612235069275, -1.3113079071044922, -1.625056505203247, -0.050498463213443756, -0.84619140625, -0.0283203125, 0.041015625, 
22, 3824664898, -0.2394716441631317, 0.6458795666694641, 0.04658815637230873, 0.7234129309654236, 9.541885375976562, -2.760117530822754, 1.537904143333435, -0.43089544773101807, -1.4797983169555664, 0.5067007541656494, -0.85009765625, -0.03076171875, 0.041748046875, 
23, 3824673231, -0.23953934013843536, 0.6459107398986816, 0.04650892689824104, 0.7233677506446838, 9.602535247802734, -2.733175754547119, 1.5900155305862427, -0.3906554877758026, -0.9433081746101379, 1.3706687688827515, -0.8505859375, -0.03125, 0.04443359375, 
24, 3824681564, -0.23962187767028809, 0.6459201574325562, 0.04637451469898224, 0.723340630531311, 9.607422828674316, -2.6992733478546143, 1.6035728454589844, -0.7260227799415588, -0.3799999952316284, 1.960769772529602, -0.843994140625, -0.0283203125, 0.03857421875, 
25, 3824689897, -0.23968973755836487, 0.6459146738052368, 0.046158310025930405, 0.7233368158340454, 9.61534595489502, -2.662677049636841, 1.6147934198379517, -1.641091227531433, 0.2376488894224167, 2.4311749935150146, -0.85107421875, -0.03125, 0.044677734375, 
26, 3824698230, -0.23973649740219116, 0.6459210515022278, 0.04587431997060776, 0.7233337163925171, 9.57253646850586, -2.620271921157837, 1.62531578540802, -2.5373075008392334, 0.3334205150604248, 2.8511972427368164, -0.85009765625, -0.0283203125, 0.044677734375, 
27, 3824706563, -0.23977339267730713, 0.645950198173523, 0.04552387073636055, 0.7233176827430725, 9.582681655883789, -2.5782222747802734, 1.5941988229751587, -3.5188965797424316, 0.24838124215602875, 3.3499321937561035, -0.8486328125, -0.02685546875, 0.040771484375, 
28, 3824714896, -0.23977252840995789, 0.6460151076316833, 0.04511033371090889, 0.723285973072052, 9.606164932250977, -2.5747344493865967, 1.5621803998947144, -4.423591136932373, -0.10390415042638779, 3.658097505569458, -0.85205078125, -0.02734375, 0.040283203125, 
29, 3824723229, -0.2397627830505371, 0.6461012959480286, 0.044659972190856934, 0.7232401371002197, 9.638426780700684, -2.5357768535614014, 1.5414471626281738, -5.040049076080322, -0.29759901762008667, 3.915853261947632, -0.84375, -0.02734375, 0.04248046875, 
30, 3824731562, -0.23974472284317017, 0.6461994051933289, 0.044193945825099945, 0.7231869697570801, 9.63817024230957, -2.503920793533325, 1.520159363746643, -5.193759918212891, -0.4646550118923187, 4.046024322509766, -0.849609375, -0.02978515625, 0.0419921875, 
31, 3824739895, -0.2397356927394867, 0.6462995409965515, 0.043711092323064804, 0.7231298089027405, 9.688020706176758, -2.4400405883789062, 1.4629769325256348, -5.3340744972229, -0.4431646764278412, 4.269380569458008, -0.84765625, -0.027587890625, 0.046875, 
32, 3824748228, -0.239726260304451, 0.6463982462882996, 0.0432095006108284, 0.7230749130249023, 9.69275188446045, -2.3864338397979736, 1.4362754821777344, -5.471828460693359, -0.36393988132476807, 4.453163146972656, -0.8505859375, -0.02685546875, 0.042724609375, 
33, 3824756561, -0.23971763253211975, 0.6465093493461609, 0.04269828647375107, 0.7230089902877808, 9.603758811950684, -2.3428611755371094, 1.426681399345398, -5.70806884765625, -0.520827054977417, 4.549088478088379, -0.85107421875, -0.02490234375, 0.039306640625, 
34, 3824764894, -0.23968631029129028, 0.6466566920280457, 0.04218723997473717, 0.7229174971580505, 9.527332305908203, -2.3038275241851807, 1.3905287981033325, -5.900508403778076, -1.1524486541748047, 4.469786643981934, -0.84912109375, -0.02587890625, 0.042236328125, 
35, 3824773227, -0.23963625729084015, 0.6468390822410583, 0.041689347475767136, 0.7227997183799744, 9.481361389160156, -2.290400743484497, 1.342320203781128, -6.052554607391357, -1.7827893495559692, 4.2487359046936035, -0.853515625, -0.025390625, 0.043701171875, 
36, 3824781560, -0.23957601189613342, 0.6470667719841003, 0.04122867062687874, 0.7226424217224121, 9.39006233215332, -2.280945062637329, 1.35075843334198, -5.882885932922363, -2.7206802368164062, 3.9985873699188232, -0.84716796875, -0.02392578125, 0.0419921875, 
37, 3824789893, -0.2395174205303192, 0.6473413705825806, 0.040807437151670456, 0.7224397659301758, 9.302141189575195, -2.283393144607544, 1.3642401695251465, -5.592088222503662, -3.7190210819244385, 3.819723606109619, -0.853515625, -0.0263671875, 0.041259765625, 
38, 3824798226, -0.2394610047340393, 0.6476455330848694, 0.040443506091833115, 0.7222062945365906, 9.24406623840332, -2.306309700012207, 1.3689725399017334, -5.096682548522949, -4.474282264709473, 3.468526840209961, -0.853515625, -0.0234375, 0.04345703125, 
39, 3824806559, -0.23942682147026062, 0.6479706168174744, 0.040140021592378616, 0.7219430208206177, 9.241606712341309, -2.307494640350342, 1.3995685577392578, -4.350308895111084, -5.134566307067871, 3.2610254287719727, -0.85107421875, -0.02490234375, 0.040771484375, 
40, 3824814892, -0.23941610753536224, 0.6482870578765869, 0.03988756239414215, 0.7216761708259583, 9.259537696838379, -2.3009352684020996, 1.4507668018341064, -3.64601993560791, -5.218964099884033, 3.017510414123535, -0.85400390625, -0.021484375, 0.04248046875, 
41, 3824823225, -0.23944345116615295, 0.6485779881477356, 0.03968585655093193, 0.7214168906211853, 9.23595142364502, -2.295694589614868, 1.4826033115386963, -2.751814126968384, -5.036450386047363, 2.901413917541504, -0.8486328125, -0.022705078125, 0.046630859375, 
42, 3824831558, -0.2395007312297821, 0.6488301157951355, 0.03954228758811951, 0.7211788892745972, 9.219551086425781, -2.303521156311035, 1.5307059288024902, -1.7217506170272827, -4.662316799163818, 2.619235038757324, -0.8505859375, -0.024658203125, 0.047607421875, 
43, 3824839891, -0.2396128624677658, 0.6490252017974854, 0.039468638598918915, 0.7209699749946594, 9.228280067443848, -2.318225860595703, 1.5807232856750488, -0.35000571608543396, -4.036022663116455, 2.396160364151001, -0.8505859375, -0.020751953125, 0.046142578125, 
44, 3824848224, -0.23978912830352783, 0.6491278409957886, 0.039486512541770935, 0.7208181619644165, 9.232943534851074, -2.3212227821350098, 1.653843879699707, 1.3857043981552124, -2.877439022064209, 1.9947341680526733, -0.8515625, -0.022705078125, 0.045654296875, 
45, 3824856557, -0.23995932936668396, 0.6491837501525879, 0.039515361189842224, 0.7207095623016357, 9.204336166381836, -2.299154043197632, 1.7068394422531128, 1.5882105827331543, -2.0679266452789307, 1.6508375406265259, -0.84765625, -0.020263671875, 0.049072265625, 
46, 3824864890, -0.24011772871017456, 0.6492080688476562, 0.03957369923591614, 0.7206318378448486, 9.197731018066406, -2.256753921508789, 1.7274060249328613, 1.846453309059143, -1.5821785926818848, 1.1687263250350952, -0.84912109375, -0.020263671875, 0.048095703125, 
47, 3824873223, -0.24020427465438843, 0.6492151618003845, 0.03962952643632889, 0.7205933928489685, 9.231687545776367, -2.216308355331421, 1.732025146484375, 1.1583269834518433, -1.0737359523773193, 0.31359511613845825, -0.85107421875, -0.022216796875, 0.049072265625, 
48, 3824881556, -0.24020397663116455, 0.6492127180099487, 0.039670974016189575, 0.7205935120582581, 9.303731918334961, -2.203962564468384, 1.7402294874191284, 0.3088051974773407, -0.6533294916152954, -0.5242336988449097, -0.8486328125, -0.024169921875, 0.04736328125, 
49, 3824889889, -0.2401147484779358, 0.6492030620574951, 0.039705611765384674, 0.7206300497055054, 9.359352111816406, -2.2399699687957764, 1.7270610332489014, -0.46009567379951477, -0.30592361092567444, -1.4730875492095947, -0.84765625, -0.020751953125, 0.048828125, 
50, 3824898222, -0.23994871973991394, 0.6491820216178894, 0.039737485349178314, 0.7207024693489075, 9.367730140686035, -2.3061039447784424, 1.7266285419464111, -1.2459148168563843, 0.1182609274983406, -2.329294204711914, -0.8466796875, -0.019287109375, 0.044677734375, 
51, 3824906555, -0.23973113298416138, 0.649171769618988, 0.03978298604488373, 0.7207816243171692, 9.39111042022705, -2.397075891494751, 1.681348204612732, -1.9695683717727661, 0.09866604208946228, -3.056431531906128, -0.849365234375, -0.020263671875, 0.049560546875, 
52, 3824914888, -0.2394738495349884, 0.6491671800613403, 0.03982490301132202, 0.7208689451217651, 9.437474250793457, -2.4485321044921875, 1.6831294298171997, -2.023639440536499, 0.004713017959147692, -3.3638527393341064, -0.849365234375, -0.021728515625, 0.051025390625, 
53, 3824923221, -0.2392514944076538, 0.6491622924804688, 0.039908573031425476, 0.7209425568580627, 9.440999031066895, -2.503175973892212, 1.6591486930847168, -1.5863022804260254, -0.15126484632492065, -3.410573720932007, -0.849609375, -0.024169921875, 0.046142578125, 
54, 3824931554, -0.23902541399002075, 0.6491671204566956, 0.039967894554138184, 0.7210098505020142, 9.470547676086426, -2.565934419631958, 1.6564253568649292, -1.5911434888839722, -0.30784469842910767, -3.141009569168091, -0.845703125, -0.021728515625, 0.04833984375, 
55, 3824939887, -0.23884090781211853, 0.6491835713386536, 0.040061645209789276, 0.7210511565208435, 9.459491729736328, -2.6109511852264404, 1.6082358360290527, -0.9883636832237244, -0.7214634418487549, -2.972673177719116, -0.84912109375, -0.024169921875, 0.047607421875, 
56, 3824948220, -0.2386927604675293, 0.6491926908493042, 0.040185123682022095, 0.7210849523544312, 9.493896484375, -2.5852880477905273, 1.6625896692276, -0.25510498881340027, -0.8158518075942993, -2.8273377418518066, -0.8505859375, -0.021240234375, 0.046142578125, 
57, 3824956553, -0.23858442902565002, 0.6491970419883728, 0.04031781107187271, 0.7211095690727234, 9.545076370239258, -2.6525700092315674, 1.6480298042297363, -0.01871119998395443, -0.7983317375183105, -2.5414316654205322, -0.849609375, -0.024169921875, 0.046142578125, 
58, 3824964886, -0.23847025632858276, 0.6492044925689697, 0.04042568802833557, 0.721134603023529, 9.56036376953125, -2.5902912616729736, 1.6284700632095337, -0.09662970155477524, -0.8087822198867798, -2.3228139877319336, -0.84765625, -0.022705078125, 0.0458984375, 
59, 3824973219, -0.2383769452571869, 0.6491933465003967, 0.04050048440694809, 0.7211712002754211, 9.602669715881348, -2.5980873107910156, 1.6372833251953125, -0.18558792769908905, -0.40305280685424805, -1.8872439861297607, -0.8486328125, -0.024658203125, 0.04736328125, 
60, 3824981552, -0.23830536007881165, 0.6491696834564209, 0.04055272042751312, 0.7212132215499878, 9.659041404724121, -2.6048078536987305, 1.621463656425476, -0.17575205862522125, -0.1414802223443985, -1.4764940738677979, -0.84619140625, -0.026611328125, 0.04931640625, 
61, 3824989885, -0.2382666915655136, 0.6491265296936035, 0.04062631353735924, 0.7212607860565186, 9.650752067565918, -2.593334674835205, 1.6056773662567139, 0.39153915643692017, 0.04889756813645363, -1.37139892578125, -0.85009765625, -0.02880859375, 0.0458984375, 
62, 3824998218, -0.23825490474700928, 0.6490733027458191, 0.04072609543800354, 0.7213068008422852, 9.668490409851074, -2.641430377960205, 1.6139317750930786, 0.7707324028015137, 0.10312290489673615, -1.380056619644165, -0.8486328125, -0.021728515625, 0.048095703125, 
63, 3825006551, -0.23827925324440002, 0.6490142941474915, 0.040866438299417496, 0.721343994140625, 9.638976097106934, -2.645613193511963, 1.6066641807556152, 1.6338551044464111, -0.0606929287314415, -1.3387919664382935, -0.84716796875, -0.026611328125, 0.046875, 
64, 3825014884, -0.23836517333984375, 0.6489593982696533, 0.041051123291254044, 0.721354603767395, 9.590351104736328, -2.6826212406158447, 1.6137946844100952, 2.6638803482055664, -0.4587637484073639, -1.0119543075561523, -0.845703125, -0.023193359375, 0.044921875, 
65, 3825023217, -0.23850226402282715, 0.648918092250824, 0.04126165807247162, 0.7213343381881714, 9.575733184814453, -2.6618762016296387, 1.603376865386963, 3.3011372089385986, -0.9141337275505066, -0.6506400108337402, -0.849609375, -0.022216796875, 0.045654296875, 
66, 3825031550, -0.23866817355155945, 0.6488916873931885, 0.04146099090576172, 0.7212918996810913, 9.49716854095459, -2.661325454711914, 1.6227076053619385, 3.459662914276123, -1.218532919883728, -0.1594613939523697, -0.84716796875, -0.024169921875, 0.0458984375, 
67, 3825039883, -0.2388366460800171, 0.6488921046257019, 0.04161553829908371, 0.7212267518043518, 9.441401481628418, -2.618722915649414, 1.6123466491699219, 2.9022979736328125, -1.5233169794082642, 0.3287074863910675, -0.85107421875, -0.024169921875, 0.045166015625, 
68, 3825048216, -0.23896008729934692, 0.6489092707633972, 0.04167674854397774, 0.7211669683456421, 9.396780967712402, -2.571547269821167, 1.6000816822052002, 1.5772733688354492, -1.3755483627319336, 0.733822226524353, -0.837890625, -0.01806640625, 0.047607421875, 
69, 3825056549, -0.23904426395893097, 0.6489487290382385, 0.04164231941103935, 0.7211053967475891, 9.325666427612305, -2.5307509899139404, 1.5942505598068237, 0.20924267172813416, -1.3218352794647217, 1.197952151298523, -0.849609375, -0.027587890625, 0.04833984375, 
70, 3825064882, -0.23905913531780243, 0.6490101218223572, 0.041501812636852264, 0.7210533022880554, 9.2837553024292, -2.5574326515197754, 1.605050802230835, -1.5420668125152588, -1.1449179649353027, 1.4588332176208496, -0.84814453125, -0.023193359375, 0.0478515625, 
71, 3825073215, -0.23906907439231873, 0.6490665674209595, 0.041324712336063385, 0.7210094928741455, 9.266053199768066, -2.6031334400177, 1.606506586074829, -1.9328116178512573, -0.9081143140792847, 1.6862618923187256, -0.85009765625, -0.023681640625, 0.045654296875, 
72, 3825081548, -0.23910441994667053, 0.6491037607192993, 0.04119298607110977, 0.7209717631340027, 9.308884620666504, -2.622210741043091, 1.5951006412506104, -1.200936198234558, -0.793644368648529, 1.520768404006958, -0.84765625, -0.022705078125, 0.048828125, 
73, 3825089881, -0.23919567465782166, 0.6491061449050903, 0.04111639782786369, 0.7209436893463135, 9.327092170715332, -2.658447027206421, 1.641155481338501, -0.16886183619499207, -0.4814835786819458, 1.4934380054473877, -0.841796875, -0.022216796875, 0.048095703125, 
74, 3825098214, -0.23928898572921753, 0.6490638256072998, 0.04105468466877937, 0.7209544777870178, 9.377341270446777, -2.665149211883545, 1.706375002861023, 0.24364256858825684, 0.2308354526758194, 1.2652405500411987, -0.84912109375, -0.022705078125, 0.047607421875, 
75, 3825106547, -0.2393949329853058, 0.6489332318305969, 0.04096701741218567, 0.7210418581962585, 9.387142181396484, -2.720674753189087, 1.7398000955581665, 0.23262850940227509, 1.9096182584762573, 1.2825047969818115, -0.84912109375, -0.023681640625, 0.049560546875, 
76, 3825114880, -0.23951438069343567, 0.6486949324607849, 0.04086516425013542, 0.7212224006652832, 9.361515998840332, -2.714409112930298, 1.7209452390670776, 0.6297259330749512, 3.8342459201812744, 1.215267300605774, -0.85302734375, -0.022216796875, 0.047119140625, 
77, 3825123213, -0.23961427807807922, 0.6483902335166931, 0.040707189589738846, 0.7214720249176025, 9.300079345703125, -2.657116174697876, 1.8202043771743774, -0.010822014883160591, 5.3039140701293945, 1.2195707559585571, -0.8447265625, -0.023681640625, 0.0458984375, 
78, 3825131546, -0.23967376351356506, 0.6480645537376404, 0.04046081379055977, 0.7217587232589722, 9.353157997131348, -2.4493248462677, 1.7701764106750488, -1.1098777055740356, 6.092397212982178, 1.5094724893569946, -0.83837890625, -0.021728515625, 0.044677734375, 
79, 3825139879, -0.2397715151309967, 0.6477964520454407, 0.04024424031376839, 0.7219788432121277, 9.319585800170898, -2.4495930671691895, 1.5950294733047485, -0.7070425748825073, 4.863426208496094, 1.841996431350708, -0.85009765625, -0.023681640625, 0.045654296875, 
80, 3825148212, -0.2398117184638977, 0.6476134657859802, 0.03997226804494858, 0.7221448421478271, 9.451132774353027, -2.5014219284057617, 1.5860549211502075, -1.9392664432525635, 3.675078868865967, 2.022909641265869, -0.8486328125, -0.024169921875, 0.044189453125, 
81, 3825156545, -0.23980091512203217, 0.6474894285202026, 0.0396416112780571, 0.7222777605056763, 9.529373168945312, -2.4606566429138184, 1.5548529624938965, -3.2499470710754395, 2.9790637493133545, 2.14416766166687, -0.8486328125, -0.023681640625, 0.044677734375, 
82, 3825164878, -0.23978182673454285, 0.6473960280418396, 0.03928297758102417, 0.722387433052063, 9.427874565124512, -2.5456435680389404, 1.566971778869629, -3.5922043323516846, 2.5343494415283203, 2.439730405807495, -0.8505859375, -0.020263671875, 0.040771484375, 
83, 3825173211, -0.2396784871816635, 0.6473714709281921, 0.038848817348480225, 0.7224672436714172, 9.413071632385254, -2.5256309509277344, 1.4377081394195557, -5.280618667602539, 1.777833104133606, 2.3966729640960693, -0.8486328125, -0.019287109375, 0.041748046875, 
84, 3825181544, -0.23953777551651, 0.6473875045776367, 0.0384552963078022, 0.7225207686424255, 9.52814769744873, -2.4659106731414795, 1.3811452388763428, -5.352721691131592, 0.9978538155555725, 1.78602933883667, -0.84814453125, -0.020263671875, 0.044189453125, 
85, 3825189877, -0.239418625831604, 0.6474404335021973, 0.03807884454727173, 0.7225325703620911, 9.533020973205566, -2.4124464988708496, 1.3934855461120605, -5.207181930541992, 0.24323277175426483, 1.9666863679885864, -0.849609375, -0.0234375, 0.039794921875, 
86, 3825198210, -0.23934319615364075, 0.6475254893302917, 0.03769291192293167, 0.7225016951560974, 9.436212539672852, -2.4064552783966064, 1.3809400796890259, -4.87842321395874, -0.43117719888687134, 2.681631088256836, -0.84423828125, -0.017822265625, 0.0439453125, 
87, 3825206543, -0.23928898572921753, 0.6476467847824097, 0.037329528480768204, 0.7224297523498535, 9.371278762817383, -2.4000797271728516, 1.3093929290771484, -4.851246356964111, -1.1431761980056763, 2.7790164947509766, -0.8505859375, -0.018310546875, 0.0400390625, 
88, 3825214876, -0.2392103374004364, 0.6477918028831482, 0.03702535852789879, 0.7223414182662964, 9.429110527038574, -2.325739860534668, 1.2720913887023926, -4.262221336364746, -1.8084802627563477, 2.141554594039917, -0.84716796875, -0.021240234375, 0.043701171875, 
89, 3825223209, -0.23913131654262543, 0.6479477286338806, 0.03677457198500633, 0.7222405672073364, 9.40186595916748, -2.2743828296661377, 1.243285894393921, -3.7721445560455322, -2.2062182426452637, 1.6914105415344238, -0.84912109375, -0.017822265625, 0.040283203125, 
90, 3825231542, -0.2390616536140442, 0.6480960845947266, 0.036614272743463516, 0.7221385836601257, 9.406333923339844, -2.206609010696411, 1.2246158123016357, -2.75758957862854, -2.429702043533325, 0.9952409863471985, -0.841796875, -0.01513671875, 0.04150390625, 
91, 3825239875, -0.2390270233154297, 0.6482344269752502, 0.03659315034747124, 0.7220269441604614, 9.451909065246582, -2.183783769607544, 1.251082181930542, -1.2183027267456055, -2.806974411010742, 0.08019817620515823, -0.84814453125, -0.021728515625, 0.042236328125, 
92, 3825248208, -0.23900389671325684, 0.6483751535415649, 0.03668399155139923, 0.7219036817550659, 9.458049774169922, -2.2633731365203857, 1.3373262882232666, 0.18718884885311127, -3.34733247756958, -0.7125753164291382, -0.84765625, -0.019775390625, 0.044677734375, 
93, 3825256541, -0.23900344967842102, 0.6485096216201782, 0.03691749647259712, 0.7217711210250854, 9.453890800476074, -2.3442373275756836, 1.3977583646774292, 1.8305214643478394, -3.82450008392334, -1.7332000732421875, -0.84716796875, -0.018798828125, 0.044677734375, 
94, 3825264874, -0.23904220759868622, 0.6486358046531677, 0.037295565009117126, 0.7216254472732544, 9.469573020935059, -2.445521354675293, 1.4724392890930176, 3.5042836666107178, -4.277027130126953, -2.6352310180664062, -0.84619140625, -0.020751953125, 0.046875, 
95, 3825273207, -0.2391057014465332, 0.6487465500831604, 0.03777944669127464, 0.721479594707489, 9.50347900390625, -2.5087320804595947, 1.5476508140563965, 4.96665096282959, -4.498256206512451, -3.315596342086792, -0.849609375, -0.021240234375, 0.043701171875, 
96, 3825281540, -0.23919980227947235, 0.6488277316093445, 0.03833886981010437, 0.721345841884613, 9.508861541748047, -2.5819787979125977, 1.593780279159546, 6.083303928375244, -4.330713748931885, -3.7266533374786377, -0.8388671875, -0.01806640625, 0.047119140625, 
97, 3825289873, -0.2393069565296173, 0.6489035487174988, 0.03894991800189018, 0.7212093472480774, 9.51066780090332, -2.615626573562622, 1.6161952018737793, 6.532680511474609, -4.4110918045043945, -4.09946870803833, -0.8466796875, -0.021728515625, 0.04736328125, 
98, 3825298206, -0.23939774930477142, 0.648952841758728, 0.03956318274140358, 0.7211015224456787, 9.557293891906738, -2.6382503509521484, 1.6694666147232056, 6.678835391998291, -3.9611263275146484, -4.341574668884277, -0.84619140625, -0.021240234375, 0.04541015625, 
99, 3825306539, -0.2394745945930481, 0.6489903926849365, 0.040122054517269135, 0.7210114002227783, 9.529496192932129, -2.7004308700561523, 1.6534249782562256, 6.004208564758301, -3.5045273303985596, -4.079977035522461, -0.849609375, -0.021728515625, 0.046630859375, 
100, 3825314872, -0.23956257104873657, 0.6490013003349304, 0.04061992093920708, 0.7209445834159851, 9.51579761505127, -2.7071876525878906, 1.7095694541931152, 5.613257884979248, -2.837942361831665, -3.4961256980895996, -0.8466796875, -0.023193359375, 0.0478515625, 
101, 3825323205, -0.23960839211940765, 0.6490236520767212, 0.040993206202983856, 0.7208880186080933, 9.484896659851074, -2.742201805114746, 1.7037346363067627, 3.888394832611084, -2.452806234359741, -2.8559231758117676, -0.8466796875, -0.024658203125, 0.048828125, 
102, 3825331538, -0.2396252155303955, 0.6490423083305359, 0.04124880209565163, 0.7208511233329773, 9.507868766784668, -2.73327898979187, 1.7183610200881958, 2.534912586212158, -1.8888320922851562, -2.1329357624053955, -0.84814453125, -0.021728515625, 0.047607421875, 
103, 3825339871, -0.23962187767028809, 0.6490840911865234, 0.04139392450451851, 0.7208061814308167, 9.505900382995605, -2.792048931121826, 1.7184780836105347, 1.067908763885498, -1.8057907819747925, -1.3448625802993774, -0.84814453125, -0.022705078125, 0.047119140625, 
104, 3825348204, -0.2395869791507721, 0.6491190791130066, 0.041451796889305115, 0.7207830548286438, 9.54564094543457, -2.725898265838623, 1.7261812686920166, 0.05092109739780426, -1.304443359375, -0.9163619875907898, -0.84912109375, -0.024658203125, 0.047119140625, 
105, 3825356537, -0.239580437541008, 0.6491416692733765, 0.04144267365336418, 0.7207652926445007, 9.535197257995605, -2.7772843837738037, 1.7228409051895142, -0.3994412124156952, -0.878068745136261, -0.09301809221506119, -0.84814453125, -0.023193359375, 0.045654296875, 
106, 3825364870, -0.23956398665905, 0.6491556167602539, 0.04139038547873497, 0.720761239528656, 9.513431549072266, -2.7703678607940674, 1.7145867347717285, -0.8181058168411255, -0.5526911616325378, 0.17379257082939148, -0.845703125, -0.021240234375, 0.04833984375, 
107, 3825373203, -0.23957236111164093, 0.649151086807251, 0.04133374243974686, 0.7207657098770142, 9.538738250732422, -2.7486438751220703, 1.7177903652191162, -0.738753080368042, -0.22536687552928925, 0.37711840867996216, -0.84521484375, -0.01904296875, 0.04736328125, 
108, 3825381536, -0.23958773910999298, 0.6491228938102722, 0.04124847427010536, 0.7207909226417542, 9.545705795288086, -2.7240242958068848, 1.683929204940796, -0.7377283573150635, 0.25288933515548706, 0.6635879278182983, -0.84326171875, -0.025634765625, 0.050537109375, 
109, 3825389869, -0.23963376879692078, 0.6490883231163025, 0.04116883501410484, 0.7208111882209778, 9.506637573242188, -2.688389301300049, 1.6791373491287231, -0.5441872477531433, 0.30993226170539856, 0.8852280378341675, -0.84716796875, -0.020751953125, 0.048828125, 
110, 3825398202, -0.23969116806983948, 0.6490592360496521, 0.041068535298109055, 0.7208240628242493, 9.469512939453125, -2.6753063201904297, 1.6325148344039917, -0.5022310614585876, 0.22456000745296478, 1.254508376121521, -0.84619140625, -0.023681640625, 0.052734375, 
111, 3825406535, -0.23976780474185944, 0.6490294337272644, 0.04096345603466034, 0.7208313345909119, 9.477538108825684, -2.6010098457336426, 1.6017146110534668, -0.4460847079753876, 0.22333049774169922, 1.4738173484802246, -0.84716796875, -0.023681640625, 0.048828125, 
112, 3825414868, -0.2398437261581421, 0.6489993333816528, 0.04083537682890892, 0.7208404541015625, 9.437837600708008, -2.5519328117370605, 1.578558325767517, -0.6065322756767273, 0.30416902899742126, 1.699427604675293, -0.84423828125, -0.020751953125, 0.044921875, 
113, 3825423201, -0.23992323875427246, 0.6489735841751099, 0.040667518973350525, 0.7208466529846191, 9.417003631591797, -2.534959554672241, 1.5568633079528809, -1.0812664031982422, 0.3901304006576538, 2.0629961490631104, -0.84814453125, -0.022216796875, 0.045166015625, 
114, 3825431534, -0.23998573422431946, 0.6489553451538086, 0.04047081246972084, 0.7208534479141235, 9.403291702270508, -2.4729387760162354, 1.5554170608520508, -1.4449118375778198, 0.3849050998687744, 2.1907856464385986, -0.8349609375, -0.015625, 0.048095703125, 
115, 3825439867, -0.24005043506622314, 0.6489579677581787, 0.04026219621300697, 0.7208412289619446, 9.347271919250488, -2.4675467014312744, 1.5515755414962769, -1.720188021659851, 0.07581813633441925, 2.355203151702881, -0.84326171875, -0.0185546875, 0.04931640625, 
116, 3825448200, -0.24009785056114197, 0.6489710807800293, 0.040043946355581284, 0.7208258509635925, 9.327310562133789, -2.446824550628662, 1.5206785202026367, -1.8823007345199585, -0.061077140271663666, 2.325695753097534, -0.845703125, -0.020751953125, 0.04541015625, 
117, 3825456533, -0.24012456834316254, 0.6489831805229187, 0.03983991965651512, 0.7208172678947449, 9.341638565063477, -2.4215192794799805, 1.5293530225753784, -1.983733057975769, -0.03920258954167366, 1.9403295516967773, -0.84765625, -0.020263671875, 0.047119140625, 
118, 3825464866, -0.24014560878276825, 0.6489914655685425, 0.03964162990450859, 0.7208138108253479, 9.374996185302734, -2.390223979949951, 1.5373948812484741, -1.913140058517456, 0.011372719891369343, 1.8444042205810547, -0.84375, -0.017578125, 0.04736328125, 
119, 3825473199, -0.24017149209976196, 0.6489741802215576, 0.03945941850543022, 0.7208306789398193, 9.402284622192383, -2.380969285964966, 1.5344282388687134, -1.7150392532348633, 0.41341373324394226, 1.6334707736968994, -0.84765625, -0.020263671875, 0.045166015625, 
120, 3825481532, -0.24017903208732605, 0.6489336490631104, 0.03928554430603981, 0.7208741903305054, 9.45251750946045, -2.3398149013519287, 1.5063745975494385, -1.6556912660598755, 0.8276727199554443, 1.309194803237915, -0.845703125, -0.01806640625, 0.0478515625, 
121, 3825489865, -0.24018529057502747, 0.6488643884658813, 0.039124272763729095, 0.7209433913230896, 9.451082229614258, -2.308743476867676, 1.505874752998352, -1.597521424293518, 1.3310438394546509, 1.0429091453552246, -0.848388671875, -0.0166015625, 0.047119140625, 
122, 3825498198, -0.24015530943870544, 0.6487833857536316, 0.03895564749836922, 0.7210352420806885, 9.439414978027344, -2.3245110511779785, 1.48575758934021, -1.83073890209198, 1.623353362083435, 0.7107182145118713, -0.845703125, -0.01904296875, 0.0478515625, 
123, 3825506531, -0.24007967114448547, 0.6487037539482117, 0.03879537433385849, 0.7211406230926514, 9.418246269226074, -2.3257663249969482, 1.4435330629348755, -2.247636318206787, 1.6946122646331787, 0.10696505010128021, -0.8447265625, -0.0205078125, 0.048828125, 
124, 3825514864, -0.23996089398860931, 0.648641049861908, 0.038645777851343155, 0.7212445735931396, 9.438838005065918, -2.3611927032470703, 1.4104472398757935, -2.500525712966919, 1.4384955167770386, -0.37001046538352966, -0.84228515625, -0.020263671875, 0.044921875, 
125, 3825523197, -0.23981118202209473, 0.64859539270401, 0.03851509839296341, 0.7213424444198608, 9.503296852111816, -2.4798855781555176, 1.359525203704834, -2.8591761589050293, 1.1910876035690308, -0.87202388048172, -0.847900390625, -0.018798828125, 0.047607421875, 
126, 3825531530, -0.23963047564029694, 0.6485757827758789, 0.03836357593536377, 0.7214282751083374, 9.56501579284668, -2.5779869556427, 1.3073194026947021, -3.2054550647735596, 0.8231646418571472, -0.88498455286026, -0.84619140625, -0.019287109375, 0.0458984375, 
127, 3825539863, -0.2394576519727707, 0.6485922932624817, 0.03823261335492134, 0.7214778065681458, 9.672853469848633, -2.8616743087768555, 1.2971491813659668, -3.1241040229797363, 0.09961375594139099, -0.884779691696167, -0.84716796875, -0.019775390625, 0.043212890625, 
128, 3825548196, -0.23934102058410645, 0.6486477255821228, 0.038120560348033905, 0.721472442150116, 9.87460994720459, -3.2201595306396484, 1.2932770252227783, -2.4420995712280273, -0.8313996195793152, -0.26094499230384827, -0.84521484375, -0.020263671875, 0.046875, 
129, 3825556529, -0.23935481905937195, 0.6487453579902649, 0.03801858052611351, 0.7213854789733887, 10.0695161819458, -3.4957799911499023, 1.2971272468566895, -1.3952202796936035, -1.909810185432434, 1.1948273181915283, -0.84228515625, -0.017822265625, 0.04443359375, 
130, 3825564862, -0.23946458101272583, 0.6488990783691406, 0.03781413286924362, 0.7212215662002563, 10.178659439086914, -3.6175522804260254, 1.373874545097351, -1.578643798828125, -2.8000330924987793, 3.382462501525879, -0.84765625, -0.019287109375, 0.047607421875, 
131, 3825573195, -0.2395210862159729, 0.6491110920906067, 0.03746761381626129, 0.721030056476593, 10.483770370483398, -4.164745807647705, 1.5395169258117676, -3.77624249458313, -3.1446213722229004, 4.197891712188721, -0.83837890625, -0.015625, 0.046142578125, 
132, 3825581528, -0.2394554316997528, 0.6492287516593933, 0.03705611824989319, 0.7209672927856445, 11.129384994506836, -4.9160356521606445, 1.6228526830673218, -5.129212379455566, -0.9464333057403564, 3.1383073329925537, -0.83837890625, -0.013671875, 0.047607421875, 
133, 3825589861, -0.2396663874387741, 0.6491724848747253, 0.03647148609161377, 0.7209776639938354, 11.43436050415039, -5.236827850341797, 1.7811799049377441, -4.081897258758545, 2.209099769592285, 7.029289245605469, -0.846923828125, -0.0146484375, 0.047119140625, 
134, 3825598194, -0.24023912847042084, 0.6489549279212952, 0.035472169518470764, 0.7210327386856079, 11.519393920898438, -5.899629592895508, 1.855567455291748, -4.2140421867370605, 5.68835973739624, 14.158708572387695, -0.8466796875, -0.018310546875, 0.045654296875, 
135, 3825606527, -0.24122385680675507, 0.6484900116920471, 0.033809322863817215, 0.72120201587677, 12.209157943725586, -7.147426605224609, 2.301541328430176, -6.41453742980957, 11.571645736694336, 23.619335174560547, -0.846923828125, -0.013916015625, 0.042236328125, 
136, 3825614860, -0.24275073409080505, 0.6475700736045837, 0.03114572912454605, 0.7216362953186035, 13.17538070678711, -8.588790893554688, 2.619281530380249, -10.057741165161133, 22.001131057739258, 36.876853942871094, -0.844970703125, -0.01025390625, 0.044189453125, 
137, 3825623193, -0.24532550573349, 0.6457443237304688, 0.027443382889032364, 0.7225513458251953, 14.062174797058105, -10.105451583862305, 2.6180038452148438, -8.262173652648926, 39.201995849609375, 54.47126770019531, -0.846435546875, -0.00341796875, 0.03515625, 
138, 3825631526, -0.24943265318870544, 0.6429893374443054, 0.022354193031787872, 0.7237764000892639, 14.456326484680176, -11.065427780151367, 2.739394187927246, -5.372888088226318, 56.428836822509766, 80.67913818359375, -0.846923828125, 0.00390625, 0.031005859375, 
139, 3825639859, -0.25472646951675415, 0.6396391987800598, 0.015476666390895844, 0.7250796556472778, 14.193903923034668, -10.866748809814453, 2.8829002380371094, -10.760966300964355, 69.57820892333984, 107.75333404541016, -0.8486328125, 0.020751953125, 0.020751953125, 
140, 3825648192, -0.26052528619766235, 0.6361135840415955, 0.006771475076675415, 0.7262535095214844, 13.937026977539062, -10.755597114562988, 2.969839572906494, -23.801605224609375, 76.66666412353516, 129.38079833984375, -0.8447265625, 0.032958984375, 0.014404296875, 
141, 3825656525, -0.2662266790866852, 0.6329298615455627, -0.003853965550661087, 0.7269883751869202, 13.624999046325684, -10.634756088256836, 3.0903708934783936, -45.043270111083984, 76.29583740234375, 146.7003173828125, -0.846435546875, 0.052734375, 0.0009765625, 
142, 3825664858, -0.271305650472641, 0.6305157542228699, -0.016423087567090988, 0.7270331382751465, 13.43645191192627, -10.865946769714355, 3.1448450088500977, -72.71922302246094, 69.73149108886719, 159.9925994873047, -0.8447265625, 0.071533203125, -0.009521484375, 
143, 3825673191, -0.2755880355834961, 0.629013180732727, -0.030654853209853172, 0.7262628078460693, 13.377336502075195, -11.515838623046875, 3.1916258335113525, -99.53661346435547, 59.811439514160156, 169.22523498535156, -0.844970703125, 0.09326171875, -0.015869140625, 
144, 3825681524, -0.2793239653110504, 0.6283847689628601, -0.04607745632529259, 0.7245628833770752, 13.269953727722168, -12.090967178344727, 3.2602462768554688, -120.16117095947266, 47.90761184692383, 177.278564453125, -0.83935546875, 0.11962890625, -0.0224609375, 
145, 3825689857, -0.2829962968826294, 0.6285585165023804, -0.06235141679644585, 0.7217642068862915, 12.968520164489746, -13.197768211364746, 3.4679176807403564, -133.38540649414062, 33.95061492919922, 187.47064208984375, -0.839599609375, 0.1416015625, -0.0234375, 
146, 3825698190, -0.28712761402130127, 0.6290906071662903, -0.07902095466852188, 0.7180266976356506, 13.067339897155762, -15.000667572021484, 3.576211929321289, -135.1331024169922, 23.203283309936523, 199.0379638671875, -0.837158203125, 0.166015625, -0.0244140625, 
147, 3825706523, -0.2924680709838867, 0.629406213760376, -0.09557704627513885, 0.7135680317878723, 13.805870056152344, -16.760055541992188, 3.7088749408721924, -123.4797134399414, 17.338258743286133, 213.08035278320312, -0.828125, 0.193115234375, -0.02392578125, 
148, 3825714856, -0.29972410202026367, 0.6289030313491821, -0.11166661977767944, 0.7086472511291504, 14.770771980285645, -18.346458435058594, 3.7061519622802734, -99.56575775146484, 16.962692260742188, 230.6163330078125, -0.81982421875, 0.223388671875, -0.023681640625, 
149, 3825723189, -0.3093404173851013, 0.6271162629127502, -0.12711310386657715, 0.7034767866134644, 15.407247543334961, -18.905414581298828, 3.7585763931274414, -67.78217315673828, 20.905309677124023, 251.0726776123047, -0.815673828125, 0.2529296875, -0.02294921875, 
150, 3825731522, -0.32135528326034546, 0.6239290237426758, -0.14218246936798096, 0.6980196833610535, 15.151761054992676, -17.45522689819336, 3.8728389739990234, -38.258358001708984, 26.334203720092773, 274.8390808105469, -0.798095703125, 0.291015625, -0.02099609375, 
151, 3825739855, -0.3354010581970215, 0.6194452047348022, -0.15735183656215668, 0.6921257376670837, 14.115833282470703, -15.527745246887207, 3.9145212173461914, -16.794254302978516, 31.446395874023438, 299.4631652832031, -0.785888671875, 0.32958984375, -0.023193359375, 
152, 3825748188, -0.3508329689502716, 0.6139702200889587, -0.17281827330589294, 0.6856343746185303, 12.558893203735352, -14.08880615234375, 3.951620578765869, -4.654596328735352, 34.21985626220703, 320.2900695800781, -0.776123046875, 0.36328125, -0.0283203125, 
153, 3825756521, -0.36710605025291443, 0.6077486276626587, -0.18862272799015045, 0.6784540414810181, 10.647791862487793, -12.260029792785645, 3.9632091522216797, 1.3338415622711182, 35.01179885864258, 335.96710205078125, -0.75341796875, 0.409423828125, -0.030029296875, 
154, 3825764854, -0.3837687373161316, 0.6009470820426941, -0.20462381839752197, 0.6706092953681946, 8.813196182250977, -10.474701881408691, 3.747850179672241, 3.849794864654541, 34.914955139160156, 346.31842041015625, -0.73876953125, 0.450927734375, -0.03369140625, 
155, 3825773187, -0.40039342641830444, 0.5937122106552124, -0.22056233882904053, 0.6622289419174194, 7.1660284996032715, -9.021014213562012, 3.5319602489471436, 4.973185062408447, 34.213470458984375, 349.2787170410156, -0.715087890625, 0.489013671875, -0.042236328125, 
156, 3825781520, -0.41649511456489563, 0.5861860513687134, -0.23622627556324005, 0.6535432934761047, 5.940659046173096, -7.713105201721191, 3.2232372760772705, 3.801171064376831, 34.4958381652832, 345.0550842285156, -0.687744140625, 0.531982421875, -0.041259765625, 
157, 3825789853, -0.43184199929237366, 0.5784958600997925, -0.25144317746162415, 0.6446977853775024, 4.992827415466309, -6.685997486114502, 2.9858498573303223, 2.2056071758270264, 34.54874801635742, 335.88916015625, -0.66162109375, 0.570556640625, -0.047607421875, 
158, 3825798186, -0.44620969891548157, 0.570848822593689, -0.26623961329460144, 0.6357271671295166, 4.413894176483154, -6.523893356323242, 2.8426334857940674, -2.596848487854004, 34.08414840698242, 324.6770935058594, -0.633056640625, 0.60546875, -0.050537109375, 
159, 3825806519, -0.45964571833610535, 0.5632230043411255, -0.280574768781662, 0.6267274022102356, 4.074812412261963, -5.991109371185303, 2.7844138145446777, -6.071320533752441, 34.221168518066406, 312.7864990234375, -0.60693359375, 0.6376953125, -0.054931640625, 
160, 3825814852, -0.4722710847854614, 0.5555967688560486, -0.29447126388549805, 0.6177077889442444, 3.7894890308380127, -5.135199546813965, 2.6871848106384277, -8.686433792114258, 34.454833984375, 302.75152587890625, -0.576416015625, 0.6689453125, -0.052978515625, 
161, 3825823185, -0.4841844141483307, 0.5479618310928345, -0.3080257773399353, 0.6086272597312927, 3.3315463066101074, -4.513236999511719, 2.54131817817688, -11.375380516052246, 34.692195892333984, 294.30023193359375, -0.544189453125, 0.700439453125, -0.05517578125, 
162, 3825831518, -0.4953533709049225, 0.5403879880905151, -0.32122716307640076, 0.5995187759399414, 2.8898353576660156, -4.463029861450195, 2.425313949584961, -14.591384887695312, 34.80471420288086, 285.553955078125, -0.510498046875, 0.726806640625, -0.05859375, 
163, 3825839851, -0.5058303475379944, 0.5328689813613892, -0.33405452966690063, 0.5904216170310974, 2.5923497676849365, -4.522077560424805, 2.2984609603881836, -16.942996978759766, 34.91086196899414, 276.5355529785156, -0.481689453125, 0.74755859375, -0.05908203125, 
164, 3825848184, -0.5157144069671631, 0.5253168940544128, -0.3464304804801941, 0.5814383029937744, 2.2790889739990234, -4.333374500274658, 2.1346030235290527, -16.898712158203125, 35.63052749633789, 267.9851989746094, -0.45068359375, 0.77294921875, -0.057373046875, 
165, 3825856517, -0.5251293778419495, 0.5176612138748169, -0.35826852917671204, 0.5726372003555298, 2.0712080001831055, -4.470693588256836, 1.978989601135254, -14.359197616577148, 36.16131591796875, 259.3406066894531, -0.4208984375, 0.793701171875, -0.061767578125, 
166, 3825864850, -0.5342099070549011, 0.5098690390586853, -0.3691985011100769, 0.5642248392105103, 2.0385172367095947, -5.598479270935059, 1.8337297439575195, -6.713850021362305, 35.12846374511719, 248.3140106201172, -0.39013671875, 0.812255859375, -0.060302734375, 
167, 3825873183, -0.5430839657783508, 0.5018437504768372, -0.37888872623443604, 0.5564706921577454, 2.2839038372039795, -6.836325168609619, 1.725920557975769, 6.535333156585693, 33.454994201660156, 234.1603546142578, -0.36279296875, 0.829833984375, -0.064208984375, 
168, 3825881516, -0.5518362522125244, 0.49341022968292236, -0.3873675465583801, 0.5495210289955139, 2.556481122970581, -6.577744483947754, 1.4595787525177002, 22.182634353637695, 33.75611877441406, 221.1897430419922, -0.326904296875, 0.8447265625, -0.0693359375, 
169, 3825889849, -0.5606113076210022, 0.4844535291194916, -0.39483264088630676, 0.5432592630386353, 2.638639211654663, -6.385110378265381, 1.1537915468215942, 37.65617370605469, 34.52311325073242, 211.85377502441406, -0.301025390625, 0.863525390625, -0.071044921875, 
170, 3825898182, -0.5692886114120483, 0.47506415843963623, -0.40157684683799744, 0.5375542640686035, 2.6473989486694336, -6.556452751159668, 0.9038535356521606, 48.72639846801758, 36.4776725769043, 204.57240295410156, -0.2734375, 0.870849609375, -0.078857421875, 
171, 3825906515, -0.5778207182884216, 0.46516427397727966, -0.40786615014076233, 0.5323480367660522, 2.742048978805542, -6.4985671043396, 0.7984856367111206, 57.91616439819336, 40.70832824707031, 199.2555389404297, -0.249755859375, 0.87890625, -0.090087890625, 
172, 3825914848, -0.5861450433731079, 0.45473501086235046, -0.4139004051685333, 0.527579665184021, 2.7908740043640137, -6.435025691986084, 0.68867427110672, 65.09248352050781, 46.56666564941406, 195.7783660888672, -0.22802734375, 0.88623046875, -0.10009765625, 
173, 3825923181, -0.5941101908683777, 0.44390931725502014, -0.4198668599128723, 0.5231568813323975, 2.666804552078247, -6.562205791473389, 0.8260549306869507, 68.527587890625, 53.056427001953125, 192.0459747314453, -0.201416015625, 0.89697265625, -0.108642578125, 
174, 3825931514, -0.6017096638679504, 0.43280282616615295, -0.4257601499557495, 0.5189983248710632, 2.05360746383667, -6.182770252227783, 0.9021950364112854, 70.61561584472656, 58.247825622558594, 188.6060791015625, -0.17529296875, 0.904541015625, -0.123779296875, 
175, 3825939847, -0.6090007424354553, 0.42156103253364563, -0.4316127896308899, 0.5148965120315552, 1.1879273653030396, -5.492125034332275, 1.0062155723571777, 70.55036926269531, 60.97527313232422, 186.3220672607422, -0.146728515625, 0.908203125, -0.134033203125, 
176, 3825948180, -0.6158633232116699, 0.41047587990760803, -0.43746480345726013, 0.5107352137565613, 0.44810253381729126, -5.12921142578125, 1.1169427633285522, 66.37767791748047, 62.103633880615234, 183.0151824951172, -0.11962890625, 0.917236328125, -0.142333984375, 
177, 3825956513, -0.6221800446510315, 0.3998222053050995, -0.44332748651504517, 0.5064569711685181, 0.026190999895334244, -4.823930263519287, 1.1040637493133545, 58.89225387573242, 61.739173889160156, 177.4795379638672, -0.094970703125, 0.921875, -0.153564453125, 
178, 3825964846, -0.6278563737869263, 0.38984566926956177, -0.4491252303123474, 0.5021026134490967, -0.4232119023799896, -4.337678909301758, 1.1455284357070923, 49.53662872314453, 60.0010871887207, 169.3414306640625, -0.074462890625, 0.92578125, -0.166015625, 
179, 3825973179, -0.6328163743019104, 0.38065752387046814, -0.4548441171646118, 0.4977591037750244, -0.7959462404251099, -3.8517348766326904, 1.0937761068344116, 39.532066345214844, 58.30759811401367, 158.85479736328125, -0.04736328125, 0.927490234375, -0.170166015625, 
180, 3825981512, -0.6369767785072327, 0.37233445048332214, -0.46048131585121155, 0.49354690313339233, -1.0037034749984741, -3.2600903511047363, 1.0059146881103516, 29.16466522216797, 57.41570281982422, 146.5537872314453, -0.026611328125, 0.92919921875, -0.1767578125, 
181, 3825989845, -0.6403107047080994, 0.3648333251476288, -0.46615368127822876, 0.4894927740097046, -1.260297179222107, -2.5179314613342285, 1.1332663297653198, 18.52920913696289, 58.134056091308594, 134.38259887695312, -0.005615234375, 0.932861328125, -0.177978515625, 
182, 3825998178, -0.6428551077842712, 0.35802412033081055, -0.47193244099617004, 0.4856332242488861, -1.5988136529922485, -2.2093923091888428, 1.3357975482940674, 8.974276542663574, 60.5030517578125, 123.60362243652344, 0.013671875, 0.93505859375, -0.185302734375, 
183, 3826006511, -0.6446821689605713, 0.3517075479030609, -0.4777872562408447, 0.48208892345428467, -2.248126983642578, -2.2463531494140625, 1.507514238357544, 2.6574909687042236, 64.0355224609375, 113.05142211914062, 0.031005859375, 0.934326171875, -0.18603515625, 
184, 3826014844, -0.6457409858703613, 0.3457704782485962, -0.48358333110809326, 0.479178786277771, -2.9064345359802246, -2.217397451400757, 1.471865177154541, 0.10107507556676865, 69.17294311523438, 99.70948028564453, 0.0478515625, 0.93603515625, -0.183837890625, 
185, 3826023177, -0.6460434794425964, 0.34030699729919434, -0.48915237188339233, 0.47702476382255554, -3.1352486610412598, -2.376274585723877, 1.2792775630950928, -1.1464670896530151, 72.60103607177734, 83.62398529052734, 0.06298828125, 0.93994140625, -0.188720703125, 
186, 3826031510, -0.645653247833252, 0.3354451656341553, -0.49423471093177795, 0.4757564067840576, -2.996729612350464, -2.747734308242798, 1.077445149421692, -0.6118139624595642, 73.19239807128906, 65.0457992553711, 0.081787109375, 0.94091796875, -0.18701171875, 
187, 3826039843, -0.6448983550071716, 0.331202894449234, -0.49850741028785706, 0.4752943217754364, -3.017364740371704, -2.892364978790283, 1.0015233755111694, 3.0109713077545166, 68.08856201171875, 47.39020538330078, 0.087158203125, 0.9404296875, -0.18310546875, 
188, 3826048176, -0.6440736651420593, 0.32765519618988037, -0.5016380548477173, 0.4755776822566986, -3.243695020675659, -3.590386152267456, 1.1101040840148926, 9.078590393066406, 57.3526611328125, 30.5239315032959, 0.09521484375, 0.93798828125, -0.187744140625, 
189, 3826056509, -0.6432289481163025, 0.3248840272426605, -0.5034542083740234, 0.4767017662525177, -3.016813278198242, -4.92113733291626, 1.2410037517547607, 16.538299560546875, 44.49690628051758, 11.497254371643066, 0.0966796875, 0.93798828125, -0.190673828125, 
190, 3826064842, -0.6425928473472595, 0.3225622773170471, -0.5037884712219238, 0.478778600692749, -2.414473056793213, -6.402935028076172, 1.041251540184021, 29.77398681640625, 31.31808853149414, -5.122791767120361, 0.1005859375, 0.93701171875, -0.19384765625, 
191, 3826073175, -0.6424375772476196, 0.3201695680618286, -0.5025033354759216, 0.4819331169128418, -1.6905508041381836, -7.574268817901611, 0.9175081849098206, 50.69844436645508, 18.85784149169922, -18.344030380249023, 0.0986328125, 0.936279296875, -0.196533203125, 
192, 3826081508, -0.6428013443946838, 0.31733226776123047, -0.4998653531074524, 0.48605045676231384, -0.8855196237564087, -7.985754013061523, 1.2612297534942627, 72.49351501464844, 10.57087230682373, -26.12157440185547, 0.099365234375, 0.93505859375, -0.208251953125, 
193, 3826089841, -0.6437988877296448, 0.31392642855644226, -0.4963034689426422, 0.4905708134174347, -0.7049741148948669, -7.888608932495117, 1.5430810451507568, 89.2735824584961, 3.537480592727661, -25.736059188842773, 0.093505859375, 0.936279296875, -0.22021484375, 
194, 3826098174, -0.645271360874176, 0.30999577045440674, -0.49235835671424866, 0.49509042501449585, -0.7796279788017273, -7.318540096282959, 1.9574540853500366, 98.50703430175781, 0.5101631879806519, -20.43730354309082, 0.09033203125, 0.928466796875, -0.229736328125, 
195, 3826106507, -0.6469879150390625, 0.3057798445224762, -0.48873308300971985, 0.49904829263687134, -0.5242624878883362, -6.635647296905518, 2.7295081615448, 96.14400482177734, 1.1719634532928467, -10.648041725158691, 0.088623046875, 0.927490234375, -0.24755859375, 
196, 3826114840, -0.6486932039260864, 0.30140718817710876, -0.4858546257019043, 0.5022945404052734, -0.4849286675453186, -6.008646011352539, 3.409351348876953, 87.53795623779297, 6.046151638031006, -0.04486363008618355, 0.085693359375, 0.92578125, -0.258544921875, 
197, 3826123173, -0.6500873565673828, 0.29707205295562744, -0.4839053750038147, 0.5049494504928589, -0.6790958642959595, -5.605259418487549, 3.783827543258667, 75.58863067626953, 13.631914138793945, 6.536095142364502, 0.08935546875, 0.921630859375, -0.27099609375, 
198, 3826131506, -0.6509033441543579, 0.29317706823349, -0.48284581303596497, 0.5071840882301331, -0.6046913266181946, -5.217461109161377, 3.6938564777374268, 60.27279281616211, 20.732593536376953, 7.128338813781738, 0.089111328125, 0.922607421875, -0.285400390625, 
199, 3826139839, -0.6510481834411621, 0.2901098430156708, -0.4824448823928833, 0.5091400146484375, -0.4380958378314972, -4.973779678344727, 3.3280205726623535, 43.75199508666992, 24.116313934326172, 1.9619263410568237, 0.091064453125, 0.920166015625, -0.28759765625, 
200, 3826148172, -0.6506384015083313, 0.28820568323135376, -0.4822663366794586, 0.5109111070632935, -0.28568875789642334, -5.71028470993042, 2.8557426929473877, 28.304244995117188, 20.976335525512695, -6.953874588012695, 0.091552734375, 0.91796875, -0.29296875, 
201, 3826156505, -0.6498748660087585, 0.28736284375190735, -0.4817837178707123, 0.5128094553947449, -0.173017680644989, -7.475619792938232, 2.8012075424194336, 20.423730850219727, 13.582829475402832, -18.9561767578125, 0.09130859375, 0.91748046875, -0.2978515625, 
202, 3826164838, -0.6490391492843628, 0.28728389739990234, -0.48063740134239197, 0.514983057975769, 0.1767420917749405, -9.071089744567871, 2.802454948425293, 19.779306411743164, 3.8965952396392822, -29.475446701049805, 0.09033203125, 0.916259765625, -0.302490234375, 
203, 3826173171, -0.6485728025436401, 0.28746387362480164, -0.47870907187461853, 0.5172614455223083, 0.4944971203804016, -9.615409851074219, 2.813305616378784, 25.197736740112305, -7.007925033569336, -32.71648406982422, 0.08447265625, 0.91455078125, -0.3056640625, 
204, 3826181504, -0.6488012671470642, 0.28745537996292114, -0.4761021137237549, 0.5193814039230347, 0.3943686783313751, -9.887473106384277, 3.4229283332824707, 33.36934280395508, -16.85511016845703, -27.682241439819336, 0.0908203125, 0.915283203125, -0.308349609375, 
205, 3826189837, -0.649684488773346, 0.28704965114593506, -0.47335439920425415, 0.5210105180740356, 0.25586408376693726, -10.044527053833008, 4.35760498046875, 37.337249755859375, -21.560195922851562, -16.688716888427734, 0.078125, 0.911865234375, -0.315673828125, 
206, 3826198170, -0.6510558724403381, 0.28590676188468933, -0.47083747386932373, 0.5222062468528748, 0.1577109843492508, -10.072338104248047, 4.856358528137207, 41.33207321166992, -19.046510696411133, -3.503354787826538, 0.0751953125, 0.9111328125, -0.3193359375, 
207, 3826206503, -0.6526572108268738, 0.2838606536388397, -0.46883729100227356, 0.5231226086616516, 0.14630930125713348, -10.147635459899902, 4.921947002410889, 44.84576416015625, -10.575969696044922, 8.438265800476074, 0.077880859375, 0.9091796875, -0.325439453125, 
208, 3826214836, -0.6541855931282043, 0.28100231289863586, -0.46742454171180725, 0.5240201950073242, 0.019033264368772507, -9.662840843200684, 4.637945175170898, 47.461177825927734, 0.990402102470398, 15.701711654663086, 0.075439453125, 0.905029296875, -0.33251953125, 
209, 3826223169, -0.6555277705192566, 0.2776685059070587, -0.4666150212287903, 0.5248405933380127, -0.25974488258361816, -8.869885444641113, 4.092785358428955, 46.21902847290039, 10.69186782836914, 20.365079879760742, 0.084716796875, 0.910400390625, -0.334716796875, 
210, 3826231502, -0.6566489934921265, 0.27440938353538513, -0.4662565588951111, 0.5254711508750916, -0.7812634706497192, -8.182640075683594, 3.587716579437256, 40.1843376159668, 14.962994575500488, 21.802038192749023, 0.08544921875, 0.9052734375, -0.34521484375, 
211, 3826239835, -0.6575003862380981, 0.27167001366615295, -0.46624866127967834, 0.5258371233940125, -1.328281044960022, -7.654311656951904, 3.5269594192504883, 30.286415100097656, 15.057477951049805, 20.163501739501953, 0.0859375, 0.903564453125, -0.3486328125, 
212, 3826248168, -0.6579230427742004, 0.2699560225009918, -0.4665892422199249, 0.5258890390396118, -1.7376521825790405, -7.358100891113281, 3.6084322929382324, 14.838153839111328, 12.416735649108887, 14.698326110839844, 0.098388671875, 0.9052734375, -0.35302734375, 
213, 3826256501, -0.6578920483589172, 0.2693940997123718, -0.467145174741745, 0.5257223844528198, -1.9065288305282593, -7.013086795806885, 3.6936733722686768, -0.18656131625175476, 8.087696075439453, 6.738773345947266, 0.093994140625, 0.900146484375, -0.354736328125, 
214, 3826264834, -0.6574131846427917, 0.27009856700897217, -0.4678913652896881, 0.5252962708473206, -2.0304348468780518, -6.642462730407715, 4.154967784881592, -16.387569427490234, 2.6137285232543945, -1.5181946754455566, 0.092041015625, 0.899169921875, -0.355712890625, 
215, 3826273167, -0.6565297842025757, 0.2717048227787018, -0.4687584638595581, 0.5247994065284729, -2.044105291366577, -6.954018592834473, 4.49092435836792, -27.329654693603516, -0.5104024410247803, -9.2145357131958, 0.091552734375, 0.90185546875, -0.349365234375, 
216, 3826281500, -0.65520840883255, 0.27378717064857483, -0.46955129504203796, 0.5246598720550537, -1.7728205919265747, -7.58898401260376, 5.0420331954956055, -30.46733283996582, -0.4149383008480072, -18.888355255126953, 0.0908203125, 0.904296875, -0.344482421875, 
217, 3826289833, -0.653497576713562, 0.2759803831577301, -0.4702327847480774, 0.5250337719917297, -1.638572335243225, -7.877750396728516, 5.10599422454834, -28.777029037475586, 2.190737247467041, -27.514041900634766, 0.08935546875, 0.90380859375, -0.339599609375, 
218, 3826298166, -0.6514932513237, 0.2779307961463928, -0.4707154631614685, 0.5260623693466187, -1.716870665550232, -8.406444549560547, 5.463187217712402, -22.076160430908203, 6.57920503616333, -34.64605712890625, 0.08837890625, 0.90576171875, -0.341796875, 
219, 3826306499, -0.6490522027015686, 0.2798401713371277, -0.4713838994503021, 0.5274671316146851, -1.5010054111480713, -8.24386215209961, 5.884394645690918, -22.254039764404297, 12.769771575927734, -40.25288772583008, 0.08056640625, 0.90771484375, -0.339599609375, 
220, 3826314832, -0.6462098360061646, 0.28174281120300293, -0.4726162552833557, 0.528839647769928, -1.0339243412017822, -7.843238830566406, 6.059693813323975, -28.0717716217041, 20.364879608154297, -40.60877227783203, 0.075927734375, 0.9072265625, -0.3349609375, 
221, 3826323165, -0.6429526209831238, 0.28364840149879456, -0.4746285676956177, 0.5299875736236572, -0.6933303475379944, -7.841630458831787, 6.201853275299072, -36.81058120727539, 29.071075439453125, -38.672794342041016, 0.073974609375, 0.909423828125, -0.3330078125, 
222, 3826331498, -0.6391642689704895, 0.28573882579803467, -0.47748690843582153, 0.5308788418769836, -0.6522096991539001, -8.23913860321045, 6.180511474609375, -48.38255310058594, 37.69807434082031, -38.13547897338867, 0.075927734375, 0.91162109375, -0.3251953125, 
223, 3826339831, -0.6348894834518433, 0.2879948914051056, -0.4809156060218811, 0.5316935777664185, -0.8078977465629578, -8.912031173706055, 5.623201370239258, -56.399662017822266, 44.37377166748047, -39.89854431152344, 0.07373046875, 0.912109375, -0.3212890625, 
224, 3826348164, -0.6303393244743347, 0.290289044380188, -0.48452234268188477, 0.5325847268104553, -0.7706168293952942, -9.327383041381836, 4.938549995422363, -58.636348724365234, 47.796451568603516, -42.088348388671875, 0.06591796875, 0.912109375, -0.315673828125, 
225, 3826356497, -0.6259052753448486, 0.2923351526260376, -0.48790568113327026, 0.5336052775382996, -0.6043834090232849, -9.716629981994629, 4.1693243980407715, -53.512237548828125, 47.40188217163086, -41.62662124633789, 0.062255859375, 0.914794921875, -0.306640625, 
226, 3826364830, -0.6219699382781982, 0.29395726323127747, -0.49084869027137756, 0.5346156358718872, -0.5719770193099976, -10.089962005615234, 3.4506444931030273, -44.707862854003906, 43.3536262512207, -36.7779655456543, 0.05908203125, 0.91748046875, -0.30224609375, 
227, 3826373163, -0.6186079382896423, 0.2950884699821472, -0.4933962821960449, 0.5355474352836609, -0.6028561592102051, -10.161831855773926, 3.384077310562134, -35.80104064941406, 39.38127136230469, -30.195396423339844, 0.056640625, 0.9189453125, -0.296142578125, 
228, 3826381496, -0.6158429384231567, 0.29586970806121826, -0.4957493841648102, 0.5361296534538269, -0.7276404500007629, -9.830389022827148, 3.270402669906616, -31.353649139404297, 34.84470748901367, -21.217586517333984, 0.052001953125, 0.919189453125, -0.289794921875, 
229, 3826389829, -0.6138980984687805, 0.2962267994880676, -0.49777576327323914, 0.5362851619720459, -1.0579122304916382, -9.798712730407715, 2.995049476623535, -24.910913467407227, 27.87160301208496, -10.006023406982422, 0.058837890625, 0.924560546875, -0.288818359375, 
230, 3826398162, -0.6128101348876953, 0.2963499128818512, -0.499338299036026, 0.5360089540481567, -1.3923355340957642, -10.141048431396484, 2.8951401710510254, -18.99336051940918, 18.06368064880371, -0.32078003883361816, 0.052978515625, 0.921630859375, -0.283935546875, 
231, 3826406495, -0.6121255159378052, 0.2966685891151428, -0.5006735920906067, 0.5353689193725586, -1.5193778276443481, -10.166522979736328, 3.2118303775787354, -19.804973602294922, 10.449869155883789, 3.447549343109131, 0.053955078125, 0.923095703125, -0.284912109375, 
232, 3826414828, -0.6116068363189697, 0.29731425642967224, -0.5018613338470459, 0.5344908237457275, -1.7861402034759521, -9.847235679626465, 3.6256933212280273, -22.44902801513672, 4.691966533660889, 3.8231825828552246, 0.060302734375, 0.925537109375, -0.279296875, 
233, 3826423161, -0.6111685633659363, 0.29834118485450745, -0.5029988288879395, 0.5333492159843445, -2.1137044429779053, -9.417940139770508, 3.9630489349365234, -26.759071350097656, -0.16870829463005066, 3.795750856399536, 0.056396484375, 0.92138671875, -0.27685546875, 
234, 3826431494, -0.6106895804405212, 0.29962968826293945, -0.5041460990905762, 0.5320909023284912, -1.7971726655960083, -9.297791481018066, 4.585184574127197, -30.02040672302246, -2.199073553085327, 2.7077343463897705, 0.054443359375, 0.924560546875, -0.273193359375, 
235, 3826439827, -0.609836220741272, 0.30054971575737, -0.5055502653121948, 0.5312176942825317, -1.097179651260376, -9.612360954284668, 5.751120090484619, -27.6650447845459, 6.837340354919434, 0.35217031836509705, 0.054931640625, 0.925048828125, -0.272216796875, 
236, 3826448160, -0.6088609099388123, 0.30080169439315796, -0.5074150562286377, 0.530415415763855, -1.531468152999878, -10.4353609085083, 5.101883888244629, -25.451953887939453, 16.720321655273438, 5.406888484954834, 0.05810546875, 0.92724609375, -0.26513671875, 
237, 3826456493, -0.6081680059432983, 0.30073919892311096, -0.5090540051460266, 0.5296747088432312, -2.467473030090332, -11.361519813537598, 4.231358528137207, -19.56832504272461, 15.411017417907715, 8.229755401611328, 0.0595703125, 0.9287109375, -0.2626953125, 
238, 3826464826, -0.6078318953514099, 0.3003246486186981, -0.5108137130737305, 0.5286006927490234, -2.759582996368408, -11.716629981994629, 4.077292442321777, -18.36747932434082, 15.106771469116211, 16.5622501373291, 0.06298828125, 0.929443359375, -0.260986328125, 
239, 3826473159, -0.6078779101371765, 0.2995988726615906, -0.512674868106842, 0.5271556377410889, -2.5667052268981934, -11.335464477539062, 3.690185785293579, -17.526721954345703, 14.005237579345703, 25.067445755004883, 0.068359375, 0.930419921875, -0.26025390625, 
240, 3826481492, -0.6081772446632385, 0.29844966530799866, -0.5143458247184753, 0.5258329510688782, -2.4350671768188477, -11.352145195007324, 3.7273752689361572, -10.706235885620117, 14.196191787719727, 28.062471389770508, 0.07861328125, 0.93359375, -0.25732421875, 
241, 3826489825, -0.6084745526313782, 0.29707032442092896, -0.5158796906471252, 0.5247664451599121, -2.831376791000366, -10.851795196533203, 4.03813362121582, -5.981735706329346, 15.788909912109375, 26.99378776550293, 0.07861328125, 0.93115234375, -0.2548828125, 
242, 3826498158, -0.6087536215782166, 0.29566413164138794, -0.517462968826294, 0.5236771106719971, -3.360252618789673, -10.051238059997559, 3.9410293102264404, -6.3570098876953125, 16.42498779296875, 27.421289443969727, 0.080322265625, 0.93115234375, -0.2568359375, 
243, 3826506491, -0.6092012524604797, 0.29431653022766113, -0.5189032554626465, 0.5224889516830444, -3.713942527770996, -9.940617561340332, 3.71232008934021, -5.829792499542236, 13.21250057220459, 28.492277145385742, 0.0810546875, 0.9306640625, -0.25439453125, 
244, 3826514824, -0.6100724935531616, 0.29305920004844666, -0.5199819207191467, 0.5211048722267151, -3.775669574737549, -10.381162643432617, 3.342409610748291, -3.6771442890167236, 5.711185455322266, 31.04217529296875, 0.086669921875, 0.932373046875, -0.253173828125, 
245, 3826523157, -0.6115129590034485, 0.29181814193725586, -0.5207339525222778, 0.5193594694137573, -3.6171417236328125, -10.5381498336792, 3.278686285018921, -1.7587909698486328, -2.6655359268188477, 36.74594497680664, 0.092041015625, 0.931396484375, -0.25537109375, 
246, 3826531490, -0.6134909987449646, 0.2903575599193573, -0.5211922526359558, 0.5173818469047546, -3.1506052017211914, -10.339422225952148, 3.2567899227142334, 2.676973581314087, -8.356081008911133, 42.90419387817383, 0.102294921875, 0.93310546875, -0.25634765625, 
247, 3826539823, -0.6158828139305115, 0.28847163915634155, -0.5214701294898987, 0.5153108835220337, -2.8620009422302246, -9.983180046081543, 3.0160558223724365, 8.534194946289062, -10.180464744567871, 48.99166488647461, 0.103271484375, 0.9326171875, -0.2568359375, 
248, 3826548156, -0.6185960173606873, 0.28622564673423767, -0.5214597582817078, 0.5133200883865356, -2.4973809719085693, -9.971508026123047, 2.783170700073242, 15.474701881408691, -12.069012641906738, 52.00300979614258, 0.11181640625, 0.93408203125, -0.25732421875, 
249, 3826556489, -0.6215839982032776, 0.2837986350059509, -0.5211920738220215, 0.5113261938095093, -2.6426663398742676, -9.438043594360352, 2.8084983825683594, 19.893024444580078, -14.94998836517334, 54.284034729003906, 0.11572265625, 0.93212890625, -0.257080078125, 
250, 3826564822, -0.6245745420455933, 0.2814672291278839, -0.5209499001502991, 0.5092129707336426, -2.6994612216949463, -8.845907211303711, 3.2430129051208496, 18.04843521118164, -15.898358345031738, 54.70608139038086, 0.124755859375, 0.93017578125, -0.26318359375, 
251, 3826573155, -0.6275790333747864, 0.27933138608932495, -0.5209556221961975, 0.5066828727722168, -2.8154821395874023, -9.044635772705078, 3.67726469039917, 11.703337669372559, -16.841045379638672, 57.977821350097656, 0.134521484375, 0.933837890625, -0.2626953125, 
252, 3826581488, -0.6308088302612305, 0.2770618498325348, -0.5212055444717407, 0.503652036190033, -3.120593309402466, -10.370962142944336, 3.984367847442627, 8.430319786071777, -17.350988388061523, 65.72986602783203, 0.139404296875, 0.929443359375, -0.264404296875, 
253, 3826589821, -0.634353756904602, 0.27431437373161316, -0.5216010212898254, 0.5002830624580383, -3.219848155975342, -11.559479713439941, 4.13461971282959, 10.34738540649414, -16.312345504760742, 74.86438751220703, 0.15234375, 0.933349609375, -0.266357421875, 
254, 3826598154, -0.638099193572998, 0.271075040102005, -0.5220995545387268, 0.49675309658050537, -3.1674249172210693, -11.933538436889648, 4.056739807128906, 13.529293060302734, -14.08915901184082, 81.52689361572266, 0.15771484375, 0.931396484375, -0.271484375, 
255, 3826606487, -0.6417769193649292, 0.26759520173072815, -0.5228581428527832, 0.4930908679962158, -2.8884382247924805, -11.770203590393066, 3.9978432655334473, 12.66260814666748, -10.152152061462402, 84.96781158447266, 0.169677734375, 0.928466796875, -0.27294921875, 
256, 3826614820, -0.6452056169509888, 0.26398852467536926, -0.5240307450294495, 0.4893009662628174, -2.465473175048828, -11.741806983947754, 3.8273119926452637, 9.13817024230957, -4.336122512817383, 86.79320526123047, 0.179931640625, 0.92822265625, -0.26806640625, 
257, 3826623153, -0.6483103036880493, 0.2602786421775818, -0.5257068872451782, 0.4853707253932953, -2.3665478229522705, -11.684663772583008, 3.6859683990478516, 4.482905387878418, 2.671147346496582, 88.48727416992188, 0.18994140625, 0.9248046875, -0.26953125, 
258, 3826631486, -0.6511669158935547, 0.2563825249671936, -0.527872622013092, 0.4812525808811188, -2.4487709999084473, -11.631528854370117, 3.552398443222046, 0.6244283318519592, 9.381717681884766, 91.54777526855469, 0.20654296875, 0.92919921875, -0.268310546875, 
259, 3826639819, -0.6538448333740234, 0.2523519992828369, -0.530412495136261, 0.47693994641304016, -2.827526330947876, -11.435858726501465, 3.5254006385803223, -2.6822288036346436, 14.25407600402832, 94.47335815429688, 0.216552734375, 0.9248046875, -0.267822265625, 
260, 3826648152, -0.6564008593559265, 0.24826973676681519, -0.5331916213035583, 0.4724518060684204, -3.248258590698242, -11.702978134155273, 3.6612167358398438, -5.497079372406006, 17.002798080444336, 96.38983154296875, 0.2294921875, 0.921875, -0.26708984375, 
261, 3826656485, -0.6588963270187378, 0.24419637024402618, -0.5361016988754272, 0.46778497099876404, -3.598217248916626, -11.704117774963379, 3.800438165664673, -7.935270309448242, 17.98611831665039, 98.0716781616211, 0.240234375, 0.924560546875, -0.267333984375, 
262, 3826664818, -0.6613948345184326, 0.2402024120092392, -0.5391319990158081, 0.4628177881240845, -3.9891345500946045, -11.230290412902832, 3.9399983882904053, -11.64091968536377, 17.506980895996094, 100.54988098144531, 0.255615234375, 0.919921875, -0.266845703125, 
263, 3826673151, -0.6639736890792847, 0.2363344430923462, -0.5422453284263611, 0.4574483036994934, -4.2732086181640625, -10.656682014465332, 4.074926853179932, -16.021644592285156, 15.565155982971191, 104.15275573730469, 0.269287109375, 0.921142578125, -0.261474609375, 
264, 3826681484, -0.6667541265487671, 0.2324882596731186, -0.5453695058822632, 0.45162394642829895, -4.628304958343506, -10.289078712463379, 4.1059722900390625, -19.039152145385742, 12.5188627243042, 109.35387420654297, 0.2841796875, 0.919921875, -0.25830078125, 
265, 3826689817, -0.6698055267333984, 0.22845950722694397, -0.548431932926178, 0.44541338086128235, -4.808345317840576, -10.33250617980957, 4.065006256103516, -18.997377395629883, 9.845516204833984, 115.84988403320312, 0.30517578125, 0.920166015625, -0.25634765625, 
266, 3826698150, -0.6731032729148865, 0.2241019606590271, -0.5514053106307983, 0.43893808126449585, -4.882296562194824, -10.260769844055176, 3.9365017414093018, -16.66034698486328, 8.325044631958008, 121.89656829833984, 0.319580078125, 0.912841796875, -0.254638671875, 
267, 3826706483, -0.6764817833900452, 0.21945135295391083, -0.5543336272239685, 0.4323557913303375, -4.933771133422852, -10.030731201171875, 3.6332061290740967, -14.224028587341309, 8.7630615234375, 125.56739044189453, 0.3330078125, 0.91064453125, -0.2490234375, 
268, 3826714816, -0.6797771453857422, 0.21468904614448547, -0.5572542548179626, 0.4257737398147583, -5.052985191345215, -9.798653602600098, 3.4013826847076416, -13.401262283325195, 9.959108352661133, 125.79010772705078, 0.354248046875, 0.90966796875, -0.24658203125, 
269, 3826723149, -0.6828979253768921, 0.20998477935791016, -0.560154378414154, 0.4192705452442169, -5.304478645324707, -9.978047370910645, 3.3337559700012207, -13.721697807312012, 11.031793594360352, 123.63921356201172, 0.366455078125, 0.904296875, -0.241943359375, 
270, 3826731482, -0.6858081817626953, 0.2053830921649933, -0.5630148649215698, 0.41292035579681396, -5.605902671813965, -9.839523315429688, 3.2274208068847656, -13.89901351928711, 12.098553657531738, 119.97080993652344, 0.39013671875, 0.904052734375, -0.243408203125, 
271, 3826739815, -0.688573956489563, 0.20092234015464783, -0.5657883286476135, 0.4066736698150635, -5.789167404174805, -9.131070137023926, 3.164506435394287, -14.325692176818848, 11.922830581665039, 116.95935821533203, 0.396240234375, 0.894775390625, -0.239013671875, 
272, 3826748148, -0.6912941932678223, 0.19661612808704376, -0.5684182047843933, 0.40044862031936646, -5.959040641784668, -8.800633430480957, 3.220080614089966, -14.958700180053711, 10.07750415802002, 114.7784194946289, 0.41259765625, 0.89111328125, -0.23974609375, 
273, 3826756481, -0.6941081881523132, 0.19246280193328857, -0.5708022117614746, 0.3941580057144165, -6.2497239112854, -8.510607719421387, 3.2705984115600586, -15.30026626586914, 6.025665283203125, 114.18303680419922, 0.42529296875, 0.886474609375, -0.230712890625, 
274, 3826764814, -0.6970961093902588, 0.18831051886081696, -0.5729492902755737, 0.38772302865982056, -6.388056755065918, -8.16229248046875, 3.348093271255493, -14.715848922729492, 1.9739078283309937, 115.74440002441406, 0.441162109375, 0.884033203125, -0.23193359375, 
275, 3826773147, -0.7003509998321533, 0.18393613398075104, -0.5748305916786194, 0.38111621141433716, -6.440470218658447, -8.108509063720703, 3.3485422134399414, -11.814909934997559, -1.9020990133285522, 120.00578308105469, 0.45703125, 0.88134765625, -0.22802734375, 
276, 3826781480, -0.7038713097572327, 0.1793196052312851, -0.5764315724372864, 0.3743528425693512, -6.658292770385742, -7.624716281890869, 3.2346343994140625, -8.595447540283203, -5.864907741546631, 123.98002624511719, 0.476318359375, 0.876708984375, -0.22607421875, 
277, 3826789813, -0.7075582146644592, 0.17459362745285034, -0.5778355002403259, 0.3674076497554779, -6.72297477722168, -7.185176372528076, 3.173733949661255, -7.535675048828125, -8.9390230178833, 127.11184692382812, 0.49169921875, 0.867431640625, -0.228271484375, 
278, 3826798146, -0.7113027572631836, 0.16976714134216309, -0.5791776180267334, 0.3602561354637146, -6.6315412521362305, -7.116705417633057, 3.059460163116455, -7.763880252838135, -10.023807525634766, 129.92953491210938, 0.503662109375, 0.861572265625, -0.22119140625, 
279, 3826806479, -0.715050458908081, 0.16474083065986633, -0.5804566740989685, 0.35303977131843567, -6.61965799331665, -7.186736583709717, 2.8466200828552246, -5.987022876739502, -9.79082202911377, 132.15701293945312, 0.51708984375, 0.850830078125, -0.224853515625, 
280, 3826814812, -0.7187924981117249, 0.1594046652317047, -0.5817012190818787, 0.3457673192024231, -6.665432453155518, -6.702767372131348, 2.6877126693725586, -3.252176523208618, -8.741625785827637, 134.94088745117188, 0.530029296875, 0.846435546875, -0.22265625, 
281, 3826823145, -0.722429096698761, 0.15374284982681274, -0.5829744935035706, 0.3385320007801056, -6.769983768463135, -6.383008003234863, 2.6641957759857178, -0.0828506201505661, -5.951041221618652, 136.880126953125, 0.5498046875, 0.836669921875, -0.22412109375, 
282, 3826831478, -0.7258909940719604, 0.1477048099040985, -0.5842849016189575, 0.33148193359375, -6.855582237243652, -6.455440998077393, 2.6514952182769775, 4.576494216918945, -2.0717520713806152, 137.181396484375, 0.566650390625, 0.83251953125, -0.22265625, 
283, 3826839811, -0.7291716933250427, 0.14142902195453644, -0.5855662226676941, 0.324688196182251, -7.182286739349365, -6.631664752960205, 2.688689947128296, 8.796635627746582, 0.7326303124427795, 135.78973388671875, 0.587158203125, 0.82177734375, -0.2236328125, 
284, 3826848144, -0.7322248816490173, 0.13511599600315094, -0.5868538022041321, 0.3181142508983612, -7.483852863311768, -6.165299415588379, 2.7459607124328613, 10.446263313293457, 3.1873056888580322, 132.7411346435547, 0.5986328125, 0.8134765625, -0.224365234375, 
285, 3826856477, -0.7350652813911438, 0.1289256066083908, -0.588160514831543, 0.31165361404418945, -7.60610294342041, -5.6626152992248535, 2.7612483501434326, 9.673079490661621, 4.8029465675354, 129.8582000732422, 0.614990234375, 0.804443359375, -0.2265625, 
286, 3826864810, -0.7377409338951111, 0.12293918430805206, -0.5894453525543213, 0.3052572011947632, -7.843705177307129, -5.439486980438232, 2.8398327827453613, 7.906253814697266, 5.1215620040893555, 126.67156982421875, 0.631591796875, 0.792724609375, -0.2275390625, 
287, 3826873143, -0.740269660949707, 0.11718882620334625, -0.5907048583030701, 0.2988964021205902, -8.028773307800293, -5.1856536865234375, 2.9265501499176025, 5.684004306793213, 5.1596479415893555, 123.87944030761719, 0.6474609375, 0.783935546875, -0.22705078125, 
288, 3826881476, -0.7427021861076355, 0.1116940975189209, -0.5919157862663269, 0.29250162839889526, -8.10540771484375, -4.821066856384277, 2.918848752975464, 2.824211359024048, 4.305271148681641, 121.53104400634766, 0.658447265625, 0.774658203125, -0.22900390625, 
289, 3826889809, -0.7450725436210632, 0.10646963119506836, -0.5930533409118652, 0.2860465347766876, -8.185420989990234, -4.962382793426514, 3.0337846279144287, -0.20090778172016144, 2.9170114994049072, 119.72754669189453, 0.671875, 0.765380859375, -0.22314453125, 
290, 3826898142, -0.7473520040512085, 0.10125674307346344, -0.5942288041114807, 0.279477596282959, -7.954446792602539, -4.791936874389648, 3.1434199810028076, -1.5560461282730103, 3.7989206314086914, 120.35525512695312, 0.684814453125, 0.757568359375, -0.224365234375, 
291, 3826906475, -0.749607503414154, 0.09584887325763702, -0.5953370332717896, 0.2729088366031647, -8.142763137817383, -4.83761739730835, 2.8333873748779297, 0.699892520904541, 4.089699745178223, 121.90306091308594, 0.6962890625, 0.745849609375, -0.224609375, 
292, 3826914808, -0.7517985105514526, 0.09033854305744171, -0.5963790416717529, 0.26640892028808594, -8.369772911071777, -4.5249104499816895, 2.834115743637085, 2.457589626312256, 4.3749165534973145, 121.56133270263672, 0.715087890625, 0.741943359375, -0.223388671875, 
293, 3826923141, -0.7538909912109375, 0.08455418050289154, -0.5974301099777222, 0.25996148586273193, -7.941247940063477, -4.854331016540527, 2.9383111000061035, 5.591226577758789, 6.382640361785889, 123.05975341796875, 0.7236328125, 0.72509765625, -0.22216796875, 
294, 3826931474, -0.7557922601699829, 0.07847815006971359, -0.598604142665863, 0.253566712141037, -7.723578453063965, -4.306882381439209, 3.0233047008514404, 8.35993480682373, 10.294988632202148, 124.22547149658203, 0.740234375, 0.71875, -0.22265625, 
295, 3826939807, -0.7575347423553467, 0.07207894325256348, -0.5998589396476746, 0.24722203612327576, -7.891468048095703, -4.081529140472412, 2.8552842140197754, 11.705743789672852, 13.658088684082031, 126.0444107055664, 0.753662109375, 0.70556640625, -0.220458984375, 
296, 3826948140, -0.7591640949249268, 0.0656789094209671, -0.6010953187942505, 0.24092355370521545, -8.457863807678223, -3.81840181350708, 2.915987253189087, 12.017474174499512, 14.414898872375488, 125.02190399169922, 0.76123046875, 0.691650390625, -0.2236328125, 
297, 3826956473, -0.7606666088104248, 0.059283822774887085, -0.6023502945899963, 0.23462626338005066, -8.399538040161133, -3.5577826499938965, 3.0470123291015625, 11.827743530273438, 15.67782211303711, 124.71090698242188, 0.773681640625, 0.682861328125, -0.221923828125, 
298, 3826964806, -0.7620589733123779, 0.052840836346149445, -0.6036263704299927, 0.2282830774784088, -8.379669189453125, -3.1928699016571045, 2.9229021072387695, 11.763273239135742, 16.890419006347656, 125.10416412353516, 0.7861328125, 0.671142578125, -0.22119140625, 
299, 3826973139, -0.7634099721908569, 0.046422939747571945, -0.6048425436019897, 0.22185438871383667, -8.591679573059082, -3.138077974319458, 2.7016959190368652, 10.976318359375, 16.502079010009766, 125.76268005371094, 0.7998046875, 0.65966796875, -0.221435546875, 
300, 3826981472, -0.7645819187164307, 0.040199801325798035, -0.6061385869979858, 0.21540315449237823, -8.579788208007812, -2.3759171962738037, 2.7151057720184326, 8.358039855957031, 18.185335159301758, 123.73944091796875, 0.812255859375, 0.6455078125, -0.219482421875, 
301, 3826989805, -0.7655677199363708, 0.0339612141251564, -0.6075196266174316, 0.20898929238319397, -8.458340644836426, -2.3496246337890625, 2.5247642993927, 8.5049409866333, 20.7335262298584, 123.11383056640625, 0.82275390625, 0.629638671875, -0.21484375, 
302, 3826998138, -0.7664146423339844, 0.02770403027534485, -0.6088705062866211, 0.20278505980968475, -8.756986618041992, -2.4043619632720947, 2.473588705062866, 10.446545600891113, 21.68983268737793, 120.50616455078125, 0.84375, 0.62353515625, -0.21630859375, 
303, 3827006471, -0.7671232223510742, 0.021440181881189346, -0.6101921200752258, 0.19680321216583252, -8.783561706542969, -2.05001163482666, 2.5602493286132812, 12.434924125671387, 22.68072509765625, 117.96156311035156, 0.846923828125, 0.606201171875, -0.212890625, 
304, 3827014804, -0.7678011059761047, 0.015154622495174408, -0.6113776564598083, 0.1909790188074112, -8.858125686645508, -2.2529914379119873, 2.6767373085021973, 14.318459510803223, 21.57073402404785, 116.2188949584961, 0.8564453125, 0.59326171875, -0.208740234375, 
305, 3827023137, -0.7683883309364319, 0.008924059569835663, -0.6124796867370605, 0.1853967308998108, -9.02656364440918, -2.509695053100586, 2.744149684906006, 15.998945236206055, 21.396007537841797, 113.083740234375, 0.867919921875, 0.580810546875, -0.21142578125, 
306, 3827031470, -0.7687815427780151, 0.002636827528476715, -0.6136072874069214, 0.18016032874584198, -8.70962142944336, -2.305527925491333, 2.707334280014038, 19.395496368408203, 23.44866180419922, 109.2753677368164, 0.87548828125, 0.567138671875, -0.20751953125, 
307, 3827039803, -0.7690186500549316, -0.0036024749279022217, -0.6147764325141907, 0.17507454752922058, -8.6945219039917, -1.7303581237792969, 2.548041582107544, 20.077198028564453, 25.132835388183594, 107.03350830078125, 0.891357421875, 0.559326171875, -0.2099609375, 
308, 3827048136, -0.7690666317939758, -0.009638417512178421, -0.6160415410995483, 0.1701183319091797, -8.758625030517578, -1.1959002017974854, 2.51497483253479, 18.77427864074707, 27.20818519592285, 103.34407043457031, 0.89599609375, 0.54443359375, -0.2080078125, 
309, 3827056469, -0.7689579725265503, -0.01531536877155304, -0.6174037456512451, 0.1651829183101654, -8.6343412399292, -0.8618234992027283, 2.473357677459717, 14.972792625427246, 28.762197494506836, 99.84107208251953, 0.906982421875, 0.5361328125, -0.207275390625, 
310, 3827064802, -0.7687073349952698, -0.02061598002910614, -0.6189004182815552, 0.16009420156478882, -8.56306266784668, -0.32246696949005127, 2.2410387992858887, 9.390752792358398, 30.52543830871582, 97.7785415649414, 0.91162109375, 0.523193359375, -0.201416015625, 
311, 3827073135, -0.7683343291282654, -0.025642357766628265, -0.6205122470855713, 0.15483279526233673, -8.517471313476562, 0.09427368640899658, 1.9604368209838867, 4.82740592956543, 32.2681884765625, 97.10296630859375, 0.919677734375, 0.50732421875, -0.199462890625, 
312, 3827081468, -0.7678759098052979, -0.030531588941812515, -0.6221733689308167, 0.1494608223438263, -8.574444770812988, 0.22075510025024414, 1.779881477355957, 2.33586049079895, 33.22547912597656, 96.76651763916016, 0.93408203125, 0.499755859375, -0.198974609375, 
313, 3827089801, -0.7673555612564087, -0.03535126894712448, -0.6238358616828918, 0.14404261112213135, -8.740537643432617, 0.2643144130706787, 1.6925121545791626, 1.2515231370925903, 33.68717575073242, 96.6588134765625, 0.935791015625, 0.48828125, -0.19384765625, 
314, 3827098134, -0.7667900323867798, -0.0401458814740181, -0.6254621744155884, 0.13864406943321228, -8.879190444946289, 0.13593940436840057, 1.6588815450668335, 1.226881742477417, 33.59273147583008, 96.03713989257812, 0.9423828125, 0.47412109375, -0.187255859375, 
315, 3827106467, -0.7661688923835754, -0.04489049315452576, -0.6270398497581482, 0.13339655101299286, -8.959892272949219, 0.11356569826602936, 1.7363865375518799, 2.143136501312256, 33.41754913330078, 94.0575942993164, 0.953369140625, 0.46533203125, -0.182373046875, 
316, 3827114800, -0.7655131816864014, -0.049521759152412415, -0.6285389065742493, 0.128373920917511, -9.1815824508667, 0.10491813719272614, 1.6743531227111816, 3.0325193405151367, 32.50357437133789, 90.57353973388672, 0.954833984375, 0.452392578125, -0.179931640625, 
317, 3827123133, -0.7648516893386841, -0.054104216396808624, -0.6299379467964172, 0.12351800501346588, -9.180549621582031, 0.49480339884757996, 1.6195590496063232, 4.160322189331055, 31.337085723876953, 88.57302856445312, 0.962890625, 0.441162109375, -0.174560546875, 
318, 3827131466, -0.7641745805740356, -0.05868393927812576, -0.6312635540962219, 0.11875991523265839, -9.00861930847168, 0.7400484681129456, 1.6632364988327026, 5.095400810241699, 30.586824417114258, 87.42931365966797, 0.970458984375, 0.433837890625, -0.170166015625, 
319, 3827139799, -0.7635037899017334, -0.06309406459331512, -0.6324986815452576, 0.11415109038352966, -9.145659446716309, 0.8141051530838013, 1.640550971031189, 4.770326614379883, 29.21769905090332, 84.58511352539062, 0.97705078125, 0.42236328125, -0.16845703125, 
320, 3827148132, -0.7628503441810608, -0.06721562147140503, -0.6336512565612793, 0.10968849062919617, -9.196457862854004, 0.952968955039978, 1.5462309122085571, 3.1076414585113525, 27.586271286010742, 80.52682495117188, 0.982177734375, 0.4091796875, -0.1630859375, 
321, 3827156465, -0.7621898651123047, -0.07106971740722656, -0.6347519159317017, 0.10540047287940979, -9.052652359008789, 1.015920639038086, 1.4610884189605713, 1.9262269735336304, 26.57168960571289, 76.50690460205078, 0.982666015625, 0.40087890625, -0.158935546875, 
322, 3827164798, -0.7615214586257935, -0.07477086037397385, -0.6358075737953186, 0.10122700035572052, -8.905923843383789, 1.1742466688156128, 1.4176304340362549, 1.3780018091201782, 25.801481246948242, 73.89801788330078, 0.9892578125, 0.389892578125, -0.156005859375, 
323, 3827173131, -0.7608503699302673, -0.07842457294464111, -0.6368033289909363, 0.0971686914563179, -8.985507011413574, 1.081398844718933, 1.4179327487945557, 1.9908514022827148, 25.044347763061523, 72.43602752685547, 0.99267578125, 0.381103515625, -0.15380859375, 
324, 3827181464, -0.7601467967033386, -0.0820598304271698, -0.63776695728302, 0.09327438473701477, -8.997696876525879, 1.2618882656097412, 1.3243414163589478, 3.2950830459594727, 24.760278701782227, 70.44915771484375, 1.000244140625, 0.373291015625, -0.1494140625, 
325, 3827189797, -0.759427011013031, -0.0856529101729393, -0.6386927962303162, 0.08949697017669678, -8.907248497009277, 1.4328606128692627, 1.235222578048706, 3.962028741836548, 24.352876663208008, 68.97323608398438, 1.00341796875, 0.364990234375, -0.146484375, 
326, 3827198130, -0.7587041854858398, -0.08917930722236633, -0.6395763158798218, 0.08579663932323456, -8.87572193145752, 1.5798903703689575, 1.2118115425109863, 3.9828908443450928, 23.733478546142578, 67.53333282470703, 1.0078125, 0.35595703125, -0.144287109375, 
327, 3827206463, -0.7579784989356995, -0.0926220491528511, -0.6404237151145935, 0.08216451108455658, -8.889500617980957, 1.6662729978561401, 1.1195592880249023, 3.7703170776367188, 23.229793548583984, 66.21548461914062, 1.009521484375, 0.34423828125, -0.140625, 
328, 3827214796, -0.7572346329689026, -0.09599128365516663, -0.6412595510482788, 0.07855770736932755, -8.75062084197998, 1.6062859296798706, 1.1159850358963013, 3.2486796379089355, 23.121257781982422, 65.2121810913086, 1.013916015625, 0.336181640625, -0.1376953125, 
329, 3827223129, -0.7564579844474792, -0.09921470284461975, -0.642120897769928, 0.07491520792245865, -8.659729957580566, 1.6745649576187134, 1.114659070968628, 1.4447897672653198, 23.597246170043945, 64.30911254882812, 1.0185546875, 0.330810546875, -0.135986328125, 
330, 3827231462, -0.7556594014167786, -0.10229914635419846, -0.6429947018623352, 0.0712430328130722, -8.607481956481934, 1.6296288967132568, 0.9573073983192444, -0.259140282869339, 23.78776741027832, 63.26935577392578, 1.0263671875, 0.32470703125, -0.131103515625, 
331, 3827239795, -0.7548197507858276, -0.10532409697771072, -0.643882155418396, 0.06762804836034775, -8.548652648925781, 1.586028814315796, 0.8497646450996399, -0.31497952342033386, 24.17966651916504, 62.166751861572266, 1.024658203125, 0.313720703125, -0.12646484375, 
332, 3827248128, -0.7538949847221375, -0.10837803035974503, -0.644818127155304, 0.0641082376241684, -8.44702434539795, 1.4431689977645874, 0.850274384021759, 0.894029974937439, 25.299983978271484, 61.20969772338867, 1.025634765625, 0.3037109375, -0.125732421875, 
333, 3827256461, -0.7528893947601318, -0.1115599125623703, -0.6457756757736206, 0.060744188725948334, -8.506730079650879, 1.2623697519302368, 0.8419231176376343, 3.715397596359253, 26.146278381347656, 60.69680404663086, 1.029296875, 0.29833984375, -0.12109375, 
334, 3827264794, -0.7518079280853271, -0.11486613750457764, -0.6467503905296326, 0.05751923471689224, -8.648507118225098, 1.2927273511886597, 0.9185569286346436, 6.328085422515869, 26.863019943237305, 60.19990158081055, 1.03369140625, 0.28662109375, -0.1162109375, 
335, 3827273127, -0.75069260597229, -0.11823729425668716, -0.6477075219154358, 0.05440028756856918, -8.870946884155273, 1.6748327016830444, 0.990750253200531, 8.020421981811523, 26.887914657592773, 59.752838134765625, 1.032958984375, 0.281494140625, -0.114501953125, 
336, 3827281460, -0.7495892643928528, -0.12161165475845337, -0.6486117839813232, 0.05131512135267258, -9.072917938232422, 1.691616177558899, 1.0836683511734009, 8.363680839538574, 26.162132263183594, 59.45718002319336, 1.038330078125, 0.270751953125, -0.107666015625, 
337, 3827289793, -0.7484956979751587, -0.12497483193874359, -0.6494715213775635, 0.048229023814201355, -9.086183547973633, 1.6940531730651855, 1.1028470993041992, 8.265525817871094, 25.628583908081055, 59.51411056518555, 1.0390625, 0.265869140625, -0.106689453125, 
338, 3827298126, -0.7474023103713989, -0.12849122285842896, -0.6502634286880493, 0.04517927020788193, -9.073631286621094, 1.6221250295639038, 0.9952982664108276, 10.201203346252441, 24.948299407958984, 60.5607795715332, 1.04443359375, 0.258544921875, -0.105224609375, 
339, 3827306459, -0.7463163733482361, -0.1321665346622467, -0.6509740948677063, 0.04219542816281319, -9.096656799316406, 1.636793613433838, 0.9154905080795288, 12.471375465393066, 24.051692962646484, 61.514400482177734, 1.046142578125, 0.2470703125, -0.1025390625, 
340, 3827314792, -0.7452507019042969, -0.1359485685825348, -0.6515966653823853, 0.039303962141275406, -9.1193265914917, 1.6160073280334473, 0.9321032762527466, 14.397859573364258, 22.837554931640625, 61.63098907470703, 1.04931640625, 0.239501953125, -0.102783203125, 
341, 3827323125, -0.7442042827606201, -0.13978108763694763, -0.6521415114402771, 0.036559585481882095, -9.080434799194336, 1.6640665531158447, 0.9059596061706543, 16.24910545349121, 21.640104293823242, 60.7937126159668, 1.05322265625, 0.23095703125, -0.094970703125, 
342, 3827331458, -0.7431482076644897, -0.14368170499801636, -0.6526376008987427, 0.03397351875901222, -8.991349220275879, 1.6885360479354858, 0.8742570877075195, 18.398969650268555, 20.939655303955078, 59.81066131591797, 1.0556640625, 0.224365234375, -0.09521484375, 
343, 3827339791, -0.7421006560325623, -0.14762263000011444, -0.6530721783638, 0.03153722733259201, -9.031548500061035, 1.7054263353347778, 0.8634989857673645, 20.17626953125, 19.974811553955078, 58.829368591308594, 1.053955078125, 0.2119140625, -0.091552734375, 
344, 3827348124, -0.7410538792610168, -0.15153852105140686, -0.6534690856933594, 0.029277633875608444, -9.120593070983887, 1.7607860565185547, 0.8611140251159668, 21.513486862182617, 19.196977615356445, 56.8161735534668, 1.057373046875, 0.20849609375, -0.090087890625, 
345, 3827356457, -0.7400138974189758, -0.15539950132369995, -0.6538306474685669, 0.02719869464635849, -9.072944641113281, 1.8629437685012817, 0.7948750853538513, 22.58636474609375, 18.394811630249023, 54.61925506591797, 1.056640625, 0.2001953125, -0.08642578125, 
346, 3827364790, -0.7389546632766724, -0.1591906100511551, -0.654194712638855, 0.025249164551496506, -8.976537704467773, 1.9418840408325195, 0.7984054088592529, 23.069416046142578, 18.27088165283203, 52.60128402709961, 1.06494140625, 0.19677734375, -0.08642578125, 
347, 3827373123, -0.7378619909286499, -0.16292430460453033, -0.6545771360397339, 0.023403190076351166, -8.910840034484863, 2.1159868240356445, 0.6900180578231812, 23.494150161743164, 18.532197952270508, 51.038761138916016, 1.061767578125, 0.186767578125, -0.08349609375, 
348, 3827381456, -0.7367373108863831, -0.16658994555473328, -0.6549808979034424, 0.021677501499652863, -8.772916793823242, 2.1907174587249756, 0.5521013140678406, 23.94145393371582, 18.72466468811035, 49.090457916259766, 1.072509765625, 0.182373046875, -0.079833984375, 
349, 3827389789, -0.7356202602386475, -0.17012245953083038, -0.6553801894187927, 0.020048007369041443, -8.657137870788574, 2.330838203430176, 0.4532840847969055, 23.452417373657227, 18.369670867919922, 46.98550796508789, 1.06640625, 0.17236328125, -0.08251953125, 
350, 3827398122, -0.7344952821731567, -0.1734774112701416, -0.6558093428611755, 0.018449503928422928, -8.552645683288574, 2.4605770111083984, 0.4443832039833069, 21.936328887939453, 18.603984832763672, 44.94255447387695, 1.06689453125, 0.16748046875, -0.077880859375, 
351, 3827406455, -0.7333649396896362, -0.17669759690761566, -0.6562560200691223, 0.016903672367334366, -8.446874618530273, 2.585723638534546, 0.34453272819519043, 21.067485809326172, 18.685945510864258, 43.207252502441406, 1.06591796875, 0.158935546875, -0.074951171875, 
352, 3827414788, -0.7322329878807068, -0.1798156350851059, -0.6567093729972839, 0.015419773757457733, -8.457839012145996, 2.708275079727173, 0.1658324897289276, 20.589624404907227, 18.57746696472168, 41.5898323059082, 1.068359375, 0.155029296875, -0.0732421875, 
353, 3827423121, -0.7311590909957886, -0.18279671669006348, -0.657114565372467, 0.01400608941912651, -8.405295372009277, 2.840050220489502, 0.04394109547138214, 19.71940040588379, 17.379226684570312, 39.8283805847168, 1.069580078125, 0.149658203125, -0.071044921875, 
354, 3827431454, -0.730202853679657, -0.1855839639902115, -0.6574239730834961, 0.012652415782213211, -8.38769817352295, 2.819917917251587, 0.053834348917007446, 18.027626037597656, 15.1509370803833, 37.68584442138672, 1.069580078125, 0.144775390625, -0.068603515625, 
355, 3827439787, -0.7293674945831299, -0.1880907416343689, -0.6576611399650574, 0.011429157108068466, -8.336628913879395, 2.8497250080108643, 0.07209356129169464, 16.10140037536621, 12.961423873901367, 34.09406661987305, 1.068603515625, 0.1376953125, -0.06591796875, 
356, 3827448120, -0.7286550998687744, -0.1903175711631775, -0.6578280925750732, 0.010351873934268951, -8.150675773620605, 2.8913815021514893, 0.03893481194972992, 14.29979133605957, 10.71381950378418, 30.24997329711914, 1.07470703125, 0.1357421875, -0.067138671875, 
357, 3827456453, -0.7280853986740112, -0.192246675491333, -0.6579124927520752, 0.009370751678943634, -8.083821296691895, 2.984757423400879, 0.023459166288375854, 11.83041763305664, 8.309610366821289, 26.877614974975586, 1.06982421875, 0.12744140625, -0.066162109375, 
358, 3827464786, -0.7276565432548523, -0.19386476278305054, -0.6579237580299377, 0.008502814918756485, -8.049199104309082, 3.113508462905884, 0.017861589789390564, 9.371857643127441, 5.9536614418029785, 23.09241485595703, 1.06982421875, 0.124267578125, -0.067626953125, 
359, 3827473119, -0.7273666262626648, -0.19513925909996033, -0.6578770875930786, 0.007729247212409973, -7.9728522300720215, 3.142545700073242, -0.027636369690299034, 6.42888069152832, 3.834414005279541, 19.255237579345703, 1.0732421875, 0.122802734375, -0.064453125, 
360, 3827481452, -0.7272251844406128, -0.1961023509502411, -0.6577553153038025, 0.007019542157649994, -8.072759628295898, 3.2355453968048096, -0.03815982863306999, 3.4962542057037354, 1.5277997255325317, 15.973410606384277, 1.076416015625, 0.119384765625, -0.062255859375, 
361, 3827489785, -0.7272107005119324, -0.19680997729301453, -0.6575660109519958, 0.006424210965633392, -8.156415939331055, 3.1956377029418945, -0.030891120433807373, 1.6445236206054688, -0.6221954226493835, 12.751856803894043, 1.072265625, 0.120849609375, -0.0634765625, 
362, 3827498118, -0.7272574305534363, -0.19736966490745544, -0.6573506593704224, 0.005982339382171631, -8.140947341918945, 3.1159489154815674, -0.05737454071640968, 1.385256290435791, -1.8732203245162964, 9.91610336303711, 1.072998046875, 0.116943359375, -0.06201171875, 
363, 3827506451, -0.7273510098457336, -0.19782650470733643, -0.6571129560470581, 0.005639508366584778, -8.08891487121582, 3.210836410522461, -0.11505749821662903, 1.1297799348831177, -2.793591022491455, 8.095085144042969, 1.073974609375, 0.117919921875, -0.06494140625, 
364, 3827514784, -0.7274798154830933, -0.19819647073745728, -0.656861424446106, 0.005343422293663025, -8.19383716583252, 3.438673973083496, -0.06644865870475769, 0.585272490978241, -3.3866379261016846, 6.84900426864624, 1.073486328125, 0.115966796875, -0.06396484375, 
365, 3827523117, -0.7276449799537659, -0.19847789406776428, -0.6565950512886047, 0.00511690229177475, -8.31855297088623, 3.441525936126709, 0.004441026132553816, 0.23182164132595062, -4.05990743637085, 5.424160480499268, 1.075927734375, 0.114990234375, -0.067138671875, 
366, 3827531450, -0.727823793888092, -0.19867192208766937, -0.6563397645950317, 0.004903830587863922, -8.333403587341309, 3.334362506866455, 0.08478392660617828, -0.5614641308784485, -4.114593982696533, 4.44272518157959, 1.081298828125, 0.113037109375, -0.06494140625, 
367, 3827539783, -0.7279660105705261, -0.19880017638206482, -0.6561450362205505, 0.0046351030468940735, -8.389448165893555, 3.3665263652801514, 0.10820164531469345, -1.624531626701355, -3.033442497253418, 4.263245582580566, 1.073974609375, 0.11328125, -0.066650390625, 
368, 3827548116, -0.7280833125114441, -0.19887834787368774, -0.6559933423995972, 0.004324175417423248, -8.521805763244629, 3.2809174060821533, 0.07290297746658325, -2.4427528381347656, -2.26311993598938, 4.089504718780518, 1.076904296875, 0.111572265625, -0.063720703125, 
369, 3827556449, -0.7281859517097473, -0.19890376925468445, -0.6558739542961121, 0.003963828086853027, -8.657711029052734, 3.2172436714172363, 0.11536251753568649, -3.3782618045806885, -1.680422067642212, 4.040812015533447, 1.072998046875, 0.1103515625, -0.064697265625, 
370, 3827564782, -0.7283083200454712, -0.19892895221710205, -0.6557325720787048, 0.00357692688703537, -8.842909812927246, 3.094011068344116, 0.213323175907135, -3.672978639602661, -1.999908208847046, 4.344442844390869, 1.078857421875, 0.112548828125, -0.06591796875, 
371, 3827573115, -0.7284762859344482, -0.19899773597717285, -0.6555270552635193, 0.0032036826014518738, -9.199949264526367, 2.903475761413574, 0.3980497717857361, -3.2353084087371826, -3.0958902835845947, 4.796406269073486, 1.080810546875, 0.113037109375, -0.06396484375, 
372, 3827581448, -0.7287255525588989, -0.19912272691726685, -0.6552134156227112, 0.0028772205114364624, -9.432194709777832, 2.845669746398926, 0.5967421531677246, -2.4679057598114014, -5.0322747230529785, 5.114483833312988, 1.076416015625, 0.111328125, -0.068603515625, 
373, 3827589781, -0.7290402054786682, -0.19931574165821075, -0.6548054814338684, 0.0026657283306121826, -9.425002098083496, 2.7087905406951904, 0.6724595427513123, -0.9260314106941223, -6.884030342102051, 4.855754375457764, 1.074951171875, 0.1103515625, -0.066650390625, 
374, 3827598114, -0.7293726801872253, -0.1995846927165985, -0.6543536186218262, 0.0025840848684310913, -9.345576286315918, 2.5416362285614014, 0.7525430917739868, 0.9573193192481995, -7.833064079284668, 4.340652942657471, 1.075439453125, 0.10888671875, -0.068115234375, 
375, 3827606447, -0.7295979261398315, -0.1999695897102356, -0.6539843678474426, 0.0026933401823043823, -9.195100784301758, 2.294214963912964, 0.7930705547332764, 4.129667282104492, -6.563595771789551, 3.25642728805542, 1.07568359375, 0.10693359375, -0.069091796875, 
376, 3827614780, -0.7296862602233887, -0.20045632123947144, -0.6537356972694397, 0.002970077097415924, -9.052281379699707, 2.2958498001098633, 0.6849797964096069, 7.02981424331665, -4.57296085357666, 2.137674331665039, 1.075927734375, 0.10888671875, -0.068115234375, 
377, 3827623113, -0.7296633720397949, -0.20099514722824097, -0.6535940766334534, 0.0033426210284233093, -9.087761878967285, 2.4209165573120117, 0.655314028263092, 8.715590476989746, -2.768592119216919, 1.3651492595672607, 1.08251953125, 0.11181640625, -0.07080078125, 
378, 3827631446, -0.7296004295349121, -0.20152507722377777, -0.6534987688064575, 0.0037406161427497864, -9.273666381835938, 2.605527639389038, 0.6992048621177673, 8.964484214782715, -2.005466938018799, 0.8798618316650391, 1.0751953125, 0.107177734375, -0.071044921875, 
379, 3827639779, -0.7295570373535156, -0.20202019810676575, -0.6533921360969543, 0.004131481051445007, -9.474648475646973, 2.715062379837036, 0.7937532663345337, 8.497407913208008, -2.2837653160095215, 0.6929547190666199, 1.07177734375, 0.105712890625, -0.072998046875, 
380, 3827648112, -0.7295629978179932, -0.20244508981704712, -0.6532519459724426, 0.004423864185810089, -9.488516807556152, 2.8340601921081543, 0.8245867490768433, 6.772006988525391, -2.789313554763794, 1.1237093210220337, 1.07666015625, 0.106689453125, -0.071533203125, 
381, 3827656445, -0.7296490669250488, -0.20280659198760986, -0.6530423164367676, 0.0046304985880851746, -9.373200416564941, 2.9347522258758545, 0.7165569067001343, 5.148115158081055, -3.976994276046753, 1.6358658075332642, 1.07666015625, 0.105712890625, -0.072509765625, 
382, 3827664778, -0.7297986745834351, -0.20310944318771362, -0.6527801752090454, 0.004764027893543243, -9.30078411102295, 2.855491876602173, 0.7390667796134949, 3.7284717559814453, -4.867319107055664, 1.9697985649108887, 1.0771484375, 0.105712890625, -0.075439453125, 
383, 3827673111, -0.7299715280532837, -0.20339933037757874, -0.6524955034255981, 0.004851430654525757, -9.244280815124512, 2.8424413204193115, 0.7597269415855408, 3.1211585998535156, -5.178737640380859, 2.4041905403137207, 1.0751953125, 0.106201171875, -0.072509765625, 
384, 3827681444, -0.7301726341247559, -0.2036478966474533, -0.6521927118301392, 0.004898965358734131, -9.293218612670898, 2.866919994354248, 0.7855202555656433, 2.270714521408081, -5.502757549285889, 2.46333384513855, 1.08056640625, 0.104736328125, -0.0751953125, 
385, 3827689777, -0.7304182052612305, -0.20380055904388428, -0.6518698930740356, 0.004918396472930908, -9.341734886169434, 2.9337081909179688, 0.8282760977745056, 0.9332162141799927, -6.032946586608887, 1.9678007364273071, 1.08642578125, 0.109375, -0.075439453125, 
386, 3827698110, -0.7307038903236389, -0.2038702666759491, -0.6515277028083801, 0.004933573305606842, -9.354698181152344, 2.9713590145111084, 0.8124841451644897, -0.04981968551874161, -6.576889991760254, 1.2988849878311157, 1.07666015625, 0.107177734375, -0.072509765625, 
387, 3827706443, -0.7310088276863098, -0.2039017677307129, -0.6511754393577576, 0.004953168332576752, -9.437591552734375, 2.900761842727661, 0.7662107348442078, -0.44689154624938965, -6.869045734405518, 0.9659510850906372, 1.0771484375, 0.107666015625, -0.077880859375, 
388, 3827714776, -0.7312712669372559, -0.20394304394721985, -0.650867223739624, 0.005029052495956421, -9.377849578857422, 2.811861991882324, 0.7527205944061279, 0.27080652117729187, -6.200489521026611, 0.3387354612350464, 1.0751953125, 0.103515625, -0.079345703125, 
389, 3827723109, -0.7314823865890503, -0.20398104190826416, -0.6506168842315674, 0.005149230360984802, -9.314957618713379, 2.8906445503234863, 0.6947095394134521, 0.775688648223877, -5.283986568450928, -0.28037339448928833, 1.0751953125, 0.107421875, -0.082275390625, 
390, 3827731442, -0.7316702604293823, -0.20395420491695404, -0.6504132747650146, 0.005259603261947632, -9.354907989501953, 2.9713542461395264, 0.7264764308929443, 0.09645040333271027, -4.582258701324463, -0.9159907102584839, 1.0810546875, 0.108642578125, -0.0810546875, 
391, 3827739775, -0.7318390011787415, -0.20384161174297333, -0.6502578854560852, 0.005365259945392609, -9.488896369934082, 3.0934762954711914, 0.847301721572876, -0.7575666308403015, -3.920745372772217, -1.7496060132980347, 1.076171875, 0.105224609375, -0.078369140625, 
392, 3827748108, -0.7320358753204346, -0.20364564657211304, -0.6500970721244812, 0.005455538630485535, -9.555838584899902, 3.10487699508667, 0.9152036905288696, -1.8131548166275024, -4.187107563018799, -2.347160577774048, 1.07666015625, 0.10595703125, -0.082763671875, 
393, 3827756441, -0.7322741746902466, -0.20339693129062653, -0.6499054431915283, 0.005579546093940735, -9.589351654052734, 3.0683324337005615, 0.9737635850906372, -2.1556429862976074, -4.968931198120117, -3.046173334121704, 1.07666015625, 0.107666015625, -0.080322265625, 
394, 3827764774, -0.7325454950332642, -0.20312677323818207, -0.6496827602386475, 0.005723446607589722, -9.573662757873535, 3.0492584705352783, 1.034881353378296, -2.2849178314208984, -5.630776882171631, -3.370295286178589, 1.0771484375, 0.1064453125, -0.081787109375, 
395, 3827773107, -0.7328256964683533, -0.20287686586380005, -0.6494432687759399, 0.005906805396080017, -9.503998756408691, 3.0722107887268066, 1.0225213766098022, -1.749964714050293, -5.988659858703613, -3.5182948112487793, 1.083984375, 0.110595703125, -0.0849609375, 
396, 3827781440, -0.7331088185310364, -0.20261578261852264, -0.6492029428482056, 0.006131775677204132, -9.440321922302246, 3.0674021244049072, 1.0082682371139526, -1.501019835472107, -6.140423774719238, -4.057038307189941, 1.07568359375, 0.109130859375, -0.083740234375, 
397, 3827789773, -0.7333851456642151, -0.20231583714485168, -0.6489821672439575, 0.006382174789905548, -9.41469669342041, 3.1228349208831787, 0.986839771270752, -1.6464062929153442, -5.955591678619385, -4.694295406341553, 1.0751953125, 0.109130859375, -0.083251953125, 
398, 3827798106, -0.7336381673812866, -0.20197336375713348, -0.6487995386123657, 0.006687521934509277, -9.400777816772461, 3.0997767448425293, 0.9353094696998596, -1.5254303216934204, -5.51971435546875, -5.755801200866699, 1.0771484375, 0.109130859375, -0.083251953125, 
399, 3827806439, -0.7338634133338928, -0.20157213509082794, -0.6486654281616211, 0.007072627544403076, -9.388798713684082, 3.1405138969421387, 0.9020633697509766, -1.331889033317566, -5.009504318237305, -7.204336643218994, 1.0732421875, 0.1123046875, -0.08740234375, 
400, 3827814772, -0.7340196967124939, -0.20112228393554688, -0.6486223936080933, 0.0075938403606414795, -9.279040336608887, 3.1799561977386475, 0.8613596558570862, -0.4279882311820984, -3.85770845413208, -9.289847373962402, 1.07568359375, 0.11279296875, -0.08740234375, 
401, 3827823105, -0.7341304421424866, -0.20049595832824707, -0.6486836075782776, 0.008212804794311523, -9.198915481567383, 3.3409552574157715, 0.8330093026161194, -1.2199549674987793, -2.6858577728271484, -12.126395225524902, 1.07373046875, 0.112548828125, -0.08544921875, 
402, 3827831438, -0.7341769337654114, -0.19969597458839417, -0.6488691568374634, 0.008854538202285767, -9.048197746276855, 3.509509801864624, 0.8132092356681824, -2.6096551418304443, -0.9422709345817566, -14.270792961120605, 1.0732421875, 0.116455078125, -0.08642578125, 
403, 3827839771, -0.7342295050621033, -0.19864563643932343, -0.6491231322288513, 0.0094948410987854, -9.182365417480469, 3.584240198135376, 0.7461015582084656, -5.1730265617370605, -0.3289637267589569, -16.666522979736328, 1.08251953125, 0.119873046875, -0.088134765625, 
404, 3827848104, -0.734291136264801, -0.19734108448028564, -0.6494413018226624, 0.010145727545022964, -9.16008472442627, 3.749907970428467, 0.766864001750946, -7.680174827575684, 0.17390790581703186, -19.228408813476562, 1.075927734375, 0.120361328125, -0.0869140625, 
405, 3827856437, -0.7343670725822449, -0.19580945372581482, -0.6498075723648071, 0.010840855538845062, -9.082101821899414, 3.7394139766693115, 0.7782325744628906, -9.621966361999512, 0.3835861086845398, -21.82474708557129, 1.074462890625, 0.121337890625, -0.084716796875, 
406, 3827864770, -0.7344656586647034, -0.19409385323524475, -0.6501976847648621, 0.011598225682973862, -9.027530670166016, 3.724144458770752, 0.7173065543174744, -10.99002456665039, 0.22185783088207245, -24.166173934936523, 1.073486328125, 0.12646484375, -0.087158203125, 
407, 3827873103, -0.7346795201301575, -0.19192324578762054, -0.650585412979126, 0.012404873967170715, -9.169208526611328, 4.110239505767822, 0.6537339091300964, -15.451698303222656, -1.0339964628219604, -28.705846786499023, 1.081298828125, 0.134033203125, -0.0859375, 
408, 3827881436, -0.7350873947143555, -0.18900486826896667, -0.6509624719619751, 0.013245798647403717, -9.12552547454834, 4.719981670379639, 0.5523481965065002, -23.209884643554688, -3.0967912673950195, -35.682167053222656, 1.074462890625, 0.13037109375, -0.088134765625, 
409, 3827889769, -0.735686182975769, -0.18540111184120178, -0.6513040065765381, 0.014124386012554169, -8.874900817871094, 4.6405930519104, 0.40999120473861694, -30.29149055480957, -5.386250972747803, -42.081058502197266, 1.07861328125, 0.14453125, -0.08544921875, 
410, 3827898102, -0.7364458441734314, -0.18125581741333008, -0.651589572429657, 0.01512637734413147, -8.735265731811523, 4.625244140625, 0.3672088384628296, -35.06359100341797, -7.815567970275879, -47.99587631225586, 1.072265625, 0.14453125, -0.083740234375, 
411, 3827906435, -0.7372879385948181, -0.1766674816608429, -0.6518681049346924, 0.01633434370160103, -8.597373008728027, 4.696310043334961, 0.3208010792732239, -37.91151809692383, -9.230766296386719, -54.04209518432617, 1.070068359375, 0.1513671875, -0.08203125, 
412, 3827914768, -0.7381800413131714, -0.17165955901145935, -0.6521570682525635, 0.01783546805381775, -8.299022674560547, 4.904262542724609, 0.24882464110851288, -39.65947341918945, -10.381421089172363, -60.76275634765625, 1.068603515625, 0.15771484375, -0.08544921875, 
413, 3827923101, -0.7391121983528137, -0.16622959077358246, -0.6524562835693359, 0.019634168595075607, -8.111061096191406, 5.0437397956848145, 0.2343447208404541, -41.375938415527344, -11.444122314453125, -67.62669372558594, 1.068359375, 0.169921875, -0.084716796875, 
414, 3827931434, -0.7400813102722168, -0.16042374074459076, -0.6527436971664429, 0.021756652742624283, -8.016005516052246, 5.0646162033081055, 0.1840524822473526, -42.36842727661133, -12.733431816101074, -74.20979309082031, 1.0634765625, 0.17529296875, -0.088623046875, 
415, 3827939767, -0.7410814166069031, -0.1542927324771881, -0.6529983878135681, 0.02426917850971222, -7.881503105163574, 5.061235427856445, 0.20596474409103394, -42.242191314697266, -14.309554100036621, -81.07986450195312, 1.064208984375, 0.186767578125, -0.08935546875, 
416, 3827948100, -0.7421029806137085, -0.14786291122436523, -0.653210461139679, 0.027194257825613022, -7.685267925262451, 5.077523231506348, 0.2674926519393921, -41.606937408447266, -15.903834342956543, -87.80802154541016, 1.06005859375, 0.19970703125, -0.086181640625, 
417, 3827956433, -0.7431017756462097, -0.14118486642837524, -0.6534057259559631, 0.030520614236593246, -7.558017730712891, 5.10232400894165, 0.29569852352142334, -40.493648529052734, -16.79170036315918, -94.1893081665039, 1.060302734375, 0.214599609375, -0.0869140625, 
418, 3827964766, -0.7441086769104004, -0.134256511926651, -0.6535361409187317, 0.034231677651405334, -7.6394758224487305, 5.139800548553467, 0.2792271375656128, -39.57289505004883, -18.36669921875, -100.1585922241211, 1.0576171875, 0.2265625, -0.09033203125, 
419, 3827973099, -0.7451338768005371, -0.1270923614501953, -0.6535779237747192, 0.03824549913406372, -7.724763870239258, 5.022066116333008, 0.27590370178222656, -39.27045822143555, -20.121952056884766, -105.3097915649414, 1.053955078125, 0.239013671875, -0.090576171875, 
420, 3827981432, -0.7461220622062683, -0.11960817128419876, -0.653605580329895, 0.042419999837875366, -7.535594463348389, 4.934109687805176, 0.3080185651779175, -41.02001190185547, -20.3706111907959, -109.72086334228516, 1.046875, 0.2568359375, -0.09033203125, 
421, 3827989765, -0.7470494508743286, -0.11193445324897766, -0.6536051034927368, 0.04681903123855591, -7.625202178955078, 4.488648414611816, 0.14010009169578552, -40.8474006652832, -20.608715057373047, -113.84943389892578, 1.049560546875, 0.272705078125, -0.092529296875, 
422, 3827998098, -0.7478991746902466, -0.10408848524093628, -0.6535780429840088, 0.051497675478458405, -7.834950923919678, 3.8767361640930176, 0.15226081013679504, -39.95006561279297, -20.70991325378418, -118.14665985107422, 1.037109375, 0.28173828125, -0.09423828125, 
423, 3828006431, -0.7486501932144165, -0.09617498517036438, -0.6535232067108154, 0.05643157660961151, -7.771652698516846, 3.4759950637817383, 0.20848943293094635, -38.2099723815918, -20.539499282836914, -121.56358337402344, 1.033447265625, 0.299072265625, -0.09375, 
424, 3828014764, -0.7493289709091187, -0.08813193440437317, -0.6534105539321899, 0.06162160634994507, -7.833442687988281, 3.1785340309143066, 0.27671337127685547, -37.080875396728516, -20.905929565429688, -125.19058227539062, 1.02978515625, 0.31640625, -0.095703125, 
425, 3828023097, -0.7499812841415405, -0.07997867465019226, -0.6531817317008972, 0.06699921190738678, -7.938595771789551, 2.8699066638946533, 0.27474677562713623, -36.4239616394043, -22.208139419555664, -128.16717529296875, 1.02197265625, 0.334228515625, -0.098388671875, 
426, 3828031430, -0.7506647706031799, -0.07173457741737366, -0.6527650952339172, 0.07251162827014923, -8.090505599975586, 2.4697988033294678, 0.3469945192337036, -35.98760986328125, -24.63690948486328, -129.96661376953125, 1.019287109375, 0.350830078125, -0.096923828125, 
427, 3828039763, -0.7513986825942993, -0.06347472220659256, -0.6521340012550354, 0.07807809859514236, -8.167067527770996, 2.257111072540283, 0.5443386435508728, -35.5272216796875, -27.396024703979492, -130.59176635742188, 1.01318359375, 0.36669921875, -0.097412109375, 
428, 3828048096, -0.752176821231842, -0.05531272664666176, -0.651267945766449, 0.0838104784488678, -8.275790214538574, 1.6959394216537476, 0.5815576314926147, -32.788116455078125, -30.234201431274414, -130.98995971679688, 1.00244140625, 0.384033203125, -0.1005859375, 
429, 3828056429, -0.7529844045639038, -0.047343697398900986, -0.6501737236976624, 0.08972601592540741, -8.228665351867676, 0.9503426551818848, 0.6049625277519226, -28.93997573852539, -32.805564880371094, -131.14828491210938, 0.997802734375, 0.4013671875, -0.102783203125, 
430, 3828064762, -0.7537969350814819, -0.039521969854831696, -0.6488797068595886, 0.09584900736808777, -8.186229705810547, 0.6077808141708374, 0.7865695953369141, -25.287734985351562, -34.84367370605469, -131.64266967773438, 0.98583984375, 0.417724609375, -0.1025390625, 
431, 3828073095, -0.7544705271720886, -0.03193754702806473, -0.6475280523300171, 0.10230052471160889, -8.0650634765625, 0.18413439393043518, 0.9102022051811218, -19.775253295898438, -34.09751892089844, -133.291259765625, 0.9814453125, 0.4375, -0.1083984375, 
432, 3828081428, -0.754890501499176, -0.02464275062084198, -0.6462395191192627, 0.1091398224234581, -7.745670318603516, -0.24162651598453522, 0.9886425137519836, -13.2643404006958, -30.918149948120117, -134.91082763671875, 0.968505859375, 0.4462890625, -0.11083984375, 
433, 3828089761, -0.7550508379936218, -0.017731014639139175, -0.6450357437133789, 0.1162613034248352, -7.656989574432373, -0.4478643536567688, 1.1113022565841675, -6.850630283355713, -27.28370475769043, -135.06887817382812, 0.9580078125, 0.466552734375, -0.113037109375, 
434, 3828098094, -0.7550092339515686, -0.011055152863264084, -0.6438642144203186, 0.12361942231655121, -7.839392185211182, -0.5259448289871216, 1.3212093114852905, -2.2735705375671387, -24.80487060546875, -135.54986572265625, 0.953857421875, 0.47998046875, -0.114501953125, 
435, 3828106427, -0.7548231482505798, -0.004488784819841385, -0.6426947116851807, 0.13103219866752625, -7.876476764678955, -0.5621070861816406, 1.4543263912200928, -0.6662245392799377, -23.36073875427246, -135.6110382080078, 0.941162109375, 0.498291015625, -0.116455078125, 
436, 3828114760, -0.754503607749939, 0.002159997820854187, -0.6415139436721802, 0.13850465416908264, -7.959312915802002, -0.7297914028167725, 1.5845986604690552, -0.9334113001823425, -22.41651153564453, -136.98175048828125, 0.93212890625, 0.512939453125, -0.119140625, 
437, 3828123093, -0.7541337609291077, 0.008933737874031067, -0.640255331993103, 0.1458735466003418, -8.002372741699219, -0.7470512986183167, 1.667134404182434, -3.0298702716827393, -23.05752182006836, -137.32839965820312, 0.919677734375, 0.52978515625, -0.122802734375, 
438, 3828131426, -0.7537519931793213, 0.015836454927921295, -0.6388998031616211, 0.15302897989749908, -8.003238677978516, -1.2194006443023682, 1.7776198387145996, -6.021098613739014, -24.205411911010742, -136.0654754638672, 0.907958984375, 0.54345703125, -0.12353515625, 
439, 3828139759, -0.7534447908401489, 0.02286815270781517, -0.6373544931411743, 0.15994060039520264, -8.11257553100586, -1.527058720588684, 1.754664659500122, -9.118345260620117, -27.189926147460938, -134.78280639648438, 0.90087890625, 0.5625, -0.124755859375, 
440, 3828148092, -0.75323486328125, 0.030110489577054977, -0.6355559825897217, 0.16674236953258514, -8.255074501037598, -1.8952065706253052, 1.7841848134994507, -11.642905235290527, -31.12439727783203, -135.128662109375, 0.8876953125, 0.576171875, -0.123779296875, 
441, 3828156425, -0.7529577016830444, 0.037424784153699875, -0.6336586475372314, 0.17359352111816406, -7.758349418640137, -2.7003118991851807, 1.7978671789169312, -11.792296409606934, -31.74359893798828, -136.69459533691406, 0.873291015625, 0.59033203125, -0.130615234375, 
442, 3828164758, -0.7524857521057129, 0.044502273201942444, -0.6317983865737915, 0.18060928583145142, -7.168929576873779, -3.5340890884399414, 1.8000754117965698, -8.059901237487793, -28.975128173828125, -136.55197143554688, 0.8623046875, 0.605224609375, -0.13525390625, 
443, 3828173091, -0.7516651153564453, 0.05110646411776543, -0.6301223039627075, 0.18798214197158813, -6.796099662780762, -4.05159854888916, 1.8763023614883423, -0.7655072212219238, -22.682035446166992, -137.11019897460938, 0.851806640625, 0.616455078125, -0.135498046875, 
444, 3828181424, -0.7504067420959473, 0.057427696883678436, -0.6287221312522888, 0.19571447372436523, -6.600578784942627, -4.093812942504883, 1.8835057020187378, 4.288562774658203, -15.016206741333008, -139.0897674560547, 0.838134765625, 0.63330078125, -0.135986328125, 
445, 3828189757, -0.7486699819564819, 0.06391127407550812, -0.6276690363883972, 0.20357796549797058, -6.627874851226807, -3.8965680599212646, 2.114428997039795, 2.402146339416504, -7.66741418838501, -143.0718536376953, 0.8212890625, 0.650390625, -0.139404296875, 
446, 3828198090, -0.7464880347251892, 0.07095099985599518, -0.62688148021698, 0.21153056621551514, -6.611068248748779, -4.100456714630127, 2.154618740081787, -3.6559531688690186, -2.5343093872070312, -149.5924072265625, 0.818115234375, 0.66455078125, -0.137451171875, 
447, 3828206423, -0.7440087199211121, 0.07891792058944702, -0.6261479258537292, 0.21946661174297333, -6.943976402282715, -4.512239933013916, 2.058683156967163, -13.795303344726562, -2.1631577014923096, -158.43006896972656, 0.795654296875, 0.675537109375, -0.137939453125, 
448, 3828214756, -0.7412781119346619, 0.088076651096344, -0.6253514885902405, 0.22735127806663513, -7.0938005447387695, -4.911148548126221, 2.0715723037719727, -26.48310089111328, -4.261793613433838, -168.79095458984375, 0.784912109375, 0.693115234375, -0.135498046875, 
