sep=,
PacketCounter,SampleTimeFine,Quat_W,Quat_X,Quat_Y,Quat_Z,Acc_X,Acc_Y,Acc_Z,Gyr_X,Gyr_Y,Gyr_Z,Mag_X,Mag_Y,Mag_Z,
0, 3678170758, -0.48866480588912964, 0.5943904519081116, -0.4900127053260803, 0.409630686044693, 0, 0, 0, 0, 0, 0, -0.244873046875, 0.73388671875, 0.35595703125, 
1, 3678179091, -0.48903387784957886, 0.5944085121154785, -0.48953741788864136, 0.40973198413848877, 0.23280777037143707, -9.613774299621582, -1.9260869026184082, 6.349538803100586, -5.533200263977051, -2.6876375675201416, -0.242919921875, 0.7333984375, 0.356689453125, 
2, 3678187424, -0.4893590211868286, 0.5944348573684692, -0.4890824556350708, 0.4098488390445709, 0.18104435503482819, -9.559117317199707, -1.8740521669387817, 5.718249797821045, -4.988231182098389, -3.003870964050293, -0.243896484375, 0.7333984375, 0.3564453125, 
3, 3678195757, -0.4896155893802643, 0.594497561454773, -0.4886445105075836, 0.40997397899627686, 0.1549568772315979, -9.605245590209961, -1.776328682899475, 5.07850980758667, -4.555787086486816, -3.470280885696411, -0.245361328125, 0.73291015625, 0.353515625, 
4, 3678204090, -0.4898351728916168, 0.5945783257484436, -0.48819196224212646, 0.41013360023498535, 0.12968672811985016, -9.624375343322754, -1.6871742010116577, 4.762788772583008, -4.218857288360596, -4.233175277709961, -0.246337890625, 0.736328125, 0.3515625, 
5, 3678212423, -0.4900021255016327, 0.5946672558784485, -0.48774558305740356, 0.41033631563186646, 0.16724540293216705, -9.660503387451172, -1.599406123161316, 4.735867500305176, -3.518537998199463, -4.74141263961792, -0.247314453125, 0.734375, 0.353515625, 
6, 3678220756, -0.49014875292778015, 0.5947456955909729, -0.4873100221157074, 0.41056492924690247, 0.23104478418827057, -9.634149551391602, -1.5023930072784424, 4.548396587371826, -3.0369904041290283, -4.9557271003723145, -0.242919921875, 0.7333984375, 0.353515625, 
7, 3678229089, -0.4902522563934326, 0.5948042869567871, -0.48693424463272095, 0.4108019769191742, 0.25870612263679504, -9.632734298706055, -1.5194677114486694, 4.245431423187256, -2.1584982872009277, -4.546590805053711, -0.248779296875, 0.734130859375, 0.351318359375, 
8, 3678237422, -0.4903063178062439, 0.5948088765144348, -0.48664113879203796, 0.41107818484306335, 0.2837885916233063, -9.624518394470215, -1.5188068151474, 3.804328680038452, -0.6509730219841003, -4.140297889709473, -0.246337890625, 0.735107421875, 0.3515625, 
9, 3678245755, -0.4902493953704834, 0.5947911143302917, -0.4864597022533417, 0.41138648986816406, 0.2961805462837219, -9.583868980407715, -1.5348787307739258, 2.822227716445923, 1.222055196762085, -3.8343615531921387, -0.245361328125, 0.7373046875, 0.349609375, 
10, 3678254088, -0.4900936782360077, 0.5947707891464233, -0.4863913059234619, 0.4116823077201843, 0.2433720976114273, -9.496061325073242, -1.5558215379714966, 1.1157816648483276, 2.5691335201263428, -3.4522740840911865, -0.247314453125, 0.735107421875, 0.349853515625, 
11, 3678262421, -0.4898058772087097, 0.5948050022125244, -0.4864272475242615, 0.41193264722824097, 0.20015330612659454, -9.457573890686035, -1.5782133340835571, -1.0415387153625488, 3.453900098800659, -3.319284677505493, -0.250244140625, 0.734619140625, 0.348388671875, 
12, 3678270754, -0.4893946945667267, 0.5948868989944458, -0.4865471422672272, 0.4121614098548889, 0.20970898866653442, -9.453736305236816, -1.6218701601028442, -3.1766388416290283, 4.418865203857422, -3.5924606323242188, -0.253173828125, 0.732666015625, 0.349853515625, 
13, 3678279087, -0.48886388540267944, 0.5950146317481995, -0.4867352545261383, 0.4123848080635071, 0.1724298745393753, -9.538214683532715, -1.6490933895111084, -4.7066802978515625, 5.391003131866455, -3.888869047164917, -0.249755859375, 0.735107421875, 0.350830078125, 
14, 3678287420, -0.4882713258266449, 0.5951338410377502, -0.486978679895401, 0.41262736916542053, 0.1468939632177353, -9.641499519348145, -1.7185155153274536, -5.519548416137695, 6.364421367645264, -3.9495749473571777, -0.252685546875, 0.735107421875, 0.354248046875, 
15, 3678295753, -0.48764121532440186, 0.5952184200286865, -0.4872587025165558, 0.41291967034339905, 0.16670484840869904, -9.784527778625488, -1.7856814861297607, -5.292785167694092, 7.454330921173096, -3.878340721130371, -0.252685546875, 0.731689453125, 0.352783203125, 
16, 3678304086, -0.48702099919319153, 0.5952364206314087, -0.4875698685646057, 0.4132586419582367, 0.16893696784973145, -9.851028442382812, -1.8471856117248535, -4.805525779724121, 8.369683265686035, -3.523097515106201, -0.251708984375, 0.732666015625, 0.352783203125, 
17, 3678312419, -0.4863796830177307, 0.5952156782150269, -0.487934410572052, 0.41361355781555176, 0.11436731368303299, -9.902973175048828, -1.9304641485214233, -4.740414619445801, 9.199687004089355, -2.9659368991851807, -0.252197265625, 0.732666015625, 0.353271484375, 
18, 3678320752, -0.4857143759727478, 0.5951619744300842, -0.48835790157318115, 0.41397273540496826, 0.1289701610803604, -9.912567138671875, -2.0133016109466553, -5.198498725891113, 9.995186805725098, -2.5138964653015137, -0.255615234375, 0.730712890625, 0.35498046875, 
19, 3678329085, -0.4850279688835144, 0.59511399269104, -0.4888264238834381, 0.41429340839385986, 0.14606934785842896, -9.946391105651855, -2.1096529960632324, -5.748974323272705, 10.083608627319336, -1.959937572479248, -0.253662109375, 0.732177734375, 0.354248046875, 
20, 3678337418, -0.48437005281448364, 0.5950583219528198, -0.489313542842865, 0.41456785798072815, 0.08657639473676682, -10.013693809509277, -2.192678689956665, -6.055909156799316, 9.68738079071045, -1.3710660934448242, -0.255615234375, 0.729248046875, 0.35302734375, 
21, 3678345751, -0.4837319850921631, 0.5950311422348022, -0.4897899031639099, 0.4147891402244568, 0.0626591220498085, -10.07989501953125, -2.2735729217529297, -6.199581146240234, 8.860912322998047, -1.1023215055465698, -0.259033203125, 0.72900390625, 0.3515625, 
22, 3678354084, -0.48318514227867126, 0.5950095653533936, -0.4902108609676361, 0.41496002674102783, 0.050494372844696045, -10.158194541931152, -2.328371524810791, -5.69474983215332, 7.4586358070373535, -0.8205905556678772, -0.258544921875, 0.730224609375, 0.35693359375, 
23, 3678362417, -0.48273375630378723, 0.5949706435203552, -0.4905702471733093, 0.4151165783405304, 0.07200600951910019, -10.235799789428711, -2.3524327278137207, -4.356790065765381, 6.354764461517334, -0.4879896938800812, -0.254150390625, 0.732177734375, 0.35107421875, 
24, 3678370750, -0.48243972659111023, 0.5948540568351746, -0.49085530638694763, 0.4152885973453522, 0.12378069758415222, -10.317606925964355, -2.4075775146484375, -2.2123398780822754, 5.403912544250488, 0.1434653401374817, -0.258056640625, 0.731201171875, 0.35302734375, 
25, 3678379083, -0.4822738468647003, 0.5946680307388306, -0.49108755588531494, 0.4154728651046753, 0.14020618796348572, -10.317154884338379, -2.3726887702941895, -0.12460044771432877, 4.601597309112549, 0.8958067297935486, -0.259033203125, 0.72900390625, 0.3544921875, 
26, 3678387416, -0.48223915696144104, 0.5944231152534485, -0.4912616014480591, 0.4156579077243805, 0.1211259588599205, -10.308406829833984, -2.358107089996338, 1.4829362630844116, 3.7554314136505127, 1.4984327554702759, -0.258056640625, 0.729248046875, 0.35400390625, 
27, 3678395749, -0.48227304220199585, 0.5941876769065857, -0.49140310287475586, 0.4157881438732147, 0.1146605834364891, -10.243730545043945, -2.2996926307678223, 1.9942729473114014, 2.5564029216766357, 1.9991908073425293, -0.259033203125, 0.7275390625, 0.3515625, 
28, 3678404082, -0.48238077759742737, 0.593958854675293, -0.49152711033821106, 0.41584351658821106, 0.109892338514328, -10.223686218261719, -2.2546751499176025, 1.950395941734314, 1.3098353147506714, 2.6543006896972656, -0.257568359375, 0.73046875, 0.35205078125, 
29, 3678412415, -0.48249632120132446, 0.5937765836715698, -0.4916568398475647, 0.415816068649292, 0.10541150718927383, -10.184013366699219, -2.154618501663208, 1.314701795578003, 0.34925007820129395, 3.0561110973358154, -0.259033203125, 0.72900390625, 0.35107421875, 
30, 3678420748, -0.4826253354549408, 0.5936135649681091, -0.4917968809604645, 0.4157337248325348, 0.13399265706539154, -10.128030776977539, -2.1027231216430664, 0.6662006378173828, -0.22954195737838745, 3.3744451999664307, -0.260009765625, 0.7294921875, 0.3544921875, 
31, 3678429081, -0.4827732741832733, 0.5934539437294006, -0.49194106459617615, 0.41561922430992126, 0.19537042081356049, -10.10842227935791, -2.100102424621582, 0.7595388293266296, -0.6241548657417297, 3.779789924621582, -0.259033203125, 0.7294921875, 0.3486328125, 
32, 3678437414, -0.48299214243888855, 0.5932527184486389, -0.49207332730293274, 0.4154958128929138, 0.2178032100200653, -10.040628433227539, -2.0617563724517822, 1.4192849397659302, -1.0052947998046875, 4.357212066650391, -0.256103515625, 0.72802734375, 0.3515625, 
33, 3678445747, -0.48325952887535095, 0.5930101871490479, -0.49219173192977905, 0.4153904318809509, 0.2548777163028717, -9.965607643127441, -2.0279979705810547, 2.496005058288574, -1.0476863384246826, 4.75218391418457, -0.256103515625, 0.733154296875, 0.3505859375, 
34, 3678454080, -0.48360201716423035, 0.5927117466926575, -0.49228060245513916, 0.41531258821487427, 0.2394319474697113, -9.956948280334473, -2.0083327293395996, 3.628845453262329, -1.202805995941162, 5.065496921539307, -0.254638671875, 0.73095703125, 0.35009765625, 
35, 3678462413, -0.48399701714515686, 0.5923965573310852, -0.492313951253891, 0.41526278853416443, 0.2679283916950226, -9.922211647033691, -1.9823722839355469, 4.882585048675537, -1.6292316913604736, 4.90802001953125, -0.255615234375, 0.73291015625, 0.3486328125, 
36, 3678470746, -0.48448485136032104, 0.592056155204773, -0.4922882318496704, 0.4152098000049591, 0.274467408657074, -9.86241626739502, -1.930968165397644, 5.914429187774658, -2.50774884223938, 5.078893184661865, -0.256103515625, 0.733642578125, 0.34912109375, 
37, 3678479079, -0.4850371778011322, 0.5917069911956787, -0.4922342300415039, 0.4151266813278198, 0.30226269364356995, -9.813901901245117, -1.87037193775177, 6.664261341094971, -3.338751792907715, 5.5519633293151855, -0.253173828125, 0.734130859375, 0.3466796875, 
38, 3678487412, -0.4856346845626831, 0.5913393497467041, -0.49217483401298523, 0.41502246260643005, 0.3255702257156372, -9.738313674926758, -1.7998278141021729, 6.834620475769043, -3.7360286712646484, 5.9554123878479, -0.251708984375, 0.734619140625, 0.346923828125, 
39, 3678495745, -0.486203670501709, 0.590969979763031, -0.49215275049209595, 0.41490843892097473, 0.32286709547042847, -9.593724250793457, -1.7414979934692383, 6.540953159332275, -3.380169630050659, 6.251461505889893, -0.249267578125, 0.734619140625, 0.345947265625, 
40, 3678504078, -0.4867289960384369, 0.590598464012146, -0.4921729564666748, 0.4147976338863373, 0.3573494255542755, -9.460386276245117, -1.69744873046875, 5.774780750274658, -2.746985912322998, 6.263039588928223, -0.252685546875, 0.733154296875, 0.348388671875, 
41, 3678512411, -0.4872075617313385, 0.5902472734451294, -0.49223610758781433, 0.41466066241264343, 0.35810717940330505, -9.379448890686035, -1.673743486404419, 5.040650844573975, -2.517584800720215, 6.4584245681762695, -0.251220703125, 0.737060546875, 0.34423828125, 
42, 3678520744, -0.48768332600593567, 0.5899060964584351, -0.4923545718193054, 0.41444650292396545, 0.36313626170158386, -9.218618392944336, -1.649498462677002, 3.908886194229126, -2.764634132385254, 7.263710975646973, -0.252197265625, 0.738037109375, 0.3466796875, 
43, 3678529077, -0.4880887269973755, 0.589622974395752, -0.49254244565963745, 0.41414836049079895, 0.3342285752296448, -9.164627075195312, -1.6115890741348267, 2.184638023376465, -2.8300013542175293, 7.687497615814209, -0.249755859375, 0.7353515625, 0.342529296875, 
44, 3678537410, -0.4883784353733063, 0.5894175171852112, -0.49277442693710327, 0.4138234555721283, 0.3245406448841095, -9.090461730957031, -1.5717262029647827, 0.09305652976036072, -2.4151792526245117, 6.949706077575684, -0.24951171875, 0.734130859375, 0.344482421875, 
45, 3678545743, -0.4885164797306061, 0.5892795324325562, -0.49305886030197144, 0.41351795196533203, 0.31899869441986084, -9.014546394348145, -1.5749931335449219, -1.559279203414917, -1.275114893913269, 6.01437520980835, -0.248291015625, 0.734619140625, 0.345458984375, 
46, 3678554076, -0.48858642578125, 0.5891740918159485, -0.49334579706192017, 0.4132433831691742, 0.31120041012763977, -9.118985176086426, -1.5913292169570923, -2.3311386108398438, -0.7183640599250793, 5.127201080322266, -0.246826171875, 0.735595703125, 0.350341796875, 
47, 3678562409, -0.488603413105011, 0.5890700221061707, -0.49362143874168396, 0.4130425453186035, 0.2976846992969513, -9.156721115112305, -1.5275235176086426, -2.0108585357666016, 0.14082707464694977, 4.327371597290039, -0.246337890625, 0.738037109375, 0.345947265625, 
48, 3678570742, -0.4886009097099304, 0.5888915657997131, -0.49391549825668335, 0.41294845938682556, 0.2939806580543518, -9.176264762878418, -1.5193827152252197, -1.242969274520874, 1.6979933977127075, 4.057474136352539, -0.246826171875, 0.738525390625, 0.346435546875, 
49, 3678579075, -0.4885564148426056, 0.5886505842208862, -0.4942430257797241, 0.4129526615142822, 0.26423773169517517, -9.175137519836426, -1.5020215511322021, -0.497364342212677, 3.3082573413848877, 3.948331832885742, -0.243408203125, 0.736083984375, 0.34814453125, 
50, 3678587408, -0.4884597063064575, 0.588375985622406, -0.4946000874042511, 0.4130310118198395, 0.1835450381040573, -9.205080032348633, -1.5002524852752686, -0.5478244423866272, 4.703798294067383, 3.5274133682250977, -0.246337890625, 0.735595703125, 0.347412109375, 
51, 3678595741, -0.48823416233062744, 0.5881333947181702, -0.4949880540370941, 0.413178414106369, 0.1120452731847763, -9.25058364868164, -1.5111937522888184, -1.3260618448257446, 6.132944583892822, 2.465165615081787, -0.247802734375, 0.737548828125, 0.349365234375, 
52, 3678604074, -0.487893283367157, 0.5879242420196533, -0.49542275071144104, 0.4133578836917877, 0.013747711665928364, -9.29625415802002, -1.5603567361831665, -2.713559627532959, 7.334508895874023, 1.6444085836410522, -0.245361328125, 0.737060546875, 0.345947265625, 
53, 3678612407, -0.4874248504638672, 0.5877777934074402, -0.49590614438056946, 0.41353878378868103, -0.0750938355922699, -9.392926216125488, -1.612800121307373, -4.256740570068359, 8.179779052734375, 0.9816401600837708, -0.247802734375, 0.738037109375, 0.344482421875, 
54, 3678620740, -0.4868963956832886, 0.5877112746238708, -0.4964391589164734, 0.41361626982688904, -0.11249090731143951, -9.45196533203125, -1.6929690837860107, -6.441736221313477, 7.635269641876221, 1.082918643951416, -0.244384765625, 0.738525390625, 0.34716796875, 
55, 3678629073, -0.48629847168922424, 0.5877496600151062, -0.49702155590057373, 0.413565993309021, -0.17109201848506927, -9.563004493713379, -1.7092639207839966, -8.68533992767334, 6.80198860168457, 1.3297117948532104, -0.2470703125, 0.735595703125, 0.343994140625, 
56, 3678637406, -0.48566296696662903, 0.5878530740737915, -0.4976087212562561, 0.41345980763435364, -0.23246866464614868, -9.810449600219727, -1.7218093872070312, -10.00562572479248, 6.2781267166137695, 0.9802312850952148, -0.24267578125, 0.736572265625, 0.34521484375, 
57, 3678645739, -0.4849972426891327, 0.588003933429718, -0.4981696903705597, 0.4133507311344147, -0.19063960015773773, -9.963756561279297, -1.7365937232971191, -10.269197463989258, 6.022241115570068, 0.3935115933418274, -0.247314453125, 0.734619140625, 0.349853515625, 
58, 3678654072, -0.4844249486923218, 0.5881134867668152, -0.49864399433135986, 0.4132941961288452, -0.19367638230323792, -10.127910614013672, -1.7888067960739136, -8.554221153259277, 5.458906650543213, 0.05268849432468414, -0.245361328125, 0.7353515625, 0.35205078125, 
59, 3678662405, -0.48399633169174194, 0.5881366729736328, -0.4989887773990631, 0.4133472144603729, -0.20066307485103607, -10.31950855255127, -1.791155457496643, -5.168146133422852, 5.046850204467773, -0.208999365568161, -0.248291015625, 0.735595703125, 0.348388671875, 
60, 3678670738, -0.4837646484375, 0.5880317687988281, -0.4991984963417053, 0.41351446509361267, -0.2647787630558014, -10.42624282836914, -1.7531033754348755, -1.3322091102600098, 4.388461589813232, -0.16791412234306335, -0.246337890625, 0.734619140625, 0.3486328125, 
61, 3678679071, -0.4836997389793396, 0.5877922773361206, -0.49929505586624146, 0.41381415724754333, -0.3194829821586609, -10.407144546508789, -1.7444024085998535, 2.6217193603515625, 4.329472064971924, -0.0026254593394696712, -0.24560546875, 0.734130859375, 0.34814453125, 
62, 3678687404, -0.48376742005348206, 0.5874221920967102, -0.49932751059532166, 0.41422128677368164, -0.3204473853111267, -10.315526962280273, -1.7886408567428589, 5.505574703216553, 4.60152006149292, 0.3241737484931946, -0.247314453125, 0.737548828125, 0.349365234375, 
63, 3678695737, -0.4838770031929016, 0.5869682431221008, -0.49937179684638977, 0.414683073759079, -0.34462231397628784, -10.196795463562012, -1.795990228652954, 6.8640007972717285, 5.309318542480469, 0.9532082080841064, -0.248291015625, 0.73828125, 0.350341796875, 
64, 3678704070, -0.48399877548217773, 0.58648681640625, -0.49946942925453186, 0.41510435938835144, -0.3280189633369446, -10.053239822387695, -1.8311128616333008, 6.408912658691406, 5.412339210510254, 1.829599380493164, -0.248291015625, 0.737548828125, 0.348388671875, 
65, 3678712403, -0.4840851426124573, 0.5860534310340881, -0.4996383488178253, 0.41541218757629395, -0.3388296961784363, -9.951508522033691, -1.9419593811035156, 4.765297889709473, 4.935863018035889, 2.699023485183716, -0.246337890625, 0.736572265625, 0.344482421875, 
66, 3678720736, -0.48410865664482117, 0.5856965780258179, -0.499876469373703, 0.41560161113739014, -0.3406941592693329, -9.957108497619629, -1.960207223892212, 2.3927536010742188, 4.442404747009277, 3.0907416343688965, -0.245361328125, 0.737548828125, 0.343994140625, 
67, 3678729069, -0.48403334617614746, 0.5854389071464539, -0.500173807144165, 0.41569459438323975, -0.3171796202659607, -9.988425254821777, -2.030608892440796, 0.08191432803869247, 4.128861427307129, 3.0156409740448, -0.24755859375, 0.736572265625, 0.342041015625, 
68, 3678737402, -0.4839152693748474, 0.5852400660514832, -0.5004969239234924, 0.4157230854034424, -0.2499776929616928, -9.955390930175781, -2.127403497695923, -1.3890985250473022, 3.782479763031006, 2.9508883953094482, -0.24560546875, 0.737060546875, 0.343505859375, 
69, 3678745735, -0.483813613653183, 0.5850638747215271, -0.5008187890052795, 0.4157017469406128, -0.22323568165302277, -9.99448013305664, -2.256983995437622, -1.5960102081298828, 3.1343114376068115, 3.2650980949401855, -0.247802734375, 0.735107421875, 0.345947265625, 
70, 3678754068, -0.48377692699432373, 0.5848696231842041, -0.5011031031608582, 0.41567516326904297, -0.22206300497055054, -10.020212173461914, -2.3375792503356934, -0.924174427986145, 2.493673801422119, 3.4373281002044678, -0.244873046875, 0.739013671875, 0.342041015625, 
71, 3678762401, -0.4838171899318695, 0.5846461057662964, -0.5013298392295837, 0.41566935181617737, -0.22282591462135315, -9.985984802246094, -2.4333198070526123, 0.5195079445838928, 1.8648698329925537, 3.5195493698120117, -0.24609375, 0.737548828125, 0.342529296875, 
72, 3678770734, -0.4839732348918915, 0.5843793749809265, -0.5014748573303223, 0.41568827629089355, -0.25474315881729126, -9.909642219543457, -2.5158755779266357, 2.218039035797119, 1.0217007398605347, 3.6157569885253906, -0.248779296875, 0.736083984375, 0.344970703125, 
73, 3678779067, -0.48426300287246704, 0.5840842723846436, -0.5015118718147278, 0.41572055220603943, -0.33184176683425903, -9.83745002746582, -2.538325309753418, 4.3583903312683105, -0.40556299686431885, 3.6555356979370117, -0.248291015625, 0.737060546875, 0.343994140625, 
74, 3678787400, -0.48471665382385254, 0.5837889313697815, -0.5014197826385498, 0.4157181680202484, -0.4173053503036499, -9.746670722961426, -2.5736210346221924, 6.008254528045654, -2.6183254718780518, 3.753075122833252, -0.245849609375, 0.739990234375, 0.342041015625, 
75, 3678795733, -0.4853134751319885, 0.5835021138191223, -0.5012080669403076, 0.4156796336174011, -0.3634317219257355, -9.629079818725586, -2.5223777294158936, 7.717466831207275, -4.753886699676514, 3.824333429336548, -0.24755859375, 0.736572265625, 0.342041015625, 
76, 3678804066, -0.48606956005096436, 0.5832223892211914, -0.5008702874183655, 0.41559624671936035, -0.33293357491493225, -9.56117057800293, -2.481511116027832, 9.17722225189209, -7.081376075744629, 3.9431324005126953, -0.247314453125, 0.743408203125, 0.341796875, 
77, 3678812399, -0.4869191348552704, 0.5829817056655884, -0.5004106760025024, 0.41549238562583923, -0.2409021556377411, -9.484546661376953, -2.424851894378662, 10.415802001953125, -8.896838188171387, 3.3996505737304688, -0.245361328125, 0.741943359375, 0.341552734375, 
78, 3678820732, -0.4878663718700409, 0.5827471017837524, -0.49984684586524963, 0.4153895080089569, -0.16951099038124084, -9.351128578186035, -2.3444674015045166, 11.56534194946289, -10.321808815002441, 3.0421266555786133, -0.244384765625, 0.740478515625, 0.340576171875, 
79, 3678829065, -0.4888494610786438, 0.5825459361076355, -0.499206006526947, 0.41528674960136414, -0.09887787699699402, -9.213614463806152, -2.2523183822631836, 12.275830268859863, -11.233854293823242, 2.42887020111084, -0.24462890625, 0.739990234375, 0.336669921875, 
80, 3678837398, -0.48986175656318665, 0.5823352336883545, -0.4985271394252777, 0.41520485281944275, -0.038534265011548996, -9.105792045593262, -2.2153148651123047, 12.727845191955566, -11.512514114379883, 2.185842514038086, -0.24462890625, 0.741943359375, 0.337646484375, 
81, 3678845731, -0.4908351004123688, 0.5821441411972046, -0.497826486825943, 0.41516387462615967, 0.013339689932763577, -9.068384170532227, -2.1524131298065186, 12.906707763671875, -11.160521507263184, 1.4020979404449463, -0.24365234375, 0.741943359375, 0.337646484375, 
82, 3678854064, -0.4917638897895813, 0.5819734930992126, -0.497090607881546, 0.4151856005191803, 0.05540475621819496, -9.064859390258789, -2.126919746398926, 12.824357032775879, -10.72367000579834, 0.2782987058162689, -0.23974609375, 0.743408203125, 0.33447265625, 
83, 3678862397, -0.4926345944404602, 0.5818576812744141, -0.4963221848011017, 0.41523489356040955, 0.10075405240058899, -9.143746376037598, -2.1147727966308594, 12.59001350402832, -10.649595260620117, -0.8533511757850647, -0.24169921875, 0.743896484375, 0.333740234375, 
84, 3678870730, -0.49349045753479004, 0.5817530751228333, -0.49551302194595337, 0.41533148288726807, 0.1973939836025238, -9.29204273223877, -2.111363410949707, 12.723362922668457, -10.499571800231934, -1.6812034845352173, -0.23828125, 0.748291015625, 0.333740234375, 
85, 3678879063, -0.4942951798439026, 0.5816803574562073, -0.4946972131729126, 0.41544920206069946, 0.2661084234714508, -9.395380020141602, -2.1077513694763184, 12.51652717590332, -10.209388732910156, -2.361722469329834, -0.23974609375, 0.746337890625, 0.330322265625, 
86, 3678887396, -0.4950750172138214, 0.5816118121147156, -0.49388232827186584, 0.4155861437320709, 0.29901188611984253, -9.469407081604004, -2.1195363998413086, 12.178417205810547, -9.904142379760742, -2.6822335720062256, -0.23974609375, 0.745361328125, 0.333740234375, 
87, 3678895729, -0.49581190943717957, 0.5815757513046265, -0.49307942390441895, 0.41571125388145447, 0.3817884027957916, -9.60173225402832, -2.1314890384674072, 11.709881782531738, -9.833113670349121, -2.9441134929656982, -0.23876953125, 0.746337890625, 0.330810546875, 
88, 3678904062, -0.49652719497680664, 0.5815666317939758, -0.4922688901424408, 0.41583073139190674, 0.4456900656223297, -9.732447624206543, -2.1092002391815186, 11.113402366638184, -9.914387702941895, -3.2995622158050537, -0.23974609375, 0.748291015625, 0.328857421875, 
89, 3678912395, -0.49722886085510254, 0.5815640687942505, -0.4914824068546295, 0.41592633724212646, 0.5317794680595398, -9.810785293579102, -2.0927700996398926, 10.914612770080566, -9.858293533325195, -3.0211615562438965, -0.24267578125, 0.746337890625, 0.330810546875, 
90, 3678920728, -0.4979267120361328, 0.5815425515174866, -0.4907344579696655, 0.4160049855709076, 0.58938068151474, -9.788138389587402, -2.115358829498291, 10.424455642700195, -9.625100135803223, -2.5369746685028076, -0.24072265625, 0.748779296875, 0.325927734375, 
91, 3678929061, -0.49857670068740845, 0.5815354585647583, -0.49006468057632446, 0.4160257875919342, 0.6144099831581116, -9.835735321044922, -2.049382448196411, 9.370353698730469, -9.282535552978516, -1.8295609951019287, -0.23681640625, 0.747802734375, 0.325927734375, 
92, 3678937394, -0.4991760849952698, 0.5815349817276001, -0.4894823133945465, 0.41599348187446594, 0.654479444026947, -9.853166580200195, -2.0057077407836914, 7.797845363616943, -8.833569526672363, -1.157417893409729, -0.2392578125, 0.749755859375, 0.323974609375, 
93, 3678945727, -0.49968427419662476, 0.5815677642822266, -0.48902472853660583, 0.415875643491745, 0.6584405899047852, -9.809234619140625, -1.931082844734192, 5.821066379547119, -8.321080207824707, -0.2629173696041107, -0.23779296875, 0.747314453125, 0.324462890625, 
94, 3678954060, -0.5001134276390076, 0.581631600856781, -0.48869067430496216, 0.41566282510757446, 0.66886305809021, -9.694025993347168, -1.834589958190918, 3.3594603538513184, -7.795064449310303, 0.6612827181816101, -0.2373046875, 0.747314453125, 0.326416015625, 
95, 3678962393, -0.5004006624221802, 0.5817678570747375, -0.4884986877441406, 0.4153522551059723, 0.6576125621795654, -9.553194046020508, -1.7358105182647705, 0.5333652496337891, -7.140621662139893, 1.2410353422164917, -0.23681640625, 0.748291015625, 0.323974609375, 
96, 3678970726, -0.5005508065223694, 0.5819846391677856, -0.4884149432182312, 0.41496604681015015, 0.6082999110221863, -9.402938842773438, -1.655620813369751, -2.519300699234009, -6.458615779876709, 1.2355537414550781, -0.24072265625, 0.7490234375, 0.323974609375, 
97, 3678979059, -0.5005307793617249, 0.5822869539260864, -0.48842597007751465, 0.41455259919166565, 0.5586082339286804, -9.355101585388184, -1.598710060119629, -4.9150261878967285, -5.530946254730225, 0.7050062417984009, -0.23681640625, 0.749755859375, 0.326904296875, 
98, 3678987392, -0.5004062652587891, 0.5826410055160522, -0.48846983909606934, 0.4141538441181183, 0.5428449511528015, -9.323047637939453, -1.533735752105713, -6.476316928863525, -4.6181321144104, -0.14701293408870697, -0.23876953125, 0.750244140625, 0.327880859375, 
99, 3678995725, -0.500190794467926, 0.5830216407775879, -0.4885270595550537, 0.4138108789920807, 0.42880091071128845, -9.420863151550293, -1.45451021194458, -6.809840202331543, -3.6980173587799072, -1.0254020690917969, -0.23779296875, 0.746826171875, 0.327880859375, 
100, 3679004058, -0.49996235966682434, 0.5833649039268494, -0.48857933282852173, 0.4135415554046631, 0.374526709318161, -9.460029602050781, -1.4277158975601196, -6.4127421379089355, -2.763993740081787, -1.4874314069747925, -0.236328125, 0.748291015625, 0.32958984375, 
101, 3679012391, -0.4997166693210602, 0.5836644768714905, -0.4886367917060852, 0.41334789991378784, 0.33245742321014404, -9.548958778381348, -1.4144209623336792, -5.497135639190674, -1.7695211172103882, -1.6587395668029785, -0.23828125, 0.750732421875, 0.329833984375, 
102, 3679020724, -0.4994733929634094, 0.5838865637779236, -0.4887109100818634, 0.4132404327392578, 0.30204281210899353, -9.54043197631836, -1.4058473110198975, -4.734957695007324, -0.5270256996154785, -1.695803165435791, -0.23681640625, 0.746337890625, 0.3310546875, 
103, 3679029057, -0.4991856515407562, 0.584082841873169, -0.4888068437576294, 0.4131971001625061, 0.2555706202983856, -9.54373550415039, -1.3857022523880005, -4.339116096496582, 0.5396150946617126, -1.9243334531784058, -0.2353515625, 0.744873046875, 0.33056640625, 
104, 3679037390, -0.49889376759529114, 0.58425372838974, -0.488907128572464, 0.413189560174942, 0.2070050835609436, -9.569476127624512, -1.351924180984497, -4.249747276306152, 1.0734412670135498, -2.1040172576904297, -0.2373046875, 0.746826171875, 0.3310546875, 
105, 3679045723, -0.4985717236995697, 0.5844531655311584, -0.4890096187591553, 0.4131748676300049, 0.15813912451267242, -9.556833267211914, -1.4048359394073486, -4.487062931060791, 1.0015933513641357, -2.2841620445251465, -0.23876953125, 0.747802734375, 0.333251953125, 
106, 3679054056, -0.4982437491416931, 0.5846886038780212, -0.4891091287136078, 0.4131195843219757, 0.1360217183828354, -9.571170806884766, -1.4049344062805176, -5.299290657043457, 0.5587489604949951, -2.421710729598999, -0.2373046875, 0.748291015625, 0.33251953125, 
107, 3679062389, -0.4978700280189514, 0.5850048661231995, -0.4892095923423767, 0.4130036234855652, 0.09909804165363312, -9.650671005249023, -1.418663740158081, -6.378828048706055, -0.008414276875555515, -2.661844253540039, -0.23974609375, 0.744384765625, 0.333251953125, 
108, 3679070722, -0.4974830150604248, 0.5853526592254639, -0.4892928898334503, 0.4128786325454712, 0.07619167864322662, -9.627853393554688, -1.422607421875, -6.920672416687012, -0.3535917103290558, -3.166086196899414, -0.23876953125, 0.743896484375, 0.33203125, 
109, 3679079055, -0.497075617313385, 0.5857211947441101, -0.4893572926521301, 0.41277000308036804, 0.09866376221179962, -9.676409721374512, -1.4281153678894043, -6.759276866912842, -0.3201139271259308, -3.550837516784668, -0.239990234375, 0.74609375, 0.337646484375, 
110, 3679087388, -0.4967179000377655, 0.5860449075698853, -0.48939165472984314, 0.41270044445991516, 0.09203272312879562, -9.740012168884277, -1.4470704793930054, -5.869898796081543, -0.30080077052116394, -3.6106715202331543, -0.23974609375, 0.746337890625, 0.335693359375, 
111, 3679095721, -0.49641430377960205, 0.5863344669342041, -0.4893816113471985, 0.4126662015914917, 0.02661711536347866, -9.723517417907715, -1.416016697883606, -4.465393543243408, -0.5490027070045471, -3.5504534244537354, -0.239990234375, 0.74560546875, 0.339111328125, 
112, 3679104054, -0.49618345499038696, 0.5865660905838013, -0.4893370270729065, 0.41266772150993347, -0.010760767385363579, -9.671652793884277, -1.4250637292861938, -3.2923898696899414, -0.5985150337219238, -3.3916962146759033, -0.24267578125, 0.744384765625, 0.335205078125, 
113, 3679112387, -0.4959574341773987, 0.5867881178855896, -0.4892767667770386, 0.41269516944885254, -0.027466047555208206, -9.629952430725098, -1.4248751401901245, -2.6845126152038574, -0.6455428004264832, -3.499096632003784, -0.24169921875, 0.743408203125, 0.336181640625, 
114, 3679120720, -0.4957387149333954, 0.5870097279548645, -0.48918795585632324, 0.4127483367919922, -0.03791257366538048, -9.599939346313477, -1.403389811515808, -2.5274975299835205, -0.5076357126235962, -3.966813087463379, -0.23974609375, 0.742919921875, 0.33642578125, 
115, 3679129053, -0.4954712390899658, 0.5872441530227661, -0.48910507559776306, 0.41283392906188965, -0.027461692690849304, -9.56645679473877, -1.4207841157913208, -2.5909438133239746, -0.1763412058353424, -4.409528732299805, -0.23779296875, 0.742919921875, 0.337890625, 
116, 3679137386, -0.4951947331428528, 0.5874933004379272, -0.4890041649341583, 0.41293084621429443, -0.05883684754371643, -9.559008598327637, -1.4535160064697266, -2.8169641494750977, -0.0062114521861076355, -4.8734283447265625, -0.2421875, 0.741455078125, 0.334716796875, 
117, 3679145719, -0.4948602616786957, 0.5877571105957031, -0.4889233112335205, 0.41305240988731384, -0.06943716108798981, -9.540575981140137, -1.4521783590316772, -3.108633518218994, 0.5228890180587769, -5.199471950531006, -0.24169921875, 0.743896484375, 0.337646484375, 
118, 3679154052, -0.494517982006073, 0.5880088806152344, -0.4888399839401245, 0.4132021963596344, -0.057447899132966995, -9.570018768310547, -1.5037140846252441, -3.1125519275665283, 0.9697036147117615, -5.483713150024414, -0.24365234375, 0.742431640625, 0.337158203125, 
119, 3679162385, -0.49413788318634033, 0.5882624983787537, -0.4887673556804657, 0.41338208317756653, -0.05833137035369873, -9.638991355895996, -1.569181203842163, -3.0683422088623047, 1.455503225326538, -5.715137481689453, -0.24609375, 0.739501953125, 0.339111328125, 
120, 3679170718, -0.49377694725990295, 0.5884934067726135, -0.48866814374923706, 0.41360196471214294, -0.05597131699323654, -9.714499473571777, -1.616862416267395, -2.5596179962158203, 1.6719436645507812, -6.054475784301758, -0.243896484375, 0.741455078125, 0.339111328125, 
121, 3679179051, -0.4933967888355255, 0.5887419581413269, -0.48854994773864746, 0.4138416051864624, -0.03383667394518852, -9.74913501739502, -1.6785831451416016, -2.3788580894470215, 1.774912714958191, -6.439149379730225, -0.2431640625, 0.740478515625, 0.341064453125, 
122, 3679187384, -0.4930477738380432, 0.5889676213264465, -0.48841068148612976, 0.4141007661819458, -0.048110391944646835, -9.871358871459961, -1.7185604572296143, -1.9354500770568848, 1.6677427291870117, -6.5435791015625, -0.246337890625, 0.739990234375, 0.342041015625, 
123, 3679195717, -0.49271002411842346, 0.5891955494880676, -0.48825788497924805, 0.4143584370613098, -0.08296378701925278, -9.977295875549316, -1.7365837097167969, -1.5767227411270142, 1.3223347663879395, -6.498164653778076, -0.249267578125, 0.73828125, 0.33984375, 
124, 3679204050, -0.4924356937408447, 0.5894007682800293, -0.4880771040916443, 0.4146058261394501, -0.04944133758544922, -10.086134910583496, -1.7280850410461426, -1.035544991493225, 0.907128095626831, -6.236924648284912, -0.24853515625, 0.74072265625, 0.33447265625, 
125, 3679212383, -0.49218064546585083, 0.5895974636077881, -0.48791009187698364, 0.4148252606391907, 0.010482367128133774, -10.108543395996094, -1.757724404335022, -0.8763526082038879, 0.8136105537414551, -5.6295599937438965, -0.250732421875, 0.7392578125, 0.3388671875, 
126, 3679220716, -0.49194276332855225, 0.5897444486618042, -0.4877926707267761, 0.41503676772117615, 0.03812139108777046, -10.094596862792969, -1.7491843700408936, -0.9482773542404175, 1.1310477256774902, -4.881931781768799, -0.248779296875, 0.739013671875, 0.3388671875, 
127, 3679229049, -0.49168288707733154, 0.5898780226707458, -0.48774802684783936, 0.4152073264122009, 0.05605893209576607, -10.086727142333984, -1.754044771194458, -1.5152997970581055, 1.5161834955215454, -3.936203956604004, -0.248779296875, 0.740966796875, 0.34130859375, 
128, 3679237382, -0.49140340089797974, 0.5899816155433655, -0.4877881109714508, 0.41534408926963806, 0.08138572424650192, -10.052217483520508, -1.767872929573059, -2.391972541809082, 2.1183485984802246, -3.0452380180358887, -0.250244140625, 0.739013671875, 0.33984375, 
129, 3679245715, -0.49109798669815063, 0.5900862216949463, -0.48789429664611816, 0.4154316186904907, 0.08559510856866837, -10.02953815460205, -1.7854242324829102, -3.109811544418335, 2.306946039199829, -2.2224831581115723, -0.249755859375, 0.73779296875, 0.34033203125, 
130, 3679254048, -0.490800678730011, 0.5901897549629211, -0.4880463480949402, 0.4154573082923889, 0.059590913355350494, -10.008920669555664, -1.8213592767715454, -3.9203736782073975, 2.0918891429901123, -1.4870216846466064, -0.249267578125, 0.738525390625, 0.34228515625, 
131, 3679262381, -0.490498423576355, 0.5903007388114929, -0.4882512390613556, 0.41541588306427, 0.06581932306289673, -10.01309871673584, -1.8427907228469849, -4.553250312805176, 1.7164098024368286, -0.6049442291259766, -0.251708984375, 0.73828125, 0.33935546875, 
132, 3679270714, -0.4902127683162689, 0.5904152393341064, -0.4884723424911499, 0.41533058881759644, 0.0786767452955246, -10.046207427978516, -1.8713382482528687, -5.041226863861084, 1.5178227424621582, -0.1838717758655548, -0.253173828125, 0.73779296875, 0.33984375, 
133, 3679279047, -0.48990893363952637, 0.590545117855072, -0.48870849609375, 0.415226548910141, 0.07376063615083694, -10.017077445983887, -1.8915510177612305, -5.296882629394531, 1.560572862625122, -0.02539651095867157, -0.250244140625, 0.73681640625, 0.34130859375, 
134, 3679287380, -0.4896453022956848, 0.590628445148468, -0.4889494776725769, 0.41513532400131226, 0.08225824683904648, -10.026552200317383, -1.8965257406234741, -4.8041672706604, 1.6332148313522339, 0.35281044244766235, -0.251708984375, 0.738525390625, 0.34375, 
135, 3679295713, -0.4894237518310547, 0.5906945466995239, -0.4891606569290161, 0.41505345702171326, 0.09791442006826401, -10.011383056640625, -1.9208564758300781, -3.9077203273773193, 1.4051456451416016, 0.5246050953865051, -0.249267578125, 0.737548828125, 0.341552734375, 
136, 3679304046, -0.4892493486404419, 0.590714156627655, -0.48935985565185547, 0.4149964153766632, 0.09482221305370331, -9.960189819335938, -1.8930169343948364, -3.181428909301758, 1.3931328058242798, 0.7214505672454834, -0.250244140625, 0.736083984375, 0.343017578125, 
137, 3679312379, -0.48910510540008545, 0.5907241702079773, -0.4895460903644562, 0.4149325489997864, 0.09679575264453888, -9.894137382507324, -1.899240493774414, -2.6364858150482178, 1.0812536478042603, 0.9995955228805542, -0.253173828125, 0.73681640625, 0.34228515625, 
138, 3679320712, -0.488983690738678, 0.5907289981842041, -0.4897114038467407, 0.4148736298084259, 0.09077506512403488, -9.830743789672852, -1.8646119832992554, -2.47114634513855, 0.8759299516677856, 0.8588709831237793, -0.25, 0.73486328125, 0.342529296875, 
139, 3679329045, -0.48884522914886475, 0.5907567739486694, -0.4898679256439209, 0.4148126542568207, 0.0987929254770279, -9.78576946258545, -1.871463656425476, -2.519300937652588, 0.7915055155754089, 0.6572100520133972, -0.251220703125, 0.73486328125, 0.3427734375, 
140, 3679337378, -0.48871123790740967, 0.5907813310623169, -0.4900188148021698, 0.41475701332092285, 0.13136082887649536, -9.806838035583496, -1.851296305656433, -2.6014456748962402, 0.7774689197540283, 0.5155377388000488, -0.25, 0.734375, 0.343017578125, 
141, 3679345711, -0.4885616600513458, 0.5908111333847046, -0.49017271399497986, 0.4147089123725891, 0.1520206779241562, -9.758530616760254, -1.8722848892211914, -2.5225284099578857, 0.9172714948654175, 0.46597418189048767, -0.253173828125, 0.73779296875, 0.34033203125, 
142, 3679354044, -0.48843029141426086, 0.5908119082450867, -0.490335077047348, 0.4146708846092224, 0.14042921364307404, -9.723625183105469, -1.8728183507919312, -2.3682539463043213, 1.1169599294662476, 0.665790855884552, -0.252197265625, 0.73583984375, 0.3427734375, 
143, 3679362377, -0.48827311396598816, 0.5908284187316895, -0.49051710963249207, 0.4146171510219574, 0.1418318897485733, -9.75094223022461, -1.8771398067474365, -2.6905322074890137, 1.0921909809112549, 0.7606916427612305, -0.252197265625, 0.73681640625, 0.34130859375, 
144, 3679370710, -0.48813408613204956, 0.5908508896827698, -0.49068504571914673, 0.4145500659942627, 0.12941545248031616, -9.777074813842773, -1.9146965742111206, -2.8027992248535156, 0.8444244861602783, 0.7177876830101013, -0.250244140625, 0.736572265625, 0.34326171875, 
145, 3679379043, -0.488007128238678, 0.590904176235199, -0.4908342957496643, 0.4144470989704132, 0.12263504415750504, -9.767797470092773, -1.9118355512619019, -2.8385825157165527, 0.1528913676738739, 0.7660961747169495, -0.250732421875, 0.73388671875, 0.344482421875, 
146, 3679387376, -0.4879114627838135, 0.5909685492515564, -0.49094459414482117, 0.4143370985984802, 0.11555621773004532, -9.799464225769043, -1.9259902238845825, -2.693067789077759, -0.4218280017375946, 0.5015267133712769, -0.253173828125, 0.73486328125, 0.3447265625, 
147, 3679395709, -0.4878282845020294, 0.5910409092903137, -0.49102652072906494, 0.41423481702804565, 0.11304357647895813, -9.83459186553955, -1.9607303142547607, -2.2209720611572266, -0.8102422952651978, 0.3131852149963379, -0.254150390625, 0.73583984375, 0.3447265625, 
148, 3679404042, -0.4878140091896057, 0.5910897850990295, -0.4910755753517151, 0.41412386298179626, 0.13162998855113983, -9.813936233520508, -1.944955825805664, -1.585124135017395, -1.299832820892334, 0.5774985551834106, -0.254150390625, 0.736083984375, 0.345703125, 
149, 3679412375, -0.48785272240638733, 0.5911315679550171, -0.4910939037799835, 0.4139966368675232, 0.14467307925224304, -9.838458061218262, -1.9605222940444946, -0.8322705626487732, -1.8987704515457153, 0.8994694352149963, -0.251220703125, 0.734130859375, 0.345458984375, 
150, 3679420708, -0.48794025182724, 0.5911583304405212, -0.49106526374816895, 0.41388922929763794, 0.12475204467773438, -9.855517387390137, -1.9416838884353638, -0.1432732194662094, -2.355062484741211, 0.6508321166038513, -0.255126953125, 0.73486328125, 0.3447265625, 
151, 3679429041, -0.48804259300231934, 0.5911962985992432, -0.49099594354629517, 0.41379615664482117, 0.09276240319013596, -9.806652069091797, -1.896337628364563, 0.4404367506504059, -2.7150707244873047, 0.32696571946144104, -0.251220703125, 0.734619140625, 0.346435546875, 
152, 3679437374, -0.48818016052246094, 0.591239333152771, -0.49087125062942505, 0.41372033953666687, 0.10671564191579819, -9.770161628723145, -1.8856669664382935, 0.9149149656295776, -3.172105312347412, -0.16683831810951233, -0.250732421875, 0.732177734375, 0.347900390625, 
153, 3679445707, -0.48832812905311584, 0.5913146138191223, -0.4906965494155884, 0.4136456847190857, 0.11118001490831375, -9.805527687072754, -1.8457989692687988, 1.282069206237793, -3.596737861633301, -0.6107586026191711, -0.250244140625, 0.735595703125, 0.344970703125, 
154, 3679454040, -0.48851391673088074, 0.5913664698600769, -0.4904928505420685, 0.4135938584804535, 0.12250983715057373, -9.785080909729004, -1.8319623470306396, 1.8592605590820312, -3.884207010269165, -0.7558633089065552, -0.251220703125, 0.736083984375, 0.34619140625, 
155, 3679462373, -0.48872342705726624, 0.5914023518562317, -0.49027642607688904, 0.413551390171051, 0.17691078782081604, -9.795330047607422, -1.803261637687683, 2.5027928352355957, -3.8337979316711426, -0.5546634793281555, -0.24755859375, 0.734130859375, 0.346435546875, 
156, 3679470706, -0.4889432191848755, 0.5914134979248047, -0.4900548756122589, 0.41353845596313477, 0.14322704076766968, -9.801935195922852, -1.7492722272872925, 2.772023916244507, -3.6848511695861816, -0.6949014663696289, -0.250732421875, 0.736083984375, 0.3447265625, 
157, 3679479039, -0.4891526699066162, 0.5914146304130554, -0.4898490905761719, 0.4135330319404602, 0.16868576407432556, -9.759960174560547, -1.7242311239242554, 2.924941062927246, -3.4462804794311523, -0.5172154903411865, -0.252197265625, 0.734619140625, 0.34521484375, 
158, 3679487372, -0.48936453461647034, 0.5914014577865601, -0.4896654784679413, 0.4135187268257141, 0.17707444727420807, -9.726686477661133, -1.7172523736953735, 2.6479227542877197, -3.2505104541778564, -0.2564113140106201, -0.2470703125, 0.733642578125, 0.344970703125, 
159, 3679495705, -0.4895324409008026, 0.591422438621521, -0.48950377106666565, 0.4134814143180847, 0.13828036189079285, -9.753530502319336, -1.7244958877563477, 1.9844369888305664, -3.249434232711792, -0.3152983784675598, -0.252197265625, 0.735107421875, 0.34814453125, 
160, 3679504038, -0.4896854758262634, 0.5914667248725891, -0.4893386960029602, 0.41343235969543457, 0.12293680757284164, -9.770291328430176, -1.7031457424163818, 1.4424142837524414, -3.338059425354004, -0.5948264598846436, -0.24755859375, 0.736083984375, 0.343017578125, 
161, 3679512371, -0.48980966210365295, 0.5915406346321106, -0.48917514085769653, 0.4133729338645935, 0.14114221930503845, -9.842291831970215, -1.712592363357544, 1.1310733556747437, -3.4410035610198975, -0.7856782674789429, -0.251220703125, 0.734130859375, 0.345458984375, 
162, 3679520704, -0.4899527132511139, 0.591600775718689, -0.4889988303184509, 0.41332578659057617, 0.12710291147232056, -9.890183448791504, -1.729386568069458, 1.3317351341247559, -3.421664237976074, -0.8624439239501953, -0.250244140625, 0.736083984375, 0.347900390625, 
163, 3679529037, -0.4901065230369568, 0.5916451215744019, -0.4888196587562561, 0.4132920503616333, 0.14703969657421112, -9.888701438903809, -1.7462663650512695, 1.827396035194397, -3.2219247817993164, -0.6924679279327393, -0.252197265625, 0.73583984375, 0.34375, 
164, 3679537370, -0.49030157923698425, 0.5916273593902588, -0.48864510655403137, 0.41329264640808105, 0.16150040924549103, -9.846723556518555, -1.7369306087493896, 2.590341806411743, -2.929128646850586, -0.3490067422389984, -0.249267578125, 0.736572265625, 0.345947265625, 
165, 3679545703, -0.49050045013427734, 0.5915828943252563, -0.48847541213035583, 0.41332074999809265, 0.14062312245368958, -9.792394638061523, -1.7327814102172852, 3.1536757946014404, -2.510054111480713, -0.19071078300476074, -0.249755859375, 0.734619140625, 0.343505859375, 
166, 3679554036, -0.4907074272632599, 0.5915312170982361, -0.4882945418357849, 0.41336268186569214, 0.08835096657276154, -9.722229957580566, -1.7211569547653198, 3.229340076446533, -2.5213239192962646, -0.38471299409866333, -0.251220703125, 0.735595703125, 0.34375, 
167, 3679562369, -0.49089983105659485, 0.5915087461471558, -0.48808470368385315, 0.41341444849967957, 0.09370269626379013, -9.675426483154297, -1.7167041301727295, 3.3360748291015625, -2.644529104232788, -0.8560405373573303, -0.250244140625, 0.736083984375, 0.343017578125, 
168, 3679570702, -0.4911041557788849, 0.591486930847168, -0.48785698413848877, 0.4134712815284729, 0.11137758195400238, -9.694697380065918, -1.7290334701538086, 3.3727548122406006, -2.867885112762451, -1.082649827003479, -0.250732421875, 0.738525390625, 0.34521484375, 
169, 3679579035, -0.4912935793399811, 0.5914933085441589, -0.48762187361717224, 0.41351431608200073, 0.13231536746025085, -9.708012580871582, -1.740269660949707, 3.1993205547332764, -3.0299720764160156, -1.2130005359649658, -0.249267578125, 0.736083984375, 0.343994140625, 
170, 3679587368, -0.4914852976799011, 0.59148770570755, -0.48740333318710327, 0.41355276107788086, 0.16054625809192657, -9.72441291809082, -1.7508034706115723, 2.9856464862823486, -2.963195562362671, -1.0646429061889648, -0.249267578125, 0.738525390625, 0.3427734375, 
171, 3679595701, -0.49165934324264526, 0.5914905071258545, -0.48719924688339233, 0.41358232498168945, 0.15849046409130096, -9.732555389404297, -1.7838982343673706, 2.830244779586792, -2.807255983352661, -0.9332162141799927, -0.250732421875, 0.73681640625, 0.34130859375, 
172, 3679604034, -0.49182918667793274, 0.5914837121963501, -0.4870107173919678, 0.41361209750175476, 0.14812880754470825, -9.780935287475586, -1.7725648880004883, 2.5876266956329346, -2.6793124675750732, -0.8787090182304382, -0.249755859375, 0.738037109375, 0.34228515625, 
173, 3679612367, -0.491995632648468, 0.591502845287323, -0.48680710792541504, 0.41362622380256653, 0.10833422839641571, -9.760804176330566, -1.7867565155029297, 2.5538673400878906, -3.083505630493164, -0.997431218624115, -0.245849609375, 0.739501953125, 0.343017578125, 
174, 3679620700, -0.4921968877315521, 0.5915347337722778, -0.4865821599960327, 0.41360604763031006, 0.08059751987457275, -9.840332984924316, -1.7945400476455688, 2.452153444290161, -3.7596192359924316, -0.9178990125656128, -0.249755859375, 0.738037109375, 0.34375, 
175, 3679629033, -0.49242067337036133, 0.5916205644607544, -0.48630884289741516, 0.4135379195213318, 0.02900638058781624, -9.90223217010498, -1.7898201942443848, 2.412271738052368, -4.857547283172607, -1.1076490879058838, -0.250244140625, 0.739013671875, 0.34326171875, 
176, 3679637366, -0.49270591139793396, 0.5917088985443115, -0.4859771132469177, 0.4134621322154999, -0.0182667039334774, -9.922995567321777, -1.7744228839874268, 2.9894630908966064, -5.818849563598633, -1.3075170516967773, -0.24658203125, 0.736083984375, 0.341552734375, 
177, 3679645699, -0.49304622411727905, 0.5918060541152954, -0.4855859875679016, 0.41337692737579346, -0.023890873417258263, -9.964118957519531, -1.7262965440750122, 3.8398051261901855, -6.718268394470215, -1.3814911842346191, -0.245849609375, 0.739990234375, 0.339599609375, 
178, 3679654032, -0.4934485852718353, 0.591877818107605, -0.48515716195106506, 0.41329771280288696, 0.029530510306358337, -9.97290325164795, -1.7081544399261475, 4.583104133605957, -7.1931047439575195, -1.2992180585861206, -0.249267578125, 0.736083984375, 0.343505859375, 
179, 3679662365, -0.49389195442199707, 0.5919348001480103, -0.48470887541770935, 0.41321203112602234, 0.06059953197836876, -9.944887161254883, -1.6790069341659546, 5.265723705291748, -7.30537223815918, -0.9481237530708313, -0.24853515625, 0.736572265625, 0.341552734375, 
180, 3679670698, -0.4943692088127136, 0.5919322371482849, -0.48428043723106384, 0.4131476581096649, 0.08495552092790604, -9.900886535644531, -1.6729941368103027, 5.79601526260376, -7.146512985229492, -0.4728772044181824, -0.248779296875, 0.738525390625, 0.33984375, 
181, 3679679031, -0.49482694268226624, 0.5919288992881775, -0.48387494683265686, 0.41307973861694336, 0.09053189307451248, -9.852746963500977, -1.64413583278656, 5.671298980712891, -6.937577724456787, -0.29265546798706055, -0.24755859375, 0.736572265625, 0.342041015625, 
182, 3679687364, -0.4952837824821472, 0.591905415058136, -0.4834871292114258, 0.4130196273326874, 0.13040746748447418, -9.826642990112305, -1.63962721824646, 5.569380760192871, -6.580745697021484, -0.15054768323898315, -0.248291015625, 0.741943359375, 0.3388671875, 
183, 3679695697, -0.4957049489021301, 0.591886043548584, -0.48312538862228394, 0.41296547651290894, 0.1615222692489624, -9.869038581848145, -1.6028631925582886, 5.325506687164307, -6.351344108581543, -0.1579245626926422, -0.246337890625, 0.739501953125, 0.341064453125, 
184, 3679704030, -0.49612942337989807, 0.5918564796447754, -0.4827814996242523, 0.4129006266593933, 0.20295269787311554, -9.844361305236816, -1.6284290552139282, 5.065830707550049, -6.070766448974609, 0.09531059116125107, -0.24560546875, 0.739501953125, 0.338134765625, 
185, 3679712363, -0.496530681848526, 0.5918274521827698, -0.48247331380844116, 0.4128199517726898, 0.22512251138687134, -9.833978652954102, -1.6379530429840088, 4.745625972747803, -5.930886745452881, 0.4264514446258545, -0.2470703125, 0.738525390625, 0.339599609375, 
186, 3679720696, -0.49691787362098694, 0.5917942523956299, -0.48218461871147156, 0.41273871064186096, 0.19536250829696655, -9.846845626831055, -1.640972375869751, 4.364409446716309, -5.5575079917907715, 0.46876609325408936, -0.24755859375, 0.73681640625, 0.339111328125, 
187, 3679729029, -0.4972555339336395, 0.5917909145355225, -0.4819084703922272, 0.4126594662666321, 0.1937497854232788, -9.785501480102539, -1.6492987871170044, 3.872462511062622, -5.046017646789551, 0.21083076298236847, -0.249267578125, 0.742919921875, 0.33935546875, 
188, 3679737362, -0.49756425619125366, 0.5917707085609436, -0.48164936900138855, 0.4126189649105072, 0.19645489752292633, -9.718772888183594, -1.6513948440551758, 3.74049711227417, -4.579479217529297, -0.10177814960479736, -0.2431640625, 0.739501953125, 0.336669921875, 
189, 3679745695, -0.49783962965011597, 0.5917473435401917, -0.4814048111438751, 0.4126057028770447, 0.21157191693782806, -9.668059349060059, -1.6690171957015991, 3.7638580799102783, -4.08894157409668, -0.2566930651664734, -0.24560546875, 0.740966796875, 0.335693359375, 
190, 3679754028, -0.4981093406677246, 0.5917156934738159, -0.4811805486679077, 0.41258716583251953, 0.22233539819717407, -9.59253978729248, -1.67249596118927, 3.449059009552002, -3.839663505554199, -0.11253613233566284, -0.244140625, 0.741455078125, 0.337158203125, 
191, 3679762361, -0.4983537793159485, 0.5917035341262817, -0.4809620976448059, 0.41256409883499146, 0.20051053166389465, -9.544939041137695, -1.6770557165145874, 3.220196008682251, -3.713616132736206, -0.20356912910938263, -0.24462890625, 0.7392578125, 0.335205078125, 
192, 3679770694, -0.49858102202415466, 0.5916972160339355, -0.48075342178344727, 0.4125421345233917, 0.21296460926532745, -9.536611557006836, -1.6839983463287354, 2.817617177963257, -3.6201493740081787, -0.37195712327957153, -0.24365234375, 0.739990234375, 0.336669921875, 
193, 3679779027, -0.4987867772579193, 0.5917068719863892, -0.4805434048175812, 0.4125237762928009, 0.23691071569919586, -9.517683029174805, -1.7155100107192993, 2.7405953407287598, -3.5080106258392334, -0.5337622761726379, -0.24462890625, 0.742431640625, 0.333251953125, 
194, 3679787360, -0.49899324774742126, 0.5917098522186279, -0.4803287386894226, 0.41251999139785767, 0.23396547138690948, -9.486836433410645, -1.75920832157135, 2.7392122745513916, -3.429630994796753, -0.7223855257034302, -0.24365234375, 0.741455078125, 0.336669921875, 
195, 3679795693, -0.499165415763855, 0.5917348861694336, -0.4801066219806671, 0.41253405809402466, 0.2297578603029251, -9.431650161743164, -1.7861112356185913, 2.6463091373443604, -3.246335506439209, -1.1530888080596924, -0.24609375, 0.7421875, 0.3330078125, 
196, 3679804026, -0.49930399656295776, 0.5917758941650391, -0.4798814058303833, 0.4125697910785675, 0.22686845064163208, -9.361406326293945, -1.815092921257019, 2.2479560375213623, -2.948953866958618, -1.7170114517211914, -0.245361328125, 0.742431640625, 0.336181640625, 
197, 3679812359, -0.49940645694732666, 0.5918638706207275, -0.4796340763568878, 0.412607342004776, 0.24091897904872894, -9.321357727050781, -1.8621054887771606, 1.9516255855560303, -3.3505594730377197, -2.365717887878418, -0.24462890625, 0.742431640625, 0.336181640625, 
198, 3679820692, -0.4994875490665436, 0.5920019149780273, -0.47934937477111816, 0.41264185309410095, 0.2280578315258026, -9.262059211730957, -1.918542742729187, 1.4413130283355713, -3.5383121967315674, -3.1592726707458496, -0.24365234375, 0.741943359375, 0.336181640625, 
199, 3679829025, -0.49949565529823303, 0.5922066569328308, -0.47905269265174866, 0.4126826524734497, 0.22952374815940857, -9.219462394714355, -1.9726959466934204, 0.689458429813385, -3.635749101638794, -4.081538677215576, -0.244140625, 0.740478515625, 0.335693359375, 
200, 3679837358, -0.4994732737541199, 0.5924528241157532, -0.47872763872146606, 0.41273361444473267, 0.24326403439044952, -9.229238510131836, -2.004706621170044, 0.1935923844575882, -3.6145148277282715, -4.899580955505371, -0.245361328125, 0.742431640625, 0.337646484375, 
201, 3679845691, -0.4994199275970459, 0.5927398204803467, -0.4783751368522644, 0.41279497742652893, 0.25424447655677795, -9.252291679382324, -2.0736746788024902, 0.07871254533529282, -3.7166635990142822, -5.536324977874756, -0.24658203125, 0.739501953125, 0.337646484375, 
202, 3679854024, -0.4993904232978821, 0.593039870262146, -0.477984219789505, 0.41285258531570435, 0.22860127687454224, -9.30601978302002, -2.1209447383880615, 0.18398705124855042, -4.271493434906006, -5.877353191375732, -0.245361328125, 0.743408203125, 0.337646484375, 
203, 3679862357, -0.49937915802001953, 0.5933587551116943, -0.4775421619415283, 0.4129193127155304, 0.23340682685375214, -9.356539726257324, -2.149293899536133, 0.7565421462059021, -4.7779645919799805, -6.275475978851318, -0.247802734375, 0.742431640625, 0.33544921875, 
204, 3679870690, -0.49941110610961914, 0.5936959385871887, -0.47703081369400024, 0.41298720240592957, 0.22461214661598206, -9.395654678344727, -2.132918357849121, 1.1827884912490845, -5.628561496734619, -6.82753849029541, -0.249267578125, 0.740966796875, 0.33740234375, 
205, 3679879023, -0.4994884133338928, 0.5940865874290466, -0.4764244556427002, 0.41303178668022156, 0.1988449990749359, -9.438678741455078, -2.122934579849243, 1.7791649103164673, -6.8098649978637695, -7.388234615325928, -0.24658203125, 0.739990234375, 0.338134765625, 
206, 3679887356, -0.4996282458305359, 0.5945039987564087, -0.4757247567176819, 0.4130684435367584, 0.16285282373428345, -9.543248176574707, -2.045912504196167, 2.3772571086883545, -8.340827941894531, -8.06342601776123, -0.250244140625, 0.73974609375, 0.33837890625, 
207, 3679895689, -0.4997836649417877, 0.5949711799621582, -0.4749603569507599, 0.41308730840682983, 0.19123418629169464, -9.631485939025879, -1.9706233739852905, 2.644157648086548, -9.621822357177734, -8.654192924499512, -0.248046875, 0.738525390625, 0.339111328125, 
208, 3679904022, -0.5000149607658386, 0.5954450964927673, -0.4741482138633728, 0.41305771470069885, 0.20854170620441437, -9.688446044921875, -1.8715050220489502, 2.9418723583221436, -10.572956085205078, -8.377662658691406, -0.24853515625, 0.73876953125, 0.33740234375, 
209, 3679912355, -0.5002855062484741, 0.5959145426750183, -0.4733467996120453, 0.41297221183776855, 0.18166759610176086, -9.827766418457031, -1.7148661613464355, 3.095916271209717, -11.10586166381836, -7.539769172668457, -0.24755859375, 0.7392578125, 0.336669921875, 
210, 3679920688, -0.5005906820297241, 0.5963444709777832, -0.47257477045059204, 0.4128657281398773, 0.1600206047296524, -9.948843002319336, -1.5292338132858276, 3.1205058097839355, -11.158598899841309, -6.8142194747924805, -0.24755859375, 0.73828125, 0.337646484375, 
211, 3679929021, -0.5008871555328369, 0.5967608690261841, -0.4718468487262726, 0.41273733973503113, 0.12430146336555481, -10.105550765991211, -1.2831000089645386, 2.9819586277008057, -11.06282901763916, -6.189515113830566, -0.250732421875, 0.740234375, 0.3359375, 
212, 3679937354, -0.5011571645736694, 0.5972066521644592, -0.47114962339401245, 0.41256123781204224, 0.07907003909349442, -10.292853355407715, -0.9891892075538635, 1.84681236743927, -11.075738906860352, -6.025173664093018, -0.246826171875, 0.739501953125, 0.340576171875, 
213, 3679945687, -0.5013550519943237, 0.5976548790931702, -0.4705241322517395, 0.41238534450531006, 0.09209392219781876, -10.552318572998047, -0.7090892195701599, 1.0597378015518188, -10.612887382507324, -5.842491626739502, -0.24951171875, 0.73876953125, 0.333984375, 
214, 3679954020, -0.5015117526054382, 0.5980689525604248, -0.46999821066856384, 0.41219407320022583, 0.20172077417373657, -10.796518325805664, -0.4651941955089569, 0.06536754220724106, -9.106771469116211, -4.94835090637207, -0.251220703125, 0.73779296875, 0.337890625, 
215, 3679962353, -0.5015892386436462, 0.5984047055244446, -0.4696962237358093, 0.4119569659233093, 0.2717961072921753, -10.98253059387207, -0.19294102489948273, -1.427980899810791, -6.758329391479492, -2.6072092056274414, -0.249755859375, 0.740966796875, 0.3388671875, 
216, 3679970686, -0.5015745759010315, 0.5986092686653137, -0.46970275044441223, 0.41166993975639343, 0.26134854555130005, -11.179702758789062, 0.1141258180141449, -3.534597635269165, -3.9275975227355957, 0.4740426242351532, -0.252197265625, 0.7392578125, 0.337890625, 
217, 3679979019, -0.5014294385910034, 0.5986620783805847, -0.4700607359409332, 0.41136136651039124, 0.24108795821666718, -11.418378829956055, 0.44194620847702026, -5.518343448638916, -0.5956205725669861, 3.752408742904663, -0.250244140625, 0.73828125, 0.33837890625, 
218, 3679987352, -0.501198410987854, 0.5985373854637146, -0.4707348942756653, 0.411053329706192, 0.30902326107025146, -11.527826309204102, 0.7386901378631592, -6.96104097366333, 3.766061782836914, 7.0176100730896, -0.251220703125, 0.739013671875, 0.3427734375, 
219, 3679995685, -0.5008353590965271, 0.5982136130332947, -0.4717639088630676, 0.4107871651649475, 0.39010685682296753, -11.563212394714355, 1.0170403718948364, -8.30358600616455, 8.683022499084473, 10.308629989624023, -0.247802734375, 0.738525390625, 0.341064453125, 
220, 3680004018, -0.5003700852394104, 0.5976592898368835, -0.47310757637023926, 0.41061586141586304, 0.4173224866390228, -11.659716606140137, 1.1988511085510254, -8.823941230773926, 13.449527740478516, 13.047435760498047, -0.24951171875, 0.736328125, 0.340576171875, 
221, 3680012351, -0.499860942363739, 0.5968949198722839, -0.4747217297554016, 0.41048464179039, 0.4489594101905823, -11.643744468688965, 1.3540384769439697, -8.960440635681152, 17.289875030517578, 16.237512588500977, -0.250244140625, 0.738525390625, 0.341796875, 
222, 3680020684, -0.4992827773094177, 0.5959219932556152, -0.47661063075065613, 0.41041290760040283, 0.4738103151321411, -11.629514694213867, 1.4618560075759888, -9.300496101379395, 21.114084243774414, 18.931110382080078, -0.246337890625, 0.739501953125, 0.343505859375, 
223, 3680029017, -0.49854782223701477, 0.594778835773468, -0.4787846505641937, 0.41043412685394287, 0.5498190522193909, -11.505668640136719, 1.4728522300720215, -10.43354606628418, 25.75357437133789, 20.94757080078125, -0.246826171875, 0.740966796875, 0.343505859375, 
224, 3680037350, -0.4976719915866852, 0.5934784412384033, -0.48125314712524414, 0.41049283742904663, 0.5664268136024475, -11.339935302734375, 1.5172498226165771, -11.904988288879395, 29.962575912475586, 23.2509708404541, -0.244873046875, 0.74169921875, 0.344482421875, 
225, 3680045683, -0.4966980814933777, 0.5920679569244385, -0.4839063286781311, 0.4105897843837738, 0.4381346106529236, -11.479141235351562, 1.5871721506118774, -12.826977729797363, 32.8157844543457, 24.779048919677734, -0.240478515625, 0.740234375, 0.34423828125, 
226, 3680054016, -0.49559274315834045, 0.5905271768569946, -0.4867261052131653, 0.4108113944530487, 0.4245409667491913, -11.514524459838867, 1.5735528469085693, -13.03432846069336, 36.573429107666016, 25.30196762084961, -0.243896484375, 0.740478515625, 0.344482421875, 
227, 3680062349, -0.49433597922325134, 0.5887757539749146, -0.48976030945777893, 0.4112330973148346, 0.6580550670623779, -11.307729721069336, 1.5049536228179932, -12.851881980895996, 41.78861618041992, 26.33246612548828, -0.243408203125, 0.740478515625, 0.342529296875, 
228, 3680070682, -0.4928794503211975, 0.5867676138877869, -0.4931409955024719, 0.41181108355522156, 0.7679259181022644, -11.208669662475586, 1.4185658693313599, -13.479697227478027, 48.28059387207031, 28.57640266418457, -0.23876953125, 0.740478515625, 0.34033203125, 
229, 3680079015, -0.49125608801841736, 0.5844674110412598, -0.49689337611198425, 0.4125107228755951, 0.7641714811325073, -11.176958084106445, 1.4169037342071533, -14.341910362243652, 54.320228576660156, 31.86343002319336, -0.2373046875, 0.742431640625, 0.33837890625, 
230, 3680087348, -0.48948541283607483, 0.5818681716918945, -0.5010181665420532, 0.41330021619796753, 0.7394533753395081, -11.152753829956055, 1.3792468309402466, -14.78891658782959, 60.508365631103516, 35.37958908081055, -0.2392578125, 0.740478515625, 0.33544921875, 
231, 3680095681, -0.4874758720397949, 0.5789608955383301, -0.5055614709854126, 0.41422462463378906, 0.955945611000061, -10.951020240783691, 1.2584519386291504, -16.355432510375977, 68.03819274902344, 38.75898361206055, -0.23974609375, 0.743896484375, 0.33544921875, 
232, 3680104014, -0.48521533608436584, 0.575632631778717, -0.5106005668640137, 0.41533467173576355, 1.0678300857543945, -10.604385375976562, 1.0011476278305054, -16.785934448242188, 76.745849609375, 42.785987854003906, -0.2373046875, 0.742919921875, 0.33837890625, 
233, 3680112347, -0.48277851939201355, 0.5718485713005066, -0.516048789024353, 0.4166661202907562, 1.0444209575653076, -10.342439651489258, 0.8035461902618408, -16.261320114135742, 85.00362396240234, 46.87221145629883, -0.240966796875, 0.746337890625, 0.335693359375, 
234, 3680120680, -0.48010820150375366, 0.567746639251709, -0.5218588709831238, 0.41812190413475037, 0.8917391300201416, -10.119697570800781, 0.7494906783103943, -16.838973999023438, 91.9286117553711, 49.677345275878906, -0.234375, 0.746337890625, 0.333984375, 
235, 3680129013, -0.4771483242511749, 0.5634567737579346, -0.5279416441917419, 0.41967418789863586, 0.7369667887687683, -9.868086814880371, 0.6138774156570435, -19.135181427001953, 97.29837799072266, 50.94245529174805, -0.2373046875, 0.749755859375, 0.331298828125, 
236, 3680137346, -0.47392886877059937, 0.559127688407898, -0.5342106819152832, 0.4211762249469757, 0.6151185035705566, -9.832141876220703, 0.5389291048049927, -21.92664337158203, 100.58375549316406, 51.414344787597656, -0.23095703125, 0.75048828125, 0.3291015625, 
237, 3680145679, -0.4704720377922058, 0.5548282265663147, -0.5405455231666565, 0.4226526618003845, 0.5282896161079407, -9.8363037109375, 0.46446382999420166, -24.956565856933594, 102.38764953613281, 50.65279769897461, -0.23046875, 0.75, 0.328125, 
238, 3680154012, -0.46678048372268677, 0.5505873560905457, -0.5469598770141602, 0.42403700947761536, 0.6860074400901794, -9.842913627624512, 0.41418761014938354, -27.831424713134766, 103.6037826538086, 49.89688491821289, -0.23193359375, 0.753173828125, 0.3232421875, 
239, 3680162345, -0.4629242420196533, 0.5461717844009399, -0.5534486174583435, 0.4255527853965759, 0.8727147579193115, -10.005447387695312, 0.2931379973888397, -27.924524307250977, 106.48845672607422, 49.95201110839844, -0.2294921875, 0.750244140625, 0.324951171875, 
240, 3680170678, -0.45888063311576843, 0.5414205193519592, -0.5601013898849487, 0.42729613184928894, 1.1957480907440186, -9.895423889160156, 0.22332273423671722, -25.902135848999023, 113.47972869873047, 51.21216583251953, -0.23291015625, 0.751220703125, 0.32080078125, 
241, 3680179011, -0.4546552300453186, 0.5360749959945679, -0.566983163356781, 0.429470956325531, 1.3582035303115845, -9.818032264709473, 0.1556038111448288, -22.042551040649414, 123.33531951904297, 53.93885040283203, -0.23046875, 0.750732421875, 0.3212890625, 
242, 3680187344, -0.45017701387405396, 0.5301365852355957, -0.5741568803787231, 0.4320216774940491, 1.3278656005859375, -9.80756664276123, 0.09037913382053375, -18.477365493774414, 133.09950256347656, 56.63646697998047, -0.228515625, 0.754638671875, 0.3173828125, 
243, 3680195677, -0.44546249508857727, 0.523675799369812, -0.5814999938011169, 0.43495720624923706, 1.2300950288772583, -9.696294784545898, -0.10122150182723999, -15.520359992980957, 141.75033569335938, 58.348907470703125, -0.22998046875, 0.752685546875, 0.314453125, 
244, 3680204010, -0.44039246439933777, 0.5168873071670532, -0.5890395045280457, 0.4380838871002197, 1.2648539543151855, -9.365866661071777, -0.3280266225337982, -15.13386344909668, 149.30609130859375, 58.94763946533203, -0.22900390625, 0.758056640625, 0.31201171875, 
245, 3680212343, -0.4349459111690521, 0.5098958611488342, -0.5966848134994507, 0.44135966897010803, 1.2097570896148682, -9.094616889953613, -0.6494855284690857, -16.628952026367188, 155.22760009765625, 58.343326568603516, -0.2294921875, 0.7578125, 0.306884765625, 
246, 3680220676, -0.42910072207450867, 0.5028936862945557, -0.6043767333030701, 0.4446370303630829, 1.1250290870666504, -8.876659393310547, -1.0571320056915283, -19.010713577270508, 158.90655517578125, 56.1565055847168, -0.232421875, 0.76123046875, 0.29931640625, 
247, 3680229009, -0.42294004559516907, 0.4960162937641144, -0.6119691133499146, 0.44786861538887024, 1.0969511270523071, -8.833145141601562, -1.3514786958694458, -22.337656021118164, 159.9633026123047, 52.98455047607422, -0.2333984375, 0.76513671875, 0.293212890625, 
248, 3680237342, -0.41644784808158875, 0.4893224835395813, -0.6194871664047241, 0.4509693682193756, 1.085555911064148, -8.837098121643066, -1.6930519342422485, -25.673246383666992, 160.1947021484375, 49.4398307800293, -0.234130859375, 0.759033203125, 0.291015625, 
249, 3680245675, -0.40981805324554443, 0.4827326834201813, -0.6268662810325623, 0.45393821597099304, 1.2114503383636475, -8.581598281860352, -2.0385353565216064, -28.116409301757812, 159.04380798339844, 47.706626892089844, -0.236083984375, 0.763427734375, 0.287353515625, 
250, 3680254008, -0.4033259451389313, 0.4761412441730499, -0.6341371536254883, 0.45660799741744995, 1.1210873126983643, -8.865326881408691, -2.2338993549346924, -28.435420989990234, 155.2672576904297, 49.36371612548828, -0.234619140625, 0.763427734375, 0.284912109375, 
251, 3680262341, -0.39705583453178406, 0.46946412324905396, -0.641210675239563, 0.45913150906562805, 0.9499514102935791, -9.154367446899414, -2.5589942932128906, -27.206727981567383, 151.819580078125, 51.20914077758789, -0.238525390625, 0.76416015625, 0.28125, 
252, 3680270674, -0.39096033573150635, 0.46262508630752563, -0.6481245160102844, 0.4615902900695801, 1.0821319818496704, -9.183341026306152, -2.91483211517334, -24.09377098083496, 150.0088348388672, 52.876155853271484, -0.238037109375, 0.767578125, 0.28076171875, 
253, 3680279007, -0.3850093483924866, 0.45552757382392883, -0.6548280715942383, 0.46418267488479614, 1.2175788879394531, -9.230813980102539, -3.1798815727233887, -19.922014236450195, 150.0901336669922, 54.22874450683594, -0.236083984375, 0.767578125, 0.2734375, 
254, 3680287340, -0.3791993260383606, 0.4481911361217499, -0.6612834930419922, 0.4669473171234131, 1.1176515817642212, -9.386073112487793, -3.486473798751831, -13.977119445800781, 150.1003875732422, 54.626094818115234, -0.239013671875, 0.771728515625, 0.266357421875, 
255, 3680295673, -0.3735484480857849, 0.4406588077545166, -0.6673816442489624, 0.46998509764671326, 0.9528244137763977, -9.274909019470215, -3.7591679096221924, -7.8457255363464355, 149.7403106689453, 53.99435043334961, -0.238037109375, 0.773681640625, 0.261962890625, 
256, 3680304006, -0.36801284551620483, 0.4330379068851471, -0.6732158064842224, 0.4731047749519348, 0.8030347228050232, -9.013790130615234, -4.016268253326416, -3.5855207443237305, 148.38681030273438, 53.34006881713867, -0.235595703125, 0.773193359375, 0.259033203125, 
257, 3680312339, -0.3625830411911011, 0.425472617149353, -0.6787315607070923, 0.47626978158950806, 0.6942975521087646, -8.894498825073242, -4.187681674957275, -1.3773192167282104, 145.70843505859375, 51.582035064697266, -0.237060546875, 0.77490234375, 0.25146484375, 
258, 3680320672, -0.3573143482208252, 0.41804763674736023, -0.6840075254440308, 0.4792696237564087, 0.43975183367729187, -8.814573287963867, -4.389904975891113, -0.47365495562553406, 141.12078857421875, 50.55424880981445, -0.236328125, 0.775390625, 0.24658203125, 
259, 3680329005, -0.35226970911026, 0.4109107553958893, -0.6890093088150024, 0.48200350999832153, 0.2175113558769226, -8.677642822265625, -4.499505519866943, -1.8982666730880737, 134.23651123046875, 49.24256134033203, -0.23779296875, 0.779052734375, 0.237548828125, 
260, 3680337338, -0.3474394977092743, 0.40412437915802, -0.693795919418335, 0.48437538743019104, 0.1619831770658493, -8.616096496582031, -4.652287483215332, -3.7844998836517334, 126.79450225830078, 47.68788528442383, -0.23486328125, 0.78076171875, 0.23681640625, 
261, 3680345671, -0.34285569190979004, 0.3976335823535919, -0.6983659267425537, 0.4864419400691986, 0.18522143363952637, -8.5892915725708, -4.721803188323975, -5.869241237640381, 119.74491119384766, 46.952598571777344, -0.2314453125, 0.781494140625, 0.22802734375, 
262, 3680354004, -0.33844152092933655, 0.391372412443161, -0.7028241157531738, 0.4881867468357086, 0.12877428531646729, -8.63825798034668, -4.784538745880127, -7.795579433441162, 114.28917694091797, 46.599937438964844, -0.232421875, 0.786865234375, 0.223876953125, 
263, 3680362337, -0.3341945707798004, 0.3852657377719879, -0.7071107029914856, 0.4897773265838623, 0.12407749891281128, -8.708291053771973, -4.787759304046631, -8.486602783203125, 110.00572967529297, 46.2078971862793, -0.2314453125, 0.785888671875, 0.222900390625, 
264, 3680370670, -0.33001992106437683, 0.3792003393173218, -0.7112221121788025, 0.49138587713241577, 0.1403845101594925, -8.88379192352295, -4.885914325714111, -6.4057745933532715, 108.31671905517578, 45.0989875793457, -0.22802734375, 0.789794921875, 0.217041015625, 
265, 3680379003, -0.3259401321411133, 0.3731032907962799, -0.7151210904121399, 0.4931141138076782, 0.1872500479221344, -8.91812515258789, -4.878389835357666, -3.659254312515259, 107.25810241699219, 44.58241271972656, -0.22705078125, 0.789794921875, 0.21533203125, 
266, 3680387336, -0.32193511724472046, 0.3669191002845764, -0.7188650965690613, 0.4949382245540619, 0.07182838022708893, -8.937658309936523, -4.912474632263184, -0.39252999424934387, 106.91537475585938, 44.53663635253906, -0.226318359375, 0.791748046875, 0.210693359375, 
267, 3680395669, -0.3179625868797302, 0.36066538095474243, -0.7224264740943909, 0.49691352248191833, 0.07164882123470306, -8.90782356262207, -4.79756498336792, 2.353694438934326, 107.0146713256836, 44.041561126708984, -0.221923828125, 0.793212890625, 0.2060546875, 
268, 3680404002, -0.3140411376953125, 0.3543872833251953, -0.7259121537208557, 0.49884092807769775, -0.19015245139598846, -8.985701560974121, -4.66650915145874, 3.217287540435791, 106.11335754394531, 44.28019714355469, -0.222900390625, 0.7958984375, 0.199462890625, 
269, 3680412335, -0.310117244720459, 0.34823453426361084, -0.7292677164077759, 0.5007308721542358, -0.2943764626979828, -9.124135971069336, -4.43186092376709, 2.7524595260620117, 104.51947784423828, 42.72576141357422, -0.221923828125, 0.79638671875, 0.196533203125, 
270, 3680420668, -0.3060731291770935, 0.3421928584575653, -0.732559084892273, 0.5025767087936401, -0.10364365577697754, -9.241169929504395, -4.270572185516357, 2.132664680480957, 104.48934173583984, 40.479366302490234, -0.216552734375, 0.80078125, 0.19140625, 
271, 3680429001, -0.3019675612449646, 0.33615636825561523, -0.7358716130256653, 0.5042920112609863, -0.14965017139911652, -9.238911628723145, -4.149539470672607, -0.048270560801029205, 104.53279113769531, 40.83707809448242, -0.21533203125, 0.7998046875, 0.1875, 
272, 3680437334, -0.29772889614105225, 0.32991811633110046, -0.7394108176231384, 0.5057532787322998, 0.10582537204027176, -9.198685646057129, -4.044346809387207, -3.5587174892425537, 107.06028747558594, 43.870506286621094, -0.215576171875, 0.80322265625, 0.184326171875, 
273, 3680445667, -0.29321378469467163, 0.32325220108032227, -0.7430989146232605, 0.5072876214981079, 0.37278667092323303, -9.301047325134277, -3.805219888687134, -3.7476561069488525, 113.76966857910156, 46.86485290527344, -0.2099609375, 0.806640625, 0.1787109375, 
274, 3680454000, -0.28842851519584656, 0.31601428985595703, -0.7470975518226624, 0.5087161064147949, 0.3591877520084381, -9.479909896850586, -3.6061573028564453, -5.4966301918029785, 121.3193130493164, 52.44153594970703, -0.20458984375, 0.806640625, 0.173583984375, 
275, 3680462333, -0.2833212614059448, 0.3082427978515625, -0.7513707876205444, 0.5100591778755188, 0.24058501422405243, -9.344483375549316, -3.4200961589813232, -7.96564245223999, 129.0582275390625, 57.40487289428711, -0.20361328125, 0.810546875, 0.172119140625, 
276, 3680470666, -0.2777754068374634, 0.30009227991104126, -0.7559254169464111, 0.5112389922142029, 0.10007012635469437, -9.131219863891602, -3.383596897125244, -11.622161865234375, 136.67233276367188, 59.87192153930664, -0.201171875, 0.81103515625, 0.165283203125, 
277, 3680478999, -0.2717277407646179, 0.29173365235328674, -0.7607060074806213, 0.5122354626655579, 0.13818278908729553, -9.014222145080566, -3.453056812286377, -16.777029037475586, 143.43780517578125, 60.34357452392578, -0.2001953125, 0.8134765625, 0.162353515625, 
278, 3680487332, -0.2652086019515991, 0.2832614481449127, -0.7657045722007751, 0.5129591226577759, 0.1527290642261505, -8.906079292297363, -3.531160593032837, -22.248743057250977, 148.9118194580078, 59.9018669128418, -0.193603515625, 0.81201171875, 0.16015625, 
279, 3680495665, -0.25817281007766724, 0.27494892477989197, -0.770733654499054, 0.5135390758514404, -0.1669735610485077, -8.916849136352539, -3.6013901233673096, -26.95777130126953, 152.75148010253906, 55.425506591796875, -0.191650390625, 0.81640625, 0.16064453125, 
280, 3680503998, -0.25066035985946655, 0.26679253578186035, -0.775920033454895, 0.5137532353401184, -0.0712226927280426, -8.496447563171387, -3.680020570755005, -33.91725158691406, 155.9037322998047, 52.09208679199219, -0.186767578125, 0.81787109375, 0.15478515625, 
281, 3680512331, -0.2426566481590271, 0.25871387124061584, -0.781242847442627, 0.5136609077453613, 0.19378973543643951, -8.316309928894043, -3.837110996246338, -40.605655670166016, 159.91151428222656, 49.55136489868164, -0.185302734375, 0.81982421875, 0.155517578125, 
282, 3680520664, -0.23427042365074158, 0.25082698464393616, -0.7866718173027039, 0.5131798982620239, 0.07652487605810165, -8.29327392578125, -4.006591796875, -47.14704513549805, 161.66896057128906, 46.26106262207031, -0.184326171875, 0.818359375, 0.154052734375, 
283, 3680528997, -0.22559839487075806, 0.24303774535655975, -0.7921033501625061, 0.5124577879905701, 0.14864686131477356, -8.351458549499512, -4.173948287963867, -51.453739166259766, 163.21017456054688, 44.17572784423828, -0.181396484375, 0.8203125, 0.153076171875, 
284, 3680537330, -0.21689510345458984, 0.23531530797481537, -0.7974420189857483, 0.511539101600647, 0.21169310808181763, -8.28458309173584, -4.546124458312988, -52.872074127197266, 162.17262268066406, 43.32412338256836, -0.180908203125, 0.819580078125, 0.157470703125, 
285, 3680545663, -0.20860585570335388, 0.22785422205924988, -0.8024682998657227, 0.510503351688385, 0.005970485508441925, -8.297087669372559, -4.975317478179932, -51.76787567138672, 154.43817138671875, 42.91123962402344, -0.174560546875, 0.819091796875, 0.156982421875, 
286, 3680553996, -0.20107203722000122, 0.22095155715942383, -0.8071081042289734, 0.5092445015907288, -0.5820164084434509, -8.82957649230957, -5.293422698974609, -50.382198333740234, 140.41798400878906, 41.27956771850586, -0.176025390625, 0.821044921875, 0.16162109375, 
287, 3680562329, -0.1944766342639923, 0.21493597328662872, -0.8111246228218079, 0.5079972147941589, -0.9199897050857544, -9.371042251586914, -5.403904914855957, -45.8398551940918, 122.04972076416016, 36.27482604980469, -0.176513671875, 0.82080078125, 0.16259765625, 
288, 3680570662, -0.1890258491039276, 0.20981289446353912, -0.8143783211708069, 0.5069897174835205, -1.1221941709518433, -9.7678804397583, -5.38153600692749, -36.49004364013672, 101.76710510253906, 31.22330093383789, -0.176513671875, 0.8203125, 0.1630859375, 
289, 3680578995, -0.1848282665014267, 0.20545917749404907, -0.8167724609375, 0.5064687728881836, -1.141119122505188, -10.024418830871582, -5.279653549194336, -23.766836166381836, 81.48640441894531, 27.784133911132812, -0.171142578125, 0.81884765625, 0.16455078125, 
290, 3680587328, -0.18176010251045227, 0.20162273943424225, -0.8183181285858154, 0.5066258311271667, -0.811099648475647, -10.058258056640625, -5.15483283996582, -8.031570434570312, 65.0069808959961, 25.535253524780273, -0.168701171875, 0.82080078125, 0.16357421875, 
291, 3680595661, -0.17957881093025208, 0.19806918501853943, -0.8190597891807556, 0.5076062083244324, -0.39269986748695374, -9.956865310668945, -5.052015781402588, 8.261998176574707, 53.27971649169922, 24.41958236694336, -0.168212890625, 0.81982421875, 0.16064453125, 
292, 3680603994, -0.1780230700969696, 0.1945643424987793, -0.8191651105880737, 0.5093365907669067, -0.07584769278764725, -9.713424682617188, -4.986321449279785, 23.06009864807129, 46.41437530517578, 24.47679901123047, -0.16845703125, 0.818603515625, 0.15576171875, 
293, 3680612327, -0.176810622215271, 0.19112268090248108, -0.8187856674194336, 0.5116670727729797, 0.05860666185617447, -9.483259201049805, -4.835178375244141, 33.66072463989258, 42.47312545776367, 23.58640480041504, -0.1630859375, 0.82568359375, 0.150390625, 
294, 3680620660, -0.17573145031929016, 0.18786367774009705, -0.8181890249252319, 0.514194130897522, -0.01623142883181572, -9.239164352416992, -4.688823223114014, 37.628475189208984, 39.726158142089844, 21.2346248626709, -0.16162109375, 0.824951171875, 0.14208984375, 
295, 3680628993, -0.1746976375579834, 0.18483762443065643, -0.8175314664840698, 0.5166827440261841, -0.03966543823480606, -9.13124942779541, -4.560489177703857, 36.867862701416016, 37.2674446105957, 19.066329956054688, -0.16357421875, 0.825927734375, 0.140380859375, 
296, 3680637326, -0.17366446554660797, 0.18200814723968506, -0.8169945478439331, 0.5188803672790527, -0.017750032246112823, -8.963482856750488, -4.396355628967285, 32.5805778503418, 35.46917724609375, 17.669960021972656, -0.16162109375, 0.83154296875, 0.129638671875, 
297, 3680645659, -0.17259211838245392, 0.17935845255851746, -0.8166348934173584, 0.5207235813140869, 0.010311119258403778, -8.962955474853516, -4.212235450744629, 26.506261825561523, 34.1018180847168, 16.866121292114258, -0.158203125, 0.832763671875, 0.130859375, 
298, 3680653992, -0.17150238156318665, 0.17680728435516357, -0.8165353536605835, 0.5221104621887207, -0.031529780477285385, -9.01811408996582, -3.9957997798919678, 19.540630340576172, 33.14445114135742, 17.15599250793457, -0.156982421875, 0.8310546875, 0.12353515625, 
299, 3680662325, -0.17041340470314026, 0.17421720921993256, -0.8166770339012146, 0.5231149196624756, -0.08174309879541397, -8.962566375732422, -3.8782403469085693, 13.312159538269043, 32.989837646484375, 19.300518035888672, -0.156494140625, 0.8330078125, 0.120361328125, 
300, 3680670658, -0.16948243975639343, 0.17146292328834534, -0.8170322775840759, 0.5237724781036377, -0.0888114869594574, -9.045538902282715, -3.7557990550994873, 8.940853118896484, 32.13014221191406, 23.391298294067383, -0.153564453125, 0.83544921875, 0.11962890625, 
301, 3680678991, -0.1687486618757248, 0.1685282289981842, -0.8174738883972168, 0.5242722034454346, -0.46125489473342896, -9.371134757995605, -3.6363229751586914, 7.130669116973877, 30.97822380065918, 27.635053634643555, -0.154052734375, 0.8349609375, 0.1181640625, 
302, 3680687324, -0.16800138354301453, 0.16546551883220673, -0.817992627620697, 0.5246785879135132, -0.5865145325660706, -9.359749794006348, -3.552868127822876, 6.090883255004883, 32.080589294433594, 29.14750099182129, -0.148193359375, 0.83642578125, 0.1142578125, 
303, 3680695657, -0.16705438494682312, 0.16221866011619568, -0.8185636401176453, 0.5251045227050781, -0.377459317445755, -9.10617733001709, -3.586409330368042, 5.598168849945068, 35.75379180908203, 30.079252243041992, -0.145263671875, 0.83740234375, 0.114990234375, 
304, 3680703990, -0.16581052541732788, 0.15872669219970703, -0.8192468881607056, 0.5255004167556763, -0.3248210549354553, -8.855097770690918, -3.6642093658447266, 4.658459186553955, 41.125328063964844, 30.7850399017334, -0.141845703125, 0.837890625, 0.113525390625, 
305, 3680712323, -0.16419854760169983, 0.15501514077186584, -0.8200302124023438, 0.5258921980857849, -0.5401552319526672, -8.592247009277344, -3.889223337173462, 3.274596929550171, 47.009666442871094, 31.060405731201172, -0.141845703125, 0.8408203125, 0.107666015625, 
306, 3680720656, -0.1622702181339264, 0.1511477828025818, -0.8209658265113831, 0.5261567234992981, -0.6172007918357849, -8.228372573852539, -4.1177754402160645, 0.7262811660766602, 51.843780517578125, 30.908477783203125, -0.134765625, 0.8408203125, 0.10791015625, 
307, 3680728989, -0.16010123491287231, 0.14721232652664185, -0.8220270276069641, 0.5262802839279175, -0.8891597986221313, -8.092448234558105, -4.3035383224487305, -2.4268033504486084, 54.97349166870117, 30.743860244750977, -0.13330078125, 0.83935546875, 0.107177734375, 
308, 3680737322, -0.15763252973556519, 0.1433137208223343, -0.8232923746109009, 0.5261237025260925, -1.0401768684387207, -7.799304962158203, -4.550055027008057, -7.453539848327637, 58.044315338134766, 28.955808639526367, -0.12890625, 0.843505859375, 0.105712890625, 
309, 3680745655, -0.1548083871603012, 0.1395166665315628, -0.8247819542884827, 0.5256497263908386, -0.8902966380119324, -7.4267706871032715, -4.9202470779418945, -13.882843017578125, 61.127838134765625, 26.590055465698242, -0.12744140625, 0.843017578125, 0.107666015625, 
310, 3680753988, -0.15160541236400604, 0.13589131832122803, -0.8265880942344666, 0.5246949195861816, -0.733160674571991, -7.036901950836182, -5.322748184204102, -22.42523193359375, 64.00069427490234, 23.30986213684082, -0.125, 0.843994140625, 0.10498046875, 
311, 3680762321, -0.14800837635993958, 0.13252052664756775, -0.8287177681922913, 0.5232225060462952, -0.6500534415245056, -6.673374176025391, -5.854888439178467, -32.171409606933594, 66.28191375732422, 19.474023818969727, -0.12646484375, 0.844970703125, 0.1083984375, 
312, 3680770654, -0.14408184587955475, 0.12947385013103485, -0.8311375975608826, 0.5212390422821045, -0.36737602949142456, -6.228151321411133, -6.648736476898193, -41.08139419555664, 67.4325942993164, 14.761452674865723, -0.12255859375, 0.841796875, 0.112548828125, 
313, 3680778987, -0.1400170773267746, 0.12685391306877136, -0.8336732983589172, 0.518936812877655, -0.05420761927962303, -6.044741153717041, -7.650698184967041, -46.8555793762207, 65.53887939453125, 9.944847106933594, -0.123046875, 0.84375, 0.11328125, 
314, 3680787320, -0.1361059844493866, 0.1248498409986496, -0.8361555337905884, 0.5164638757705688, 0.1089569628238678, -6.057687282562256, -8.613344192504883, -49.14148712158203, 59.05835723876953, 4.003359317779541, -0.122802734375, 0.843017578125, 0.121337890625, 
315, 3680795653, -0.13273030519485474, 0.12353827059268951, -0.8383466005325317, 0.5141003727912903, 0.14081886410713196, -6.353848457336426, -9.437076568603516, -46.3199348449707, 47.532447814941406, -0.6414085030555725, -0.123291015625, 0.8408203125, 0.122802734375, 
316, 3680803986, -0.13030266761779785, 0.12289125472307205, -0.839985728263855, 0.5121972560882568, 0.019608568400144577, -6.9577555656433105, -9.888574600219727, -36.58301544189453, 31.77476692199707, -3.599498748779297, -0.124755859375, 0.841064453125, 0.128662109375, 
317, 3680812319, -0.12901605665683746, 0.1228993833065033, -0.8407706618309021, 0.5112323760986328, -0.09306208789348602, -7.464296340942383, -10.28125286102295, -19.004287719726562, 13.920690536499023, -6.025290489196777, -0.125732421875, 0.838134765625, 0.131103515625, 
318, 3680820652, -0.1290508657693863, 0.12345406413078308, -0.8405596017837524, 0.5114368796348572, 0.025319337844848633, -7.641213893890381, -10.494245529174805, 2.8103809356689453, -4.877232551574707, -7.04168701171875, -0.131103515625, 0.8369140625, 0.1298828125, 
319, 3680828985, -0.1302761286497116, 0.12451600283384323, -0.8394006490707397, 0.5127706527709961, 0.25653329491615295, -7.45716667175293, -10.598464012145996, 23.72908592224121, -22.09852409362793, -7.9076080322265625, -0.128173828125, 0.838134765625, 0.131591796875, 
320, 3680837318, -0.1326034814119339, 0.1260620355606079, -0.8374415636062622, 0.514994740486145, 0.3779531419277191, -6.989402770996094, -10.529516220092773, 40.59126663208008, -38.01591110229492, -8.928353309631348, -0.128662109375, 0.83837890625, 0.1279296875, 
321, 3680845651, -0.13586769998073578, 0.12821033596992493, -0.8349193930625916, 0.5177017450332642, 0.3284459412097931, -6.500727653503418, -10.261982917785645, 50.855220794677734, -53.400760650634766, -10.831748962402344, -0.129150390625, 0.83935546875, 0.12255859375, 
322, 3680853984, -0.13991907238960266, 0.1309448778629303, -0.8320801854133606, 0.5205017328262329, 0.286895751953125, -6.170875549316406, -9.883270263671875, 54.28392791748047, -66.89769744873047, -12.946544647216797, -0.12548828125, 0.8388671875, 0.117919921875, 
323, 3680862317, -0.14437003433704376, 0.13431844115257263, -0.8291141986846924, 0.5231526494026184, 0.43556487560272217, -5.835573673248291, -9.609870910644531, 53.277915954589844, -76.71459197998047, -17.074995040893555, -0.12890625, 0.841552734375, 0.112060546875, 
324, 3680870650, -0.14913156628608704, 0.13830292224884033, -0.8261496424674988, 0.5254639387130737, 0.6443390846252441, -5.495340824127197, -9.445024490356445, 48.451717376708984, -85.11612701416016, -21.392534255981445, -0.13037109375, 0.841552734375, 0.108154296875, 
325, 3680878983, -0.1541309505701065, 0.1429537832736969, -0.8232730627059937, 0.5272881388664246, 0.7031446695327759, -5.156095027923584, -9.446929931640625, 41.78743362426758, -93.5515365600586, -25.805543899536133, -0.1328125, 0.843017578125, 0.107421875, 
326, 3680887316, -0.15934967994689941, 0.1483217030763626, -0.8204561471939087, 0.5286429524421692, 0.8949989676475525, -5.022500038146973, -9.67489242553711, 34.533714294433594, -101.85975646972656, -31.49440574645996, -0.1328125, 0.841796875, 0.1025390625, 
327, 3680895649, -0.16470348834991455, 0.15445750951766968, -0.817726194858551, 0.5294737815856934, 1.2412880659103394, -4.971405506134033, -9.951498031616211, 27.124269485473633, -110.02973175048828, -37.572052001953125, -0.1337890625, 0.8447265625, 0.1025390625, 
328, 3680903982, -0.17020556330680847, 0.16139818727970123, -0.8149541616439819, 0.5299373865127563, 1.5934475660324097, -5.0598978996276855, -10.092185020446777, 21.250219345092773, -118.24810028076172, -45.07963180541992, -0.13916015625, 0.83935546875, 0.101806640625, 
329, 3680912315, -0.17597752809524536, 0.16908319294452667, -0.8120776414871216, 0.530071496963501, 1.5346883535385132, -5.140777111053467, -10.163663864135742, 17.85389518737793, -127.87398529052734, -50.6287727355957, -0.14501953125, 0.838623046875, 0.1005859375, 
330, 3680920648, -0.18228204548358917, 0.17723093926906586, -0.8087329864501953, 0.5303927063941956, 1.673218846321106, -6.074135780334473, -10.071109771728516, 22.79661750793457, -137.6905975341797, -53.74222946166992, -0.148193359375, 0.837646484375, 0.103515625, 
331, 3680928981, -0.18945054709911346, 0.18543341755867004, -0.8046155571937561, 0.5313380360603333, 1.6194521188735962, -7.507977485656738, -9.45544147491455, 38.153648376464844, -148.3329620361328, -51.207332611083984, -0.152587890625, 0.838623046875, 0.103271484375, 
332, 3680937314, -0.19754251837730408, 0.19361694157123566, -0.7994257807731628, 0.5333024263381958, 0.9593039751052856, -8.226053237915039, -8.468420028686523, 58.85853576660156, -158.39125061035156, -49.929447174072266, -0.160400390625, 0.83544921875, 0.0986328125, 
333, 3680945647, -0.2064918875694275, 0.2018786519765854, -0.7932043671607971, 0.5361307263374329, 0.40950044989585876, -8.316529273986816, -7.609037399291992, 78.90767669677734, -169.1145782470703, -49.30893325805664, -0.158203125, 0.833984375, 0.09814453125, 
334, 3680953980, -0.2162351906299591, 0.21013395488262177, -0.7860801815986633, 0.5395993590354919, 0.5034445524215698, -8.178659439086914, -6.886779308319092, 93.8574447631836, -178.29437255859375, -47.99642562866211, -0.165283203125, 0.836181640625, 0.0908203125, 
335, 3680962313, -0.2263062447309494, 0.21839649975299835, -0.7784674763679504, 0.5432130694389343, 0.8301727771759033, -7.705819129943848, -6.316746234893799, 100.96739959716797, -183.1396484375, -47.223167419433594, -0.1669921875, 0.83642578125, 0.08447265625, 
336, 3680970646, -0.23631040751934052, 0.22664706408977509, -0.7706893086433411, 0.5466535687446594, 1.2366552352905273, -6.91664981842041, -5.974612712860107, 99.19361114501953, -183.1534423828125, -47.81488800048828, -0.16845703125, 0.83642578125, 0.078369140625, 
337, 3680978979, -0.24587877094745636, 0.23506245017051697, -0.7631754875183105, 0.5494141578674316, 1.6183600425720215, -5.9948201179504395, -5.866344928741455, 89.16551971435547, -181.24349975585938, -49.5610237121582, -0.1728515625, 0.836669921875, 0.0732421875, 
338, 3680987312, -0.2549942433834076, 0.24384121596813202, -0.7560137510299683, 0.5513310432434082, 1.8479503393173218, -5.569033622741699, -5.955928325653076, 73.90098571777344, -180.5621795654297, -53.04985809326172, -0.17919921875, 0.83544921875, 0.066650390625, 
339, 3680995645, -0.26352784037590027, 0.25341513752937317, -0.7493652105331421, 0.5520768761634827, 1.9477343559265137, -5.60939359664917, -5.916679382324219, 54.22736358642578, -182.87478637695312, -59.671539306640625, -0.1826171875, 0.83544921875, 0.06640625, 
340, 3681003978, -0.27168184518814087, 0.2638838589191437, -0.7430253624916077, 0.551788866519928, 1.8483644723892212, -5.98124361038208, -5.647372722625732, 35.5283088684082, -188.0347442626953, -67.18018341064453, -0.185546875, 0.830810546875, 0.0673828125, 
341, 3681012311, -0.279677152633667, 0.27529075741767883, -0.7367292046546936, 0.5506622195243835, 1.5306565761566162, -6.859959602355957, -5.1853437423706055, 23.762109756469727, -196.612548828125, -74.47666931152344, -0.194091796875, 0.833740234375, 0.0673828125, 
342, 3681020644, -0.2881201207637787, 0.2874000072479248, -0.7298113107681274, 0.5493329763412476, 1.1493078470230103, -8.18812370300293, -4.547983169555664, 24.196720123291016, -209.42718505859375, -79.98062896728516, -0.204345703125, 0.82763671875, 0.074462890625, 
343, 3681028977, -0.2973766326904297, 0.29986387491226196, -0.7219136357307434, 0.5481723546981812, 1.0350263118743896, -9.70394229888916, -3.5803370475769043, 36.369075775146484, -223.67172241210938, -81.77083587646484, -0.209228515625, 0.826904296875, 0.081787109375, 
344, 3681037310, -0.3074313700199127, 0.31206458806991577, -0.7126020193099976, 0.5479996204376221, 1.3559490442276, -10.810876846313477, -2.8436646461486816, 59.93784713745117, -231.1381072998047, -83.17724609375, -0.2177734375, 0.82177734375, 0.083984375, 
345, 3681045643, -0.31810617446899414, 0.3234441578388214, -0.7022119760513306, 0.5487202405929565, 1.9016445875167847, -10.672409057617188, -2.292815923690796, 84.23454284667969, -231.91061401367188, -78.74317932128906, -0.219970703125, 0.8203125, 0.082763671875, 
346, 3681053976, -0.32907745242118835, 0.33364051580429077, -0.6910830736160278, 0.5502722263336182, 2.419374465942383, -10.224377632141113, -2.005941152572632, 103.0504150390625, -225.22216796875, -72.12045288085938, -0.22900390625, 0.819091796875, 0.07861328125, 
347, 3681062309, -0.33972132205963135, 0.342772901058197, -0.6799450516700745, 0.5520635843276978, 3.022509813308716, -9.423274040222168, -2.010850191116333, 109.98992156982422, -213.13900756835938, -65.52102661132812, -0.234130859375, 0.81591796875, 0.075927734375, 
348, 3681070642, -0.3497569262981415, 0.3511779308319092, -0.6692000031471252, 0.5536416172981262, 3.1873443126678467, -8.483996391296387, -2.1931116580963135, 104.25985717773438, -200.95912170410156, -60.58058166503906, -0.240234375, 0.816650390625, 0.070068359375, 
349, 3681078975, -0.35888445377349854, 0.3595382273197174, -0.6593424677848816, 0.5542607307434082, 3.18202805519104, -8.017740249633789, -2.160503625869751, 85.7964096069336, -192.7447509765625, -58.098182678222656, -0.2451171875, 0.816650390625, 0.070556640625, 
350, 3681087308, -0.3672431707382202, 0.36845749616622925, -0.6504045724868774, 0.5534877777099609, 2.8007493019104004, -7.926207065582275, -1.9166134595870972, 58.313812255859375, -192.25477600097656, -57.69342803955078, -0.249755859375, 0.8134765625, 0.064453125, 
351, 3681095641, -0.37493816018104553, 0.3784531056880951, -0.6422754526138306, 0.55107182264328, 2.4435102939605713, -8.659513473510742, -1.414103388786316, 29.963359832763672, -198.85960388183594, -59.90399169921875, -0.2548828125, 0.81005859375, 0.070068359375, 
352, 3681103974, -0.38231217861175537, 0.38949063420295715, -0.6344150900840759, 0.5474078059196472, 2.2568554878234863, -9.879743576049805, -0.6483604907989502, 8.561382293701172, -208.9248809814453, -63.77936553955078, -0.25830078125, 0.80615234375, 0.077392578125, 
353, 3681112307, -0.3896578550338745, 0.40128642320632935, -0.6265056729316711, 0.5427983403205872, 2.0933051109313965, -11.033140182495117, 0.2184317409992218, -2.163465738296509, -219.79544067382812, -65.85570526123047, -0.264892578125, 0.80517578125, 0.088134765625, 
354, 3681120640, -0.39731723070144653, 0.41314923763275146, -0.6181617975234985, 0.5378904342651367, 2.0904829502105713, -11.892244338989258, 0.7706496715545654, -1.412732720375061, -226.8858642578125, -64.93455505371094, -0.269287109375, 0.802001953125, 0.09912109375, 
355, 3681128973, -0.40519964694976807, 0.42447078227996826, -0.6094239950180054, 0.5331448316574097, 2.493138551712036, -12.286578178405762, 1.0308537483215332, 8.361865997314453, -226.0771484375, -61.8008918762207, -0.273681640625, 0.798095703125, 0.10888671875, 
356, 3681137306, -0.4131484925746918, 0.4346804618835449, -0.6002183556556702, 0.5292469263076782, 3.121925115585327, -12.254036903381348, 1.0202726125717163, 24.221445083618164, -216.06959533691406, -59.456871032714844, -0.2763671875, 0.7958984375, 0.119140625, 
357, 3681145639, -0.420855313539505, 0.4436294138431549, -0.5909560322761536, 0.5261635184288025, 3.364193916320801, -11.644983291625977, 0.6795337200164795, 38.282752990722656, -200.4006805419922, -55.791786193847656, -0.27734375, 0.794921875, 0.12109375, 
358, 3681153972, -0.4281795620918274, 0.45136359333992004, -0.5819701552391052, 0.5236861109733582, 3.3595917224884033, -10.689533233642578, 0.06981486082077026, 44.69615936279297, -183.1525421142578, -50.494354248046875, -0.2802734375, 0.791015625, 0.1279296875, 
359, 3681162305, -0.434842050075531, 0.4582974314689636, -0.5736666321754456, 0.5213307738304138, 3.4446232318878174, -9.863388061523438, -0.5849068760871887, 42.53580093383789, -167.35304260253906, -45.35054397583008, -0.28173828125, 0.79150390625, 0.1298828125, 
360, 3681170638, -0.44098272919654846, 0.46486005187034607, -0.5660337209701538, 0.5186988711357117, 3.2902326583862305, -9.385600090026855, -0.9106730222702026, 33.3047981262207, -158.27102661132812, -40.27198028564453, -0.28564453125, 0.7861328125, 0.1318359375, 
361, 3681178971, -0.44679197669029236, 0.4717847406864166, -0.5588706135749817, 0.515231192111969, 2.5047945976257324, -9.565376281738281, -0.6228249669075012, 20.296239852905273, -160.79635620117188, -37.386844635009766, -0.285400390625, 0.788818359375, 0.140625, 
362, 3681187304, -0.45254552364349365, 0.4793688654899597, -0.5516549348831177, 0.510968029499054, 1.9419949054718018, -10.226836204528809, -0.2251245081424713, 8.978262901306152, -170.4954376220703, -38.29673767089844, -0.283935546875, 0.788818359375, 0.145263671875, 
363, 3681195637, -0.45832014083862305, 0.4876219630241394, -0.5441218614578247, 0.5060654282569885, 2.0065600872039795, -10.921550750732422, 0.26537463068962097, 3.4805426597595215, -181.56687927246094, -41.36311340332031, -0.287353515625, 0.78662109375, 0.156005859375, 
364, 3681203970, -0.4643867611885071, 0.49615365266799927, -0.5361378788948059, 0.5007354021072388, 2.0210041999816895, -11.050415992736816, 0.6491190791130066, 2.4765706062316895, -191.37979125976562, -41.71712875366211, -0.286865234375, 0.78369140625, 0.163330078125, 
365, 3681212303, -0.47068387269973755, 0.5046212673187256, -0.5277317762374878, 0.49529439210891724, 2.3744657039642334, -11.373028755187988, 0.911688506603241, 7.660566806793213, -196.09756469726562, -41.882869720458984, -0.286865234375, 0.778076171875, 0.1748046875, 
366, 3681220636, -0.477223664522171, 0.5125081539154053, -0.5189584493637085, 0.4901818335056305, 2.7878613471984863, -11.314142227172852, 1.0092780590057373, 16.874940872192383, -193.9956512451172, -40.63746643066406, -0.28564453125, 0.7802734375, 0.18212890625, 
367, 3681228969, -0.4837856888771057, 0.519514799118042, -0.5101690292358398, 0.48557883501052856, 3.097808599472046, -10.874152183532715, 0.8034600615501404, 27.62447738647461, -184.72610473632812, -37.73116683959961, -0.28662109375, 0.77734375, 0.188720703125, 
368, 3681237302, -0.49011796712875366, 0.5256259441375732, -0.5015997290611267, 0.48156288266181946, 3.2150919437408447, -10.132852554321289, 0.4002237915992737, 33.51816177368164, -171.48236083984375, -35.24785232543945, -0.2841796875, 0.778076171875, 0.192626953125, 
369, 3681245635, -0.49583691358566284, 0.5312028527259827, -0.4936414957046509, 0.47779780626296997, 3.230611562728882, -9.185039520263672, -0.1478344202041626, 31.4075870513916, -157.7798614501953, -32.96839141845703, -0.283447265625, 0.779052734375, 0.2001953125, 
370, 3681253968, -0.5008594393730164, 0.5366709232330322, -0.48631131649017334, 0.47394999861717224, 3.0286123752593994, -8.710591316223145, -0.6349273324012756, 21.335357666015625, -148.66079711914062, -31.58171272277832, -0.28369140625, 0.775634765625, 0.20166015625, 
371, 3681262301, -0.5050009489059448, 0.5426066517829895, -0.4796355366706848, 0.4695795774459839, 2.721503496170044, -8.434637069702148, -0.8473052978515625, 4.877071857452393, -145.13711547851562, -32.0869026184082, -0.283935546875, 0.7763671875, 0.2060546875, 
372, 3681270634, -0.5083896517753601, 0.5491382479667664, -0.47343331575393677, 0.4645979404449463, 2.5498368740081787, -8.484339714050293, -1.1209752559661865, -12.994319915771484, -145.31948852539062, -33.039005279541016, -0.278564453125, 0.773681640625, 0.215087890625, 
373, 3681278967, -0.5111657381057739, 0.5564194321632385, -0.4674491286277771, 0.4589137136936188, 2.4478557109832764, -8.976907730102539, -1.4345424175262451, -27.803020477294922, -149.91412353515625, -35.33858108520508, -0.277587890625, 0.772216796875, 0.224609375, 
374, 3681287300, -0.5137231945991516, 0.5643088221549988, -0.4612289071083069, 0.45267584919929504, 2.3117711544036865, -9.727949142456055, -1.6531329154968262, -36.844844818115234, -158.2311553955078, -38.47566604614258, -0.278564453125, 0.770263671875, 0.238525390625, 
375, 3681295633, -0.516412615776062, 0.5725721120834351, -0.45451852679252625, 0.44597676396369934, 2.304753303527832, -10.50035285949707, -1.6929492950439453, -37.32032012939453, -168.17279052734375, -40.63496780395508, -0.275390625, 0.766845703125, 0.25048828125, 
376, 3681303966, -0.5196787714958191, 0.580733060836792, -0.44707542657852173, 0.4391014575958252, 2.391319513320923, -11.28780460357666, -1.5495367050170898, -29.67707061767578, -178.0054473876953, -40.912986755371094, -0.27587890625, 0.7626953125, 0.259521484375, 
377, 3681312299, -0.5236820578575134, 0.5885021686553955, -0.4387994706630707, 0.4322967827320099, 2.478637456893921, -11.861452102661133, -1.2264633178710938, -14.493907928466797, -185.60061645507812, -41.313228607177734, -0.271484375, 0.758544921875, 0.275390625, 
378, 3681320632, -0.528540313243866, 0.5955623984336853, -0.42973822355270386, 0.42576864361763, 2.6707303524017334, -11.7874116897583, -0.9306830167770386, 2.8354616165161133, -189.9229736328125, -40.196990966796875, -0.2646484375, 0.75537109375, 0.28369140625, 
379, 3681328965, -0.5339763164520264, 0.6018639802932739, -0.4202602803707123, 0.41953983902931213, 2.9413375854492188, -11.408013343811035, -0.6587020754814148, 18.299440383911133, -189.3680419921875, -38.03436279296875, -0.26611328125, 0.755126953125, 0.29248046875, 
380, 3681337298, -0.5396724939346313, 0.6074231266975403, -0.4107050597667694, 0.41366103291511536, 3.2068989276885986, -10.74854850769043, -0.5135876536369324, 27.365808486938477, -184.3646240234375, -35.33445739746094, -0.25927734375, 0.753173828125, 0.29736328125, 
381, 3681345631, -0.5451633930206299, 0.6125182509422302, -0.4014762043952942, 0.4079688787460327, 3.323214054107666, -10.090892791748047, -0.4159446358680725, 29.28117561340332, -176.51193237304688, -32.67325210571289, -0.25146484375, 0.75439453125, 0.303466796875, 
382, 3681353964, -0.5502290725708008, 0.6173295974731445, -0.39273715019226074, 0.4023839831352234, 3.339020252227783, -9.631842613220215, -0.4696320593357086, 24.681604385375977, -168.0660400390625, -30.03984260559082, -0.2490234375, 0.752685546875, 0.30712890625, 
383, 3681362297, -0.5546764135360718, 0.6221598982810974, -0.38458529114723206, 0.3966718316078186, 3.3088603019714355, -9.402538299560547, -0.6014683246612549, 16.3249568939209, -161.4061737060547, -27.747859954833984, -0.24267578125, 0.7529296875, 0.312744140625, 
384, 3681370630, -0.5584694147109985, 0.6272372007369995, -0.3768811821937561, 0.3907037377357483, 3.145327568054199, -9.262643814086914, -0.773083508014679, 4.073395729064941, -158.130615234375, -26.708683013916016, -0.23828125, 0.75634765625, 0.314453125, 
385, 3681378963, -0.5616211891174316, 0.632763683795929, -0.3694702684879303, 0.3843001425266266, 2.9557182788848877, -9.455408096313477, -1.0075163841247559, -7.7817182540893555, -158.6602783203125, -26.74009132385254, -0.2333984375, 0.751708984375, 0.32666015625, 
386, 3681387296, -0.5644528269767761, 0.6386541128158569, -0.3620222210884094, 0.3774348497390747, 2.8533871173858643, -9.889628410339355, -1.1549570560455322, -16.487220764160156, -163.32540893554688, -26.90660285949707, -0.23291015625, 0.75146484375, 0.33154296875, 
387, 3681395629, -0.5671945810317993, 0.6448667645454407, -0.3542715609073639, 0.3700433373451233, 2.748403787612915, -10.49053955078125, -1.084118127822876, -19.877912521362305, -171.4518280029297, -27.690771102905273, -0.22509765625, 0.750732421875, 0.34326171875, 
388, 3681403962, -0.5702475309371948, 0.6510927081108093, -0.34588173031806946, 0.36230534315109253, 2.5776052474975586, -11.208263397216797, -0.718554675579071, -16.606576919555664, -181.1646728515625, -28.996479034423828, -0.217041015625, 0.749267578125, 0.3544921875, 
389, 3681412295, -0.5738604664802551, 0.6570197343826294, -0.3367981016635895, 0.3543718457221985, 2.6170737743377686, -11.834351539611816, -0.2325005978345871, -5.790887832641602, -189.4542236328125, -29.62227439880371, -0.2119140625, 0.747802734375, 0.360107421875, 
390, 3681420628, -0.5781930088996887, 0.6622747778892517, -0.32710573077201843, 0.3465401530265808, 2.939549684524536, -11.966903686523438, 0.21895688772201538, 8.524064064025879, -193.47267150878906, -29.14853286743164, -0.2021484375, 0.74462890625, 0.36962890625, 
391, 3681428961, -0.5830655097961426, 0.6667547821998596, -0.3171312212944031, 0.33897489309310913, 3.190307855606079, -11.417584419250488, 0.4845629632472992, 23.04041862487793, -191.94662475585938, -27.953895568847656, -0.196044921875, 0.75, 0.375732421875, 
392, 3681437294, -0.5881615281105042, 0.6705343127250671, -0.3071991503238678, 0.3317856788635254, 3.3634495735168457, -10.458667755126953, 0.48873311281204224, 31.254413604736328, -185.94659423828125, -26.306520462036133, -0.1865234375, 0.746826171875, 0.381591796875, 
393, 3681445627, -0.592975378036499, 0.6739805936813354, -0.2977258563041687, 0.3247968852519989, 3.521552562713623, -9.56592082977295, 0.4849794805049896, 30.95347785949707, -177.5952606201172, -23.760446548461914, -0.1806640625, 0.748779296875, 0.38134765625, 
394, 3681453960, -0.597274661064148, 0.6773408651351929, -0.28882089257240295, 0.3178969919681549, 3.4969265460968018, -9.059675216674805, 0.27465319633483887, 23.860109329223633, -169.72512817382812, -20.977725982666016, -0.17431640625, 0.75146484375, 0.389892578125, 
395, 3681462293, -0.6006680130958557, 0.681098222732544, -0.28052014112472534, 0.3108298182487488, 3.307469367980957, -8.490875244140625, 0.15558214485645294, 9.667789459228516, -164.38034057617188, -19.696992874145508, -0.1650390625, 0.74755859375, 0.389404296875, 
396, 3681470626, -0.6030375957489014, 0.6855786442756653, -0.27256613969802856, 0.3033792972564697, 3.0253217220306396, -8.218269348144531, -0.027971168980002403, -9.669621467590332, -164.3246307373047, -20.264257431030273, -0.15576171875, 0.75048828125, 0.392822265625, 
397, 3681478959, -0.6044586896896362, 0.6909053921699524, -0.2647048532962799, 0.2953205108642578, 2.815342426300049, -8.680596351623535, -0.3556014895439148, -27.510887145996094, -169.1905059814453, -21.655471801757812, -0.15185546875, 0.74609375, 0.40185546875, 
398, 3681487292, -0.6052526831626892, 0.6969455480575562, -0.25653213262557983, 0.2865847647190094, 2.6788883209228516, -9.478893280029297, -0.38763338327407837, -41.38341522216797, -178.9032745361328, -23.952354431152344, -0.1396484375, 0.74609375, 0.412841796875, 
399, 3681495625, -0.6057700514793396, 0.7035018801689148, -0.24765872955322266, 0.27712172269821167, 2.4167284965515137, -10.79184627532959, 0.018350720405578613, -47.376285552978516, -192.68406677246094, -27.709341049194336, -0.13427734375, 0.741943359375, 0.42333984375, 
400, 3681503958, -0.6065674424171448, 0.7098943591117859, -0.23791122436523438, 0.2674466371536255, 2.447364568710327, -11.868057250976562, 0.4277189373970032, -41.4537467956543, -202.42808532714844, -32.58926010131836, -0.124267578125, 0.7392578125, 0.432373046875, 
401, 3681512291, -0.6080859899520874, 0.7154548764228821, -0.22751617431640625, 0.25806114077568054, 2.9426729679107666, -12.357900619506836, 0.6900764107704163, -23.42738151550293, -204.2188720703125, -36.15534973144531, -0.113525390625, 0.734619140625, 0.441162109375, 
402, 3681520624, -0.6105483174324036, 0.7197563052177429, -0.21677955985069275, 0.24938265979290009, 3.365462064743042, -12.028955459594727, 0.8681108355522156, -0.9055854678153992, -198.68582153320312, -37.939239501953125, -0.101806640625, 0.736328125, 0.44873046875, 
403, 3681528957, -0.6136682629585266, 0.7228690981864929, -0.20622359216213226, 0.24155068397521973, 3.5764546394348145, -11.157271385192871, 0.9508796334266663, 18.15049934387207, -186.59054565429688, -37.66265869140625, -0.093994140625, 0.732666015625, 0.451171875, 
404, 3681537290, -0.6172052621841431, 0.724910318851471, -0.19625675678253174, 0.23462601006031036, 3.7150309085845947, -10.163784980773926, 0.6833341121673584, 31.29149055480957, -170.30523681640625, -34.83528137207031, -0.08642578125, 0.733642578125, 0.453369140625, 
405, 3681545623, -0.6207830309867859, 0.7262780666351318, -0.18710464239120483, 0.2283502072095871, 3.7270472049713135, -9.374873161315918, 0.4343726634979248, 37.14757537841797, -154.77940368652344, -30.463119506835938, -0.0771484375, 0.736328125, 0.451171875, 
406, 3681553956, -0.624114453792572, 0.7273803353309631, -0.17869161069393158, 0.22242265939712524, 3.450982093811035, -8.680598258972168, 0.32795414328575134, 34.91963195800781, -143.60198974609375, -25.951793670654297, -0.0693359375, 0.739501953125, 0.45556640625, 
407, 3681562289, -0.6269272565841675, 0.7286279201507568, -0.17081043124198914, 0.21654286980628967, 3.111707925796509, -8.36738109588623, 0.291180819272995, 27.54491424560547, -137.65603637695312, -23.160356521606445, -0.060546875, 0.739013671875, 0.448486328125, 
408, 3681570622, -0.6292213201522827, 0.7301536202430725, -0.16311518847942352, 0.2106020301580429, 2.848686933517456, -8.64102554321289, 0.2826787531375885, 18.682138442993164, -136.3491973876953, -22.794126510620117, -0.058837890625, 0.739501953125, 0.447998046875, 
409, 3681578955, -0.6309087872505188, 0.7320915460586548, -0.15538334846496582, 0.20458608865737915, 2.6664586067199707, -8.97607135772705, 0.291634738445282, 9.501096725463867, -137.1806640625, -25.353107452392578, -0.049072265625, 0.74072265625, 0.449951171875, 
410, 3681587288, -0.6321133375167847, 0.7343106269836426, -0.14750950038433075, 0.19865849614143372, 2.7107245922088623, -9.40304183959961, 0.32817724347114563, 2.247150421142578, -137.35450744628906, -29.35005760192871, -0.044189453125, 0.74267578125, 0.44970703125, 
411, 3681595621, -0.6329383254051208, 0.7366734147071838, -0.13963070511817932, 0.1928941011428833, 2.8561041355133057, -9.700239181518555, 0.21797189116477966, -1.9846888780593872, -135.30226135253906, -32.29804229736328, -0.039306640625, 0.742919921875, 0.453857421875, 
412, 3681603954, -0.6336336135864258, 0.7389088273048401, -0.1319112330675125, 0.1874171644449234, 3.012242555618286, -9.818985939025879, -0.015644878149032593, -2.565319299697876, -130.48597717285156, -33.134037017822266, -0.032958984375, 0.743896484375, 0.45458984375, 
413, 3681612287, -0.6343657374382019, 0.7408552765846252, -0.12449610233306885, 0.18225833773612976, 3.065631628036499, -9.998067855834961, -0.1740420013666153, 0.5927219390869141, -123.8546371459961, -32.3321533203125, -0.027099609375, 0.739990234375, 0.457763671875, 
414, 3681620620, -0.6352384686470032, 0.7423928380012512, -0.11748046427965164, 0.17755788564682007, 3.050168037414551, -9.874906539916992, -0.3950008451938629, 4.90116548538208, -114.98403930664062, -31.069259643554688, -0.020263671875, 0.74365234375, 0.4580078125, 
415, 3681628953, -0.6362379193305969, 0.7435658574104309, -0.11092661321163177, 0.17323395609855652, 3.0527327060699463, -9.659300804138184, -0.43847933411598206, 9.31171989440918, -106.35742950439453, -28.869464874267578, -0.017578125, 0.7431640625, 0.459228515625, 
416, 3681637286, -0.6374157071113586, 0.7444061040878296, -0.10465695708990097, 0.16914883255958557, 2.735783100128174, -9.624441146850586, -0.344281941652298, 13.283541679382324, -100.96952056884766, -26.99688148498535, -0.013671875, 0.744873046875, 0.4580078125, 
417, 3681645619, -0.6386922597885132, 0.7450486421585083, -0.09855256974697113, 0.16512340307235718, 2.533496618270874, -9.479619026184082, -0.16212330758571625, 16.156307220458984, -98.53154754638672, -25.4202823638916, -0.01123046875, 0.743896484375, 0.45947265625, 
418, 3681653952, -0.6398780941963196, 0.7456678152084351, -0.09254299104213715, 0.1611674576997757, 2.402667760848999, -9.14643383026123, 0.11532551795244217, 14.884772300720215, -96.8736801147461, -25.128625869750977, -0.00634765625, 0.744873046875, 0.455810546875, 
419, 3681662285, -0.640751302242279, 0.746451735496521, -0.08664485067129135, 0.1573019027709961, 2.3204729557037354, -8.995132446289062, 0.3545103669166565, 10.496495246887207, -94.87416076660156, -25.779090881347656, -0.00048828125, 0.746826171875, 0.4521484375, 
420, 3681670618, -0.6412959098815918, 0.7474127411842346, -0.08088360726833344, 0.15354230999946594, 2.214540958404541, -8.877209663391113, 0.379684180021286, 4.993432998657227, -92.62999725341797, -26.131610870361328, -0.00048828125, 0.746826171875, 0.45703125, 
421, 3681678951, -0.6414394974708557, 0.7486124038696289, -0.07531993836164474, 0.1498839259147644, 2.1989963054656982, -8.866114616394043, 0.3429166078567505, -1.1674162149429321, -89.84793090820312, -26.194686889648438, 0.006103515625, 0.744873046875, 0.456298828125, 
422, 3681687284, -0.641230046749115, 0.7500041127204895, -0.06996336579322815, 0.14637818932533264, 2.1805858612060547, -8.960477828979492, 0.29244837164878845, -7.135472297668457, -86.53783416748047, -26.249080657958984, 0.0087890625, 0.748046875, 0.459228515625, 
423, 3681695617, -0.6407167911529541, 0.751549482345581, -0.06482408940792084, 0.14302663505077362, 2.1226770877838135, -9.153875350952148, 0.28889021277427673, -11.57193660736084, -82.99513244628906, -26.20427131652832, 0.01025390625, 0.74609375, 0.45947265625, 
424, 3681703950, -0.6400835514068604, 0.7530943155288696, -0.059919871389865875, 0.13983988761901855, 2.1578657627105713, -9.372668266296387, 0.28128674626350403, -13.462759971618652, -79.16544342041016, -25.38446807861328, 0.01123046875, 0.74658203125, 0.4599609375, 
425, 3681712283, -0.6394764184951782, 0.7545231580734253, -0.05527267977595329, 0.13679686188697815, 2.259819269180298, -9.9411039352417, 0.46455901861190796, -12.237332344055176, -75.16329956054688, -23.913721084594727, 0.01611328125, 0.746337890625, 0.464111328125, 
426, 3681720616, -0.6390874981880188, 0.7556828856468201, -0.05079872906208038, 0.13391736149787903, 2.174398183822632, -10.405686378479004, 0.7304442524909973, -8.117794036865234, -71.65222930908203, -22.866544723510742, 0.019287109375, 0.740966796875, 0.4658203125, 
427, 3681728949, -0.6390340924263, 0.7564713954925537, -0.04647170752286911, 0.1312648206949234, 2.0904343128204346, -10.600616455078125, 1.0023736953735352, -1.2055519819259644, -67.50698852539062, -22.52196502685547, 0.022705078125, 0.742431640625, 0.467529296875, 
428, 3681737282, -0.6393994688987732, 0.7568167448043823, -0.042331453412771225, 0.12887191772460938, 2.112473487854004, -10.610753059387207, 1.1349982023239136, 6.597715377807617, -62.67934036254883, -21.756166458129883, 0.024169921875, 0.745361328125, 0.466064453125, 
429, 3681745615, -0.6400797963142395, 0.7568065524101257, -0.03846083581447601, 0.12675073742866516, 2.118018388748169, -10.514291763305664, 1.2457414865493774, 12.911539077758789, -56.99277877807617, -20.634475708007812, 0.024658203125, 0.741455078125, 0.465087890625, 
430, 3681753948, -0.6409071087837219, 0.7565802335739136, -0.03494203835725784, 0.1249282956123352, 2.1077027320861816, -10.289820671081543, 1.326492190361023, 15.658051490783691, -50.528587341308594, -19.171783447265625, 0.028076171875, 0.743896484375, 0.465576171875, 
431, 3681762281, -0.6416054964065552, 0.7563692331314087, -0.03192701190710068, 0.12341905385255814, 2.088491916656494, -9.912291526794434, 1.3310585021972656, 13.648059844970703, -42.760555267333984, -16.972808837890625, 0.028564453125, 0.745849609375, 0.460693359375, 
432, 3681770614, -0.642017126083374, 0.7563220858573914, -0.02948046289384365, 0.12216980755329132, 2.036210060119629, -9.712419509887695, 1.2147793769836426, 8.190265655517578, -35.22731399536133, -13.85922622680664, 0.030517578125, 0.747802734375, 0.461181640625, 
433, 3681778947, -0.6419850587844849, 0.7565954327583313, -0.027611318975687027, 0.12107715010643005, 1.9042205810546875, -9.554976463317871, 1.1899796724319458, -0.024961091578006744, -28.833879470825195, -10.157038688659668, 0.031494140625, 0.745849609375, 0.45703125, 
434, 3681787280, -0.6414770483970642, 0.7572207450866699, -0.02620389312505722, 0.12016986310482025, 1.7831265926361084, -9.653667449951172, 1.2392096519470215, -8.919353485107422, -23.257671356201172, -7.8717570304870605, 0.031982421875, 0.744384765625, 0.4619140625, 
435, 3681795613, -0.6405179500579834, 0.7581785917282104, -0.025206971913576126, 0.11945778131484985, 1.7381672859191895, -9.785285949707031, 1.2417137622833252, -17.063608169555664, -17.974016189575195, -6.222301959991455, 0.031005859375, 0.744384765625, 0.46435546875, 
436, 3681803946, -0.6392380595207214, 0.7593526244163513, -0.0246138796210289, 0.11897919327020645, 1.813401460647583, -10.021799087524414, 1.1667817831039429, -22.98811149597168, -12.245418548583984, -4.631094932556152, 0.030517578125, 0.743408203125, 0.46533203125, 
437, 3681812279, -0.6378378868103027, 0.7605740427970886, -0.024423662573099136, 0.118730828166008, 1.8941733837127686, -10.405635833740234, 1.1032860279083252, -25.191471099853516, -6.3232741355896, -2.696911096572876, 0.032958984375, 0.7421875, 0.470947265625, 
438, 3681820612, -0.6365224123001099, 0.7616679668426514, -0.024615276604890823, 0.11873810738325119, 1.966571569442749, -10.728943824768066, 1.0078909397125244, -23.776901245117188, -0.13389849662780762, -0.7297371625900269, 0.032470703125, 0.74072265625, 0.473876953125, 
439, 3681828945, -0.6354990601539612, 0.7624777555465698, -0.025176316499710083, 0.11890365183353424, 2.0094921588897705, -11.018905639648438, 0.7938300371170044, -18.77195167541504, 5.12891960144043, 2.299006700515747, 0.029541015625, 0.740234375, 0.47216796875, 
440, 3681837278, -0.6348781585693359, 0.7629172205924988, -0.02606094256043434, 0.11921076476573944, 1.9611413478851318, -11.219014167785645, 0.6109510064125061, -11.802849769592285, 9.901799201965332, 5.270616054534912, 0.032958984375, 0.73876953125, 0.474853515625, 
441, 3681845611, -0.6345970034599304, 0.7630371451377869, -0.027236435562372208, 0.11967607587575912, 1.9030113220214844, -11.169292449951172, 0.47690925002098083, -5.899816989898682, 14.499528884887695, 7.587347507476807, 0.031494140625, 0.7392578125, 0.477783203125, 
442, 3681853944, -0.6345486044883728, 0.7629280686378479, -0.0287022665143013, 0.12028470635414124, 1.8639750480651855, -10.992280006408691, 0.40202686190605164, -1.8528707027435303, 18.831056594848633, 9.876520156860352, 0.029052734375, 0.740234375, 0.47802734375, 
443, 3681862277, -0.634540319442749, 0.7627547979354858, -0.03045051544904709, 0.12099592387676239, 1.8246891498565674, -10.744288444519043, 0.32541191577911377, -1.365277886390686, 22.455167770385742, 12.013211250305176, 0.034423828125, 0.73486328125, 0.474609375, 
444, 3681870610, -0.634375274181366, 0.7626887559890747, -0.03245627135038376, 0.12175369262695312, 1.770661473274231, -10.576824188232422, 0.3502199947834015, -4.288094997406006, 25.0828857421875, 14.026416778564453, 0.032958984375, 0.73828125, 0.476318359375, 
445, 3681878943, -0.6339098215103149, 0.7628541588783264, -0.034686263650655746, 0.12252509593963623, 1.7782129049301147, -10.573283195495605, 0.5514175891876221, -9.924180030822754, 26.919021606445312, 15.632023811340332, 0.030517578125, 0.73486328125, 0.477294921875, 
446, 3681887276, -0.6331842541694641, 0.7632153630256653, -0.0371093675494194, 0.12331555783748627, 1.8214844465255737, -10.780441284179688, 0.8169163465499878, -14.577165603637695, 28.605419158935547, 16.979745864868164, 0.030517578125, 0.7353515625, 0.480224609375, 
