sep=,
PacketCounter,SampleTimeFine,Quat_W,Quat_X,Quat_Y,Quat_Z,Acc_X,Acc_Y,Acc_Z,Gyr_X,Gyr_Y,Gyr_Z,Mag_X,Mag_Y,Mag_Z,
0, 3922069335, -0.22714656591415405, 0.6447244882583618, 0.03424575924873352, 0.7290861010551453, 0, 0, 0, 0, 0, 0, -0.81884765625, -0.011474609375, -0.00048828125, 
1, 3922077668, -0.22682137787342072, 0.6448109745979309, 0.0341760516166687, 0.7291142344474792, 9.698975563049316, -2.434171676635742, 1.5576698780059814, -3.9693615436553955, -1.0937023162841797, -2.8419508934020996, -0.81787109375, -0.010986328125, 0.00048828125, 
2, 3922086001, -0.2264881432056427, 0.6449145674705505, 0.03413204848766327, 0.7291281223297119, 9.699305534362793, -2.4619412422180176, 1.5417040586471558, -3.738294839859009, -1.475430965423584, -3.079957962036133, -0.815673828125, -0.014404296875, -0.000732421875, 
3, 3922094334, -0.22619307041168213, 0.6450331211090088, 0.03415057063102722, 0.7291139960289001, 9.685529708862305, -2.5153768062591553, 1.5618846416473389, -2.897444009780884, -2.0515594482421875, -3.1748204231262207, -0.817138671875, -0.011962890625, -0.00537109375, 
4, 3922102667, -0.22594408690929413, 0.6451889872550964, 0.03423117846250534, 0.7290495038032532, 9.654386520385742, -2.555952548980713, 1.5682344436645508, -1.9431087970733643, -3.022671937942505, -3.087578296661377, -0.8203125, -0.012939453125, 0.00048828125, 
5, 3922111000, -0.2257494181394577, 0.6453863382339478, 0.0343707874417305, 0.7289286851882935, 9.601089477539062, -2.596912145614624, 1.5834568738937378, -0.9874927401542664, -4.116220951080322, -2.874288558959961, -0.817626953125, -0.014892578125, 0.000732421875, 
6, 3922119333, -0.22561246156692505, 0.6456308960914612, 0.03456457704305649, 0.7287453413009644, 9.582454681396484, -2.614293336868286, 1.5907753705978394, -0.0786997377872467, -5.2527241706848145, -2.564330577850342, -0.81494140625, -0.012451171875, 0.001220703125, 
7, 3922127666, -0.22553062438964844, 0.6459118127822876, 0.03479781746864319, 0.7285104393959045, 9.52649974822998, -2.6404216289520264, 1.6088478565216064, 0.7468598484992981, -6.20324182510376, -2.1814746856689453, -0.817138671875, -0.015869140625, 0.002685546875, 
8, 3922135999, -0.22550371289253235, 0.6462160348892212, 0.03505481034517288, 0.7282365560531616, 9.481810569763184, -2.6601901054382324, 1.6601550579071045, 1.3968340158462524, -6.799401760101318, -1.7135668992996216, -0.8203125, -0.016357421875, 0.00537109375, 
9, 3922144332, -0.225546196103096, 0.6465182304382324, 0.03533090651035309, 0.7279417514801025, 9.467787742614746, -2.665268898010254, 1.6847208738327026, 2.244204044342041, -7.02268123626709, -1.12044358253479, -0.816162109375, -0.017822265625, 0.003173828125, 
10, 3922152665, -0.22565287351608276, 0.6468180418014526, 0.03560555726289749, 0.7276289463043213, 9.428564071655273, -2.6639516353607178, 1.7310006618499756, 2.7727668285369873, -7.086038589477539, -0.41918984055519104, -0.8154296875, -0.0166015625, 0.008056640625, 
11, 3922160998, -0.22582662105560303, 0.647102952003479, 0.035887785255908966, 0.7273077368736267, 9.388863563537598, -2.65556001663208, 1.7712215185165405, 3.538632869720459, -7.039599895477295, 0.21113818883895874, -0.816650390625, -0.017822265625, 0.005615234375, 
12, 3922169331, -0.22607378661632538, 0.6473649740219116, 0.03618309646844864, 0.7269830703735352, 9.356572151184082, -2.662975311279297, 1.8031286001205444, 4.3491950035095215, -6.809942722320557, 0.8197324872016907, -0.8193359375, -0.015869140625, 0.007080078125, 
13, 3922177664, -0.2263951301574707, 0.6475992202758789, 0.03651663661003113, 0.7266578078269958, 9.337926864624023, -2.67354154586792, 1.826385736465454, 5.525426387786865, -6.654744625091553, 1.2175981998443604, -0.818603515625, -0.016357421875, 0.001708984375, 
14, 3922185997, -0.22679047286510468, 0.6477950215339661, 0.03689088672399521, 0.7263411283493042, 9.320734977722168, -2.6299405097961426, 1.867364764213562, 6.698404788970947, -6.259031295776367, 1.5444362163543701, -0.81884765625, -0.016845703125, 0.008544921875, 
15, 3922194330, -0.2272617071866989, 0.6479514241218567, 0.03731708228588104, 0.7260323762893677, 9.311944961547852, -2.606212615966797, 1.8847862482070923, 8.020074844360352, -5.944155216217041, 1.8000404834747314, -0.81982421875, -0.01513671875, 0.011962890625, 
16, 3922202663, -0.227793350815773, 0.6480786204338074, 0.037792615592479706, 0.7257276773452759, 9.296607971191406, -2.6271443367004395, 1.9230977296829224, 9.088868141174316, -5.7047014236450195, 1.92172110080719, -0.81689453125, -0.01708984375, 0.010009765625, 
17, 3922210996, -0.22837549448013306, 0.6481586694717407, 0.038300760090351105, 0.7254464626312256, 9.303714752197266, -2.629692316055298, 1.976111888885498, 10.052460670471191, -5.133643627166748, 2.050086736679077, -0.81787109375, -0.013671875, 0.009521484375, 
18, 3922219329, -0.2290227860212326, 0.6481794714927673, 0.03882434219121933, 0.725196123123169, 9.321763038635254, -2.640855073928833, 2.0482065677642822, 11.070523262023926, -4.295161247253418, 2.449002742767334, -0.82080078125, -0.0146484375, 0.01025390625, 
19, 3922227662, -0.22971725463867188, 0.6481419205665588, 0.03936890512704849, 0.7249804735183716, 9.350849151611328, -2.6175246238708496, 2.085505962371826, 11.749533653259277, -3.432295322418213, 2.5773563385009766, -0.8203125, -0.013671875, 0.012451171875, 
20, 3922235995, -0.23044759035110474, 0.6480554342269897, 0.039917975664138794, 0.7247960567474365, 9.355588912963867, -2.613227367401123, 2.129103660583496, 12.318731307983398, -2.6607940196990967, 2.772254228591919, -0.81640625, -0.015625, 0.008056640625, 
21, 3922244328, -0.23116955161094666, 0.6479272842407227, 0.04046954959630966, 0.724649965763092, 9.345784187316895, -2.5192244052886963, 2.159576892852783, 12.312560081481934, -1.9173156023025513, 2.521824359893799, -0.81689453125, -0.01513671875, 0.011474609375, 
22, 3922252661, -0.231832355260849, 0.6477817296981812, 0.04098012298345566, 0.7245396971702576, 9.33675479888916, -2.4330410957336426, 2.1775121688842773, 11.40911865234375, -1.3131009340286255, 2.161790132522583, -0.81884765625, -0.01513671875, 0.011962890625, 
23, 3922260994, -0.232402503490448, 0.6476305723190308, 0.041413985192775726, 0.7244676947593689, 9.354796409606934, -2.366774082183838, 2.129796028137207, 9.819704055786133, -0.7369599938392639, 1.80680251121521, -0.81787109375, -0.01220703125, 0.010986328125, 
24, 3922269327, -0.2328791320323944, 0.6474794745445251, 0.04176879674196243, 0.724429190158844, 9.379204750061035, -2.385915994644165, 2.1164536476135254, 8.272218704223633, -0.25454145669937134, 1.4800161123275757, -0.8173828125, -0.01318359375, 0.010986328125, 
25, 3922277660, -0.2332436442375183, 0.6473265886306763, 0.04207107424736023, 0.7244310975074768, 9.372049331665039, -2.355458974838257, 2.0814754962921143, 6.641027450561523, 0.23992854356765747, 0.6930955648422241, -0.818359375, -0.013671875, 0.006591796875, 
26, 3922285993, -0.2335071861743927, 0.6471805572509766, 0.04234524071216583, 0.7244606018066406, 9.388237953186035, -2.4489223957061768, 2.0756402015686035, 5.407703399658203, 0.4629772901535034, -0.158744215965271, -0.8203125, -0.01318359375, 0.00927734375, 
27, 3922294326, -0.2337227761745453, 0.6470276117324829, 0.04259610176086426, 0.7245129942893982, 9.390064239501953, -2.467393159866333, 2.0358083248138428, 4.774852275848389, 0.7682221531867981, -0.4942138195037842, -0.8173828125, -0.01171875, 0.010498046875, 
28, 3922302659, -0.23391643166542053, 0.6468632817268372, 0.042830318212509155, 0.7245833873748779, 9.387856483459473, -2.5003812313079834, 1.9785863161087036, 4.417047023773193, 1.0945218801498413, -0.6437754034996033, -0.81884765625, -0.0146484375, 0.010498046875, 
29, 3922310992, -0.23411665856838226, 0.6466794013977051, 0.043030835688114166, 0.724670946598053, 9.459620475769043, -2.4883339405059814, 1.9135769605636597, 4.214925289154053, 1.5416953563690186, -0.33087190985679626, -0.81689453125, -0.013671875, 0.010009765625, 
30, 3922319325, -0.23431673645973206, 0.6464797258377075, 0.04316886514425278, 0.7247762084007263, 9.45622730255127, -2.47322416305542, 1.8861100673675537, 3.6680870056152344, 2.05357027053833, 0.1538390964269638, -0.81982421875, -0.0126953125, 0.0107421875, 
31, 3922327658, -0.2345217764377594, 0.6462547779083252, 0.04324948042631149, 0.7249056696891785, 9.491743087768555, -2.4350168704986572, 1.8541969060897827, 3.1709914207458496, 2.714186906814575, 0.6229126453399658, -0.81787109375, -0.014892578125, 0.005615234375, 
32, 3922335991, -0.2347172051668167, 0.6460098028182983, 0.043290115892887115, 0.7250582575798035, 9.468476295471191, -2.423438310623169, 1.8106679916381836, 2.6557350158691406, 3.2654306888580322, 0.7731400728225708, -0.81494140625, -0.01513671875, 0.007080078125, 
33, 3922344324, -0.2348833531141281, 0.6457422971725464, 0.04327523708343506, 0.7252438068389893, 9.483095169067383, -2.345573663711548, 1.7833253145217896, 1.976061463356018, 3.921846866607666, 0.877415657043457, -0.818359375, -0.0126953125, 0.008544921875, 
34, 3922352657, -0.23503509163856506, 0.6454731225967407, 0.04325912892818451, 0.7254350781440735, 9.508662223815918, -2.3402163982391357, 1.7597033977508545, 1.6195369958877563, 4.0443854331970215, 0.6784698963165283, -0.8154296875, -0.01318359375, 0.008056640625, 
35, 3922360990, -0.23512612283229828, 0.6452099084854126, 0.04318948835134506, 0.7256438732147217, 9.565022468566895, -2.3367788791656494, 1.7128069400787354, 0.736511766910553, 4.217639923095703, 0.5430730581283569, -0.81640625, -0.00927734375, 0.007080078125, 
36, 3922369323, -0.23518970608711243, 0.6449535489082336, 0.04312115162611008, 0.7258551120758057, 9.576671600341797, -2.3161470890045166, 1.6869730949401855, 0.6624353528022766, 4.1032209396362305, 0.2736624777317047, -0.81787109375, -0.01025390625, 0.00537109375, 
37, 3922377656, -0.23523969948291779, 0.6447212100028992, 0.04308275133371353, 0.7260477542877197, 9.556567192077637, -2.335465669631958, 1.653834342956543, 0.5941221714019775, 3.6402437686920166, -0.07416602224111557, -0.8173828125, -0.01123046875, 0.004638671875, 
38, 3922385989, -0.23527494072914124, 0.6445012092590332, 0.043061763048172, 0.7262328863143921, 9.550033569335938, -2.3379878997802734, 1.620065450668335, 0.674217939376831, 3.368502616882324, -0.3394014835357666, -0.81787109375, -0.010498046875, 0.00146484375, 
39, 3922394322, -0.23532319068908691, 0.6443027257919312, 0.043070465326309204, 0.7263928651809692, 9.550887107849121, -2.348289728164673, 1.5918188095092773, 0.958945631980896, 2.8589839935302734, -0.3839702010154724, -0.81884765625, -0.01220703125, 0.0048828125, 
40, 3922402655, -0.2353762984275818, 0.6441311240196228, 0.0430900901556015, 0.7265266180038452, 9.488237380981445, -2.354719400405884, 1.5598838329315186, 1.103384256362915, 2.3106343746185303, -0.3269272744655609, -0.8173828125, -0.012451171875, 0.003662109375, 
41, 3922410988, -0.23545101284980774, 0.6439642310142517, 0.04312136769294739, 0.7266484498977661, 9.459503173828125, -2.3583202362060547, 1.5316369533538818, 1.338830590248108, 2.1501104831695557, -0.17693032324314117, -0.818359375, -0.011474609375, 0.001953125, 
42, 3922419321, -0.23551832139492035, 0.6438198685646057, 0.043124720454216, 0.7267543077468872, 9.452869415283203, -2.3482749462127686, 1.516442060470581, 1.0346485376358032, 1.8410358428955078, 0.07132283598184586, -0.8193359375, -0.010986328125, -0.00390625, 
43, 3922427654, -0.2355869561433792, 0.6436822414398193, 0.04310312122106552, 0.7268551588058472, 9.456591606140137, -2.3288562297821045, 1.5172897577285767, 0.6739745140075684, 1.8384231328964233, 0.3167840540409088, -0.81787109375, -0.009765625, 0.00341796875, 
44, 3922435987, -0.23564618825912476, 0.6435470581054688, 0.04306027293205261, 0.7269582152366638, 9.440668106079102, -2.3197176456451416, 1.5021005868911743, 0.4117104411125183, 1.8849132061004639, 0.403641939163208, -0.8173828125, -0.01123046875, 0.00341796875, 
45, 3922444320, -0.23569905757904053, 0.6434180736541748, 0.042997896671295166, 0.7270589470863342, 9.454231262207031, -2.2984628677368164, 1.5075035095214844, 0.10048463940620422, 1.8740910291671753, 0.5246306657791138, -0.818359375, -0.00927734375, 0.005859375, 
46, 3922452653, -0.2357567995786667, 0.6432823538780212, 0.04293793439865112, 0.7271639108657837, 9.471757888793945, -2.3102335929870605, 1.5328491926193237, 0.09887094795703888, 1.9981919527053833, 0.5122846961021423, -0.81640625, -0.0087890625, 0, 
47, 3922460986, -0.23580393195152283, 0.6431425213813782, 0.04289262741804123, 0.7272750735282898, 9.51302719116211, -2.330808639526367, 1.5231577157974243, 0.2472798228263855, 2.016378164291382, 0.27591651678085327, -0.81884765625, -0.009765625, 0.001953125, 
48, 3922469319, -0.23585182428359985, 0.6430058479309082, 0.04287361353635788, 0.7273814678192139, 9.53593921661377, -2.32049298286438, 1.4993833303451538, 0.5481958389282227, 1.8504748344421387, 0.06892789900302887, -0.8173828125, -0.010498046875, -0.00048828125, 
49, 3922477652, -0.23591509461402893, 0.6428784728050232, 0.042903900146484375, 0.7274718880653381, 9.568116188049316, -2.331862449645996, 1.5077391862869263, 1.1180230379104614, 1.4731642007827759, -0.15709209442138672, -0.818359375, -0.009521484375, 0.0009765625, 
50, 3922485985, -0.2360025942325592, 0.6427586078643799, 0.04298315942287445, 0.7275446057319641, 9.565438270568848, -2.35920786857605, 1.516970157623291, 1.8188283443450928, 1.0968655347824097, -0.29084962606430054, -0.81787109375, -0.009765625, 0.00390625, 
51, 3922494318, -0.23611778020858765, 0.6426455974578857, 0.04311319440603256, 0.7275995016098022, 9.581696510314941, -2.360889434814453, 1.5087080001831055, 2.549769163131714, 0.72234708070755, -0.39408785104751587, -0.81396484375, -0.0107421875, 0.001708984375, 
52, 3922502651, -0.23624640703201294, 0.6425390839576721, 0.04325854033231735, 0.7276429533958435, 9.595996856689453, -2.354851484298706, 1.5066207647323608, 2.8441789150238037, 0.5078021883964539, -0.3549492359161377, -0.81591796875, -0.010986328125, 0.000244140625, 
53, 3922510984, -0.23638573288917542, 0.6424368619918823, 0.0433795228600502, 0.7276808619499207, 9.606047630310059, -2.3301777839660645, 1.5203298330307007, 2.649510622024536, 0.5075204372406006, -0.011744125746190548, -0.81591796875, -0.0107421875, 0.001220703125, 
54, 3922519317, -0.2365131676197052, 0.6423517465591431, 0.043447934091091156, 0.7277104258537292, 9.57851791381836, -2.3312652111053467, 1.5402748584747314, 1.9647910594940186, 0.43119001388549805, 0.3646954596042633, -0.8134765625, -0.0087890625, -0.000244140625, 
55, 3922527650, -0.23660989105701447, 0.6422818899154663, 0.043449632823467255, 0.7277405261993408, 9.544739723205566, -2.300225019454956, 1.5322250127792358, 0.978053867816925, 0.47711634635925293, 0.6605398654937744, -0.81640625, -0.00732421875, -0.00048828125, 
56, 3922535983, -0.2366640716791153, 0.6422333717346191, 0.043380215764045715, 0.7277699708938599, 9.542830467224121, -2.2859628200531006, 1.523112177848816, -0.18768830597400665, 0.47171175479888916, 0.870858371257782, -0.813720703125, -0.009033203125, -0.004638671875, 
57, 3922544316, -0.23664964735507965, 0.6422247290611267, 0.04322975128889084, 0.7277911901473999, 9.486011505126953, -2.260937452316284, 1.541422963142395, -1.7215327024459839, 0.21450640261173248, 0.9581132531166077, -0.81591796875, -0.009521484375, -0.00146484375, 
58, 3922552649, -0.23659434914588928, 0.6422545313835144, 0.04302925616502762, 0.7277948260307312, 9.448417663574219, -2.269505023956299, 1.528775691986084, -2.7441298961639404, -0.1669279783964157, 1.055216908454895, -0.81640625, -0.00634765625, -0.001953125, 
59, 3922560982, -0.2365056574344635, 0.6423121690750122, 0.04280278831720352, 0.727786123752594, 9.436149597167969, -2.2850613594055176, 1.531798005104065, -3.3355627059936523, -0.5099537968635559, 1.0223793983459473, -0.8154296875, -0.008544921875, -0.00146484375, 
60, 3922569315, -0.23641324043273926, 0.6423894166946411, 0.04259147495031357, 0.727760374546051, 9.433485984802246, -2.3118221759796143, 1.5416841506958008, -3.2791473865509033, -0.8992263078689575, 0.9109448194503784, -0.81494140625, -0.0087890625, -0.000732421875, 
61, 3922577648, -0.23634101450443268, 0.6424701809883118, 0.04242771118879318, 0.7277221083641052, 9.4623441696167, -2.3278489112854004, 1.5581862926483154, -2.621245861053467, -1.1966331005096436, 0.7429153323173523, -0.81494140625, -0.009033203125, -0.002197265625, 
62, 3922585981, -0.23629754781723022, 0.6425449848175049, 0.042312003672122955, 0.7276769876480103, 9.490062713623047, -2.3032593727111816, 1.5911335945129395, -1.885732650756836, -1.3213744163513184, 0.6163297295570374, -0.8173828125, -0.0087890625, 0.001953125, 
63, 3922594314, -0.23628227412700653, 0.6425912380218506, 0.04223961383104324, 0.7276453375816345, 9.493796348571777, -2.286499261856079, 1.5749629735946655, -1.0952006578445435, -1.0559598207473755, 0.4640531539916992, -0.81689453125, -0.009033203125, -0.00244140625, 
64, 3922602647, -0.2362949103116989, 0.6426066160202026, 0.042212605476379395, 0.7276290655136108, 9.51168441772461, -2.228060245513916, 1.6067357063293457, -0.31513190269470215, -0.7312864065170288, 0.2664264440536499, -0.81787109375, -0.00830078125, 0.00439453125, 
65, 3922610980, -0.23630085587501526, 0.6425885558128357, 0.04220417141914368, 0.727643609046936, 9.50637149810791, -2.2253212928771973, 1.5958850383758545, -0.08503925800323486, -0.20117419958114624, -0.07663778215646744, -0.81884765625, -0.007568359375, -0.0009765625, 
66, 3922619313, -0.23629415035247803, 0.6425447463989258, 0.04220803081989288, 0.7276841998100281, 9.429786682128906, -2.199298858642578, 1.6038103103637695, -0.040867507457733154, 0.2581658363342285, -0.4203423857688904, -0.814453125, -0.010009765625, -0.001708984375, 
67, 3922627646, -0.236240953207016, 0.6425092816352844, 0.04221107065677643, 0.7277326583862305, 9.373866081237793, -2.1885199546813965, 1.6150974035263062, -0.4557284712791443, 0.2018529623746872, -0.8905812501907349, -0.81591796875, -0.009765625, 0.000732421875, 
68, 3922635979, -0.23613226413726807, 0.6424975991249084, 0.04220731556415558, 0.727778434753418, 9.349602699279785, -2.195186138153076, 1.591157078742981, -0.9908224940299988, -0.08930402249097824, -1.3457590341567993, -0.81591796875, -0.00830078125, 0.0009765625, 
69, 3922644312, -0.2359730452299118, 0.6425232291221619, 0.04219724237918854, 0.7278079390525818, 9.300480842590332, -2.212402105331421, 1.58791184425354, -1.7122219800949097, -0.5952876210212708, -1.739372968673706, -0.81640625, -0.0078125, -0.00048828125, 
70, 3922652645, -0.23574486374855042, 0.6425923109054565, 0.04216669499874115, 0.7278227210044861, 9.306583404541016, -2.2080764770507812, 1.6017158031463623, -2.436438798904419, -1.1829551458358765, -2.1359071731567383, -0.8173828125, -0.008056640625, -0.001953125, 
71, 3922660978, -0.23548990488052368, 0.6427015066146851, 0.04212427884340286, 0.7278113961219788, 9.320341110229492, -2.2341437339782715, 1.5935274362564087, -3.126678943634033, -1.7439708709716797, -2.229130268096924, -0.8154296875, -0.011962890625, -0.001220703125, 
72, 3922669311, -0.2351979911327362, 0.6428336501121521, 0.042062558233737946, 0.7277927398681641, 9.35361385345459, -2.2548365592956543, 1.6201528310775757, -3.440260887145996, -2.062317371368408, -2.34328031539917, -0.8193359375, -0.010498046875, 0.00146484375, 
73, 3922677644, -0.23489689826965332, 0.6429688930511475, 0.042000867426395416, 0.7277740240097046, 9.373481750488281, -2.2494747638702393, 1.639479398727417, -3.8087987899780273, -2.032681941986084, -2.481519937515259, -0.815673828125, -0.010986328125, -0.003173828125, 
74, 3922685977, -0.23457378149032593, 0.6430995464324951, 0.04193942993879318, 0.7277661561965942, 9.40607738494873, -2.272960662841797, 1.649809718132019, -3.7891523838043213, -1.950536847114563, -2.705977439880371, -0.81640625, -0.011962890625, 0.002197265625, 
75, 3922694310, -0.2342657744884491, 0.6432083249092102, 0.041911542415618896, 0.727770984172821, 9.431659698486328, -2.283994436264038, 1.6559057235717773, -3.460637092590332, -1.6740951538085938, -2.9405910968780518, -0.81640625, -0.010986328125, -0.00244140625, 
76, 3922702643, -0.23396635055541992, 0.6432872414588928, 0.04193098098039627, 0.7277962565422058, 9.444680213928223, -2.2893590927124023, 1.651477575302124, -2.8414130210876465, -1.3303776979446411, -3.3595633506774902, -0.814697265625, -0.011962890625, -0.001708984375, 
77, 3922710976, -0.2336779087781906, 0.6433447003364563, 0.04199317842721939, 0.7278346419334412, 9.426610946655273, -2.310694456100464, 1.6616783142089844, -2.238696813583374, -1.140614628791809, -3.680650234222412, -0.8173828125, -0.010009765625, 0, 
78, 3922719309, -0.23341506719589233, 0.6433827877044678, 0.0421191081404686, 0.7278780937194824, 9.378314018249512, -2.3349568843841553, 1.6608878374099731, -1.1059329509735107, -1.138642430305481, -3.977083921432495, -0.81396484375, -0.010498046875, -0.000244140625, 
79, 3922727642, -0.2331898957490921, 0.6434096693992615, 0.04231422394514084, 0.7279152274131775, 9.366195678710938, -2.331695795059204, 1.6419557332992554, -0.2497003823518753, -1.238512396812439, -4.236889362335205, -0.818359375, -0.013916015625, 0, 
80, 3922735975, -0.23298439383506775, 0.6434306502342224, 0.04254976660013199, 0.7279486656188965, 9.4177885055542, -2.3306736946105957, 1.6574101448059082, 0.2545030415058136, -1.2928913831710815, -4.405738353729248, -0.817626953125, -0.011962890625, -0.00439453125, 
81, 3922744308, -0.2327658236026764, 0.6434690356254578, 0.04281122237443924, 0.7279696464538574, 9.421651840209961, -2.3324015140533447, 1.677536129951477, 0.44543156027793884, -1.7057929039001465, -4.697714805603027, -0.817138671875, -0.013427734375, -0.001953125, 
82, 3922752641, -0.23253673315048218, 0.6435219049453735, 0.04310128837823868, 0.7279787063598633, 9.484444618225098, -2.364427089691162, 1.7118635177612305, 0.5758336186408997, -2.0379836559295654, -5.014665126800537, -0.81884765625, -0.013427734375, 0.00048828125, 
83, 3922760974, -0.23227867484092712, 0.6436140537261963, 0.04342571645975113, 0.7279603481292725, 9.482187271118164, -2.4112160205841064, 1.7590410709381104, 0.5766533613204956, -2.8162214756011963, -5.493549346923828, -0.8173828125, -0.014892578125, 0.002197265625, 
84, 3922769307, -0.23201331496238708, 0.6437225341796875, 0.04379051923751831, 0.7279271483421326, 9.49537467956543, -2.4764506816864014, 1.7827253341674805, 0.7180437445640564, -3.196284770965576, -5.895384788513184, -0.817138671875, -0.019287109375, 0.001220703125, 
85, 3922777640, -0.23173922300338745, 0.6438491940498352, 0.044169120490550995, 0.7278797626495361, 9.492362022399902, -2.546647787094116, 1.8243882656097412, 0.8851765990257263, -3.600400686264038, -6.019306659698486, -0.818115234375, -0.015869140625, -0.000732421875, 
86, 3922785973, -0.2315109670162201, 0.6439729332923889, 0.04456537216901779, 0.7278187274932861, 9.48941421508789, -2.6255314350128174, 1.8419419527053833, 1.2469778060913086, -3.6511178016662598, -5.71913480758667, -0.818603515625, -0.0185546875, -0.004150390625, 
87, 3922794306, -0.23133407533168793, 0.6440644264221191, 0.04494080692529678, 0.7277709245681763, 9.50191593170166, -2.6647534370422363, 1.8715429306030273, 1.825833797454834, -3.1834778785705566, -5.040715217590332, -0.816650390625, -0.016845703125, 0.001220703125, 
88, 3922802639, -0.23122334480285645, 0.6441084146499634, 0.04528571665287018, 0.7277458310127258, 9.50462532043457, -2.7320380210876465, 1.8692340850830078, 2.249749183654785, -2.3614916801452637, -4.210147857666016, -0.820068359375, -0.01953125, 0.001220703125, 
89, 3922810972, -0.23118829727172852, 0.6440988183021545, 0.04556278884410858, 0.7277480959892273, 9.534785270690918, -2.746518850326538, 1.873419165611267, 2.3864524364471436, -1.3282389640808105, -2.9703164100646973, -0.815673828125, -0.020263671875, 0.0048828125, 
90, 3922819305, -0.23122252523899078, 0.6440433859825134, 0.04575871676206589, 0.7277740240097046, 9.548051834106445, -2.728078603744507, 1.8787003755569458, 2.065519332885742, -0.28667452931404114, -1.7112613916397095, -0.818603515625, -0.018798828125, 0.003662109375, 
91, 3922827638, -0.2312730997800827, 0.6439533233642578, 0.045822106301784515, 0.7278338074684143, 9.515870094299316, -2.674804925918579, 1.8912684917449951, 1.2284587621688843, 0.7202210426330566, -0.45463991165161133, -0.815673828125, -0.018310546875, 0.001708984375, 
92, 3922835971, -0.2313368022441864, 0.6438477635383606, 0.04576272517442703, 0.7279105186462402, 9.537679672241211, -2.6373534202575684, 1.872135043144226, 0.04869266226887703, 1.4571682214736938, 0.6760877370834351, -0.817626953125, -0.01953125, -0.002197265625, 
93, 3922844304, -0.23136529326438904, 0.6437492966651917, 0.045563019812107086, 0.7280011177062988, 9.53138542175293, -2.5809221267700195, 1.8593562841415405, -1.5940762758255005, 1.9002304077148438, 1.5506216287612915, -0.816650390625, -0.017333984375, 0.001220703125, 
94, 3922852637, -0.23135694861412048, 0.6436686515808105, 0.04526422172784805, 0.7280935049057007, 9.528420448303223, -2.54646372795105, 1.8311653137207031, -2.9714303016662598, 2.035268545150757, 2.057373523712158, -0.819580078125, -0.019775390625, 0.001708984375, 
95, 3922860970, -0.23130597174167633, 0.643615186214447, 0.044875964522361755, 0.7281812429428101, 9.49858570098877, -2.5499327182769775, 1.820521593093872, -4.326833248138428, 1.974460482597351, 2.460644245147705, -0.820068359375, -0.018798828125, 0.001708984375, 
96, 3922869303, -0.2312350869178772, 0.6435877084732056, 0.04444506764411926, 0.7282542586326599, 9.478191375732422, -2.530792236328125, 1.7983938455581665, -4.854922294616699, 1.6750301122665405, 2.7197322845458984, -0.816650390625, -0.020263671875, 0.001220703125, 
97, 3922877636, -0.2311880737543106, 0.6435813903808594, 0.04399926960468292, 0.7283018231391907, 9.486132621765137, -2.534668207168579, 1.7800272703170776, -4.992406845092773, 1.3312231302261353, 3.1675846576690674, -0.816162109375, -0.017822265625, 0.000244140625, 
98, 3922885969, -0.2311774343252182, 0.6435916423797607, 0.043550118803977966, 0.7283232808113098, 9.47691535949707, -2.5209858417510986, 1.7587083578109741, -4.733267307281494, 0.9702416062355042, 3.6451618671417236, -0.817138671875, -0.019775390625, 0.000244140625, 
99, 3922894302, -0.2312113344669342, 0.6436019539833069, 0.043116383254528046, 0.7283291816711426, 9.485513687133789, -2.5106513500213623, 1.7497477531433105, -4.183150768280029, 0.8080523014068604, 4.013289928436279, -0.815673828125, -0.017578125, -0.003173828125, 
100, 3922902635, -0.2312851995229721, 0.6435993313789368, 0.04267171770334244, 0.728334367275238, 9.487672805786133, -2.4517486095428467, 1.7371087074279785, -3.902008533477783, 0.9924747347831726, 4.493633270263672, -0.817138671875, -0.016845703125, -0.001708984375, 
101, 3922910968, -0.23139122128486633, 0.6435794234275818, 0.04221085458993912, 0.7283450961112976, 9.502667427062988, -2.393770217895508, 1.7224472761154175, -3.724553108215332, 1.2832731008529663, 4.942676067352295, -0.817626953125, -0.014404296875, -0.000732421875, 
102, 3922919301, -0.2315078228712082, 0.6435232162475586, 0.0417325422167778, 0.7283850908279419, 9.521323204040527, -2.336064100265503, 1.7002590894699097, -3.817904233932495, 1.9978973865509033, 5.057286739349365, -0.819091796875, -0.013916015625, -0.00390625, 
103, 3922927634, -0.2315986454486847, 0.6434630155563354, 0.041213713586330414, 0.7284389138221741, 9.517029762268066, -2.265822410583496, 1.6888397932052612, -4.334658145904541, 2.2427823543548584, 5.142467498779297, -0.813720703125, -0.012939453125, -0.004638671875, 
104, 3922935967, -0.2316720187664032, 0.6433860659599304, 0.04066890478134155, 0.7285144329071045, 9.490553855895996, -2.2318270206451416, 1.6776103973388672, -4.689286708831787, 2.672051429748535, 5.11190938949585, -0.816650390625, -0.015380859375, -0.001220703125, 
105, 3922944300, -0.23172849416732788, 0.6433067321777344, 0.04012394696474075, 0.7285968065261841, 9.465746879577637, -2.189631223678589, 1.6227972507476807, -4.857138156890869, 2.7525317668914795, 4.928768157958984, -0.815673828125, -0.013427734375, -0.001708984375, 
106, 3922952633, -0.23177330195903778, 0.6432283520698547, 0.03959955275058746, 0.7286802530288696, 9.466468811035156, -2.169590950012207, 1.5918558835983276, -4.730385780334473, 2.6739470958709717, 4.621500492095947, -0.817626953125, -0.013916015625, -0.00537109375, 
107, 3922960966, -0.2318011075258255, 0.6431657671928406, 0.03911535441875458, 0.7287527918815613, 9.43713665008545, -2.131927251815796, 1.5744726657867432, -4.548959732055664, 2.286390542984009, 4.143858432769775, -0.81591796875, -0.010009765625, -0.00244140625, 
108, 3922969299, -0.2318265736103058, 0.6431162357330322, 0.03870820254087448, 0.7288101315498352, 9.3867769241333, -2.1394224166870117, 1.5113252401351929, -3.8301994800567627, 1.7771539688110352, 3.485623359680176, -0.81591796875, -0.010986328125, -0.001953125, 
109, 3922977632, -0.23184072971343994, 0.6430798768997192, 0.038373835384845734, 0.7288553714752197, 9.389376640319824, -2.1355576515197754, 1.5243968963623047, -3.2364485263824463, 1.2970536947250366, 2.7845492362976074, -0.815673828125, -0.010986328125, -0.00537109375, 
110, 3922985965, -0.23187026381492615, 0.6430647969245911, 0.03815225511789322, 0.7288709282875061, 9.38751220703125, -2.1151821613311768, 1.5023678541183472, -2.1970736980438232, 0.5193029642105103, 2.005722761154175, -0.8173828125, -0.010498046875, -0.00341796875, 
111, 3922994298, -0.23189161717891693, 0.6430637240409851, 0.03804194927215576, 0.7288708686828613, 9.391432762145996, -2.140044689178467, 1.5286767482757568, -1.017102837562561, -0.1662748008966446, 1.0368642807006836, -0.81787109375, -0.010009765625, -0.00439453125, 
112, 3923002631, -0.23191511631011963, 0.6430819034576416, 0.03805479407310486, 0.7288464903831482, 9.410094261169434, -2.141268014907837, 1.563368320465088, 0.13702334463596344, -0.9492123126983643, 0.04120049998164177, -0.819091796875, -0.01220703125, -0.0068359375, 
113, 3923010964, -0.23194748163223267, 0.6431043744087219, 0.03818549960851669, 0.7288095951080322, 9.431092262268066, -2.1855225563049316, 1.6015981435775757, 1.4414536952972412, -1.4908764362335205, -0.8545676469802856, -0.816162109375, -0.011962890625, -0.00390625, 
114, 3923019297, -0.23200182616710663, 0.6431174874305725, 0.03844180703163147, 0.7287673354148865, 9.449275016784668, -2.238335609436035, 1.667032241821289, 2.8739683628082275, -1.8176758289337158, -1.7477744817733765, -0.817138671875, -0.01171875, -0.0078125, 
115, 3923027630, -0.23207451403141022, 0.6431049108505249, 0.038794055581092834, 0.7287366986274719, 9.490055084228516, -2.285166025161743, 1.6790894269943237, 4.126171588897705, -1.770391821861267, -2.448221445083618, -0.818359375, -0.010009765625, -0.00439453125, 
116, 3923035963, -0.23218011856079102, 0.6430476903915405, 0.03920072317123413, 0.7287318110466003, 9.523764610290527, -2.327399492263794, 1.7297064065933228, 5.0987443923950195, -1.2499362230300903, -2.7081034183502197, -0.814697265625, -0.010986328125, -0.003173828125, 
117, 3923044296, -0.23229777812957764, 0.642952024936676, 0.039616771042346954, 0.7287560701370239, 9.53433895111084, -2.338015079498291, 1.7645504474639893, 5.3983283042907715, -0.6307633519172668, -2.7821028232574463, -0.8154296875, -0.008544921875, -0.001953125, 
118, 3923052629, -0.2324177324771881, 0.6428041458129883, 0.03997967392206192, 0.7288285493850708, 9.538117408752441, -2.3400871753692627, 1.7719796895980835, 5.047976970672607, 0.4860813617706299, -2.471889019012451, -0.815185546875, -0.011474609375, -0.002685546875, 
119, 3923060962, -0.2325226068496704, 0.6426275372505188, 0.0402735099196434, 0.7289347052574158, 9.557276725769043, -2.3441693782806396, 1.7621020078659058, 4.274631500244141, 1.286295771598816, -2.134600877761841, -0.81787109375, -0.009033203125, -0.00537109375, 
120, 3923069295, -0.23259474337100983, 0.6424399614334106, 0.04049637168645859, 0.7290644645690918, 9.538738250732422, -2.337989568710327, 1.7486231327056885, 3.1607964038848877, 1.8546241521835327, -1.9459774494171143, -0.8203125, -0.011474609375, -0.005859375, 
121, 3923077628, -0.23258930444717407, 0.6422685384750366, 0.04063244163990021, 0.7292096614837646, 9.506401062011719, -2.3653955459594727, 1.747721791267395, 1.6794612407684326, 2.022487163543701, -1.9692223072052002, -0.817138671875, -0.01416015625, -0.0078125, 
122, 3923085961, -0.2325015813112259, 0.6421359777450562, 0.04068708419799805, 0.7293514609336853, 9.473465919494629, -2.3957743644714355, 1.7399264574050903, 0.5555471777915955, 1.6775275468826294, -1.9482316970825195, -0.814697265625, -0.010498046875, -0.007080078125, 
123, 3923094294, -0.23240536451339722, 0.642048716545105, 0.04074961692094803, 0.7294554114341736, 9.45418930053711, -2.440070867538452, 1.7470251321792603, -0.10582520812749863, 0.9998772740364075, -2.0501248836517334, -0.81982421875, -0.010986328125, -0.0048828125, 
124, 3923102627, -0.23229911923408508, 0.6419991850852966, 0.04082656651735306, 0.7295286059379578, 9.440046310424805, -2.5017387866973877, 1.7484334707260132, -0.09137878566980362, 0.2857011556625366, -2.1522488594055176, -0.812255859375, -0.015380859375, -0.005615234375, 
125, 3923110960, -0.23221713304519653, 0.6419678926467896, 0.040953949093818665, 0.7295751571655273, 9.446170806884766, -2.5698914527893066, 1.7674992084503174, 0.523913562297821, -0.26952576637268066, -2.265848159790039, -0.813720703125, -0.014404296875, -0.007080078125, 
126, 3923119293, -0.23220908641815186, 0.6419289112091064, 0.041142985224723816, 0.7296012043952942, 9.486449241638184, -2.6065242290496826, 1.7792073488235474, 1.6981470584869385, -0.4891678988933563, -2.0368826389312744, -0.816162109375, -0.012939453125, -0.005859375, 
127, 3923127626, -0.23226819932460785, 0.6418641805648804, 0.04137071967124939, 0.7296265959739685, 9.523191452026367, -2.6361026763916016, 1.8085777759552002, 2.8953816890716553, -0.3603794574737549, -1.6863771677017212, -0.815673828125, -0.01416015625, -0.009765625, 
128, 3923135959, -0.23241682350635529, 0.6417644023895264, 0.041635334491729736, 0.7296518087387085, 9.562972068786621, -2.6622557640075684, 1.8402509689331055, 4.02691650390625, -0.036487482488155365, -1.166766881942749, -0.815185546875, -0.012939453125, -0.007080078125, 
129, 3923144292, -0.23261991143226624, 0.6416353583335876, 0.04188051074743271, 0.7296867370605469, 9.561022758483887, -2.6664505004882812, 1.8710218667984009, 4.541595935821533, 0.3942159116268158, -0.4636176526546478, -0.816162109375, -0.012451171875, -0.003662109375, 
130, 3923152625, -0.2328644096851349, 0.6414939165115356, 0.04209919273853302, 0.7297203540802002, 9.556605339050293, -2.6529037952423096, 1.9227235317230225, 4.5248703956604, 0.6597586870193481, 0.14552727341651917, -0.817626953125, -0.0146484375, -0.00537109375, 
131, 3923160958, -0.23310965299606323, 0.6413428783416748, 0.04223860055208206, 0.7297667860984802, 9.562723159790039, -2.6354188919067383, 1.9183942079544067, 3.9154815673828125, 1.0800882577896118, 0.8430028557777405, -0.812744140625, -0.013427734375, -0.007080078125, 
132, 3923169291, -0.23334051668643951, 0.641183614730835, 0.042252592742443085, 0.7298322319984436, 9.550006866455078, -2.5758163928985596, 1.9113577604293823, 2.4657797813415527, 1.7457892894744873, 1.7166659832000732, -0.814208984375, -0.014404296875, -0.004150390625, 
133, 3923177624, -0.23352953791618347, 0.6410118341445923, 0.042123667895793915, 0.7299301028251648, 9.539640426635742, -2.515916109085083, 1.9071069955825806, 0.7636116743087769, 2.570849895477295, 2.466830253601074, -0.815673828125, -0.013671875, -0.007080078125, 
134, 3923185957, -0.23366129398345947, 0.6408366560935974, 0.04182121902704239, 0.7300592064857483, 9.508021354675293, -2.4653124809265137, 1.8505539894104004, -1.5081149339675903, 3.409677743911743, 3.307553768157959, -0.817138671875, -0.01171875, -0.00830078125, 
135, 3923194290, -0.23374973237514496, 0.6406537294387817, 0.04138534516096115, 0.7302162647247314, 9.480085372924805, -2.428166151046753, 1.8290979862213135, -3.2023043632507324, 4.131012439727783, 3.966517925262451, -0.818115234375, -0.01220703125, -0.00732421875, 
136, 3923202623, -0.23380032181739807, 0.640480101108551, 0.04085433483123779, 0.7303821444511414, 9.427949905395508, -2.4014525413513184, 1.7885090112686157, -4.483938694000244, 4.387871742248535, 4.400218486785889, -0.814697265625, -0.011474609375, -0.00927734375, 
137, 3923210956, -0.23382684588432312, 0.6403248906135559, 0.04028989374637604, 0.7305410504341125, 9.386860847473145, -2.377237319946289, 1.754189133644104, -5.129033088684082, 4.2474045753479, 4.487947940826416, -0.815673828125, -0.01123046875, -0.0107421875, 
138, 3923219289, -0.233843594789505, 0.6402024030685425, 0.039738863706588745, 0.7306732535362244, 9.35659122467041, -2.3657467365264893, 1.7229169607162476, -5.034234523773193, 3.598031520843506, 4.391380786895752, -0.817138671875, -0.01171875, -0.00830078125, 
139, 3923227622, -0.23387302458286285, 0.640108585357666, 0.03924648463726044, 0.7307724952697754, 9.338068962097168, -2.339442014694214, 1.7126444578170776, -4.545745372772217, 2.876760244369507, 4.106986045837402, -0.815185546875, -0.010009765625, -0.0107421875, 
140, 3923235955, -0.23392528295516968, 0.640034556388855, 0.0388222262263298, 0.7308434247970581, 9.347087860107422, -2.3147799968719482, 1.7066235542297363, -3.702038049697876, 2.2190380096435547, 3.831556558609009, -0.815673828125, -0.008056640625, -0.0107421875, 
141, 3923244288, -0.23399531841278076, 0.6399710774421692, 0.03847299516201019, 0.7308952212333679, 9.371010780334473, -2.2744481563568115, 1.6818681955337524, -2.820216655731201, 1.714130163192749, 3.425058603286743, -0.81884765625, -0.008056640625, -0.009521484375, 
142, 3923252621, -0.23406247794628143, 0.639904797077179, 0.03820936381816864, 0.7309454083442688, 9.349871635437012, -2.260089159011841, 1.6962374448776245, -1.972206473350525, 1.4523272514343262, 2.6369857788085938, -0.815673828125, -0.0107421875, -0.0205078125, 
143, 3923260954, -0.23413585126399994, 0.6398213505744934, 0.0380014106631279, 0.7310057878494263, 9.3954496383667, -2.238023519515991, 1.7085877656936646, -1.311359167098999, 1.5359832048416138, 2.1777737140655518, -0.813720703125, -0.008056640625, -0.009765625, 
144, 3923269287, -0.23420101404190063, 0.6397254467010498, 0.03783240169286728, 0.7310776710510254, 9.390602111816406, -2.2260208129882812, 1.7074058055877686, -0.9519402384757996, 1.6345723867416382, 1.7018097639083862, -0.815185546875, -0.00830078125, -0.01318359375, 
145, 3923277620, -0.23426757752895355, 0.639611005783081, 0.037705838680267334, 0.7311631441116333, 9.397294044494629, -2.222712755203247, 1.7295013666152954, -0.4667041599750519, 1.8040363788604736, 1.2949275970458984, -0.814697265625, -0.006103515625, -0.01123046875, 
146, 3923285953, -0.23431843519210815, 0.6394771933555603, 0.037614576518535614, 0.7312682867050171, 9.421174049377441, -2.256920337677002, 1.7124112844467163, -0.201443150639534, 2.053262710571289, 0.7452461123466492, -0.814697265625, -0.005126953125, -0.01318359375, 
147, 3923294286, -0.23437824845314026, 0.6393202543258667, 0.037571728229522705, 0.731388509273529, 9.413002014160156, -2.2627339363098145, 1.7189911603927612, 0.4356212913990021, 2.2632482051849365, 0.3568319082260132, -0.819091796875, -0.00732421875, -0.011474609375, 
148, 3923302619, -0.23444941639900208, 0.6391499042510986, 0.037556253373622894, 0.7315154671669006, 9.400187492370605, -2.292281150817871, 1.7341086864471436, 0.7801071405410767, 2.3951613903045654, 0.1831417679786682, -0.813232421875, -0.005615234375, -0.0126953125, 
149, 3923310952, -0.2345302700996399, 0.6389714479446411, 0.03756115585565567, 0.7316453456878662, 9.4151029586792, -2.3337018489837646, 1.7151165008544922, 1.1658064126968384, 2.422440767288208, 0.10635031014680862, -0.815185546875, -0.00634765625, -0.015625, 
150, 3923319285, -0.23462975025177002, 0.6387972831726074, 0.037593334913253784, 0.7317636609077454, 9.432998657226562, -2.3425211906433105, 1.7407339811325073, 1.4040443897247314, 2.251542329788208, 0.052099354565143585, -0.814208984375, -0.005615234375, -0.01220703125, 
151, 3923327618, -0.23473863303661346, 0.6386414170265198, 0.03762476146221161, 0.731863260269165, 9.43223762512207, -2.3698716163635254, 1.7578685283660889, 1.6206638813018799, 1.8593629598617554, 0.2660295069217682, -0.816162109375, -0.005859375, -0.015625, 
152, 3923335951, -0.234838604927063, 0.6385099291801453, 0.037660300731658936, 0.7319440841674805, 9.393265724182129, -2.3958663940429688, 1.7823779582977295, 1.5107531547546387, 1.4319381713867188, 0.20557983219623566, -0.815673828125, -0.0078125, -0.01708984375, 
153, 3923344284, -0.23492586612701416, 0.6384032368659973, 0.0376792848110199, 0.7320082187652588, 9.287415504455566, -2.386474609375, 1.774033784866333, 1.1659088134765625, 1.0805622339248657, 0.2970995306968689, -0.815673828125, -0.004638671875, -0.0146484375, 
154, 3923352617, -0.23498821258544922, 0.638311505317688, 0.03763153403997421, 0.7320705652236938, 9.224471092224121, -2.3389368057250977, 1.735923409461975, -0.0027919516433030367, 1.1818535327911377, 0.5946728587150574, -0.816162109375, -0.004150390625, -0.013671875, 
155, 3923360950, -0.23498883843421936, 0.6382180452346802, 0.03744275122880936, 0.7321616411209106, 9.205608367919922, -2.2759175300598145, 1.7194122076034546, -1.74404776096344, 1.809709906578064, 1.1687648296356201, -0.815673828125, -0.005859375, -0.015625, 
156, 3923369283, -0.23493795096874237, 0.6381272077560425, 0.03711734712123871, 0.7322736382484436, 9.202770233154297, -2.2318313121795654, 1.6941874027252197, -3.8164315223693848, 2.444340944290161, 1.7336227893829346, -0.813232421875, -0.00634765625, -0.0166015625, 
157, 3923377616, -0.23479902744293213, 0.6380589604377747, 0.036632150411605835, 0.7324020862579346, 9.2299165725708, -2.230191469192505, 1.7038160562515259, -6.052861213684082, 2.7715625762939453, 2.2559993267059326, -0.814208984375, -0.00634765625, -0.015625, 
158, 3923385949, -0.2345907986164093, 0.6380252242088318, 0.03606462478637695, 0.7325263023376465, 9.254066467285156, -2.234576463699341, 1.7264330387115479, -7.534926414489746, 2.5997421741485596, 2.32021427154541, -0.814697265625, -0.00634765625, -0.01611328125, 
159, 3923394282, -0.23432397842407227, 0.6380340456962585, 0.03549392521381378, 0.732632040977478, 9.22130012512207, -2.3012545108795166, 1.7231981754302979, -8.274589538574219, 2.007925510406494, 1.8311105966567993, -0.815673828125, -0.003662109375, -0.014892578125, 
160, 3923402615, -0.23402690887451172, 0.6380778551101685, 0.034984976053237915, 0.7327133417129517, 9.12778377532959, -2.314035654067993, 1.700627326965332, -8.156532287597656, 1.266367793083191, 1.047237753868103, -0.816162109375, -0.0048828125, -0.018798828125, 
161, 3923410948, -0.23371031880378723, 0.6381506323814392, 0.03454827517271042, 0.7327715754508972, 9.088038444519043, -2.275143623352051, 1.6515051126480103, -7.54373836517334, 0.49058955907821655, 0.33797985315322876, -0.815185546875, -0.0068359375, -0.01904296875, 
162, 3923419281, -0.2334042340517044, 0.6382171511650085, 0.034166619181632996, 0.7328290939331055, 9.15886116027832, -2.2535974979400635, 1.6548199653625488, -6.932453632354736, 0.39225637912750244, -0.05644096061587334, -0.815673828125, -0.00341796875, -0.018798828125, 
163, 3923427614, -0.2331065982580185, 0.6382468342781067, 0.03378397226333618, 0.7329156398773193, 9.160945892333984, -2.261467933654785, 1.6274433135986328, -6.706844806671143, 1.0089191198349, -0.05746553838253021, -0.815673828125, -0.0068359375, -0.01416015625, 
164, 3923435947, -0.23281806707382202, 0.6382443308830261, 0.03340645134449005, 0.7330269813537598, 9.172231674194336, -2.266050338745117, 1.604447364807129, -6.812028408050537, 1.6309735774993896, -0.1726655513048172, -0.818115234375, -0.00341796875, -0.019775390625, 
165, 3923444280, -0.23247572779655457, 0.638217568397522, 0.0329863503575325, 0.7331778407096863, 9.22751522064209, -2.2375965118408203, 1.5708776712417603, -7.3266706466674805, 2.242180585861206, -0.41049376130104065, -0.817138671875, -0.0029296875, -0.017333984375, 
166, 3923452613, -0.23209428787231445, 0.6382099390029907, 0.03255642205476761, 0.7333246469497681, 9.26812744140625, -2.232701539993286, 1.5586470365524292, -8.137040138244629, 2.1145317554473877, -0.7609860301017761, -0.815185546875, -0.0048828125, -0.01806640625, 
167, 3923460946, -0.2316248118877411, 0.6382508277893066, 0.0321166068315506, 0.7334569096565247, 9.31395149230957, -2.2290921211242676, 1.540209412574768, -8.849347114562988, 1.4009194374084473, -1.4306191205978394, -0.813720703125, -0.0048828125, -0.0185546875, 
168, 3923469279, -0.23109441995620728, 0.6383531093597412, 0.03173249214887619, 0.7335517406463623, 9.369464874267578, -2.2603418827056885, 1.5221587419509888, -9.101238250732422, 0.2825762629508972, -2.408493995666504, -0.814208984375, -0.00390625, -0.01904296875, 
169, 3923477612, -0.23051555454730988, 0.6385126113891602, 0.031434379518032074, 0.7336080074310303, 9.432805061340332, -2.3218936920166016, 1.5287816524505615, -8.724811553955078, -0.9598808884620667, -3.485445022583008, -0.817626953125, -0.00634765625, -0.019775390625, 
170, 3923485945, -0.22992819547653198, 0.6387020349502563, 0.031277455389499664, 0.7336342334747314, 9.52917194366455, -2.432919979095459, 1.5445228815078735, -7.500117301940918, -1.9584773778915405, -4.7098565101623535, -0.815185546875, -0.00341796875, -0.020751953125, 
171, 3923494278, -0.22939357161521912, 0.6388868689537048, 0.03129700571298599, 0.7336395978927612, 9.614039421081543, -2.5204381942749023, 1.5440468788146973, -5.188714981079102, -2.651240110397339, -5.65571403503418, -0.813720703125, -0.0068359375, -0.02001953125, 
172, 3923502611, -0.22898615896701813, 0.6390382051467896, 0.031513236463069916, 0.7336260080337524, 9.696983337402344, -2.6489338874816895, 1.5610660314559937, -1.9781489372253418, -3.0340700149536133, -6.0569844245910645, -0.817138671875, -0.00732421875, -0.019287109375, 
173, 3923510944, -0.228743314743042, 0.6391514539718628, 0.03193181753158569, 0.7335848212242126, 9.738739967346191, -2.7488763332366943, 1.5897897481918335, 1.6464061737060547, -3.467924118041992, -6.10175895690918, -0.816162109375, -0.0068359375, -0.019775390625, 
174, 3923519277, -0.22867733240127563, 0.6392316222190857, 0.03250882774591446, 0.7335102558135986, 9.745841979980469, -2.830648422241211, 1.5994508266448975, 4.9831342697143555, -3.8576314449310303, -5.610900402069092, -0.815673828125, -0.00830078125, -0.01904296875, 
175, 3923527610, -0.22879767417907715, 0.6392706632614136, 0.03323207050561905, 0.7334065437316895, 9.7362642288208, -2.8536994457244873, 1.639382004737854, 8.173721313476562, -4.066823959350586, -4.952589988708496, -0.816650390625, -0.0078125, -0.018310546875, 
176, 3923535943, -0.2290467619895935, 0.6392965316772461, 0.03399963676929474, 0.7332707047462463, 9.711792945861816, -2.837653160095215, 1.6617982387542725, 9.868626594543457, -4.303818702697754, -3.9404296875, -0.817626953125, -0.007568359375, -0.022705078125, 
177, 3923544276, -0.22939924895763397, 0.6393174529075623, 0.034766100347042084, 0.7331065535545349, 9.722874641418457, -2.812008857727051, 1.6953229904174805, 10.734569549560547, -4.442879676818848, -2.8096389770507812, -0.814697265625, -0.0087890625, -0.0146484375, 
178, 3923552609, -0.22977620363235474, 0.6393555402755737, 0.03546144813299179, 0.7329218983650208, 9.68647575378418, -2.778888463973999, 1.735565185546875, 10.294514656066895, -4.580376148223877, -1.8494631052017212, -0.816162109375, -0.01123046875, -0.01513671875, 
179, 3923560942, -0.23017624020576477, 0.6394107341766357, 0.03608065843582153, 0.7327179908752441, 9.662978172302246, -2.7682809829711914, 1.7885135412216187, 9.578675270080566, -4.649688243865967, -0.893437385559082, -0.816162109375, -0.01025390625, -0.0166015625, 
180, 3923569275, -0.23056840896606445, 0.6394997239112854, 0.03659284859895706, 0.7324915528297424, 9.645901679992676, -2.771933078765869, 1.8155310153961182, 8.485868453979492, -4.882700443267822, 0.077226921916008, -0.816162109375, -0.01123046875, -0.017578125, 
181, 3923577608, -0.23096662759780884, 0.6396263241767883, 0.03703724592924118, 0.7322332262992859, 9.64531135559082, -2.7845630645751953, 1.870010495185852, 7.603126049041748, -5.297216415405273, 0.8337178826332092, -0.815673828125, -0.010498046875, -0.021484375, 
182, 3923585941, -0.2313859760761261, 0.6397688984870911, 0.037428051233291626, 0.731956422328949, 9.61972427368164, -2.7862181663513184, 1.8947252035140991, 7.282947063446045, -5.447751522064209, 1.5913870334625244, -0.818603515625, -0.00927734375, -0.01220703125, 
183, 3923594274, -0.23183679580688477, 0.6399211287498474, 0.03778885304927826, 0.7316619157791138, 9.590805053710938, -2.780641794204712, 1.9492110013961792, 7.162879943847656, -5.579037189483643, 2.226069450378418, -0.819580078125, -0.01171875, -0.014404296875, 
184, 3923602607, -0.23232802748680115, 0.6400541663169861, 0.03812351077795029, 0.7313722968101501, 9.566899299621582, -2.7574350833892822, 1.9776216745376587, 7.340363502502441, -5.236344814300537, 2.832742929458618, -0.812744140625, -0.01025390625, -0.012451171875, 
185, 3923610940, -0.23284795880317688, 0.64014732837677, 0.03842626512050629, 0.731109619140625, 9.547847747802734, -2.6930010318756104, 1.9965782165527344, 7.357203006744385, -4.484374523162842, 3.3011374473571777, -0.814697265625, -0.007080078125, -0.01318359375, 
186, 3923619273, -0.23338139057159424, 0.6401909589767456, 0.038658641278743744, 0.7308889627456665, 9.526914596557617, -2.6504170894622803, 2.0165412425994873, 7.096653938293457, -3.4265058040618896, 3.918926954269409, -0.814697265625, -0.007080078125, -0.00927734375, 
187, 3923627606, -0.23392833769321442, 0.6401836276054382, 0.03883597254753113, 0.7307112216949463, 9.482963562011719, -2.6140716075897217, 1.9912526607513428, 6.612186431884766, -2.3104424476623535, 4.351166725158691, -0.813720703125, -0.008056640625, -0.01123046875, 
188, 3923635939, -0.23443450033664703, 0.6401408314704895, 0.03890664875507355, 0.7305827140808105, 9.409721374511719, -2.565836191177368, 2.009523868560791, 5.3905415534973145, -1.222887635231018, 4.713224411010742, -0.812744140625, -0.007080078125, -0.0126953125, 
189, 3923644272, -0.2349209487438202, 0.6400706768035889, 0.03891994059085846, 0.7304871678352356, 9.352981567382812, -2.51768159866333, 1.9904476404190063, 4.588918685913086, -0.4589174687862396, 4.888092994689941, -0.813720703125, -0.009765625, -0.013671875, 
190, 3923652605, -0.23537085950374603, 0.6400049924850464, 0.03888324648141861, 0.730401873588562, 9.304887771606445, -2.5203816890716553, 1.987235188484192, 3.6451363563537598, -0.24001821875572205, 4.899542331695557, -0.814208984375, -0.004638671875, -0.01220703125, 
191, 3923660938, -0.2357603907585144, 0.6399518251419067, 0.03879489004611969, 0.7303275465965271, 9.245698928833008, -2.5086071491241455, 1.9581732749938965, 2.6506636142730713, -0.1652502566576004, 4.7494940757751465, -0.813232421875, -0.005126953125, -0.013671875, 
192, 3923669271, -0.23611745238304138, 0.6399131417274475, 0.03868585824966431, 0.7302518486976624, 9.245302200317383, -2.511655330657959, 1.9348711967468262, 2.0490620136260986, -0.2514421343803406, 4.595757484436035, -0.816162109375, -0.0068359375, -0.01513671875, 
193, 3923677604, -0.23644748330116272, 0.6398741006851196, 0.03853462636470795, 0.7301872372627258, 9.232616424560547, -2.490837812423706, 1.9108518362045288, 1.4431573152542114, -0.05111320689320564, 4.6810526847839355, -0.814208984375, -0.006591796875, -0.01123046875, 
194, 3923685937, -0.23675154149532318, 0.6398323178291321, 0.038330212235450745, 0.730135977268219, 9.225831031799316, -2.444385051727295, 1.888922095298767, 0.6910208463668823, 0.2566290497779846, 4.831997871398926, -0.815185546875, -0.003173828125, -0.01513671875, 
195, 3923694270, -0.237014502286911, 0.6397748589515686, 0.03805520385503769, 0.7301154136657715, 9.230913162231445, -2.393662691116333, 1.8596469163894653, -0.35400155186653137, 0.8887884020805359, 4.944854259490967, -0.812744140625, -0.004150390625, -0.01416015625, 
196, 3923702603, -0.23722782731056213, 0.6397138237953186, 0.03769747167825699, 0.7301182150840759, 9.240914344787598, -2.3590996265411377, 1.805716633796692, -1.5547200441360474, 1.3603209257125854, 5.0952606201171875, -0.814453125, -0.001220703125, -0.01416015625, 
197, 3923710936, -0.23739764094352722, 0.6396493911743164, 0.03727204352617264, 0.7301414608955383, 9.252482414245605, -2.3374276161193848, 1.7970128059387207, -2.682361364364624, 1.787463903427124, 5.186089038848877, -0.814208984375, -0.004150390625, -0.01513671875, 
198, 3923719269, -0.23751670122146606, 0.639585018157959, 0.03682446479797363, 0.7301816940307617, 9.240795135498047, -2.3419198989868164, 1.7598956823349, -3.379990577697754, 1.990559458732605, 4.79939079284668, -0.814208984375, -0.002685546875, -0.015625, 
199, 3923727602, -0.23758766055107117, 0.639543354511261, 0.03638532757759094, 0.7302171587944031, 9.237971305847168, -2.3315744400024414, 1.7638967037200928, -3.7718372344970703, 1.66044282913208, 4.284467697143555, -0.814453125, 0.002197265625, -0.017822265625, 
200, 3923735935, -0.23763760924339294, 0.6395277976989746, 0.035990528762340546, 0.7302340865135193, 9.25094985961914, -2.366584539413452, 1.7418572902679443, -3.7368738651275635, 1.1262836456298828, 3.7179064750671387, -0.818359375, -0.000732421875, -0.013916015625, 
201, 3923744268, -0.2376781553030014, 0.6395255923271179, 0.035651735961437225, 0.7302393317222595, 9.292397499084473, -2.3880536556243896, 1.7273058891296387, -3.1449286937713623, 0.6537777781486511, 3.216148853302002, -0.81591796875, -0.000244140625, -0.016357421875, 
202, 3923752601, -0.23773282766342163, 0.6395317316055298, 0.03538140654563904, 0.7302294373512268, 9.32689094543457, -2.401158094406128, 1.7243424654006958, -2.37729549407959, 0.2319113165140152, 2.7928736209869385, -0.81396484375, 0.001708984375, -0.016357421875, 
203, 3923760934, -0.2378184199333191, 0.6395280361175537, 0.03517438471317291, 0.7302149534225464, 9.374390602111816, -2.4121406078338623, 1.723167896270752, -1.4095128774642944, 0.08739577233791351, 2.5725913047790527, -0.81298828125, 0.003662109375, -0.018310546875, 
204, 3923769267, -0.23793122172355652, 0.6395065188407898, 0.03500588238239288, 0.7302049994468689, 9.425995826721191, -2.4098827838897705, 1.7055364847183228, -0.7174931764602661, 0.19290082156658173, 2.4765124320983887, -0.814453125, 0.00537109375, -0.013916015625, 
205, 3923777600, -0.23806101083755493, 0.6394754648208618, 0.03484506905078888, 0.730197548866272, 9.443642616271973, -2.4299376010894775, 1.6690274477005005, -0.4713403582572937, 0.2960493564605713, 2.5738978385925293, -0.813232421875, 0.000732421875, -0.01806640625, 
206, 3923785933, -0.23819507658481598, 0.639440655708313, 0.03466964513063431, 0.7301927208900452, 9.459698677062988, -2.3879106044769287, 1.7016911506652832, -0.5471840500831604, 0.4031168222427368, 2.7290940284729004, -0.8154296875, 0.002197265625, -0.020751953125, 
207, 3923794266, -0.2383195161819458, 0.6394106149673462, 0.03446899354457855, 0.7301878929138184, 9.466291427612305, -2.3998234272003174, 1.6573824882507324, -0.9226375222206116, 0.43505775928497314, 2.862313747406006, -0.81689453125, 0.001708984375, -0.015869140625, 
208, 3923802599, -0.2384418547153473, 0.6393872499465942, 0.03424245864152908, 0.7301790118217468, 9.482519149780273, -2.368198871612549, 1.657444953918457, -1.2681224346160889, 0.433879554271698, 3.0670742988586426, -0.81201171875, 0.003173828125, -0.01708984375, 
209, 3923810932, -0.23855853080749512, 0.6393833756446838, 0.03399983048439026, 0.7301557660102844, 9.466974258422852, -2.3884177207946777, 1.6330029964447021, -1.4888916015625, 0.1452583223581314, 3.228034257888794, -0.81396484375, 0.004638671875, -0.015869140625, 
210, 3923819265, -0.23867249488830566, 0.6393947005271912, 0.03376324474811554, 0.7301194667816162, 9.483909606933594, -2.39172101020813, 1.6085578203201294, -1.4908126592636108, -0.14101918041706085, 3.1876916885375977, -0.8134765625, 0.001220703125, -0.017822265625, 
211, 3923827598, -0.2388070970773697, 0.6394264101982117, 0.03357096016407013, 0.7300565838813782, 9.493820190429688, -2.379077196121216, 1.6157591342926025, -0.9249940514564514, -0.7179542183876038, 3.1106441020965576, -0.81494140625, 0.006103515625, -0.019775390625, 
212, 3923835931, -0.2389693409204483, 0.6394843459129333, 0.033447518944740295, 0.7299584746360779, 9.517026901245117, -2.360725164413452, 1.6258403062820435, 0.045567724853754044, -1.5295156240463257, 2.922635555267334, -0.81201171875, 0.004638671875, -0.017333984375, 
213, 3923844264, -0.23916035890579224, 0.6395545601844788, 0.03341054171323776, 0.729836106300354, 9.51279067993164, -2.3380792140960693, 1.6291507482528687, 1.0310882329940796, -2.1119706630706787, 2.5242702960968018, -0.8134765625, 0.00830078125, -0.014404296875, 
214, 3923852597, -0.2393966019153595, 0.6396348476409912, 0.03346090018749237, 0.72968590259552, 9.52668285369873, -2.3437914848327637, 1.647255301475525, 2.1040170192718506, -2.666031837463379, 2.2636451721191406, -0.81494140625, 0.007080078125, -0.017333984375, 
215, 3923860930, -0.23964861035346985, 0.639726996421814, 0.03359068185091019, 0.7295163869857788, 9.519060134887695, -2.3549857139587402, 1.67775559425354, 3.1903045177459717, -3.266237735748291, 1.8355162143707275, -0.81591796875, 0.006103515625, -0.016845703125, 
216, 3923869263, -0.23991672694683075, 0.6398111581802368, 0.033782124519348145, 0.7293455004692078, 9.49942398071289, -2.355966567993164, 1.6910011768341064, 3.9641356468200684, -3.3844470977783203, 1.446153998374939, -0.8115234375, 0.00439453125, -0.0166015625, 
217, 3923877596, -0.2401885986328125, 0.6398952603340149, 0.03400851786136627, 0.7291718125343323, 9.497005462646484, -2.3447511196136475, 1.7015295028686523, 4.361796855926514, -3.5316267013549805, 1.1942124366760254, -0.81396484375, 0.004638671875, -0.018310546875, 
218, 3923885929, -0.24044646322727203, 0.6399775743484497, 0.034225381910800934, 0.7290043234825134, 9.492313385009766, -2.3622848987579346, 1.7278249263763428, 4.129399299621582, -3.4232017993927, 1.1069449186325073, -0.8115234375, 0.0078125, -0.015869140625, 
219, 3923894262, -0.2406758964061737, 0.6400594711303711, 0.034421905875205994, 0.7288475036621094, 9.490251541137695, -2.4985604286193848, 1.7569851875305176, 3.6884114742279053, -3.282925605773926, 0.9752748012542725, -0.81298828125, 0.0078125, -0.015380859375, 
220, 3923902595, -0.2408963143825531, 0.6401259303092957, 0.03459785878658295, 0.7287079691886902, 9.48942756652832, -2.557910919189453, 1.7529929876327515, 3.3767249584198, -2.8856360912323, 0.9823315739631653, -0.81201171875, 0.006591796875, -0.019287109375, 
221, 3923910928, -0.24110490083694458, 0.6401997208595276, 0.03470725566148758, 0.728568971157074, 9.496354103088379, -2.653778076171875, 1.7473863363265991, 2.6496129035949707, -2.7675795555114746, 1.4710509777069092, -0.8095703125, 0.0068359375, -0.015625, 
222, 3923919261, -0.2413206696510315, 0.6402998566627502, 0.034725360572338104, 0.728408694267273, 9.579694747924805, -2.9140357971191406, 1.773088812828064, 1.6960465908050537, -2.895855665206909, 2.4176509380340576, -0.8115234375, 0.005859375, -0.01416015625, 
223, 3923927594, -0.24154365062713623, 0.6404417753219604, 0.03456348180770874, 0.7282177209854126, 9.739568710327148, -3.3097496032714844, 1.8409253358840942, -0.14132654666900635, -3.000617742538452, 4.208008766174316, -0.8125, 0.00634765625, -0.012939453125, 
224, 3923935927, -0.24182277917861938, 0.640663743019104, 0.03407613933086395, 0.7279525995254517, 9.979572296142578, -3.7574150562286377, 2.0053107738494873, -3.1202237606048584, -3.3433749675750732, 7.917783260345459, -0.81396484375, 0.0087890625, -0.016845703125, 
225, 3923944260, -0.24224141240119934, 0.6410171389579773, 0.033041827380657196, 0.7275500893592834, 10.353536605834961, -4.4243011474609375, 2.1668388843536377, -7.753673553466797, -3.9882009029388428, 14.6541109085083, -0.81640625, 0.010498046875, -0.02099609375, 
226, 3923952593, -0.24281758069992065, 0.6414706707000732, 0.03142090141773224, 0.7270298004150391, 10.871697425842285, -5.68146276473999, 2.2401087284088135, -12.451919555664062, -4.014252662658691, 21.83871078491211, -0.8134765625, 0.011474609375, -0.011474609375, 
227, 3923960926, -0.24379831552505493, 0.6420038342475891, 0.02919064462184906, 0.7263234853744507, 11.375347137451172, -6.796964645385742, 2.223855495452881, -15.225615501403809, -4.232846260070801, 31.914649963378906, -0.812744140625, 0.015380859375, -0.014404296875, 
228, 3923969259, -0.24535393714904785, 0.6424098610877991, 0.02621687948703766, 0.7255538105964661, 11.739550590515137, -7.744025707244873, 2.3472301959991455, -16.988224029541016, -0.829992413520813, 44.38299560546875, -0.810302734375, 0.02197265625, -0.011962890625, 
229, 3923977592, -0.2475457340478897, 0.6427913904190063, 0.02239956706762314, 0.7245986461639404, 11.996906280517578, -8.262898445129395, 2.3044793605804443, -19.76988983154297, 0.8859482407569885, 58.798831939697266, -0.812744140625, 0.02587890625, -0.01171875, 
230, 3923985925, -0.2502663731575012, 0.6430436968803406, 0.017539992928504944, 0.7235732674598694, 12.248589515686035, -9.098101615905762, 2.2998571395874023, -25.19061851501465, 5.326303482055664, 73.40499114990234, -0.810546875, 0.035400390625, -0.014404296875, 
231, 3923994258, -0.2532704770565033, 0.6432717442512512, 0.011459507048130035, 0.7224461436271667, 12.437463760375977, -10.013920783996582, 2.4822824001312256, -34.55467987060547, 8.87335205078125, 87.4420166015625, -0.80859375, 0.04248046875, -0.011962890625, 
232, 3924002591, -0.2564410865306854, 0.6437349915504456, 0.004237823188304901, 0.7209922671318054, 12.092133522033691, -10.432145118713379, 2.5583653450012207, -44.99653625488281, 7.591653823852539, 100.33551788330078, -0.807861328125, 0.056396484375, -0.0146484375, 
233, 3924010924, -0.25963184237480164, 0.6446102857589722, -0.004051901400089264, 0.7190666198730469, 11.629006385803223, -10.919889450073242, 2.663282871246338, -57.0239372253418, 3.1541807651519775, 111.70941162109375, -0.80419921875, 0.06884765625, -0.01171875, 
234, 3924019257, -0.26273730397224426, 0.645889401435852, -0.013364043086767197, 0.7166741490364075, 11.650291442871094, -11.852733612060547, 2.827648639678955, -69.40825653076172, -1.2911205291748047, 121.47050476074219, -0.80029296875, 0.080810546875, -0.01513671875, 
235, 3924027590, -0.26588428020477295, 0.6473861932754517, -0.023603759706020355, 0.7138936519622803, 11.834271430969238, -12.802201271057129, 2.9993956089019775, -78.98859405517578, -3.5696868896484375, 131.58380126953125, -0.79931640625, 0.099609375, -0.009521484375, 
236, 3924035923, -0.26929205656051636, 0.6489462852478027, -0.03477225825190544, 0.7107361555099487, 11.605253219604492, -13.220845222473145, 3.167917013168335, -86.10030364990234, -4.240631580352783, 143.65582275390625, -0.79345703125, 0.114501953125, -0.008544921875, 
237, 3924044256, -0.27304551005363464, 0.6505321264266968, -0.046946607530117035, 0.7071453332901001, 11.026203155517578, -13.517294883728027, 3.3028676509857178, -93.1888427734375, -4.795241832733154, 157.72039794921875, -0.791259765625, 0.131103515625, -0.00634765625, 
238, 3924052589, -0.2774059772491455, 0.6519739031791687, -0.05989030376076698, 0.7031313180923462, 10.612516403198242, -14.023670196533203, 3.336407423019409, -95.01782989501953, -4.647567272186279, 172.02471923828125, -0.784912109375, 0.1533203125, -0.00537109375, 
239, 3924060922, -0.28259244561195374, 0.6530063152313232, -0.07339660078287125, 0.6988146901130676, 10.618756294250488, -14.56023120880127, 3.361516237258911, -91.6933822631836, -1.9742791652679443, 186.71157836914062, -0.77734375, 0.174072265625, -0.0009765625, 
240, 3924069255, -0.28884774446487427, 0.6533525586128235, -0.08715173602104187, 0.6943390369415283, 10.737398147583008, -14.882062911987305, 3.056114673614502, -81.98133850097656, 3.0974268913269043, 200.34237670898438, -0.769775390625, 0.195068359375, 0.003173828125, 
241, 3924077588, -0.2963515818119049, 0.6528282165527344, -0.10073547810316086, 0.6898174285888672, 10.869536399841309, -15.25058364868164, 2.7922310829162598, -65.72502136230469, 8.803879737854004, 212.1362762451172, -0.76025390625, 0.2216796875, 0.001708984375, 
242, 3924085921, -0.30511370301246643, 0.6513686180114746, -0.11397015303373337, 0.6853030920028687, 10.875983238220215, -15.361786842346191, 2.607091188430786, -47.263580322265625, 14.574009895324707, 221.99464416503906, -0.747314453125, 0.244140625, -0.010986328125, 
243, 3924094254, -0.31506404280662537, 0.6489838361740112, -0.1268267184495926, 0.6807894110679626, 10.796622276306152, -14.958768844604492, 2.453589916229248, -29.204803466796875, 19.851274490356445, 231.46502685546875, -0.735595703125, 0.27197265625, 0.005859375, 
244, 3924102587, -0.326028048992157, 0.6458786129951477, -0.13941943645477295, 0.6761015057563782, 10.374163627624512, -14.243062019348145, 2.2896902561187744, -14.841024398803711, 22.127843856811523, 240.37332153320312, -0.72509765625, 0.296142578125, 0.0029296875, 
245, 3924110920, -0.3376692533493042, 0.6423162817955017, -0.1518765389919281, 0.6710792183876038, 9.794343948364258, -13.494539260864258, 2.233247995376587, -6.1849846839904785, 21.50637435913086, 248.0817108154297, -0.7109375, 0.322265625, -0.0009765625, 
246, 3924119253, -0.34963953495025635, 0.6384862065315247, -0.16434621810913086, 0.6656442880630493, 9.272699356079102, -12.778363227844238, 2.253937244415283, -2.9808084964752197, 19.69523811340332, 253.44720458984375, -0.697021484375, 0.348388671875, -0.005126953125, 
247, 3924127586, -0.36164718866348267, 0.6345296502113342, -0.17691992223262787, 0.6597631573677063, 8.739374160766602, -11.820679664611816, 2.2548749446868896, -4.037360191345215, 17.35855484008789, 257.3921813964844, -0.68115234375, 0.3779296875, -0.0283203125, 
248, 3924135919, -0.37351804971694946, 0.6305557489395142, -0.18969738483428955, 0.6533781886100769, 8.189414024353027, -11.002165794372559, 2.2468156814575195, -8.185583114624023, 14.45341682434082, 260.2093200683594, -0.662353515625, 0.399658203125, -0.008056640625, 
249, 3924144252, -0.38509565591812134, 0.62666255235672, -0.20263701677322388, 0.6464813351631165, 7.773866653442383, -10.241697311401367, 2.1551923751831055, -13.969148635864258, 10.89910888671875, 261.66937255859375, -0.642578125, 0.425048828125, -0.005126953125, 
250, 3924152585, -0.3962785303592682, 0.6229044795036316, -0.21571624279022217, 0.6390808820724487, 7.336894989013672, -9.757928848266602, 2.1249051094055176, -20.700944900512695, 7.18304967880249, 261.3768310546875, -0.627685546875, 0.4501953125, -0.00439453125, 
251, 3924160918, -0.4068322479724884, 0.6192920804023743, -0.22895067930221558, 0.6313089728355408, 7.111728668212891, -9.438861846923828, 2.137669801712036, -29.37958526611328, 5.446040630340576, 259.04473876953125, -0.607666015625, 0.472412109375, -0.0078125, 
252, 3924169251, -0.41681572794914246, 0.615626871585846, -0.24236615002155304, 0.6233227849006653, 6.985276222229004, -9.130626678466797, 2.0342037677764893, -36.159950256347656, 6.871477127075195, 256.7259521484375, -0.58740234375, 0.494140625, -0.00048828125, 
253, 3924177584, -0.4263012111186981, 0.611596941947937, -0.25600287318229675, 0.6153727769851685, 7.081314563751221, -9.369338035583496, 1.9828377962112427, -40.09053039550781, 13.25048828125, 255.61318969726562, -0.567626953125, 0.516357421875, -0.00244140625, 
254, 3924185917, -0.4355078935623169, 0.6068980097770691, -0.2699275612831116, 0.6075783371925354, 7.218714714050293, -9.19611644744873, 1.8720767498016357, -40.373905181884766, 22.87293815612793, 256.8477783203125, -0.547607421875, 0.5390625, -0.00341796875, 
255, 3924194250, -0.44447627663612366, 0.6014966368675232, -0.2840164303779602, 0.5999849438667297, 6.843813896179199, -8.967795372009277, 1.7087527513504028, -38.8089599609375, 32.30640411376953, 257.9018859863281, -0.52490234375, 0.5576171875, 0.0009765625, 
256, 3924202583, -0.4531574547290802, 0.5954761505126953, -0.2981395125389099, 0.5925991535186768, 6.467159748077393, -9.237744331359863, 1.5422351360321045, -36.84617614746094, 40.44417953491211, 256.7005310058594, -0.50390625, 0.577880859375, 0.005126953125, 
257, 3924210916, -0.46154293417930603, 0.5889014005661011, -0.3121567368507385, 0.5854364633560181, 6.446011066436768, -9.213299751281738, 1.3077009916305542, -34.06251525878906, 47.35870361328125, 254.5694580078125, -0.480712890625, 0.599609375, 0.0068359375, 
258, 3924219249, -0.46976983547210693, 0.5818197727203369, -0.3259813189506531, 0.5783964991569519, 6.221656322479248, -8.853920936584473, 0.9512141942977905, -30.02216911315918, 51.87688064575195, 252.8731689453125, -0.460693359375, 0.615966796875, 0.009765625, 
259, 3924227582, -0.4776971936225891, 0.5744172930717468, -0.33955657482147217, 0.5714508891105652, 5.815123558044434, -8.498435974121094, 0.6200896501541138, -27.96956443786621, 54.929386138916016, 249.5806121826172, -0.440185546875, 0.63134765625, 0.007080078125, 
260, 3924235915, -0.48521965742111206, 0.5668758153915405, -0.3528860807418823, 0.5645259618759155, 5.6272454261779785, -8.162528038024902, 0.18082788586616516, -28.195697784423828, 56.44918441772461, 244.72666931152344, -0.41552734375, 0.653564453125, 0.007080078125, 
261, 3924244248, -0.4922158122062683, 0.5593913793563843, -0.36595186591148376, 0.5575739145278931, 5.501149654388428, -7.970752239227295, -0.016378754749894142, -30.793901443481445, 56.602752685546875, 238.7313690185547, -0.39404296875, 0.6689453125, 0.009765625, 
262, 3924252581, -0.49871522188186646, 0.552086591720581, -0.3786467909812927, 0.5505586266517639, 5.1007890701293945, -7.945004463195801, -0.17935995757579803, -33.26974868774414, 54.71562957763672, 231.36154174804688, -0.37158203125, 0.6826171875, 0.009521484375, 
263, 3924260914, -0.5048257112503052, 0.5450354218482971, -0.3907827138900757, 0.5434895157814026, 4.612220287322998, -7.862912178039551, -0.28821486234664917, -34.04509353637695, 50.59058380126953, 223.45260620117188, -0.3505859375, 0.696044921875, 0.01171875, 
264, 3924269247, -0.5106975436210632, 0.5382133722305298, -0.4022979736328125, 0.5363537669181824, 4.286273002624512, -7.666064262390137, -0.34982582926750183, -33.099639892578125, 45.34192657470703, 216.02879333496094, -0.327392578125, 0.70947265625, 0.003662109375, 
265, 3924277580, -0.5163860321044922, 0.5316411256790161, -0.41312575340270996, 0.5291834473609924, 4.003304481506348, -7.477537155151367, -0.3125514090061188, -31.37501335144043, 39.43802261352539, 208.66632080078125, -0.306884765625, 0.7216796875, 0.00048828125, 
266, 3924285913, -0.5219170451164246, 0.5252867341041565, -0.4232978820800781, 0.5220151543617249, 3.649907112121582, -7.23429536819458, -0.19858650863170624, -29.239910125732422, 34.098175048828125, 201.2693328857422, -0.28857421875, 0.73486328125, 0.018310546875, 
267, 3924294246, -0.5272104144096375, 0.5191893577575684, -0.4328387379646301, 0.5149239897727966, 3.4521937370300293, -6.979550361633301, -0.09960050135850906, -27.87330436706543, 29.672548294067383, 193.15621948242188, -0.26953125, 0.74658203125, 0.020751953125, 
268, 3924302579, -0.5322888493537903, 0.5133177638053894, -0.44181180000305176, 0.507917582988739, 3.1697540283203125, -6.664178848266602, 0.026558075100183487, -26.464834213256836, 25.831871032714844, 185.42880249023438, -0.24755859375, 0.754638671875, 0.025634765625, 
269, 3924310912, -0.5370475053787231, 0.5076867938041687, -0.45028218626976013, 0.501083493232727, 2.89210844039917, -6.252108573913574, 0.056023500859737396, -25.97909927368164, 23.639873504638672, 177.11817932128906, -0.2255859375, 0.762939453125, 0.0283203125, 
270, 3924319245, -0.5413557887077332, 0.5023878216743469, -0.45834052562713623, 0.4944380521774292, 2.6869943141937256, -5.701479911804199, 0.05673791840672493, -27.509620666503906, 22.406452178955078, 167.50772094726562, -0.2099609375, 0.772216796875, 0.031005859375, 
271, 3924327578, -0.5451132655143738, 0.4975074529647827, -0.46602824330329895, 0.4880167841911316, 2.4114396572113037, -5.258658409118652, 0.07034959644079208, -30.556705474853516, 21.829620361328125, 157.07296752929688, -0.19189453125, 0.781494140625, 0.034912109375, 
272, 3924335911, -0.548248827457428, 0.49314144253730774, -0.4733721613883972, 0.48182764649391174, 1.9676650762557983, -4.789116382598877, 0.0171936247497797, -34.81314468383789, 21.365928649902344, 145.34156799316406, -0.174560546875, 0.783935546875, 0.037841796875, 
273, 3924344244, -0.5507099032402039, 0.48944491147994995, -0.48037195205688477, 0.4758249521255493, 1.6028223037719727, -4.245450496673584, 0.0008094524964690208, -41.001766204833984, 19.99856185913086, 132.94265747070312, -0.15771484375, 0.792724609375, 0.046630859375, 
274, 3924352577, -0.5525233745574951, 0.4866493344306946, -0.48705536127090454, 0.46975719928741455, 1.1880913972854614, -3.674081563949585, -0.0531449019908905, -50.48016357421875, 15.540265083312988, 120.95821380615234, -0.142333984375, 0.796142578125, 0.05029296875, 
275, 3924360910, -0.5537928342819214, 0.4849305748939514, -0.49330824613571167, 0.4634733200073242, 0.6424579620361328, -3.7349982261657715, 0.022790998220443726, -61.03104019165039, 7.516729354858398, 109.15217590332031, -0.132080078125, 0.79931640625, 0.05712890625, 
276, 3924369243, -0.5546401143074036, 0.4842141568660736, -0.49898964166641235, 0.4570828676223755, 0.20015759766101837, -4.085066318511963, 0.09667830914258957, -68.49748229980469, -1.0753116607666016, 96.50629425048828, -0.117431640625, 0.80224609375, 0.066162109375, 
277, 3924377576, -0.5551439523696899, 0.48421522974967957, -0.5039946436882019, 0.4509375989437103, 0.011020291596651077, -4.137381076812744, 0.3023798167705536, -70.3847427368164, -6.749383449554443, 83.20533752441406, -0.11083984375, 0.804443359375, 0.07373046875, 
278, 3924385909, -0.5552928447723389, 0.48454979062080383, -0.5083683729171753, 0.4454525113105774, 0.08482050150632858, -4.061124801635742, 0.2644610106945038, -66.74275970458984, -6.786330699920654, 69.29871368408203, -0.10302734375, 0.806884765625, 0.087890625, 
279, 3924394242, -0.5550516247749329, 0.4849854111671448, -0.5120928287506104, 0.4409903287887573, 0.38258397579193115, -3.8323159217834473, 0.0715508759021759, -59.046207427978516, -2.8149049282073975, 54.215293884277344, -0.09423828125, 0.80712890625, 0.095703125, 
280, 3924402575, -0.5544565916061401, 0.48549753427505493, -0.515213668346405, 0.4375264346599579, 0.49453943967819214, -3.683772325515747, -0.18100501596927643, -51.24001693725586, 1.261300802230835, 39.74021911621094, -0.08837890625, 0.804443359375, 0.103271484375, 
281, 3924410908, -0.5536500215530396, 0.48606258630752563, -0.518001139163971, 0.4346196949481964, 0.3716253936290741, -3.500488758087158, -0.5635713338851929, -47.162689208984375, 3.622708559036255, 31.76169204711914, -0.08251953125, 0.81103515625, 0.09912109375, 
282, 3924419241, -0.5529417991638184, 0.48666274547576904, -0.5203366875648499, 0.4320518970489502, 0.17749333381652832, -3.8248329162597656, -0.8654540777206421, -41.596439361572266, 1.5352437496185303, 26.357284545898438, -0.0810546875, 0.808837890625, 0.112060546875, 
283, 3924427574, -0.552460253238678, 0.48739489912986755, -0.5221179723739624, 0.4296872615814209, -0.009629429318010807, -4.624144554138184, -0.8792642951011658, -36.3948974609375, -3.7250969409942627, 21.6505184173584, -0.07958984375, 0.80908203125, 0.105712890625, 
284, 3924435907, -0.5521852970123291, 0.48831072449684143, -0.5233409404754639, 0.42750775814056396, 0.08041166514158249, -4.958650588989258, -0.8975103497505188, -31.71623992919922, -9.294175148010254, 16.262727737426758, -0.076416015625, 0.80615234375, 0.126953125, 
285, 3924444240, -0.5519516468048096, 0.48954498767852783, -0.5240663886070251, 0.42550456523895264, 0.6553478240966797, -4.92795991897583, -0.9938178062438965, -29.724180221557617, -14.05809211730957, 9.673813819885254, -0.072509765625, 0.808349609375, 0.130615234375, 
286, 3924452573, -0.5516995191574097, 0.4911021590232849, -0.5245667099952698, 0.42341530323028564, 1.2580885887145996, -4.846504211425781, -0.9914959669113159, -31.537914276123047, -18.101154327392578, 6.242068767547607, -0.076416015625, 0.809814453125, 0.1337890625, 
287, 3924460906, -0.551304280757904, 0.49296021461486816, -0.5249146223068237, 0.42133480310440063, 1.6141761541366577, -5.326494216918945, -0.9928607940673828, -33.903343200683594, -19.919437408447266, 2.2749571800231934, -0.072998046875, 0.80810546875, 0.140869140625, 
288, 3924469239, -0.5507079362869263, 0.49502161145210266, -0.5252164602279663, 0.4193168878555298, 1.7313776016235352, -5.904009819030762, -0.9205743074417114, -36.01972198486328, -19.568166732788086, -1.2671253681182861, -0.072021484375, 0.80712890625, 0.14453125, 
289, 3924477572, -0.5499511361122131, 0.4972688853740692, -0.525397539138794, 0.4174198508262634, 2.002859115600586, -6.057957649230957, -0.8393025398254395, -37.01898956298828, -19.575210571289062, -5.149480819702148, -0.072998046875, 0.80615234375, 0.14892578125, 
290, 3924485905, -0.5493588447570801, 0.49951043725013733, -0.5252705812454224, 0.4156799018383026, 2.0480127334594727, -6.669261455535889, -0.9580804705619812, -32.87844467163086, -21.98261833190918, -7.5701584815979, -0.073486328125, 0.80322265625, 0.1533203125, 
291, 3924494238, -0.549161970615387, 0.5015989542007446, -0.5246811509132385, 0.4141666293144226, 1.9213992357254028, -7.545786380767822, -0.8461129069328308, -24.79405975341797, -25.90418243408203, -8.980067253112793, -0.0712890625, 0.803955078125, 0.158447265625, 
292, 3924502571, -0.5496440529823303, 0.5032818913459778, -0.5234935283660889, 0.41298675537109375, 1.8137727975845337, -7.780202865600586, -0.7496660947799683, -11.164755821228027, -30.707130432128906, -8.932243347167969, -0.07421875, 0.798583984375, 0.161865234375, 
293, 3924510904, -0.5509439706802368, 0.5045897364616394, -0.5217050909996033, 0.41192030906677246, 1.834266185760498, -7.50120210647583, -0.5536972284317017, 1.488957405090332, -38.224212646484375, -6.503398418426514, -0.07470703125, 0.80517578125, 0.16357421875, 
294, 3924519237, -0.553146481513977, 0.5056390762329102, -0.5194253325462341, 0.410560667514801, 1.6290329694747925, -7.32428503036499, -0.43216580152511597, 10.460697174072266, -48.988243103027344, -0.8091938495635986, -0.07666015625, 0.80615234375, 0.166015625, 
295, 3924527570, -0.556015133857727, 0.506553053855896, -0.5168354511260986, 0.4088238477706909, 1.4725488424301147, -7.6852335929870605, -0.19912658631801605, 15.106401443481445, -57.967769622802734, 4.716825008392334, -0.0712890625, 0.805419921875, 0.159912109375, 
296, 3924535903, -0.5591801404953003, 0.5074228048324585, -0.514122724533081, 0.4068441092967987, 1.8257408142089844, -7.977897644042969, -0.03367926925420761, 16.54339599609375, -62.455482482910156, 7.622849941253662, -0.07177734375, 0.8095703125, 0.1611328125, 
297, 3924544236, -0.5623073577880859, 0.5081847906112671, -0.5112472176551819, 0.40520337224006653, 2.540560245513916, -8.330745697021484, -0.06485563516616821, 20.345434188842773, -60.471954345703125, 4.507148265838623, -0.068359375, 0.80859375, 0.158935546875, 
298, 3924552569, -0.565359354019165, 0.5088458061218262, -0.5084249973297119, 0.4036746025085449, 2.6939008235931396, -8.339580535888672, 0.17351603507995605, 21.15822410583496, -58.18791198730469, 4.242269515991211, -0.06591796875, 0.80908203125, 0.157958984375, 
299, 3924560902, -0.5681449770927429, 0.5093904137611389, -0.5055515766143799, 0.4026845395565033, 2.7940094470977783, -9.130169868469238, 0.39522600173950195, 24.183032989501953, -52.30535125732422, -0.9066312313079834, -0.064208984375, 0.8095703125, 0.155029296875, 
300, 3924569235, -0.5707024335861206, 0.5101081132888794, -0.5026679039001465, 0.4017685055732727, 2.142136812210083, -9.091110229492188, 0.5933972001075745, 21.867904663085938, -51.24168395996094, -4.070253849029541, -0.061767578125, 0.810546875, 0.15283203125, 
301, 3924577568, -0.573366641998291, 0.5107343196868896, -0.4997693598270416, 0.4007948935031891, 1.8756306171417236, -9.307069778442383, 0.8618386387825012, 22.9541072845459, -51.993675231933594, -2.4550416469573975, -0.061767578125, 0.81103515625, 0.14990234375, 
302, 3924585901, -0.5761581063270569, 0.5111950635910034, -0.4967930018901825, 0.3999033570289612, 1.3250722885131836, -10.472208976745605, 1.3988956212997437, 26.20402717590332, -51.99258041381836, -1.841758370399475, -0.060302734375, 0.810791015625, 0.14794921875, 
303, 3924594234, -0.5790407657623291, 0.5113525390625, -0.493838369846344, 0.3991978168487549, 0.9213368892669678, -10.524494171142578, 1.4987400770187378, 30.343685150146484, -49.467960357666016, -0.5564581155776978, -0.058837890625, 0.813232421875, 0.14501953125, 
304, 3924602567, -0.581902265548706, 0.5110162496566772, -0.4908735752105713, 0.3991236686706543, 1.0733944177627563, -10.493143081665039, 1.6707770824432373, 38.51859664916992, -42.256866455078125, -2.4397759437561035, -0.059814453125, 0.813720703125, 0.14599609375, 
305, 3924610900, -0.5846692323684692, 0.5097512006759644, -0.48812592029571533, 0.40006664395332336, 1.2847157716751099, -10.6808500289917, 2.2068076133728027, 50.909339904785156, -27.635574340820312, -3.281590223312378, -0.055908203125, 0.814208984375, 0.13818359375, 
306, 3924619233, -0.5871418118476868, 0.5077964067459106, -0.4861428141593933, 0.4013442099094391, 0.8797047138214111, -10.245135307312012, 2.4504051208496094, 52.4748649597168, -13.373777389526367, 2.3884055614471436, -0.058837890625, 0.8173828125, 0.129638671875, 
307, 3924627566, -0.5892062783241272, 0.5054302215576172, -0.4847849905490875, 0.40294456481933594, -0.002756902016699314, -10.040552139282227, 2.6362390518188477, 51.60999298095703, -1.071228265762329, 4.655731678009033, -0.057373046875, 0.8212890625, 0.1240234375, 
308, 3924635899, -0.5906344056129456, 0.5031648874282837, -0.48373091220855713, 0.4049510359764099, -0.6601729989051819, -10.006635665893555, 2.5970876216888428, 47.42613220214844, 7.896501541137695, -0.721388041973114, -0.059814453125, 0.82275390625, 0.11865234375, 
309, 3924644232, -0.5916915535926819, 0.501055896282196, -0.48277387022972107, 0.4071584641933441, -1.483788013458252, -9.91294002532959, 2.160839796066284, 44.353973388671875, 11.672430038452148, -4.789294719696045, -0.056640625, 0.823974609375, 0.10986328125, 
310, 3924652565, -0.5922924876213074, 0.49926862120628357, -0.4815804958343506, 0.40988466143608093, -1.2697612047195435, -10.446080207824707, 2.0405123233795166, 43.383174896240234, 14.55129623413086, -15.324246406555176, -0.0595703125, 0.82275390625, 0.103271484375, 
311, 3924660898, -0.5924788117408752, 0.4976823627948761, -0.48033010959625244, 0.41299962997436523, -1.1180808544158936, -10.700581550598145, 1.971567988395691, 41.77247619628906, 18.368032455444336, -22.555776596069336, -0.0615234375, 0.82373046875, 0.097900390625, 
312, 3924669231, -0.5923620462417603, 0.495979905128479, -0.4789624810218811, 0.4167860448360443, -0.9333778619766235, -10.728325843811035, 1.7545119524002075, 45.76206970214844, 24.669708251953125, -29.77634620666504, -0.06494140625, 0.823974609375, 0.0927734375, 
313, 3924677564, -0.5921785235404968, 0.4942314922809601, -0.47736042737960815, 0.42094120383262634, -0.7983100414276123, -10.564433097839355, 1.6254829168319702, 49.43783950805664, 25.979516983032227, -34.462608337402344, -0.06982421875, 0.826904296875, 0.0859375, 
314, 3924685897, -0.5922961831092834, 0.4924631118774414, -0.47571438550949097, 0.4246947169303894, -0.9045567512512207, -9.714404106140137, 1.2263195514678955, 49.2745246887207, 21.03117561340332, -29.609451293945312, -0.07568359375, 0.8251953125, 0.080322265625, 
315, 3924694230, -0.5928757190704346, 0.49048614501953125, -0.4741138815879822, 0.42795124650001526, -0.7862440347671509, -9.691904067993164, 1.2942028045654297, 50.57520294189453, 16.23002052307129, -21.19944190979004, -0.080078125, 0.828369140625, 0.068359375, 
316, 3924702563, -0.5937781929969788, 0.4883553683757782, -0.47292360663414, 0.43044647574424744, -0.5377097129821777, -9.5884370803833, 1.6598573923110962, 46.636627197265625, 13.242355346679688, -9.31103801727295, -0.083740234375, 0.826171875, 0.065185546875, 
317, 3924710896, -0.5948649644851685, 0.4862021803855896, -0.47226426005363464, 0.43210461735725403, -0.6767699122428894, -9.161331176757812, 1.6632020473480225, 39.46368408203125, 10.88955020904541, 2.3153512477874756, -0.084716796875, 0.826904296875, 0.059814453125, 
318, 3924719229, -0.5958336591720581, 0.48420876264572144, -0.4716009199619293, 0.43372952938079834, -1.015423059463501, -9.587785720825195, 1.3921869993209839, 37.1782341003418, 10.453258514404297, 0.8346664905548096, -0.084228515625, 0.826904296875, 0.055908203125, 
319, 3924727562, -0.5968053936958313, 0.4826149344444275, -0.47084927558898926, 0.4349846839904785, -1.311044454574585, -9.355947494506836, 1.1246311664581299, 32.05001449584961, 4.862789630889893, 0.6912263035774231, -0.084228515625, 0.828369140625, 0.0498046875, 
320, 3924735895, -0.5977098941802979, 0.4815364480018616, -0.4698205590248108, 0.43604904413223267, -1.618759274482727, -9.681375503540039, 1.0733635425567627, 27.796432495117188, -1.3227839469909668, -3.3082470893859863, -0.08544921875, 0.827880859375, 0.0380859375, 
321, 3924744228, -0.5985822081565857, 0.48076263070106506, -0.4686306118965149, 0.43698573112487793, -1.352879524230957, -9.88638973236084, 1.0440161228179932, 25.221376419067383, -5.1139750480651855, -5.502235412597656, -0.085205078125, 0.83056640625, 0.038330078125, 
322, 3924752561, -0.5995249152183533, 0.4799481928348541, -0.46729856729507446, 0.4380139112472534, -0.8142900466918945, -9.917630195617676, 1.1796847581863403, 27.464189529418945, -5.888089656829834, -6.4958648681640625, -0.083251953125, 0.8310546875, 0.0419921875, 
323, 3924760894, -0.6005749106407166, 0.47884175181388855, -0.46594536304473877, 0.43922626972198486, -0.867893397808075, -9.911982536315918, 1.276643991470337, 31.891441345214844, -3.778934955596924, -5.645112991333008, -0.086669921875, 0.830322265625, 0.035888671875, 
324, 3924769227, -0.6015026569366455, 0.4775915741920471, -0.464507132768631, 0.4408385157585144, -0.9973726868629456, -9.696259498596191, 1.1840732097625732, 35.34707260131836, -0.19511668384075165, -9.308416366577148, -0.086181640625, 0.832275390625, 0.032958984375, 
325, 3924777560, -0.602207362651825, 0.47661352157592773, -0.462971568107605, 0.44254663586616516, -1.2062737941741943, -9.054630279541016, 0.9620716571807861, 32.83382034301758, -0.5959799289703369, -13.847901344299316, -0.08544921875, 0.830078125, 0.026123046875, 
326, 3924785893, -0.6026595830917358, 0.47634562849998474, -0.4612816572189331, 0.4439818263053894, -1.5729053020477295, -8.664898872375488, 0.528199315071106, 24.502368927001953, -6.375759601593018, -18.639890670776367, -0.0947265625, 0.83056640625, 0.024169921875, 
327, 3924794226, -0.6028967499732971, 0.477074533700943, -0.45927098393440247, 0.44496092200279236, -1.8134434223175049, -8.978691101074219, 0.2736437916755676, 13.896373748779297, -16.74563980102539, -24.614826202392578, -0.0908203125, 0.8310546875, 0.02099609375, 
328, 3924802559, -0.6029994487762451, 0.47880858182907104, -0.4570196270942688, 0.4452769458293915, -2.0249671936035156, -9.292229652404785, 0.2816659212112427, 1.9683539867401123, -28.3887939453125, -27.851661682128906, -0.09765625, 0.829345703125, 0.0166015625, 
329, 3924810892, -0.6029911041259766, 0.4812512695789337, -0.454528272151947, 0.44520503282546997, -1.774289846420288, -9.893524169921875, 0.2624976634979248, -5.609209060668945, -36.57651901245117, -31.361530303955078, -0.10205078125, 0.827880859375, 0.01953125, 
330, 3924819225, -0.6029689908027649, 0.4841235280036926, -0.4516650438308716, 0.44503483176231384, -1.1946524381637573, -10.471258163452148, 0.26010313630104065, -7.591837406158447, -42.8542594909668, -35.76716613769531, -0.1025390625, 0.828369140625, 0.02099609375, 
331, 3924827558, -0.6031000018119812, 0.4871346354484558, -0.4485805630683899, 0.4446912407875061, -1.0085768699645996, -10.536020278930664, -0.07062775641679764, -7.455929279327393, -47.64414596557617, -35.739078521728516, -0.109619140625, 0.827392578125, 0.024169921875, 
332, 3924835891, -0.6035195589065552, 0.49020281434059143, -0.4453089237213135, 0.4440380930900574, -0.6786275506019592, -10.647841453552246, -0.254140704870224, -6.748926162719727, -53.398250579833984, -33.001869201660156, -0.114013671875, 0.824951171875, 0.02783203125, 
333, 3924844224, -0.6044076085090637, 0.4926300048828125, -0.44209423661231995, 0.4433557689189911, 0.22857840359210968, -12.049394607543945, -0.4228816628456116, 1.190578579902649, -52.07789993286133, -25.60089874267578, -0.114990234375, 0.82373046875, 0.025390625, 
334, 3924852557, -0.604839563369751, 0.4938807189464569, -0.43988823890686035, 0.4435696005821228, 2.0557544231414795, -12.371538162231445, 2.063781261444092, 7.197685241699219, -27.673330307006836, -21.829975128173828, -0.119384765625, 0.82275390625, 0.027587890625, 
335, 3924860890, -0.6052412986755371, 0.49345582723617554, -0.43849071860313416, 0.4448762834072113, 1.4199888706207275, -11.511353492736816, 1.7831904888153076, 22.58759117126465, -3.12846040725708, -15.492151260375977, -0.120361328125, 0.8232421875, 0.024169921875, 
336, 3924869223, -0.6048535704612732, 0.4925004541873932, -0.4382827877998352, 0.44666358828544617, 1.3710156679153442, -12.12887954711914, 2.703969955444336, 17.286136627197266, 18.045574188232422, -13.02442455291748, -0.121826171875, 0.82470703125, 0.02099609375, 
337, 3924877556, -0.6039937138557434, 0.4920545220375061, -0.438784658908844, 0.44782426953315735, 0.7766187787055969, -12.154149055480957, 1.7885174751281738, 1.6936910152435303, 19.41580581665039, -9.002729415893555, -0.123291015625, 0.823486328125, 0.0146484375, 
338, 3924885889, -0.6031352281570435, 0.49243345856666565, -0.4393588602542877, 0.448001891374588, -0.26515963673591614, -11.562686920166016, 0.9915910959243774, -11.507978439331055, 8.284284591674805, -5.2796454429626465, -0.127685546875, 0.82421875, 0.02490234375, 
339, 3924894222, -0.6022658348083496, 0.4948264956474304, -0.4394732415676117, 0.44641953706741333, -0.5161179304122925, -10.832016944885254, 0.4736379086971283, -36.10358810424805, -19.79766845703125, -6.068392753601074, -0.124267578125, 0.8251953125, 0.021484375, 
340, 3924902555, -0.5998243093490601, 0.4989011883735657, -0.4401436448097229, 0.44450730085372925, 1.1726454496383667, -8.0682373046875, 2.6372628211975098, -66.11748504638672, -18.251569747924805, -19.32842254638672, -0.12744140625, 0.82177734375, 0.03271484375, 
341, 3924910888, -0.5965962409973145, 0.5029181838035583, -0.44132155179977417, 0.44315481185913086, 2.448672294616699, -6.881345272064209, 3.3605458736419678, -70.76982879638672, -5.119632244110107, -24.961362838745117, -0.12939453125, 0.820556640625, 0.04248046875, 
342, 3924919221, -0.5930129289627075, 0.5063850283622742, -0.4434894323348999, 0.44185036420822144, 1.5359961986541748, -7.198090553283691, 4.198496341705322, -74.44681549072266, 8.846203804016113, -17.28382110595703, -0.130859375, 0.819091796875, 0.04736328125, 
343, 3924927554, -0.5903165340423584, 0.5081013441085815, -0.4459468722343445, 0.4410164952278137, 0.9311871528625488, -8.821965217590332, 3.7799246311187744, -52.89299774169922, 19.710031509399414, -3.0914807319641113, -0.132568359375, 0.81689453125, 0.059814453125, 
344, 3924935887, -0.588948667049408, 0.5082592964172363, -0.4480554163455963, 0.44052568078041077, 0.14442078769207, -11.506884574890137, 2.5088553428649902, -26.744457244873047, 20.579933166503906, 9.357300758361816, -0.132568359375, 0.818359375, 0.064208984375, 
345, 3924944220, -0.5888182520866394, 0.5070862174034119, -0.4494013786315918, 0.44068095088005066, 0.5994578003883362, -11.142056465148926, 1.02555513381958, 1.2882686853408813, 19.356611251831055, 14.434371948242188, -0.128662109375, 0.817138671875, 0.064697265625, 
346, 3924952553, -0.5894914269447327, 0.5050252079963684, -0.45043736696243286, 0.4410895109176636, 0.371423602104187, -10.030231475830078, 0.1323470026254654, 17.515851974487305, 19.032804489135742, 20.643583297729492, -0.129150390625, 0.818115234375, 0.063232421875, 
347, 3924960886, -0.5905278325080872, 0.5027411580085754, -0.4513264000415802, 0.44140371680259705, 0.10061870515346527, -9.743025779724121, -0.9517843723297119, 22.164148330688477, 16.28142547607422, 23.90630531311035, -0.128173828125, 0.821044921875, 0.061767578125, 
348, 3924969219, -0.5918323993682861, 0.5002453923225403, -0.4522264003753662, 0.4415709376335144, 1.1836824417114258, -10.740546226501465, -0.944896399974823, 24.754119873046875, 14.982351303100586, 28.18858528137207, -0.1240234375, 0.8203125, 0.056640625, 
349, 3924977552, -0.5926647782325745, 0.4985218346118927, -0.4532594084739685, 0.44134441018104553, 1.3190979957580566, -10.417272567749023, 0.25355279445648193, 11.969208717346191, 11.597801208496094, 24.5694522857666, -0.1201171875, 0.822509765625, 0.0537109375, 
350, 3924985885, -0.592300534248352, 0.49788907170295715, -0.4547199308872223, 0.4410451054573059, 1.3487045764923096, -9.107736587524414, 1.744712233543396, -8.172621726989746, 15.42917537689209, 14.110247611999512, -0.12060546875, 0.8212890625, 0.05322265625, 
351, 3924994218, -0.5914657115936279, 0.49761807918548584, -0.4566600024700165, 0.44046637415885925, 1.9185171127319336, -9.018781661987305, 2.4474711418151855, -18.99736213684082, 18.163604736328125, 14.474743843078613, -0.11572265625, 0.821533203125, 0.054443359375, 
352, 3925002551, -0.5905404090881348, 0.4976174831390381, -0.4590524137020111, 0.4392198920249939, 1.4912266731262207, -9.971564292907715, 2.7829315662384033, -28.75336265563965, 16.20904541015625, 20.843740463256836, -0.115234375, 0.823974609375, 0.055419921875, 
353, 3925010884, -0.5896749496459961, 0.4977417290210724, -0.46151354908943176, 0.43766018748283386, 1.494362235069275, -11.1446533203125, 2.8624444007873535, -31.744779586791992, 13.486580848693848, 23.343721389770508, -0.1123046875, 0.82177734375, 0.06103515625, 
354, 3925019217, -0.5888976454734802, 0.49778586626052856, -0.4638896882534027, 0.4361419081687927, 1.8276325464248657, -11.005640983581543, 2.545626163482666, -29.730649948120117, 13.010101318359375, 23.563642501831055, -0.1064453125, 0.825927734375, 0.065673828125, 
355, 3925027550, -0.588266134262085, 0.49772629141807556, -0.4661467373371124, 0.434653103351593, 1.7014179229736328, -10.225410461425781, 1.8037843704223633, -26.9779109954834, 11.932381629943848, 23.94685935974121, -0.10400390625, 0.824462890625, 0.066162109375, 
356, 3925035883, -0.5875388383865356, 0.4977389872074127, -0.468542218208313, 0.43304377794265747, 1.703635334968567, -9.512337684631348, 1.3462157249450684, -29.839488983154297, 12.416670799255371, 24.94679069519043, -0.1044921875, 0.825927734375, 0.069580078125, 
357, 3925044216, -0.586696982383728, 0.49774283170700073, -0.47128990292549133, 0.4311952292919159, 1.6441161632537842, -8.77800178527832, 0.987973690032959, -34.168190002441406, 14.407958030700684, 28.55129623413086, -0.099853515625, 0.826171875, 0.07373046875, 
358, 3925052549, -0.5857741236686707, 0.4976315498352051, -0.47423484921455383, 0.4293453097343445, 1.2200156450271606, -8.899883270263672, 0.7798320651054382, -34.99599075317383, 17.20565414428711, 30.304107666015625, -0.09423828125, 0.826171875, 0.07763671875, 
359, 3925060882, -0.5850552320480347, 0.4972434639930725, -0.4771907329559326, 0.42749619483947754, 0.7663161754608154, -9.504435539245605, 0.7101221084594727, -31.407047271728516, 17.59673500061035, 33.25541687011719, -0.087890625, 0.825439453125, 0.077392578125, 
360, 3925069215, -0.5847537517547607, 0.49651363492012024, -0.4799274802207947, 0.4256894588470459, 0.3528413772583008, -9.986648559570312, 0.6655997633934021, -24.26155662536621, 15.397769927978516, 36.24726104736328, -0.0869140625, 0.825439453125, 0.085693359375, 
361, 3925077548, -0.5849676132202148, 0.49545538425445557, -0.48238256573677063, 0.423849880695343, 0.21009238064289093, -10.568817138671875, 0.6974160075187683, -16.646631240844727, 11.4258394241333, 39.637813568115234, -0.08154296875, 0.8271484375, 0.0859375, 
362, 3925085881, -0.5856509208679199, 0.4941716194152832, -0.4846416711807251, 0.421822726726532, 0.2672823369503021, -10.844738006591797, 0.7815109491348267, -11.762322425842285, 6.77805233001709, 44.18614959716797, -0.0751953125, 0.825927734375, 0.08935546875, 
363, 3925094214, -0.5867450833320618, 0.4927957057952881, -0.4866708219051361, 0.4195697605609894, 0.2704465687274933, -10.715678215026855, 0.7778059244155884, -8.371145248413086, 1.1801269054412842, 47.29744338989258, -0.0703125, 0.827880859375, 0.09130859375, 
364, 3925102547, -0.5880911946296692, 0.49152711033821106, -0.4884238839149475, 0.4171288311481476, 0.12379090487957001, -10.534842491149902, 0.815706193447113, -7.2223711013793945, -4.619907855987549, 47.82825469970703, -0.06298828125, 0.828125, 0.09375, 
365, 3925110880, -0.5895397067070007, 0.4903756380081177, -0.4900301396846771, 0.41454756259918213, 0.2399226725101471, -10.273514747619629, 0.6034274697303772, -7.552487850189209, -8.121355056762695, 47.62200164794922, -0.05712890625, 0.8310546875, 0.094970703125, 
366, 3925119213, -0.5910437703132629, 0.4890545606613159, -0.4915177822113037, 0.4121985137462616, 0.38674643635749817, -9.994915008544922, -0.00545854214578867, -3.5892908573150635, -6.918507099151611, 46.55613327026367, -0.052734375, 0.832275390625, 0.093505859375, 
367, 3925127546, -0.5923961400985718, 0.48761293292045593, -0.4929512143135071, 0.41024911403656006, 0.23334631323814392, -9.816866874694824, -0.6149858832359314, -0.5923429131507874, -2.9673242568969727, 42.74041748046875, -0.0458984375, 0.830810546875, 0.094970703125, 
368, 3925135879, -0.5933433175086975, 0.4863224923610687, -0.4944070875644684, 0.4086569547653198, 0.3961057960987091, -9.476533889770508, -0.9554435610771179, -2.2712042331695557, 1.5100635290145874, 36.83779525756836, -0.038818359375, 0.83154296875, 0.095703125, 
369, 3925144212, -0.5938667058944702, 0.4852057993412018, -0.4960092306137085, 0.4072803258895874, 0.4807911515235901, -8.734225273132324, -1.128865361213684, -5.854895114898682, 6.043376922607422, 32.327781677246094, -0.035888671875, 0.83154296875, 0.096923828125, 
370, 3925152545, -0.5940955877304077, 0.48420199751853943, -0.49785080552101135, 0.4058915078639984, 0.3779202103614807, -8.944878578186035, -0.9295563101768494, -10.183398246765137, 9.299718856811523, 31.78094482421875, -0.029052734375, 0.83447265625, 0.093994140625, 
371, 3925160878, -0.594267725944519, 0.48321235179901123, -0.4998318552970886, 0.4043813943862915, 0.26855528354644775, -9.676871299743652, -0.5499708652496338, -12.267657279968262, 9.934465408325195, 33.111915588378906, -0.024169921875, 0.834716796875, 0.097900390625, 
372, 3925169211, -0.594549298286438, 0.48211750388145447, -0.5018589496612549, 0.40276044607162476, -0.0065420400351285934, -9.604851722717285, 0.05542086064815521, -11.714006423950195, 9.41452407836914, 35.83943557739258, -0.019775390625, 0.832763671875, 0.098388671875, 
373, 3925177544, -0.5949324369430542, 0.48078569769859314, -0.5039894580841064, 0.4011232256889343, -0.2531711161136627, -9.437206268310547, 0.7899964451789856, -9.771859169006348, 10.755843162536621, 38.66979217529297, -0.016357421875, 0.83447265625, 0.10205078125, 
374, 3925185877, -0.5955676436424255, 0.4791322648525238, -0.506117045879364, 0.39947664737701416, -0.728955090045929, -9.355026245117188, 1.2523255348205566, -5.539100646972656, 10.705615997314453, 42.54214096069336, -0.010986328125, 0.83349609375, 0.104736328125, 
375, 3925194210, -0.5965796709060669, 0.477285236120224, -0.5080127716064453, 0.39776766300201416, -1.2821142673492432, -9.152318000793457, 1.4739351272583008, -0.6168303489685059, 6.829074859619141, 44.749019622802734, -0.007080078125, 0.837890625, 0.10302734375, 
376, 3925202543, -0.5978690981864929, 0.4753844141960144, -0.5096908211708069, 0.39595720171928406, -1.5560752153396606, -9.27365493774414, 1.6103132963180542, 2.1070821285247803, 2.740907669067383, 46.24397659301758, 0, 0.836669921875, 0.105224609375, 
377, 3925210876, -0.5992995500564575, 0.47350648045539856, -0.5111747980117798, 0.3941276967525482, -1.8051072359085083, -8.71237850189209, 1.4807630777359009, 3.782716751098633, -0.09914007782936096, 45.54093551635742, 0.0068359375, 0.836181640625, 0.1005859375, 
378, 3925219209, -0.6007298231124878, 0.4716649055480957, -0.5124808549880981, 0.39245885610580444, -2.4035186767578125, -8.125287055969238, 1.0147565603256226, 5.551433563232422, -0.7085805535316467, 42.9996337890625, 0.01416015625, 0.837646484375, 0.100830078125, 
379, 3925227542, -0.6019356846809387, 0.47009196877479553, -0.5136793851852417, 0.3909286856651306, -2.315793752670288, -8.18011474609375, 0.48148471117019653, 3.4598731994628906, -0.5724917650222778, 37.8543586730957, 0.0166015625, 0.83935546875, 0.10205078125, 
380, 3925235875, -0.6029852628707886, 0.46872055530548096, -0.5147484540939331, 0.3895491361618042, -2.2110445499420166, -7.367855072021484, -0.1894298642873764, 2.5123236179351807, -0.6409328579902649, 33.70473098754883, 0.023681640625, 0.83837890625, 0.101318359375, 
381, 3925244208, -0.603839099407196, 0.467676043510437, -0.515744686126709, 0.3881615400314331, -2.527634382247925, -7.480659008026123, -0.47148531675338745, -1.097737431526184, -1.6732385158538818, 29.742353439331055, 0.026611328125, 0.840087890625, 0.084716796875, 
382, 3925252541, -0.604358971118927, 0.467052698135376, -0.5167037844657898, 0.386825293302536, -2.3840878009796143, -7.892695426940918, -0.553380012512207, -6.179731369018555, -1.5290296077728271, 24.306716918945312, 0.032470703125, 0.841064453125, 0.102783203125, 
383, 3925260874, -0.6047064661979675, 0.46662449836730957, -0.5175819396972656, 0.3856229782104492, -2.1547062397003174, -7.498384475708008, -0.643626868724823, -7.390183448791504, -0.5796887874603271, 20.549591064453125, 0.036865234375, 0.840087890625, 0.100830078125, 
384, 3925269207, -0.6050182580947876, 0.46617668867111206, -0.5183371901512146, 0.3846598267555237, -2.370572566986084, -7.343595027923584, -0.6509007811546326, -5.2614336013793945, -0.27500730752944946, 17.738117218017578, 0.038818359375, 0.841064453125, 0.1015625, 
385, 3925277540, -0.6053458452224731, 0.4656723141670227, -0.5189472436904907, 0.3839324712753296, -2.4702398777008057, -7.311960697174072, -0.6172685027122498, -2.217719078063965, 0.20540058612823486, 15.137041091918945, 0.041748046875, 0.842041015625, 0.10302734375, 
386, 3925285873, -0.6056939363479614, 0.4650835692882538, -0.5193846225738525, 0.38350504636764526, -2.295314073562622, -6.931968688964844, -0.5037277936935425, 1.6476103067398071, 0.9973160624504089, 12.436302185058594, 0.045166015625, 0.843017578125, 0.099853515625, 
387, 3925294206, -0.6060401797294617, 0.4644516110420227, -0.519641637802124, 0.3833759129047394, -2.238588809967041, -7.193901062011719, -0.3075729012489319, 5.098232269287109, 1.6337783336639404, 8.906659126281738, 0.044677734375, 0.8427734375, 0.102294921875, 
388, 3925302539, -0.6062883734703064, 0.46385592222213745, -0.5199468731880188, 0.38329052925109863, -2.3527581691741943, -6.971540927886963, -0.11730601638555527, 4.210724353790283, 2.834906816482544, 8.262460708618164, 0.045654296875, 0.84130859375, 0.103759765625, 
389, 3925310872, -0.6065890789031982, 0.46306347846984863, -0.5202183723449707, 0.38340479135513306, -2.4070589542388916, -7.1858062744140625, -0.1749378740787506, 7.808296203613281, 4.47934103012085, 7.878709316253662, 0.052490234375, 0.8427734375, 0.1025390625, 
390, 3925319205, -0.6069527864456177, 0.4622155427932739, -0.5202898383140564, 0.3837553858757019, -2.4935967922210693, -7.344172477722168, -0.20995739102363586, 11.403406143188477, 4.1656174659729, 5.5492730140686035, 0.050048828125, 0.8447265625, 0.101318359375, 
391, 3925327538, -0.6073477268218994, 0.46138760447502136, -0.520277738571167, 0.38414305448532104, -3.2258996963500977, -6.32566499710083, -0.22246916592121124, 12.153519630432129, 3.367042303085327, 4.541788101196289, 0.04931640625, 0.84228515625, 0.086181640625, 
392, 3925335871, -0.6074098348617554, 0.46077340841293335, -0.5206739902496338, 0.3842449486255646, -3.4382524490356445, -5.932995319366455, 0.17555545270442963, 4.04423189163208, 6.224029064178467, 6.418645858764648, 0.05078125, 0.841552734375, 0.09619140625, 
393, 3925344204, -0.607142448425293, 0.46038618683815, -0.5213831663131714, 0.3841701149940491, -3.2360126972198486, -5.2993245124816895, 0.03235073387622833, -2.8453447818756104, 8.87059497833252, 6.324001312255859, 0.0537109375, 0.84375, 0.09912109375, 
394, 3925352537, -0.6065775156021118, 0.4604911208152771, -0.5221458077430725, 0.38390102982521057, -3.586576461791992, -5.142702102661133, -0.043737247586250305, -10.525799751281738, 7.630532264709473, 3.3619203567504883, 0.0517578125, 0.84375, 0.09716796875, 
395, 3925360870, -0.6059110164642334, 0.4612056612968445, -0.5225377678871155, 0.3835620880126953, -4.026788234710693, -6.014047622680664, -0.2762690484523773, -14.78752326965332, 1.5963562726974487, -3.4923095703125, 0.05322265625, 0.842041015625, 0.09716796875, 
396, 3925369203, -0.6052391529083252, 0.46259668469429016, -0.5220954418182373, 0.38355007767677307, -3.647491931915283, -7.8022236824035645, -0.3075631260871887, -13.717235565185547, -6.804360389709473, -16.230504989624023, 0.0546875, 0.84326171875, 0.10009765625, 
397, 3925377536, -0.604561984539032, 0.46439141035079956, -0.5209816694259644, 0.3839637041091919, -3.072547197341919, -8.601814270019531, -0.2412959188222885, -10.505621910095215, -11.782288551330566, -27.13839340209961, 0.05078125, 0.84130859375, 0.1005859375, 
398, 3925385869, -0.6041296720504761, 0.4661025404930115, -0.5194576382637024, 0.38463491201400757, -3.094355344772339, -8.490348815917969, -0.6342209577560425, -4.2415289878845215, -14.854974746704102, -29.843698501586914, 0.049560546875, 0.84130859375, 0.10107421875, 
399, 3925394202, -0.6037699580192566, 0.4678589701652527, -0.5175780653953552, 0.38560009002685547, -3.3088905811309814, -8.370660781860352, -0.483851820230484, -0.16589081287384033, -16.690757751464844, -34.66864013671875, 0.046630859375, 0.841796875, 0.102783203125, 
400, 3925402535, -0.6033560037612915, 0.46963757276535034, -0.5155847668647766, 0.3867540955543518, -3.1969456672668457, -7.703789234161377, -0.303151935338974, 1.2460575103759766, -16.143152236938477, -37.25376510620117, 0.040283203125, 0.841064453125, 0.099609375, 
401, 3925410868, -0.6031370162963867, 0.4711723029613495, -0.5135889649391174, 0.3878829777240753, -3.4779632091522217, -8.138518333435059, 0.1575656235218048, 4.367514133453369, -16.417245864868164, -34.454917907714844, 0.038818359375, 0.840576171875, 0.103515625, 
402, 3925419201, -0.6019703149795532, 0.47458553314208984, -0.5112452507019043, 0.3886297345161438, -4.181260585784912, -4.082389831542969, -1.5486866235733032, -18.198572158813477, -25.100786209106445, -51.70965576171875, 0.033935546875, 0.839111328125, 0.101806640625, 
403, 3925427534, -0.6011222004890442, 0.4776904582977295, -0.5095601081848145, 0.38835152983665466, -2.69691801071167, -6.6971821784973145, -0.3406716287136078, -24.29073715209961, -26.936771392822266, -35.208518981933594, 0.028076171875, 0.84228515625, 0.093994140625, 
404, 3925435867, -0.6005713939666748, 0.47934940457344055, -0.5091522932052612, 0.38769423961639404, -1.788119912147522, -11.924169540405273, 0.6472325921058655, -19.85761260986328, -13.225495338439941, -11.821680068969727, 0.02734375, 0.841064453125, 0.10693359375, 
405, 3925444200, -0.6009035110473633, 0.47974520921707153, -0.5084741711616516, 0.3875797986984253, -2.3793115615844727, -11.217053413391113, -1.2308686971664429, 1.6305768489837646, -11.330419540405273, -4.677095890045166, 0.02685546875, 0.839111328125, 0.10888671875, 
406, 3925452533, -0.6016706824302673, 0.47986310720443726, -0.5077065229415894, 0.3872498869895935, -4.64711856842041, -12.80179214477539, -0.2986272871494293, 5.77554988861084, -15.048968315124512, 0.9178094267845154, 0.029541015625, 0.837646484375, 0.10498046875, 
407, 3925460866, -0.602065920829773, 0.48059332370758057, -0.5063392519950867, 0.3875199854373932, -4.914804458618164, -10.868449211120605, -0.13580283522605896, 5.63054895401001, -16.719276428222656, -14.40262222290039, 0.030517578125, 0.840087890625, 0.10546875, 
408, 3925469199, -0.6020858287811279, 0.4818333089351654, -0.5045720934867859, 0.3882535398006439, -4.414168357849121, -10.186907768249512, 0.09344054758548737, 4.2978925704956055, -17.06794548034668, -26.295635223388672, 0.02587890625, 0.840087890625, 0.104736328125, 
409, 3925477532, -0.6018552184104919, 0.48326873779296875, -0.5029147863388062, 0.38897672295570374, -3.7396819591522217, -10.20444107055664, 0.17994984984397888, 0.34896865487098694, -15.534832000732422, -28.3120174407959, 0.020263671875, 0.836669921875, 0.08935546875, 
410, 3925485865, -0.6010270714759827, 0.48497456312179565, -0.5016230344772339, 0.3898013234138489, -3.4044716358184814, -10.088542938232422, 0.4615546762943268, -7.100029468536377, -9.146122932434082, -31.66021156311035, 0.0185546875, 0.841064453125, 0.10791015625, 
411, 3925494198, -0.5994033217430115, 0.48678264021873474, -0.5012910962104797, 0.39047425985336304, -2.7227234840393066, -9.733502388000488, 1.3517743349075317, -19.455734252929688, 2.713446617126465, -29.10439682006836, 0.017578125, 0.8388671875, 0.1064453125, 
412, 3925502531, -0.5974888205528259, 0.48826685547828674, -0.5015986561775208, 0.39115941524505615, -3.018965721130371, -10.532402992248535, 0.7773412466049194, -22.071260452270508, 11.811300277709961, -24.127164840698242, 0.01123046875, 0.835205078125, 0.104736328125, 
413, 3925510864, -0.5954369306564331, 0.48991331458091736, -0.5019224286079407, 0.3918141722679138, -3.8508589267730713, -11.369038581848145, 0.08058582246303558, -24.633867263793945, 11.813658714294434, -25.752338409423828, 0.01123046875, 0.8388671875, 0.112548828125, 
414, 3925519197, -0.5934323668479919, 0.49165576696395874, -0.5019504427909851, 0.3926360011100769, -3.830869197845459, -11.276167869567871, -0.08405811339616776, -22.347103118896484, 9.67481517791748, -29.39963150024414, 0.0078125, 0.83447265625, 0.112548828125, 
415, 3925527530, -0.591773509979248, 0.4932200312614441, -0.5014681220054626, 0.3937923312187195, -3.405958652496338, -10.900961875915527, -0.06218952313065529, -13.498627662658691, 6.344319820404053, -32.60346221923828, 0.0029296875, 0.83251953125, 0.11376953125, 
416, 3925535863, -0.5905901193618774, 0.4945467710494995, -0.500440239906311, 0.395209938287735, -3.8631668090820312, -10.8626127243042, 0.27515554428100586, -3.576685667037964, 1.6865198612213135, -34.10286331176758, -0.001220703125, 0.8359375, 0.116455078125, 
417, 3925544196, -0.5899011492729187, 0.4956190586090088, -0.49889588356018066, 0.3968447148799896, -4.040675640106201, -10.416376113891602, 0.7695600986480713, 6.1464762687683105, -3.051286458969116, -35.05492401123047, -0.003662109375, 0.83544921875, 0.115478515625, 
418, 3925552529, -0.5894520282745361, 0.49660420417785645, -0.49698546528816223, 0.39867329597473145, -3.562835216522217, -9.201274871826172, 1.2051361799240112, 11.821985244750977, -5.869625568389893, -37.109352111816406, -0.006103515625, 0.836181640625, 0.1123046875, 
419, 3925560862, -0.5889855027198792, 0.4976356327533722, -0.4949907064437866, 0.40055394172668457, -3.507234573364258, -8.555319786071777, 1.5960707664489746, 12.138579368591309, -6.332143306732178, -38.62682342529297, -0.013916015625, 0.834716796875, 0.112548828125, 
420, 3925569195, -0.588405191898346, 0.498878538608551, -0.4928359389305115, 0.4025131165981293, -3.8021790981292725, -7.743458271026611, 1.3601129055023193, 11.063985824584961, -7.479638576507568, -42.322898864746094, -0.0185546875, 0.83349609375, 0.088623046875, 
421, 3925577528, -0.5877017378807068, 0.5004876255989075, -0.4906686544418335, 0.4041876196861267, -3.7421326637268066, -7.853979110717773, 1.2115315198898315, 5.3951873779296875, -10.729144096374512, -43.37062454223633, -0.024169921875, 0.832275390625, 0.107177734375, 
422, 3925585861, -0.5868772864341736, 0.5023440718650818, -0.48874372243881226, 0.4054127037525177, -3.223860263824463, -7.462270259857178, 0.9422776103019714, -1.819573998451233, -12.420323371887207, -40.322696685791016, -0.025146484375, 0.833251953125, 0.107177734375, 
423, 3925594194, -0.586014449596405, 0.5042603015899658, -0.4868720769882202, 0.4065324366092682, -3.2161865234375, -7.645834922790527, 0.35880663990974426, -3.5695412158966064, -12.794676780700684, -39.80820846557617, -0.03173828125, 0.833251953125, 0.1083984375, 
424, 3925602527, -0.5853511691093445, 0.5061359405517578, -0.48488649725914, 0.4075292944908142, -3.408982753753662, -8.305840492248535, -0.020149219781160355, -2.050102472305298, -15.672516822814941, -38.143253326416016, -0.037109375, 0.832275390625, 0.110595703125, 
425, 3925610860, -0.5852203369140625, 0.5076169967651367, -0.48276883363723755, 0.40838825702667236, -3.167294979095459, -8.629151344299316, -0.201361745595932, 4.6586456298828125, -19.035381317138672, -32.413970947265625, -0.03955078125, 0.832763671875, 0.10888671875, 
426, 3925619193, -0.5855541229248047, 0.5088770985603333, -0.48049402236938477, 0.4090239107608795, -3.1245875358581543, -8.63434886932373, 0.08630549162626266, 9.07536506652832, -23.700510025024414, -27.570547103881836, -0.04248046875, 0.832275390625, 0.109375, 
427, 3925627526, -0.5861324071884155, 0.5098875164985657, -0.47832655906677246, 0.4094776511192322, -3.1214194297790527, -8.767334938049316, 0.2796020805835724, 10.997635841369629, -24.32259750366211, -22.39658546447754, -0.045654296875, 0.829833984375, 0.093505859375, 
428, 3925635859, -0.5869513750076294, 0.5107855200767517, -0.4759995639324188, 0.4098968207836151, -3.215710163116455, -7.7784199714660645, 0.22692535817623138, 14.2568998336792, -26.800168991088867, -21.08355140686035, -0.046875, 0.828125, 0.108154296875, 
429, 3925644192, -0.5880417227745056, 0.511557936668396, -0.4734754264354706, 0.4102940857410431, -3.74699068069458, -7.934736251831055, 0.36555248498916626, 18.150066375732422, -29.614540100097656, -19.997228622436523, -0.04833984375, 0.8310546875, 0.104736328125, 
430, 3925652525, -0.5891359448432922, 0.5124028921127319, -0.47069963812828064, 0.41086333990097046, -3.7001335620880127, -7.918353080749512, 0.878197193145752, 20.122730255126953, -30.871980667114258, -23.561641693115234, -0.052734375, 0.829833984375, 0.09912109375, 
431, 3925660858, -0.5899593830108643, 0.5132408738136292, -0.4678545892238617, 0.4118841588497162, -3.4996094703674316, -7.486166954040527, 1.2434971332550049, 21.5936336517334, -26.46230697631836, -29.241044998168945, -0.052734375, 0.8291015625, 0.0927734375, 
432, 3925669191, -0.5905897617340088, 0.5138993263244629, -0.4651060104370117, 0.4132699966430664, -3.449827194213867, -7.534939765930176, 1.3827357292175293, 23.480688095092773, -20.84235191345215, -31.422819137573242, -0.05322265625, 0.830322265625, 0.094482421875, 
433, 3925677524, -0.5911329984664917, 0.5145313143730164, -0.46229124069213867, 0.41486209630966187, -3.6283950805664062, -7.855136871337891, 1.133455514907837, 24.781408309936523, -19.214336395263672, -33.92869186401367, -0.056396484375, 0.826904296875, 0.087646484375, 
434, 3925685857, -0.5915547013282776, 0.5150671005249023, -0.45939239859580994, 0.41681188344955444, -3.5380947589874268, -8.195019721984863, 1.1824641227722168, 27.446453094482422, -16.044776916503906, -37.48946762084961, -0.06005859375, 0.829345703125, 0.08740234375, 
435, 3925694190, -0.592038631439209, 0.5152004957199097, -0.45616352558135986, 0.4194975197315216, -3.4404032230377197, -9.259057998657227, 1.0031968355178833, 37.71139144897461, -11.605320930480957, -42.93894958496094, -0.064453125, 0.830322265625, 0.080322265625, 
436, 3925702523, -0.5924643874168396, 0.5156566500663757, -0.45251280069351196, 0.4222804307937622, -3.7745888233184814, -10.435153007507324, 1.2499783039093018, 37.70098114013672, -15.848902702331543, -49.06645584106445, -0.070556640625, 0.825927734375, 0.0732421875, 
437, 3925710856, -0.592685878276825, 0.5167190432548523, -0.44861745834350586, 0.4248197078704834, -3.813723564147949, -11.345606803894043, 1.501528263092041, 31.23309326171875, -21.818147659301758, -53.78804016113281, -0.07568359375, 0.827880859375, 0.071533203125, 
438, 3925719189, -0.5929211378097534, 0.5179039239883423, -0.44457724690437317, 0.4272887110710144, -3.132225751876831, -12.324692726135254, 1.418900728225708, 30.727190017700195, -24.299823760986328, -54.91889572143555, -0.081787109375, 0.82568359375, 0.066650390625, 
439, 3925727522, -0.5935178995132446, 0.5186551213264465, -0.4404168725013733, 0.4298498034477234, -2.704239845275879, -12.887210845947266, 0.8794185519218445, 38.125484466552734, -24.28345489501953, -51.75030517578125, -0.088134765625, 0.826416015625, 0.06005859375, 
440, 3925735855, -0.5944478511810303, 0.518905520439148, -0.4360874891281128, 0.43266743421554565, -2.575731039047241, -12.116606712341309, 0.3787739872932434, 47.12275314331055, -22.892379760742188, -50.056400299072266, -0.093017578125, 0.82275390625, 0.055419921875, 
441, 3925744188, -0.5954858660697937, 0.5189152956008911, -0.43170639872550964, 0.43561166524887085, -2.2444403171539307, -10.892476081848145, -0.12545998394489288, 50.946311950683594, -21.627365112304688, -49.366844177246094, -0.099365234375, 0.821533203125, 0.04736328125, 
442, 3925752521, -0.5964927673339844, 0.5187800526618958, -0.427337646484375, 0.43869197368621826, -2.011565685272217, -9.942620277404785, -0.32473060488700867, 52.63057327270508, -19.50493812561035, -49.733394622802734, -0.103759765625, 0.819091796875, 0.036865234375, 
443, 3925760854, -0.5974990725517273, 0.5184618234634399, -0.42318153381347656, 0.44171732664108276, -1.6757051944732666, -9.139357566833496, 0.07074890285730362, 52.53702926635742, -17.043237686157227, -46.678043365478516, -0.112060546875, 0.821044921875, 0.033447265625, 
444, 3925769187, -0.5980489253997803, 0.5183835625648499, -0.4189234972000122, 0.4451107382774353, -2.44020414352417, -8.171428680419922, 0.7081665992736816, 50.06258773803711, -14.060660362243652, -54.6195182800293, -0.114990234375, 0.8203125, 0.0263671875, 
445, 3925777520, -0.5982387065887451, 0.5187427401542664, -0.4146081507205963, 0.4484652578830719, -2.239409923553467, -7.371059894561768, 1.5006012916564941, 44.0337028503418, -15.408382415771484, -59.41155242919922, -0.12158203125, 0.81884765625, 0.00732421875, 
446, 3925785853, -0.5984808802604675, 0.5191764831542969, -0.4100816249847412, 0.4517897367477417, -1.7974475622177124, -8.394889831542969, 1.8125290870666504, 44.914241790771484, -18.124488830566406, -60.80310821533203, -0.130126953125, 0.81689453125, 0.012939453125, 
447, 3925794186, -0.5989386439323425, 0.5195099711418152, -0.4050242304801941, 0.45534807443618774, -1.725652813911438, -8.059957504272461, 2.186612367630005, 51.9083251953125, -21.412343978881836, -64.5809097290039, -0.13525390625, 0.815673828125, 0.005859375, 
448, 3925802519, -0.5997322797775269, 0.5197139382362366, -0.39960867166519165, 0.4588421881198883, -0.8885644674301147, -9.689310073852539, 2.326188802719116, 57.24296569824219, -25.887168884277344, -63.825931549072266, -0.14453125, 0.810302734375, -0.000244140625, 
