sep=,
PacketCounter,SampleTimeFine,Quat_W,Quat_X,Quat_Y,Quat_Z,Acc_X,Acc_Y,Acc_Z,Gyr_X,Gyr_Y,Gyr_Z,Mag_X,Mag_Y,Mag_Z,
0, 3535709790, -0.5093749761581421, 0.5635207295417786, -0.48464435338974, 0.4337117075920105, 0, 0, 0, 0, 0, 0, -0.231201171875, 0.78271484375, 0.2197265625, 
1, 3535718123, -0.5096376538276672, 0.5633493661880493, -0.484455406665802, 0.43383681774139404, -0.010422536171972752, -9.890427589416504, -0.9333161115646362, 5.04857873916626, -1.6326770782470703, 0.2451666295528412, -0.230224609375, 0.78125, 0.21875, 
2, 3535726456, -0.5099352598190308, 0.563168466091156, -0.48425188660621643, 0.43394938111305237, -0.005504476837813854, -9.841787338256836, -0.8904975056648254, 5.4261579513549805, -2.002751588821411, 0.460146963596344, -0.23046875, 0.783935546875, 0.22021484375, 
3, 3535734789, -0.5102344751358032, 0.5629913806915283, -0.48405921459198, 0.43404221534729004, -0.025827649980783463, -9.850855827331543, -0.8472878932952881, 5.17997932434082, -2.1154541969299316, 0.6983336210250854, -0.230224609375, 0.783447265625, 0.220703125, 
4, 3535743122, -0.5105077624320984, 0.56283038854599, -0.48389899730682373, 0.4341086447238922, 0.0006570313707925379, -9.78167724609375, -0.8519130349159241, 4.530966281890869, -2.0121004581451416, 0.8415429592132568, -0.231201171875, 0.78369140625, 0.215576171875, 
5, 3535751455, -0.510748028755188, 0.5626839399337769, -0.4837709367275238, 0.43415847420692444, -0.021804189309477806, -9.785491943359375, -0.8364126086235046, 3.83451509475708, -1.7851840257644653, 0.9445121884346008, -0.229736328125, 0.78173828125, 0.21533203125, 
6, 3535759788, -0.5109336972236633, 0.5625529289245605, -0.48370859026908875, 0.43417930603027344, -0.01051155012100935, -9.79786205291748, -0.8311922550201416, 2.755873680114746, -1.2753326892852783, 1.1967353820800781, -0.230712890625, 0.78125, 0.21923828125, 
7, 3535768121, -0.5110499262809753, 0.5624499320983887, -0.48370248079299927, 0.4341825544834137, -0.0053616962395608425, -9.82506275177002, -0.8520698547363281, 1.5305402278900146, -0.7225519418716431, 1.1859261989593506, -0.230712890625, 0.783203125, 0.2177734375, 
8, 3535776454, -0.5111067295074463, 0.5623758435249329, -0.4837533235549927, 0.43415525555610657, -0.009355918504297733, -9.867182731628418, -0.8404518961906433, 0.364067941904068, -0.3349573612213135, 1.2624871730804443, -0.231689453125, 0.78271484375, 0.217041015625, 
9, 3535784787, -0.5111287832260132, 0.5623188614845276, -0.4838259220123291, 0.43412190675735474, -0.02487758733332157, -9.872003555297852, -0.8512741327285767, -0.23437026143074036, -0.10227764397859573, 1.183211326599121, -0.229248046875, 0.78271484375, 0.21533203125, 
10, 3535793120, -0.5111258625984192, 0.5622695088386536, -0.4839305281639099, 0.4340727925300598, -0.031229311600327492, -9.8582124710083, -0.8698357939720154, -0.7391499280929565, 0.12539446353912354, 1.3106162548065186, -0.230224609375, 0.78173828125, 0.21630859375, 
11, 3535801453, -0.5111311078071594, 0.5622254014015198, -0.4840191900730133, 0.4340245723724365, -0.054147012531757355, -9.869756698608398, -0.871953010559082, -0.6518822908401489, -0.07018300890922546, 1.2267298698425293, -0.230224609375, 0.78173828125, 0.21630859375, 
12, 3535809786, -0.5111460089683533, 0.5621829032897949, -0.4841005802154541, 0.4339715242385864, -0.05697242170572281, -9.90376091003418, -0.8823674917221069, -0.5361571907997131, -0.22727513313293457, 1.2193529605865479, -0.229736328125, 0.783203125, 0.2158203125, 
13, 3535818119, -0.5111662745475769, 0.5621190667152405, -0.48417776823043823, 0.4339442849159241, -0.039297718554735184, -9.870293617248535, -0.8869668245315552, -0.18913552165031433, 0.029674090445041656, 1.2109769582748413, -0.228759765625, 0.78515625, 0.21630859375, 
14, 3535826452, -0.5111860036849976, 0.562035322189331, -0.48425227403640747, 0.433946430683136, -0.04379691556096077, -9.820701599121094, -0.8728188276290894, 0.19962452352046967, 0.3638373911380768, 1.08206045627594, -0.229248046875, 0.7822265625, 0.2177734375, 
15, 3535834785, -0.5111970901489258, 0.5619282126426697, -0.48434674739837646, 0.43396639823913574, -0.04460512846708298, -9.80004596710205, -0.8953571319580078, 0.25495126843452454, 0.8360869884490967, 1.2469648122787476, -0.229736328125, 0.78271484375, 0.21875, 
16, 3535843118, -0.5111948847770691, 0.5618049502372742, -0.484444797039032, 0.43401917815208435, -0.05506477132439613, -9.806680679321289, -0.9122793078422546, 0.5048437714576721, 1.301984429359436, 1.0400019884109497, -0.229736328125, 0.78466796875, 0.21484375, 
17, 3535851451, -0.5111859440803528, 0.5616739392280579, -0.4845421016216278, 0.434090793132782, -0.061213765293359756, -9.841490745544434, -0.9501211643218994, 0.5942374467849731, 1.532589316368103, 0.9444097280502319, -0.230712890625, 0.78466796875, 0.216064453125, 
18, 3535859784, -0.5111820697784424, 0.561543345451355, -0.4846191704273224, 0.43417835235595703, -0.0845719575881958, -9.75658130645752, -0.9625082612037659, 0.899482250213623, 1.4769039154052734, 0.6722583770751953, -0.231201171875, 0.78515625, 0.216064453125, 
19, 3535868117, -0.5111880898475647, 0.5614158511161804, -0.4846726357936859, 0.4342763125896454, -0.08161341398954391, -9.73377513885498, -0.9792070388793945, 1.1235555410385132, 1.306902289390564, 0.48770779371261597, -0.230224609375, 0.78369140625, 0.21728515625, 
20, 3535876450, -0.5111977458000183, 0.5613074898719788, -0.4847135841846466, 0.43435928225517273, -0.047086816281080246, -9.748924255371094, -1.0039372444152832, 1.0327274799346924, 0.9655157923698425, 0.35899630188941956, -0.232177734375, 0.78515625, 0.215576171875, 
21, 3535884783, -0.5111884474754333, 0.5612295269966125, -0.48475101590156555, 0.4344292879104614, -0.03313196823000908, -9.736350059509277, -1.015610694885254, 0.5662665963172913, 0.7834240794181824, 0.1383296698331833, -0.2314453125, 0.7861328125, 0.216064453125, 
22, 3535893116, -0.5111562609672546, 0.5611736178398132, -0.4848023056983948, 0.434482216835022, -0.014405908063054085, -9.731099128723145, -1.0039442777633667, 0.07926324754953384, 0.7721796035766602, 0.04885915294289589, -0.229736328125, 0.78076171875, 0.21533203125, 
23, 3535901449, -0.5111241936683655, 0.5611376166343689, -0.48484745621681213, 0.43451592326164246, -0.047587864100933075, -9.761234283447266, -1.0161685943603516, -0.1920299232006073, 0.459276020526886, 0.03751204162836075, -0.232421875, 0.78564453125, 0.215576171875, 
24, 3535909782, -0.5111002326011658, 0.5611053109169006, -0.4848851263523102, 0.4345439076423645, -0.040663912892341614, -9.811532974243164, -1.0293012857437134, -0.10901416838169098, 0.2879680097103119, 0.012077109888195992, -0.228759765625, 0.7822265625, 0.21728515625, 
25, 3535918115, -0.5111021399497986, 0.5610743761062622, -0.4848993420600891, 0.4345657229423523, -0.021737489849328995, -9.830230712890625, -1.004223346710205, 0.1408398598432541, -0.10676012933254242, 0.0509595163166523, -0.228271484375, 0.78515625, 0.2138671875, 
26, 3535926448, -0.511131227016449, 0.5610440373420715, -0.48487967252731323, 0.43459266424179077, -0.050456155091524124, -9.848448753356934, -1.0230282545089722, 0.622848629951477, -0.4888477325439453, -0.11744127422571182, -0.229736328125, 0.78515625, 0.215087890625, 
27, 3535934781, -0.5111836194992065, 0.5610071420669556, -0.4848191738128662, 0.4346460998058319, -0.05313131585717201, -9.830109596252441, -1.0297805070877075, 1.2307512760162354, -0.6894840002059937, -0.40588316321372986, -0.230712890625, 0.783203125, 0.216064453125, 
28, 3535943114, -0.5112578868865967, 0.5609610080718994, -0.48472243547439575, 0.43472611904144287, -0.02050667442381382, -9.849390983581543, -0.9918727278709412, 1.8968491554260254, -0.8275958299636841, -0.7120757102966309, -0.226318359375, 0.78662109375, 0.21337890625, 
29, 3535951447, -0.5113280415534973, 0.5609102249145508, -0.484619140625, 0.43482398986816406, -0.03463579714298248, -9.825563430786133, -0.9690709710121155, 2.0172362327575684, -0.6809543967247009, -0.848292350769043, -0.230224609375, 0.783203125, 0.213134765625, 
30, 3535959780, -0.5113910436630249, 0.5608633756637573, -0.4845254719257355, 0.4349150061607361, -0.05465303361415863, -9.774894714355469, -0.9514179825782776, 1.8700824975967407, -0.6417903304100037, -0.8273654580116272, -0.228271484375, 0.78515625, 0.21484375, 
31, 3535968113, -0.511432409286499, 0.5608322024345398, -0.4844405949115753, 0.43500107526779175, -0.06519234925508499, -9.817721366882324, -0.9454630017280579, 1.4678364992141724, -0.5704546570777893, -0.9265180826187134, -0.229248046875, 0.7841796875, 0.21484375, 
32, 3535976446, -0.511449933052063, 0.5608196258544922, -0.48436397314071655, 0.43508198857307434, -0.06193646788597107, -9.842162132263184, -0.9279025793075562, 1.1091604232788086, -0.5019877552986145, -1.1247978210449219, -0.230712890625, 0.78515625, 0.214599609375, 
33, 3535984779, -0.5114494562149048, 0.5608155727386475, -0.48429304361343384, 0.4351666271686554, -0.04977663233876228, -9.838163375854492, -0.9201703071594238, 0.8608047366142273, -0.3670007288455963, -1.2420085668563843, -0.229736328125, 0.78271484375, 0.21142578125, 
34, 3535993112, -0.5114356279373169, 0.5608094334602356, -0.4842434227466583, 0.435246080160141, -0.06427539139986038, -9.843369483947754, -0.9300270676612854, 0.6510754227638245, -0.15191802382469177, -1.1373231410980225, -0.230712890625, 0.78515625, 0.214111328125, 
35, 3536001445, -0.5114318132400513, 0.5607963800430298, -0.48419851064682007, 0.43531742691993713, -0.09810839593410492, -9.856117248535156, -0.9177097678184509, 0.6544820666313171, -0.20857669413089752, -0.9063084721565247, -0.229248046875, 0.7861328125, 0.211669921875, 
36, 3536009778, -0.5114295482635498, 0.560776948928833, -0.4841654598712921, 0.4353818893432617, -0.08818034827709198, -9.878470420837402, -0.9204349517822266, 0.6331710815429688, -0.14851132035255432, -0.745732843875885, -0.230712890625, 0.7841796875, 0.214599609375, 
37, 3536018111, -0.5114404559135437, 0.5607607960700989, -0.48410868644714355, 0.43545272946357727, -0.08821601420640945, -9.90158748626709, -0.9167298078536987, 0.8584737181663513, -0.37709271907806396, -0.8856121301651001, -0.233154296875, 0.7841796875, 0.215576171875, 
38, 3536026444, -0.5114650726318359, 0.5607357621192932, -0.48404452204704285, 0.43552741408348083, -0.10930974781513214, -9.867260932922363, -0.9303988814353943, 1.1349283456802368, -0.4340588450431824, -0.860894501209259, -0.231201171875, 0.78173828125, 0.212158203125, 
39, 3536034777, -0.5115019083023071, 0.5607186555862427, -0.4839601218700409, 0.43560001254081726, -0.11984246969223022, -9.853379249572754, -0.8690780401229858, 1.2404848337173462, -0.72503662109375, -0.9485463500022888, -0.232666015625, 0.78271484375, 0.211181640625, 
40, 3536043110, -0.5115482211112976, 0.5606949925422668, -0.4838806986808777, 0.43566420674324036, -0.1276429295539856, -9.838239669799805, -0.8464776873588562, 1.3159698247909546, -0.7765724062919617, -0.7829504013061523, -0.231201171875, 0.78515625, 0.213134765625, 
41, 3536051443, -0.5115992426872253, 0.5606712698936462, -0.4838085174560547, 0.4357149600982666, -0.15096038579940796, -9.851866722106934, -0.8464603424072266, 1.1762440204620361, -0.860971212387085, -0.5736307501792908, -0.230224609375, 0.783203125, 0.212646484375, 
42, 3536059776, -0.5116332173347473, 0.5606456398963928, -0.48376160860061646, 0.4357602000236511, -0.125410795211792, -9.888397216796875, -0.8065831661224365, 0.9122126698493958, -0.5979130864143372, -0.4613380432128906, -0.231201171875, 0.782470703125, 0.209228515625, 
43, 3536068109, -0.5116429328918457, 0.5606218576431274, -0.4837411940097809, 0.43580201268196106, -0.13937292993068695, -9.882532119750977, -0.800024151802063, 0.4900386929512024, -0.29189983010292053, -0.35780519247055054, -0.230224609375, 0.7822265625, 0.211181640625, 
44, 3536076442, -0.511627197265625, 0.5606018304824829, -0.4837542176246643, 0.43583187460899353, -0.14980198442935944, -9.897825241088867, -0.8077777028083801, 0.026446696370840073, 0.002804758492857218, -0.22491858899593353, -0.229248046875, 0.78564453125, 0.2138671875, 
45, 3536084775, -0.5115991830825806, 0.560577929019928, -0.48378029465675354, 0.43586644530296326, -0.11387357860803604, -9.960491180419922, -0.8363896608352661, -0.12842977046966553, 0.23110441863536835, -0.1768406629562378, -0.231201171875, 0.78564453125, 0.213134765625, 
46, 3536093108, -0.5115734338760376, 0.5605347752571106, -0.48382529616355896, 0.4359022378921509, -0.10895925760269165, -9.943252563476562, -0.8497863411903381, -0.03852381184697151, 0.4768986403942108, 0.07321829348802567, -0.231689453125, 0.787109375, 0.213623046875, 
47, 3536101441, -0.5115650296211243, 0.5604726076126099, -0.4838660955429077, 0.43594664335250854, -0.1167987734079361, -9.955619812011719, -0.8766023516654968, 0.26637521386146545, 0.5096079707145691, 0.23948028683662415, -0.232421875, 0.78759765625, 0.213623046875, 
48, 3536109774, -0.5115675330162048, 0.5604097843170166, -0.4838995039463043, 0.4359876811504364, -0.10983190685510635, -9.99066162109375, -0.8954858779907227, 0.4222378432750702, 0.36550232768058777, 0.24724140763282776, -0.233642578125, 0.78369140625, 0.211181640625, 
49, 3536118107, -0.5115789771080017, 0.5603451728820801, -0.4839332103729248, 0.4360195994377136, -0.10854408144950867, -9.936994552612305, -0.9107927083969116, 0.3970334529876709, 0.2471645623445511, 0.4101223349571228, -0.231201171875, 0.78369140625, 0.212646484375, 
50, 3536126440, -0.5115975737571716, 0.5602757930755615, -0.4839848279953003, 0.436029851436615, -0.10177779942750931, -9.915407180786133, -0.9043196439743042, 0.2778504192829132, 0.19060833752155304, 0.7440295219421387, -0.230224609375, 0.78564453125, 0.211669921875, 
51, 3536134773, -0.5116180777549744, 0.5602164268493652, -0.4840390980243683, 0.4360218942165375, -0.11724940687417984, -9.973682403564453, -0.9037330746650696, 0.04073943570256233, -0.007402513641864061, 0.8654665946960449, -0.232421875, 0.7861328125, 0.216064453125, 
52, 3536143106, -0.511638879776001, 0.5601605176925659, -0.4841173589229584, 0.43598243594169617, -0.12317195534706116, -9.945770263671875, -0.8927677869796753, -0.2907983958721161, -0.10250816494226456, 1.2233742475509644, -0.228271484375, 0.78369140625, 0.21240234375, 
53, 3536151439, -0.5116688013076782, 0.5601027607917786, -0.4842012822628021, 0.43592843413352966, -0.10527554154396057, -9.90969181060791, -0.9053210020065308, -0.3822924792766571, -0.22535403072834015, 1.4629698991775513, -0.230712890625, 0.7822265625, 0.213134765625, 
54, 3536159772, -0.5116962194442749, 0.5600480437278748, -0.48430463671684265, 0.4358517825603485, -0.12168420851230621, -9.881464958190918, -0.8925930857658386, -0.6446846723556519, -0.2621616721153259, 1.7097629308700562, -0.228271484375, 0.7841796875, 0.21435546875, 
55, 3536168105, -0.5117123126983643, 0.5599936246871948, -0.48441004753112793, 0.43578529357910156, -0.11814270913600922, -9.847646713256836, -0.8872113823890686, -0.724216878414154, -0.09730846434831619, 1.612377643585205, -0.228759765625, 0.78466796875, 0.21044921875, 
56, 3536176438, -0.5117145776748657, 0.5599442720413208, -0.484516441822052, 0.4357277750968933, -0.14439444243907928, -9.859700202941895, -0.9259283542633057, -0.7685295343399048, 0.03984294459223747, 1.4115875959396362, -0.231201171875, 0.78662109375, 0.209716796875, 
57, 3536184771, -0.5117236375808716, 0.5598882436752319, -0.48460298776626587, 0.43569308519363403, -0.11365867406129837, -9.865866661071777, -0.9203992486000061, -0.44233226776123047, 0.06955546140670776, 1.2107977867126465, -0.228759765625, 0.78369140625, 0.2109375, 
58, 3536193104, -0.5117340683937073, 0.5598172545433044, -0.4846879243850708, 0.43567749857902527, -0.13945189118385315, -9.798280715942383, -0.9569786190986633, -0.1440032422542572, 0.2888389527797699, 1.144277572631836, -0.229736328125, 0.78564453125, 0.212646484375, 
59, 3536201437, -0.5117533802986145, 0.5597396492958069, -0.48475921154022217, 0.4356749653816223, -0.13885098695755005, -9.765482902526855, -0.9515069127082825, 0.09463179111480713, 0.2704991400241852, 1.0712770223617554, -0.228271484375, 0.78662109375, 0.211181640625, 
60, 3536209770, -0.5117798447608948, 0.559669554233551, -0.48480790853500366, 0.43567997217178345, -0.1434931755065918, -9.810030937194824, -0.9801540970802307, 0.3252111077308655, 0.08072325587272644, 0.8124451041221619, -0.229248046875, 0.78759765625, 0.210693359375, 
61, 3536218103, -0.5118098855018616, 0.5596093535423279, -0.484831839799881, 0.43569549918174744, -0.1246168315410614, -9.787442207336426, -0.9903540015220642, 0.459276020526886, -0.09730847179889679, 0.5283832550048828, -0.231689453125, 0.7890625, 0.211181640625, 
62, 3536226436, -0.511850118637085, 0.5595593452453613, -0.48482945561408997, 0.435714989900589, -0.11817178130149841, -9.773092269897461, -1.0201454162597656, 0.6933133006095886, -0.38075560331344604, 0.26389065384864807, -0.228759765625, 0.7841796875, 0.209228515625, 
63, 3536234769, -0.5119215846061707, 0.5595182180404663, -0.48479920625686646, 0.4357176423072815, -0.1154540404677391, -9.756742477416992, -0.9953252673149109, 0.8823463320732117, -0.9698317050933838, 0.32300829887390137, -0.230224609375, 0.7841796875, 0.212646484375, 
64, 3536243102, -0.5120110511779785, 0.559493362903595, -0.4847662150859833, 0.4356810748577118, -0.10119616985321045, -9.770721435546875, -1.0077824592590332, 0.705403208732605, -1.5067317485809326, 0.5504883527755737, -0.227783203125, 0.78515625, 0.2109375, 
65, 3536251435, -0.5121033191680908, 0.5594947338104248, -0.48472175002098083, 0.43562063574790955, -0.11239985376596451, -9.778221130371094, -1.0021679401397705, 0.4080475866794586, -1.9465025663375854, 0.4983889162540436, -0.227294921875, 0.78564453125, 0.21337890625, 
66, 3536259768, -0.5121957659721375, 0.5595229864120483, -0.4846683144569397, 0.43553516268730164, -0.0993136316537857, -9.795232772827148, -0.9995603561401367, 0.15029151737689972, -2.3653976917266846, 0.40220755338668823, -0.229736328125, 0.78564453125, 0.211669921875, 
67, 3536268101, -0.5122883319854736, 0.5595672130584717, -0.48459506034851074, 0.43545040488243103, -0.10884997248649597, -9.82933521270752, -0.9674558639526367, 0.11891407519578934, -2.5954649448394775, 0.16235584020614624, -0.230224609375, 0.7861328125, 0.214599609375, 
68, 3536276434, -0.512389063835144, 0.5596188306808472, -0.48451149463653564, 0.4353587329387665, -0.11917426437139511, -9.818408966064453, -0.9614796042442322, 0.189737468957901, -2.819333553314209, 0.10930875688791275, -0.230712890625, 0.78564453125, 0.214111328125, 
69, 3536284767, -0.5124992728233337, 0.5596582889556885, -0.48442187905311584, 0.43527811765670776, -0.09508103877305984, -9.865477561950684, -0.9099150896072388, 0.41527074575424194, -2.7712039947509766, 0.14501498639583588, -0.229248046875, 0.78466796875, 0.209716796875, 
70, 3536293100, -0.5126078128814697, 0.5596801042556763, -0.4843572676181793, 0.4351944625377655, -0.04639029875397682, -9.840824127197266, -0.9111779928207397, 0.3991850018501282, -2.496542453765869, 0.44144853949546814, -0.229736328125, 0.787109375, 0.213623046875, 
71, 3536301433, -0.5127027034759521, 0.5596662163734436, -0.4843338429927826, 0.43512609601020813, -0.020180465653538704, -9.770813941955566, -0.8967710137367249, 0.3569727838039398, -1.784697413444519, 0.8332694172859192, -0.229248046875, 0.78515625, 0.21435546875, 
72, 3536309766, -0.5127630233764648, 0.5596309304237366, -0.48435550928115845, 0.43507635593414307, -0.007954005151987076, -9.75724983215332, -0.8734983205795288, 0.14217180013656616, -0.9655285477638245, 0.9589072465896606, -0.227294921875, 0.7861328125, 0.2119140625, 
73, 3536318099, -0.5127741694450378, 0.5595793128013611, -0.484417587518692, 0.4350604712963104, -0.0368371419608593, -9.820581436157227, -0.8758155703544617, -0.1835515946149826, 0.0037012568209320307, 0.871357798576355, -0.227294921875, 0.78564453125, 0.2109375, 
74, 3536326432, -0.5127482414245605, 0.5595424175262451, -0.48449045419692993, 0.4350573718547821, -0.0708131417632103, -9.831117630004883, -0.9134538173675537, -0.5076484680175781, 0.3376852869987488, 0.5186242461204529, -0.227294921875, 0.7880859375, 0.2099609375, 
75, 3536334765, -0.512727677822113, 0.5595223903656006, -0.4845452308654785, 0.4350464642047882, -0.09795818477869034, -9.795797348022461, -0.9305705428123474, -0.5723244547843933, 0.012461326085031033, 0.3797694146633148, -0.227783203125, 0.7861328125, 0.21435546875, 
76, 3536343098, -0.5127167701721191, 0.5595232248306274, -0.4846073091030121, 0.4349890351295471, -0.11268562078475952, -9.755126953125, -0.9634239077568054, -0.9552061557769775, -0.48272591829299927, 0.658196210861206, -0.230712890625, 0.7861328125, 0.213134765625, 
77, 3536351431, -0.5126894116401672, 0.5595638155937195, -0.4846815764904022, 0.43488621711730957, -0.11194096505641937, -9.786361694335938, -0.9755980372428894, -1.7808808088302612, -0.8734453916549683, 0.7336557507514954, -0.229736328125, 0.7861328125, 0.214111328125, 
78, 3536359764, -0.5126184821128845, 0.5596280097961426, -0.4847991168498993, 0.4347562789916992, -0.11494327336549759, -9.800986289978027, -0.950249433517456, -2.6802477836608887, -0.6265754103660583, 0.8131622672080994, -0.226806640625, 0.78564453125, 0.2138671875, 
79, 3536368097, -0.5125319361686707, 0.5596953630447388, -0.4849282503128052, 0.4346277117729187, -0.14641042053699493, -9.839632987976074, -0.9566842317581177, -2.9241721630096436, -0.45204001665115356, 0.8054267764091492, -0.228271484375, 0.787109375, 0.212158203125, 
80, 3536376430, -0.5124717354774475, 0.5597419738769531, -0.48505815863609314, 0.43449363112449646, -0.19901275634765625, -9.838907241821289, -0.963994026184082, -2.575126886367798, -0.5398200154304504, 1.1206353902816772, -0.225830078125, 0.7861328125, 0.21240234375, 
81, 3536384763, -0.5124765634536743, 0.5597522854804993, -0.48513978719711304, 0.43438366055488586, -0.17585813999176025, -9.87491226196289, -0.9874556660652161, -1.410089373588562, -0.910099446773529, 1.2333639860153198, -0.223876953125, 0.785888671875, 0.21533203125, 
82, 3536393096, -0.5125264525413513, 0.559746265411377, -0.4851716160774231, 0.43429702520370483, -0.17728503048419952, -9.92081356048584, -0.965043842792511, -0.4546014368534088, -1.2849892377853394, 1.0391311645507812, -0.227294921875, 0.78564453125, 0.21337890625, 
83, 3536401429, -0.5125904679298401, 0.5597338676452637, -0.4851638674736023, 0.43424564599990845, -0.15737693011760712, -9.855731010437012, -0.9698329567909241, 0.1298513561487198, -1.3501006364822388, 0.6372693777084351, -0.226806640625, 0.78564453125, 0.21533203125, 
84, 3536409762, -0.5126617550849915, 0.5597227215766907, -0.48512500524520874, 0.4342193305492401, -0.16528789699077606, -9.835723876953125, -0.9382885098457336, 0.5712358951568604, -1.430836796760559, 0.2315910905599594, -0.228515625, 0.788330078125, 0.215576171875, 
85, 3536418095, -0.5127127170562744, 0.5597105622291565, -0.485086053609848, 0.43421846628189087, -0.10921675711870193, -9.872003555297852, -0.8957004547119141, 0.5502321720123291, -1.0944448709487915, -0.03952275961637497, -0.227294921875, 0.78466796875, 0.2109375, 
86, 3536426428, -0.5127512812614441, 0.5596857070922852, -0.4850617051124573, 0.43423202633857727, -0.09667782485485077, -9.898189544677734, -0.914111852645874, 0.596158504486084, -0.7220652103424072, -0.04021434485912323, -0.227783203125, 0.788330078125, 0.21337890625, 
87, 3536434761, -0.5127860903739929, 0.5596421957015991, -0.4850597083568573, 0.4342491030693054, -0.07637777179479599, -9.925793647766113, -0.9097627401351929, 0.5464412569999695, -0.40232276916503906, 0.2310531884431839, -0.226806640625, 0.78515625, 0.21484375, 
88, 3536443094, -0.5128154158592224, 0.559590756893158, -0.4850901961326599, 0.43424686789512634, -0.05507681518793106, -9.918094635009766, -0.931807816028595, 0.278695672750473, -0.2360863983631134, 0.6145495176315308, -0.229736328125, 0.787109375, 0.213134765625, 
89, 3536451427, -0.512851893901825, 0.5595235228538513, -0.48513397574424744, 0.43424153327941895, -0.05355333536863327, -9.909391403198242, -0.911300778388977, 0.3019021451473236, -0.12102726101875305, 0.9103425741195679, -0.226806640625, 0.78515625, 0.2138671875, 
90, 3536459760, -0.5128703117370605, 0.5594565272331238, -0.48520219326019287, 0.4342299699783325, -0.07435379922389984, -9.924262046813965, -0.8865591287612915, 0.018736811354756355, 0.12511272728443146, 1.0099307298660278, -0.225341796875, 0.78271484375, 0.2138671875, 
91, 3536468093, -0.5128747224807739, 0.5593967437744141, -0.48528680205345154, 0.43420717120170593, -0.08254380524158478, -9.896509170532227, -0.9232817888259888, -0.35711362957954407, 0.20128946006298065, 1.1068551540374756, -0.225341796875, 0.78564453125, 0.21240234375, 
92, 3536476426, -0.5128621459007263, 0.5593555569648743, -0.4853864014148712, 0.43416398763656616, -0.11270734667778015, -9.8101167678833, -0.9081034660339355, -0.8016999363899231, 0.15520945191383362, 1.1152565479278564, -0.227783203125, 0.78466796875, 0.21142578125, 
93, 3536484759, -0.5128486156463623, 0.5593407154083252, -0.48548224568367004, 0.4340917766094208, -0.13655492663383484, -9.736807823181152, -0.8840913772583008, -1.2089918851852417, -0.24735666811466217, 1.1350308656692505, -0.228271484375, 0.786865234375, 0.21533203125, 
94, 3536493092, -0.5128130316734314, 0.5593612790107727, -0.4855680465698242, 0.4340115785598755, -0.12099090963602066, -9.739705085754395, -0.9310699105262756, -1.5775036811828613, -0.44071853160858154, 0.7219243049621582, -0.223876953125, 0.78369140625, 0.2109375, 
95, 3536501425, -0.5127465724945068, 0.5594098567962646, -0.4856465458869934, 0.43393951654434204, -0.09724228829145432, -9.746405601501465, -0.9345243573188782, -1.9593864679336548, -0.39563748240470886, 0.25976675748825073, -0.222900390625, 0.790771484375, 0.2138671875, 
96, 3536509758, -0.5126391649246216, 0.5594802498817444, -0.48572197556495667, 0.4338914453983307, -0.09167283773422241, -9.703158378601074, -0.9415616989135742, -2.205026865005493, -0.0845525786280632, -0.34673991799354553, -0.222412109375, 0.78466796875, 0.211669921875, 
97, 3536518091, -0.5125429034233093, 0.5595497488975525, -0.4857591390609741, 0.4338735342025757, -0.05669297277927399, -9.724588394165039, -1.0192285776138306, -1.7272189855575562, -0.19333624839782715, -0.7554917931556702, -0.224853515625, 0.787353515625, 0.21337890625, 
98, 3536526424, -0.512459933757782, 0.5596333742141724, -0.48573389649391174, 0.43389198184013367, -0.022811133414506912, -9.741618156433105, -1.0450224876403809, -1.066730260848999, -0.5259882807731628, -1.533626675605774, -0.226318359375, 0.788330078125, 0.21533203125, 
99, 3536534757, -0.5124281048774719, 0.5596898198127747, -0.4856506586074829, 0.4339500069618225, 0.035772278904914856, -9.756016731262207, -1.0860689878463745, 0.08681944012641907, -0.8118175268173218, -1.7457636594772339, -0.226318359375, 0.784912109375, 0.21630859375, 
100, 3536543090, -0.5124332904815674, 0.5597397685050964, -0.48552265763282776, 0.43402278423309326, 0.03200077265501022, -9.698087692260742, -1.0787113904953003, 0.8259182572364807, -1.2184948921203613, -1.9542381763458252, -0.226318359375, 0.787353515625, 0.216796875, 
101, 3536551423, -0.5124666690826416, 0.5598077774047852, -0.4853512644767761, 0.43408751487731934, 0.04507425054907799, -9.70943832397461, -1.0547288656234741, 1.080446720123291, -1.8863089084625244, -2.1584088802337646, -0.225830078125, 0.785888671875, 0.21435546875, 
102, 3536559756, -0.5125517845153809, 0.5598868131637573, -0.48512378334999084, 0.4341392517089844, 0.023595750331878662, -9.745441436767578, -1.0194339752197266, 1.6892203092575073, -2.7894411087036133, -2.290476083755493, -0.224853515625, 0.78515625, 0.2119140625, 
103, 3536568089, -0.5126757025718689, 0.5599812865257263, -0.48484885692596436, 0.43417808413505554, -0.008777765557169914, -9.748453140258789, -0.9672184586524963, 2.036062717437744, -3.5756194591522217, -2.40889048576355, -0.226806640625, 0.786376953125, 0.21533203125, 
104, 3536576422, -0.512812077999115, 0.5600916147232056, -0.48455625772476196, 0.434201180934906, 0.007606972940266132, -9.756223678588867, -0.919565737247467, 2.061164617538452, -3.9985101222991943, -2.4913172721862793, -0.224365234375, 0.785400390625, 0.2158203125, 
105, 3536584755, -0.5129386186599731, 0.560207188129425, -0.48426553606987, 0.4342270493507385, 0.01716221310198307, -9.771434783935547, -0.8586342334747314, 1.9161369800567627, -3.932450771331787, -2.561628580093384, -0.227294921875, 0.78466796875, 0.21240234375, 
106, 3536593088, -0.5130404233932495, 0.5603206157684326, -0.48399531841278076, 0.43426212668418884, -0.0004991625319235027, -9.731514930725098, -0.8001495599746704, 1.7203161716461182, -3.5355329513549805, -2.632016658782959, -0.230712890625, 0.78369140625, 0.21728515625, 
107, 3536601421, -0.5131351947784424, 0.5604225397109985, -0.48374059796333313, 0.43430209159851074, -0.000560982443857938, -9.728182792663574, -0.7738857865333557, 1.6440881490707397, -3.276445150375366, -2.4831976890563965, -0.224853515625, 0.788818359375, 0.21142578125, 
108, 3536609754, -0.5132179856300354, 0.5604918599128723, -0.483513742685318, 0.4343675374984741, -0.011680500581860542, -9.814291954040527, -0.7506794333457947, 1.8276395797729492, -2.6050188541412354, -2.3299219608306885, -0.231201171875, 0.7861328125, 0.213623046875, 
109, 3536618087, -0.5132811069488525, 0.5605413317680359, -0.48329752683639526, 0.43446964025497437, -0.04000904783606529, -9.785394668579102, -0.7391244769096375, 1.9530469179153442, -2.0046212673187256, -2.4658052921295166, -0.226318359375, 0.78466796875, 0.21337890625, 
110, 3536626420, -0.5133134722709656, 0.5605726838111877, -0.48309725522994995, 0.4346136450767517, -0.038399796932935715, -9.797270774841309, -0.7297317385673523, 2.0702574253082275, -1.25074303150177, -2.729145050048828, -0.228759765625, 0.7861328125, 0.2138671875, 
111, 3536634753, -0.5132983922958374, 0.5606032013893127, -0.4829133152961731, 0.43479639291763306, -0.05382438004016876, -9.801614761352539, -0.75360506772995, 1.8264869451522827, -0.5191493034362793, -3.126089334487915, -0.229248046875, 0.7861328125, 0.21484375, 
112, 3536643086, -0.513228178024292, 0.5606374144554138, -0.48277631402015686, 0.4349873960018158, -0.04683178290724754, -9.725014686584473, -0.7602166533470154, 1.1945326328277588, 0.22206257283687592, -3.2044429779052734, -0.226318359375, 0.78564453125, 0.21142578125, 
113, 3536651419, -0.5131200551986694, 0.5607028007507324, -0.4826759994029999, 0.43514198064804077, -0.08626443147659302, -9.678253173828125, -0.7695026993751526, 0.1743689328432083, 0.26366013288497925, -3.0705578327178955, -0.229736328125, 0.78564453125, 0.210693359375, 
114, 3536659752, -0.5129607319831848, 0.5608183741569519, -0.48261508345603943, 0.43524831533432007, -0.12438704818487167, -9.758837699890137, -0.7840487360954285, -1.0851984024047852, 0.21089479327201843, -3.095813274383545, -0.231201171875, 0.7861328125, 0.213134765625, 
115, 3536668085, -0.5127654671669006, 0.5609778761863708, -0.4825662076473236, 0.43532705307006836, -0.0743585005402565, -9.82852840423584, -0.8170976638793945, -1.973346471786499, 0.05743991583585739, -3.2855122089385986, -0.226318359375, 0.78466796875, 0.2099609375, 
116, 3536676418, -0.5125314593315125, 0.5611523985862732, -0.48254427313804626, 0.4354022145271301, -0.05400886759161949, -9.903630256652832, -0.8480384349822998, -2.5193393230438232, 0.38896501064300537, -3.4119956493377686, -0.229248046875, 0.7841796875, 0.212890625, 
117, 3536684751, -0.5122811794281006, 0.5613272786140442, -0.48252564668655396, 0.435491681098938, -0.030242200940847397, -9.942605018615723, -0.8956342339515686, -2.615571975708008, 0.6247953176498413, -3.5591495037078857, -0.230224609375, 0.7841796875, 0.213623046875, 
118, 3536693084, -0.5120416283607483, 0.5614892840385437, -0.48250991106033325, 0.4355822503566742, -0.026876235380768776, -9.976393699645996, -0.8984414935112, -2.4084041118621826, 0.6638569235801697, -3.422574281692505, -0.228759765625, 0.785888671875, 0.21826171875, 
119, 3536701417, -0.5118275880813599, 0.5616233348846436, -0.4824857711791992, 0.4356878399848938, -0.008626359514892101, -10.035983085632324, -0.9448263049125671, -1.909233808517456, 0.7137534618377686, -3.2284693717956543, -0.233154296875, 0.78271484375, 0.213134765625, 
120, 3536709750, -0.5116519331932068, 0.5617383122444153, -0.48244842886924744, 0.43578726053237915, 0.001299097784794867, -10.061883926391602, -0.9348750710487366, -1.3950793743133545, 0.436043918132782, -2.957521915435791, -0.232177734375, 0.7822265625, 0.211669921875, 
121, 3536718083, -0.5115146636962891, 0.5618404746055603, -0.482380211353302, 0.43589186668395996, 0.023671576753258705, -10.071109771728516, -0.966044008731842, -0.8341275453567505, 0.07841797918081284, -2.889413595199585, -0.231689453125, 0.78369140625, 0.214599609375, 
122, 3536726416, -0.5113961100578308, 0.5619426369667053, -0.48230481147766113, 0.435982882976532, 0.018316924571990967, -10.049487113952637, -0.9600168466567993, -0.6899194717407227, -0.19848471879959106, -2.7644166946411133, -0.230224609375, 0.7822265625, 0.212890625, 
123, 3536734749, -0.5112869143486023, 0.5620429515838623, -0.4822235107421875, 0.43607136607170105, 0.03996380791068077, -9.971405029296875, -0.9683563113212585, -0.6324154138565063, -0.3132877051830292, -2.695488214492798, -0.231201171875, 0.78466796875, 0.214111328125, 
124, 3536743082, -0.5111810564994812, 0.5621516704559326, -0.48216214776039124, 0.43612340092658997, 0.010971012525260448, -9.944676399230957, -0.9409193992614746, -0.9827156662940979, -0.5235805511474609, -2.3507206439971924, -0.236572265625, 0.783935546875, 0.2109375, 
125, 3536751415, -0.5110713243484497, 0.5622797012329102, -0.48209527134895325, 0.436160683631897, 0.013462383300065994, -9.954485893249512, -0.9226369261741638, -1.2572747468948364, -0.7688369154930115, -2.411836624145508, -0.231689453125, 0.78271484375, 0.212646484375, 
126, 3536759748, -0.5109603404998779, 0.5624253749847412, -0.4820345938205719, 0.43617022037506104, 0.002485663630068302, -9.936579704284668, -0.9008803963661194, -1.5675910711288452, -1.0342772006988525, -2.321622848510742, -0.231689453125, 0.78564453125, 0.210693359375, 
127, 3536768081, -0.5108622908592224, 0.5625668168067932, -0.48195838928222656, 0.4361869692802429, -0.005413771606981754, -9.918842315673828, -0.8900616765022278, -1.3416993618011475, -1.1505401134490967, -2.3567144870758057, -0.231201171875, 0.78466796875, 0.213134765625, 
128, 3536776414, -0.5107811689376831, 0.5627022385597229, -0.4818743169307709, 0.43620026111602783, -0.03978053852915764, -9.923308372497559, -0.8830437660217285, -1.098825216293335, -1.308067798614502, -2.2823054790496826, -0.235595703125, 0.78173828125, 0.215087890625, 
129, 3536784747, -0.5107173323631287, 0.5628178119659424, -0.48178088665008545, 0.43622887134552, -0.014860200695693493, -9.898963928222656, -0.8635960817337036, -0.7166862487792969, -1.2505382299423218, -2.198444128036499, -0.233154296875, 0.78173828125, 0.216064453125, 
130, 3536793080, -0.5106610655784607, 0.562916100025177, -0.4816799759864807, 0.4362795948982239, 0.01842685602605343, -9.86052417755127, -0.8950279355049133, -0.2946149706840515, -1.078743577003479, -2.280153751373291, -0.231201171875, 0.78369140625, 0.213623046875, 
131, 3536801413, -0.5106008648872375, 0.5629969835281372, -0.48157811164855957, 0.4363580048084259, 0.020414134487509727, -9.871811866760254, -0.8834044933319092, -0.06344646215438843, -0.7396878600120544, -2.3597371578216553, -0.235107421875, 0.78369140625, 0.215087890625, 
132, 3536809746, -0.5105530619621277, 0.5630606412887573, -0.48146021366119385, 0.43646174669265747, 0.013435803353786469, -9.856054306030273, -0.8991336226463318, 0.46511614322662354, -0.6363344788551331, -2.504765033721924, -0.239013671875, 0.782958984375, 0.212890625, 
133, 3536818079, -0.5105055570602417, 0.5631177425384521, -0.4813237190246582, 0.4365944266319275, 0.03074357472360134, -9.855603218078613, -0.901786208152771, 0.7690289616584778, -0.5089804530143738, -2.7775566577911377, -0.234130859375, 0.7822265625, 0.213623046875, 
134, 3536826412, -0.5104508996009827, 0.5631800889968872, -0.4811801314353943, 0.4367360770702362, 0.024554459378123283, -9.879098892211914, -0.9339011907577515, 0.827045202255249, -0.46804890036582947, -3.0006561279296875, -0.235107421875, 0.780029296875, 0.214111328125, 
135, 3536834745, -0.5104061365127563, 0.5632340908050537, -0.4810164272785187, 0.43689897656440735, 0.07268296182155609, -9.878310203552246, -0.9481348395347595, 1.1752195358276367, -0.4629004895687103, -3.1617188453674316, -0.235107421875, 0.7822265625, 0.214111328125, 
136, 3536843078, -0.5103660225868225, 0.5632770657539368, -0.48084571957588196, 0.4370785057544708, 0.08674614876508713, -9.873265266418457, -0.9716240167617798, 1.488020658493042, -0.34689363837242126, -3.2611279487609863, -0.236083984375, 0.78173828125, 0.214599609375, 
137, 3536851411, -0.5103390216827393, 0.5632987022399902, -0.4806598424911499, 0.43728646636009216, 0.0959065780043602, -9.870877265930176, -0.9785976409912109, 1.9717193841934204, -0.191082164645195, -3.3302085399627686, -0.238037109375, 0.781494140625, 0.2099609375, 
138, 3536859744, -0.5103046298027039, 0.5633163452148438, -0.48047590255737305, 0.437505841255188, 0.10914719849824905, -9.870902061462402, -0.993287205696106, 2.054530620574951, -0.015470997430384159, -3.441861391067505, -0.236083984375, 0.782958984375, 0.21240234375, 
139, 3536868077, -0.5102713108062744, 0.5633467435836792, -0.4802713990211487, 0.43773001432418823, 0.1273178607225418, -9.848092079162598, -0.9742587804794312, 2.080811023712158, -0.21124060451984406, -3.6818416118621826, -0.238037109375, 0.781494140625, 0.21337890625, 
140, 3536876410, -0.5102149248123169, 0.5633974671363831, -0.48008108139038086, 0.4379391074180603, 0.11088601499795914, -9.879064559936523, -0.9304429292678833, 1.621649980545044, -0.19156883656978607, -3.77115797996521, -0.239501953125, 0.782958984375, 0.2119140625, 
141, 3536884743, -0.5101565718650818, 0.5634720325469971, -0.4798819124698639, 0.4381294250488281, 0.110178142786026, -9.931922912597656, -0.9125849008560181, 1.320605754852295, -0.5334675908088684, -3.845489978790283, -0.237548828125, 0.781982421875, 0.2119140625, 
142, 3536893076, -0.5101057291030884, 0.5635493993759155, -0.4797022044658661, 0.43828606605529785, 0.10519207268953323, -9.90072250366211, -0.8801137208938599, 1.0677932500839233, -0.723935067653656, -3.4630956649780273, -0.238525390625, 0.783447265625, 0.21240234375, 
143, 3536901409, -0.5100422501564026, 0.5636396408081055, -0.47954225540161133, 0.43841853737831116, 0.11608276516199112, -9.877630233764648, -0.8594275116920471, 0.5531522035598755, -0.7679660320281982, -3.269606113433838, -0.240966796875, 0.781005859375, 0.21240234375, 
144, 3536909742, -0.509946882724762, 0.5637502670288086, -0.4794330298900604, 0.4385068118572235, 0.10022298991680145, -9.894408226013184, -0.8284973502159119, -0.38621145486831665, -0.6644845008850098, -2.9256579875946045, -0.2412109375, 0.781494140625, 0.21337890625, 
145, 3536918075, -0.5098163485527039, 0.5638789534568787, -0.4793497920036316, 0.43858420848846436, 0.09926903992891312, -9.885499000549316, -0.8161376714706421, -1.0627858638763428, -0.44671228528022766, -2.94632887840271, -0.238037109375, 0.779541015625, 0.212890625, 
146, 3536926408, -0.5096598267555237, 0.5640002489089966, -0.47931310534477234, 0.43865013122558594, 0.11499631404876709, -9.91238784790039, -0.8156715631484985, -1.5196670293807983, 0.008388661779463291, -2.6440041065216064, -0.241455078125, 0.780517578125, 0.21337890625, 
147, 3536934741, -0.5094881057739258, 0.5641024112701416, -0.4793049991130829, 0.43872708082199097, 0.07162930816411972, -9.897607803344727, -0.8117820620536804, -1.6520413160324097, 0.5074307918548584, -2.433711051940918, -0.240478515625, 0.780029296875, 0.21484375, 
148, 3536943074, -0.5093042850494385, 0.564200758934021, -0.4793108105659485, 0.438807874917984, 0.03727691248059273, -9.878625869750977, -0.8256851434707642, -1.7295498847961426, 0.7419546246528625, -2.4337618350982666, -0.24169921875, 0.781982421875, 0.213134765625, 
149, 3536951407, -0.5091254115104675, 0.5642942190170288, -0.47931715846061707, 0.4388882517814636, 0.017154868692159653, -9.879441261291504, -0.8546817302703857, -1.7125420570373535, 0.7353206276893616, -2.3319456577301025, -0.239013671875, 0.780029296875, 0.2138671875, 
150, 3536959740, -0.5089464783668518, 0.564386248588562, -0.4793238937854767, 0.43897026777267456, 0.017657121643424034, -9.857211112976074, -0.8704967498779297, -1.6445618867874146, 0.7625998258590698, -2.3616836071014404, -0.241943359375, 0.781005859375, 0.212890625, 
151, 3536968073, -0.5087735056877136, 0.5644615888595581, -0.47932395339012146, 0.4390738010406494, -0.003254277165979147, -9.813502311706543, -0.854036808013916, -1.3506898880004883, 0.9413872957229614, -2.389295816421509, -0.239990234375, 0.782470703125, 0.212890625, 
152, 3536976406, -0.5086023807525635, 0.5645298361778259, -0.4793162941932678, 0.4391929507255554, -0.009726591408252716, -9.874499320983887, -0.8635543584823608, -1.085556983947754, 1.0429731607437134, -2.5304813385009766, -0.239501953125, 0.781982421875, 0.21142578125, 
153, 3536984739, -0.5084376931190491, 0.5645948648452759, -0.4792969822883606, 0.43932044506073, -0.01005686353892088, -9.907491683959961, -0.8704321980476379, -0.9390946626663208, 1.0013501644134521, -2.587831974029541, -0.24365234375, 0.779541015625, 0.214599609375, 
154, 3536993072, -0.5082902312278748, 0.5646535754203796, -0.47927379608154297, 0.43944108486175537, 0.026158705353736877, -9.896783828735352, -0.8888546824455261, -0.7334893345832825, 0.8450008630752563, -2.455944061279297, -0.24365234375, 0.779541015625, 0.217041015625, 
155, 3537001405, -0.5081591010093689, 0.5647086501121521, -0.47925424575805664, 0.43954333662986755, 0.03012728877365589, -9.883573532104492, -0.873081386089325, -0.7738828063011169, 0.6432374715805054, -2.1474971771240234, -0.2421875, 0.781494140625, 0.215576171875, 
156, 3537009738, -0.5080299377441406, 0.5647751688957214, -0.4792321026325226, 0.4396313726902008, 0.033808570355176926, -9.951674461364746, -0.8791624307632446, -0.866503894329071, 0.4329189658164978, -2.161175489425659, -0.244873046875, 0.779052734375, 0.213134765625, 
157, 3537018071, -0.5079234838485718, 0.5648359060287476, -0.4791891574859619, 0.4397228956222534, 0.030697276815772057, -9.98934555053711, -0.8765596747398376, -0.5521404147148132, 0.19701188802719116, -2.1417086124420166, -0.244140625, 0.779052734375, 0.214599609375, 
158, 3537026404, -0.5078271627426147, 0.5648926496505737, -0.47914832830429077, 0.43980589509010315, 0.05550094693899155, -9.9553861618042, -0.8435550928115845, -0.46205514669418335, 0.10556906461715698, -2.007899761199951, -0.24609375, 0.779541015625, 0.217041015625, 
159, 3537034737, -0.5077422261238098, 0.5649413466453552, -0.4791085124015808, 0.43988463282585144, 0.08353130519390106, -9.98543930053711, -0.8693956732749939, -0.40449994802474976, 0.04770651087164879, -1.8199169635772705, -0.243408203125, 0.778564453125, 0.21484375, 
160, 3537043070, -0.5076667070388794, 0.5649682879447937, -0.47908464074134827, 0.43996334075927734, 0.12376563996076584, -10.001011848449707, -0.836818277835846, -0.22281822562217712, 0.2344086468219757, -1.5232784748077393, -0.244384765625, 0.778076171875, 0.215087890625, 
161, 3537051403, -0.5075933933258057, 0.5649702548980713, -0.47907575964927673, 0.4400549530982971, 0.11406638473272324, -10.012349128723145, -0.8401300311088562, -0.0916733518242836, 0.5764355063438416, -1.2911111116409302, -0.24365234375, 0.780029296875, 0.213134765625, 
162, 3537059736, -0.5075140595436096, 0.5649595260620117, -0.47909313440322876, 0.4401412904262543, 0.1073785126209259, -9.958174705505371, -0.8416318893432617, -0.18882812559604645, 0.8345757722854614, -1.032099962234497, -0.244140625, 0.779052734375, 0.214111328125, 
163, 3537068069, -0.5074271559715271, 0.5649545192718506, -0.47912082076072693, 0.44021788239479065, 0.08318756520748138, -9.998315811157227, -0.8502870798110962, -0.4692271649837494, 0.8415172696113586, -0.9398630857467651, -0.243896484375, 0.779052734375, 0.210693359375, 
164, 3537076402, -0.5073243975639343, 0.5649599432945251, -0.479163259267807, 0.44028329849243164, 0.14013849198818207, -9.982121467590332, -0.8648573756217957, -0.7736268043518066, 0.9036061763763428, -0.9373273849487305, -0.248046875, 0.782470703125, 0.2138671875, 
165, 3537084735, -0.5072152018547058, 0.5649594068527222, -0.47922542691230774, 0.44034188985824585, 0.1444588154554367, -9.975347518920898, -0.8801931142807007, -1.0017471313476562, 1.0676398277282715, -0.7107438445091248, -0.24560546875, 0.781982421875, 0.213623046875, 
166, 3537093068, -0.5071089863777161, 0.564954936504364, -0.4793051779270172, 0.44038334488868713, 0.10337288677692413, -9.959596633911133, -0.8888837695121765, -1.1148853302001953, 1.0598787069320679, -0.4367227256298065, -0.242919921875, 0.7763671875, 0.2109375, 
167, 3537101401, -0.5070154666900635, 0.5649354457855225, -0.479371041059494, 0.4404441714286804, 0.10255031287670135, -10.013286590576172, -0.8985902070999146, -0.7542880773544312, 1.1157177686691284, -0.4759637713432312, -0.243408203125, 0.779052734375, 0.214111328125, 
168, 3537109734, -0.506934404373169, 0.5649079084396362, -0.47943562269210815, 0.44050246477127075, 0.0928439050912857, -10.002828598022461, -0.8992983102798462, -0.5563668012619019, 1.0587517023086548, -0.3702537715435028, -0.248046875, 0.779541015625, 0.21240234375, 
169, 3537118067, -0.5068910121917725, 0.5648533701896667, -0.4794824719429016, 0.4405715763568878, 0.0685814619064331, -9.92393970489502, -0.9124523997306824, 0.04801388084888458, 0.9278372526168823, -0.14710254967212677, -0.24462890625, 0.780029296875, 0.212158203125, 
170, 3537126400, -0.5068662762641907, 0.5647907853126526, -0.4795162081718445, 0.4406436085700989, 0.05476931855082512, -9.914255142211914, -0.8974600434303284, 0.40261733531951904, 0.7919024229049683, -0.13350138068199158, -0.245849609375, 0.77978515625, 0.209716796875, 
171, 3537134733, -0.5068482756614685, 0.5647318959236145, -0.479539692401886, 0.44071412086486816, 0.0587959922850132, -9.910614013671875, -0.8943983912467957, 0.4260543882846832, 0.6393953561782837, -0.1564517617225647, -0.24755859375, 0.77880859375, 0.211669921875, 
172, 3537143066, -0.5068332552909851, 0.5646827220916748, -0.4795505702495575, 0.44078248739242554, 0.03534190356731415, -9.872933387756348, -0.8846204876899719, 0.49787667393684387, 0.45899420976638794, -0.312903493642807, -0.24658203125, 0.780029296875, 0.212646484375, 
173, 3537151399, -0.5068155527114868, 0.5646335482597351, -0.4795663356781006, 0.4408486485481262, 0.05499796196818352, -9.874635696411133, -0.891208291053772, 0.3788217604160309, 0.48939841985702515, -0.2508402168750763, -0.2470703125, 0.776611328125, 0.214599609375, 
174, 3537159732, -0.5067970752716064, 0.5645740628242493, -0.4795854687690735, 0.44092532992362976, 0.07539096474647522, -9.877654075622559, -0.8918092846870422, 0.5487977862358093, 0.6668539047241211, -0.260778546333313, -0.244140625, 0.779541015625, 0.216552734375, 
175, 3537168065, -0.506765604019165, 0.564507782459259, -0.47960880398750305, 0.44102102518081665, 0.06896771490573883, -9.860000610351562, -0.8840985298156738, 0.5393460392951965, 0.9710740447044373, -0.3666421175003052, -0.246826171875, 0.77734375, 0.212158203125, 
176, 3537176398, -0.5067219734191895, 0.564440906047821, -0.47963404655456543, 0.441129207611084, 0.07582037150859833, -9.8938627243042, -0.904498815536499, 0.5760000944137573, 1.1629502773284912, -0.5369767546653748, -0.24658203125, 0.779052734375, 0.213623046875, 
177, 3537184731, -0.5066699385643005, 0.5643739104270935, -0.4796513617038727, 0.4412558674812317, 0.08584126830101013, -9.906336784362793, -0.9326305985450745, 0.6259222030639648, 1.3089258670806885, -0.7502664923667908, -0.245361328125, 0.780029296875, 0.210693359375, 
178, 3537193064, -0.50663161277771, 0.564287006855011, -0.4796520471572876, 0.4414103925228119, 0.11465573310852051, -9.935546875, -0.939277172088623, 1.2119247913360596, 1.439379096031189, -0.884485125541687, -0.24658203125, 0.781005859375, 0.212158203125, 
179, 3537201397, -0.5066207647323608, 0.5641841888427734, -0.4796236753463745, 0.4415847659111023, 0.10148993134498596, -9.933131217956543, -0.9589060544967651, 1.7850431203842163, 1.306057095527649, -0.9510308504104614, -0.243896484375, 0.779052734375, 0.213623046875, 
180, 3537209730, -0.5066449046134949, 0.5640667080879211, -0.4795553386211395, 0.44178152084350586, 0.0751338079571724, -9.942930221557617, -0.961122453212738, 2.606440544128418, 1.0601091384887695, -1.1340190172195435, -0.24658203125, 0.781494140625, 0.214111328125, 
181, 3537218063, -0.5067217946052551, 0.5639442801475525, -0.47943055629730225, 0.44198524951934814, 0.04264690726995468, -9.963177680969238, -0.9812570214271545, 3.383755683898926, 0.4041798412799835, -1.2418805360794067, -0.2490234375, 0.7783203125, 0.2119140625, 
182, 3537226396, -0.5068374276161194, 0.5638279318809509, -0.4792413115501404, 0.4422062337398529, 0.044601380825042725, -9.954716682434082, -0.9676791429519653, 4.202822685241699, -0.204708993434906, -1.6922045946121216, -0.2490234375, 0.7783203125, 0.2119140625, 
183, 3537234729, -0.5070074200630188, 0.563692569732666, -0.4789961278438568, 0.4424492120742798, 0.02106611430644989, -9.926397323608398, -0.9823997616767883, 5.185563564300537, -0.6730652451515198, -1.7996819019317627, -0.246826171875, 0.7783203125, 0.209716796875, 
184, 3537243062, -0.5072400569915771, 0.5635268092155457, -0.47868865728378296, 0.4427264630794525, 0.03060711920261383, -9.923420906066895, -0.9533300399780273, 6.545243740081787, -1.0643739700317383, -1.9638947248458862, -0.249755859375, 0.77734375, 0.20947265625, 
185, 3537251395, -0.5075137615203857, 0.5633453130722046, -0.47832658886909485, 0.44303470849990845, 0.011780770495533943, -9.82978630065918, -0.9288923144340515, 7.452859878540039, -1.3816320896148682, -2.226773738861084, -0.24755859375, 0.77978515625, 0.2099609375, 
186, 3537259728, -0.5078282952308655, 0.5631195306777954, -0.47795015573501587, 0.44336745142936707, 0.09698198735713959, -9.793146133422852, -0.9351165890693665, 8.382554054260254, -1.2883448600769043, -1.991404414176941, -0.248779296875, 0.77978515625, 0.205078125, 
187, 3537268061, -0.5082051753997803, 0.562835156917572, -0.47755926847457886, 0.4437180161476135, 0.09045083075761795, -9.72386646270752, -0.9283884167671204, 9.425283432006836, -1.303585410118103, -1.4385725259780884, -0.248779296875, 0.7802734375, 0.20703125, 
188, 3537276394, -0.5085610151290894, 0.5625386834144592, -0.4772004187107086, 0.44407227635383606, 0.13578058779239655, -9.740318298339844, -0.883554995059967, 9.23056411743164, -0.8383283615112305, -1.29000985622406, -0.248291015625, 0.7822265625, 0.20556640625, 
189, 3537284727, -0.5088739991188049, 0.5622634887695312, -0.4768774211406708, 0.44440895318984985, 0.15188857913017273, -9.733732223510742, -0.849788248538971, 8.362626075744629, -0.5721195936203003, -1.266649603843689, -0.248779296875, 0.77880859375, 0.20556640625, 
190, 3537293060, -0.5091145038604736, 0.5620397925376892, -0.4765915870666504, 0.4447232186794281, 0.13503310084342957, -9.795312881469727, -0.8457704186439514, 7.119387626647949, -0.32330289483070374, -1.6282970905303955, -0.247314453125, 0.78173828125, 0.20263671875, 
191, 3537301393, -0.5092750787734985, 0.5618810057640076, -0.47632935643196106, 0.4450206756591797, 0.13714134693145752, -9.857098579406738, -0.846271276473999, 5.740445137023926, -0.16738903522491455, -2.2196528911590576, -0.250244140625, 0.7802734375, 0.20556640625, 
192, 3537309726, -0.5093837976455688, 0.5617825388908386, -0.4760874807834625, 0.44527944922447205, 0.15407711267471313, -9.905664443969727, -0.8341795802116394, 4.592132091522217, -0.3489170968532562, -2.5243337154388428, -0.248779296875, 0.78271484375, 0.203125, 
193, 3537318059, -0.5094426870346069, 0.5617440342903137, -0.4758839011192322, 0.44547808170318604, 0.17865893244743347, -9.912108421325684, -0.8609567284584045, 3.1059179306030273, -0.590817928314209, -2.48299241065979, -0.247314453125, 0.78125, 0.20068359375, 
194, 3537326392, -0.5094754099845886, 0.5617408156394958, -0.47573772072792053, 0.4456007778644562, 0.17672139406204224, -9.993252754211426, -0.8560798764228821, 1.8621934652328491, -0.8166074752807617, -1.9220410585403442, -0.251220703125, 0.778564453125, 0.2021484375, 
195, 3537334725, -0.5094974040985107, 0.5617640018463135, -0.47563594579696655, 0.445654958486557, 0.1596122682094574, -10.031843185424805, -0.821450412273407, 0.8193609118461609, -1.1266933679580688, -1.3148044347763062, -0.247802734375, 0.78125, 0.20263671875, 
196, 3537343058, -0.5095218420028687, 0.5617871284484863, -0.47558772563934326, 0.44564947485923767, 0.15029560029506683, -10.043901443481445, -0.816840648651123, 0.1750604808330536, -1.2264608144760132, -0.4899490475654602, -0.248291015625, 0.780517578125, 0.1982421875, 
197, 3537351391, -0.5095524787902832, 0.561790406703949, -0.47557443380355835, 0.44562458992004395, 0.14252755045890808, -10.0693359375, -0.7922989726066589, -0.033093590289354324, -1.046520709991455, 0.10562029480934143, -0.248291015625, 0.780029296875, 0.19970703125, 
198, 3537359724, -0.5096001029014587, 0.5617612600326538, -0.47559136152267456, 0.4455886483192444, 0.09438176453113556, -10.098133087158203, -0.7731221914291382, 0.12139866501092911, -0.838379442691803, 0.7099625468254089, -0.249755859375, 0.778564453125, 0.19970703125, 
199, 3537368057, -0.5096650123596191, 0.5616981983184814, -0.4756283462047577, 0.445554256439209, 0.08560522645711899, -10.064078330993652, -0.7280950546264648, 0.32769572734832764, -0.5926365852355957, 1.2053675651550293, -0.251708984375, 0.778076171875, 0.200927734375, 
200, 3537376390, -0.5097346305847168, 0.5616185069084167, -0.4756835699081421, 0.4455162584781647, 0.07474721223115921, -9.98594856262207, -0.7487953901290894, 0.39657238125801086, -0.4178193509578705, 1.486586093902588, -0.251220703125, 0.78125, 0.203369140625, 
201, 3537384723, -0.5097899436950684, 0.5615252256393433, -0.47575923800468445, 0.4454897344112396, 0.09700685739517212, -9.936400413513184, -0.7514132857322693, 0.2783370912075043, -0.00881129689514637, 1.5856620073318481, -0.249267578125, 0.7802734375, 0.20166015625, 
202, 3537393056, -0.5098230838775635, 0.5614348649978638, -0.47586992383003235, 0.4454475939273834, 0.08245202898979187, -9.92422866821289, -0.7561073303222656, -0.1771736592054367, 0.24286139011383057, 1.7895257472991943, -0.249267578125, 0.7822265625, 0.2001953125, 
203, 3537401389, -0.5098239183425903, 0.561357855796814, -0.4760041832923889, 0.4454004764556885, 0.07305300235748291, -9.885883331298828, -0.7634931206703186, -0.7493700981140137, 0.49987465143203735, 1.7421139478683472, -0.250244140625, 0.781005859375, 0.200439453125, 
204, 3537409722, -0.5097907781600952, 0.5613042712211609, -0.4761574864387512, 0.445342093706131, 0.062645323574543, -9.88302230834961, -0.7784587740898132, -1.3135491609573364, 0.6248208284378052, 1.5864046812057495, -0.249755859375, 0.78271484375, 0.200927734375, 
205, 3537418055, -0.5097435712814331, 0.561268150806427, -0.47630980610847473, 0.4452783763408661, 0.08244524151086807, -9.937944412231445, -0.7814714312553406, -1.628015160560608, 0.5569174885749817, 1.4339232444763184, -0.246826171875, 0.78125, 0.19873046875, 
206, 3537426388, -0.5097001791000366, 0.5612384676933289, -0.47645455598831177, 0.44521069526672363, 0.07532276958227158, -9.921098709106445, -0.7853167057037354, -1.568538784980774, 0.41329845786094666, 1.366199254989624, -0.246826171875, 0.7822265625, 0.2001953125, 
207, 3537434721, -0.5096636414527893, 0.5612082481384277, -0.47659289836883545, 0.44514235854148865, 0.07316921651363373, -9.911948204040527, -0.7901146411895752, -1.5313982963562012, 0.32669681310653687, 1.3855637311935425, -0.248779296875, 0.78125, 0.20166015625, 
208, 3537443054, -0.5096560716629028, 0.5611710548400879, -0.47670698165893555, 0.4450758993625641, 0.07219766080379486, -9.926043510437012, -0.8073590993881226, -1.0432933568954468, 0.017712242901325226, 1.3895337581634521, -0.247314453125, 0.779052734375, 0.1982421875, 
209, 3537451387, -0.5096785426139832, 0.5611295104026794, -0.4767906367778778, 0.4450126588344574, 0.07463985681533813, -9.948308944702148, -0.7992370128631592, -0.6290599703788757, -0.3316018581390381, 1.364303708076477, -0.249755859375, 0.78076171875, 0.201171875, 
210, 3537459720, -0.5097292065620422, 0.5610789656639099, -0.47684386372566223, 0.44496142864227295, 0.059568874537944794, -9.933496475219727, -0.7932359576225281, -0.027842672541737556, -0.5910740494728088, 1.256211757659912, -0.246826171875, 0.78125, 0.19970703125, 
211, 3537468053, -0.5098164677619934, 0.5610190033912659, -0.4768607020378113, 0.4449188709259033, 0.09841611236333847, -9.900162696838379, -0.8127413392066956, 0.5447508096694946, -0.9580492973327637, 1.218866229057312, -0.248291015625, 0.783203125, 0.20068359375, 
212, 3537476386, -0.5099261999130249, 0.5609349608421326, -0.4768705368041992, 0.4448886215686798, 0.12498516589403152, -9.880696296691895, -0.8011576533317566, 1.0650526285171509, -0.9148635864257812, 1.3561840057373047, -0.248779296875, 0.78173828125, 0.20263671875, 
213, 3537484719, -0.5100552439689636, 0.560829222202301, -0.47688373923301697, 0.4448598027229309, 0.14237824082374573, -9.841157913208008, -0.7671658396720886, 1.2987570762634277, -0.8629435300827026, 1.6499024629592896, -0.246337890625, 0.78369140625, 0.19970703125, 
214, 3537493052, -0.5101919174194336, 0.5607092380523682, -0.47691085934638977, 0.4448254108428955, 0.11800515651702881, -9.807168960571289, -0.7566513419151306, 1.3934530019760132, -0.7824124097824097, 1.9190568923950195, -0.245849609375, 0.7822265625, 0.2021484375, 
215, 3537501385, -0.5103142261505127, 0.5605903267860413, -0.47694212198257446, 0.4448015093803406, 0.11041413992643356, -9.77275562286377, -0.7426579594612122, 1.26289701461792, -0.5827494263648987, 1.7990285158157349, -0.245849609375, 0.78271484375, 0.19970703125, 
216, 3537509718, -0.5104204416275024, 0.56048184633255, -0.47699201107025146, 0.4447629749774933, 0.13895520567893982, -9.708887100219727, -0.7367876172065735, 0.9096255302429199, -0.5246307253837585, 1.8631153106689453, -0.247314453125, 0.78125, 0.20263671875, 
217, 3537518051, -0.5104890465736389, 0.5603848099708557, -0.4770781695842743, 0.44471386075019836, 0.16199345886707306, -9.616596221923828, -0.7341050505638123, 0.1940150260925293, -0.19397658109664917, 1.9257934093475342, -0.245849609375, 0.78076171875, 0.201171875, 
218, 3537526384, -0.510517954826355, 0.560310959815979, -0.4771881401538849, 0.4446556568145752, 0.13880717754364014, -9.598928451538086, -0.7554255127906799, -0.4249145984649658, 0.0422762967646122, 1.762912631034851, -0.247802734375, 0.78271484375, 0.20166015625, 
219, 3537534717, -0.5104835033416748, 0.5602927803993225, -0.477300763130188, 0.4445973038673401, 0.0878181979060173, -9.5913667678833, -0.7665189504623413, -1.3767651319503784, 0.12606045603752136, 1.049965739250183, -0.244384765625, 0.78466796875, 0.2041015625, 
220, 3537543050, -0.5103955864906311, 0.5603206157684326, -0.4774045944213867, 0.4445517659187317, 0.10286852717399597, -9.61369514465332, -0.799178421497345, -1.9188389778137207, 0.24137574434280396, 0.2443469762802124, -0.245361328125, 0.78173828125, 0.20361328125, 
221, 3537551383, -0.5102909803390503, 0.560366690158844, -0.4774783253669739, 0.4445345997810364, 0.12350022792816162, -9.628836631774902, -0.8273268938064575, -1.8593372106552124, 0.2446543574333191, -0.3906683027744293, -0.244384765625, 0.783203125, 0.201171875, 
222, 3537559716, -0.5102024674415588, 0.5603975057601929, -0.4775117039680481, 0.44456154108047485, 0.13431616127490997, -9.655471801757812, -0.8946203589439392, -1.0379143953323364, 0.2903757691383362, -0.8286717534065247, -0.245361328125, 0.779541015625, 0.1982421875, 
223, 3537568049, -0.5101248621940613, 0.5604247450828552, -0.4774981141090393, 0.4446309506893158, 0.12510322034358978, -9.705842018127441, -0.9201058149337769, -0.4178449809551239, 0.21414780616760254, -1.3851152658462524, -0.248291015625, 0.783203125, 0.19873046875, 
224, 3537576382, -0.5100939273834229, 0.5604398250579834, -0.4774196743965149, 0.44473159313201904, 0.07628047466278076, -9.792378425598145, -0.9302695989608765, 0.6850143671035767, -0.20819251239299774, -1.7516295909881592, -0.245361328125, 0.78125, 0.20263671875, 
225, 3537584715, -0.5101048946380615, 0.5604583621025085, -0.4772769808769226, 0.4448488652706146, 0.09265930205583572, -9.869414329528809, -0.9359328150749207, 1.4316437244415283, -0.8405055999755859, -2.115582227706909, -0.246337890625, 0.78564453125, 0.20166015625, 
226, 3537593048, -0.5101725459098816, 0.5604596138000488, -0.4770844876766205, 0.4449763298034668, 0.09186065942049026, -9.90180492401123, -0.9357771873474121, 2.415076494216919, -1.364649772644043, -2.126955032348633, -0.245849609375, 0.7822265625, 0.203125, 
227, 3537601381, -0.5102729201316833, 0.5604557991027832, -0.47686606645584106, 0.4451000392436981, 0.12645210325717926, -9.993486404418945, -0.8988754153251648, 2.783588409423828, -1.7632324695587158, -2.048318862915039, -0.247314453125, 0.7802734375, 0.20166015625, 
228, 3537609714, -0.5103825330734253, 0.5604561567306519, -0.47667181491851807, 0.4451819956302643, 0.1322508305311203, -9.994088172912598, -0.8743316531181335, 2.4571609497070312, -1.997270107269287, -1.5591130256652832, -0.244873046875, 0.783203125, 0.20068359375, 
229, 3537618047, -0.5104929208755493, 0.5604508519172668, -0.4765191376209259, 0.4452255368232727, 0.13192230463027954, -9.937156677246094, -0.8446265459060669, 1.9444663524627686, -1.970323920249939, -0.9078710079193115, -0.245849609375, 0.78271484375, 0.20068359375, 
230, 3537626380, -0.5105764865875244, 0.5604580640792847, -0.47642627358436584, 0.44522014260292053, 0.11636408418416977, -9.945452690124512, -0.7845567464828491, 1.014951229095459, -1.8300858736038208, -0.3680253326892853, -0.243408203125, 0.7841796875, 0.19970703125, 
231, 3537634713, -0.5106201171875, 0.5604873299598694, -0.47638288140296936, 0.4451795816421509, 0.10381636023521423, -9.958724021911621, -0.7718704342842102, -0.03176165372133255, -1.6487371921539307, -0.112600177526474, -0.245849609375, 0.7822265625, 0.19921875, 
232, 3537643046, -0.5106271505355835, 0.5605489611625671, -0.47638076543807983, 0.4450961947441101, 0.07637547701597214, -9.938775062561035, -0.7577351927757263, -1.0256452560424805, -1.626068353652954, 0.053751472383737564, -0.248779296875, 0.783203125, 0.19970703125, 
233, 3537651379, -0.5106174349784851, 0.5606117248535156, -0.47639748454093933, 0.4450102746486664, 0.08000625669956207, -9.916509628295898, -0.7567114233970642, -1.343671441078186, -1.4404163360595703, 0.12152672559022903, -0.248291015625, 0.783203125, 0.19970703125, 
234, 3537659712, -0.5106080174446106, 0.5606592893600464, -0.4764198660850525, 0.44493749737739563, 0.06568455696105957, -9.89911937713623, -0.7343895435333252, -1.1317392587661743, -1.177870512008667, 0.15912842750549316, -0.247314453125, 0.78173828125, 0.19921875, 
235, 3537668045, -0.5105966329574585, 0.56068354845047, -0.47644373774528503, 0.44489413499832153, 0.06464023888111115, -9.869335174560547, -0.7419572472572327, -0.8524417281150818, -0.7870997786521912, 0.12247445434331894, -0.247802734375, 0.7822265625, 0.20263671875, 
236, 3537676378, -0.5105879902839661, 0.560692310333252, -0.47646212577819824, 0.4448734223842621, 0.06912507116794586, -9.859113693237305, -0.7592170834541321, -0.48813048005104065, -0.5715304017066956, 0.023552289232611656, -0.245849609375, 0.78076171875, 0.19970703125, 
237, 3537684711, -0.5105863213539124, 0.5606725215911865, -0.47648146748542786, 0.44487953186035156, 0.0532245971262455, -9.869328498840332, -0.748910129070282, -0.11618616431951523, -0.23124530911445618, 0.08692190796136856, -0.245849609375, 0.78369140625, 0.2001953125, 
238, 3537693044, -0.510590672492981, 0.5606308579444885, -0.4765125513076782, 0.44489365816116333, 0.06451864540576935, -9.866059303283691, -0.7369574308395386, 0.11704424768686295, 0.008004448376595974, 0.28617504239082336, -0.25, 0.783203125, 0.202880859375, 
239, 3537701377, -0.5105958580970764, 0.5605800747871399, -0.47654664516448975, 0.4449150562286377, 0.0901043638586998, -9.885579109191895, -0.7508410811424255, 0.16404634714126587, 0.09096895158290863, 0.33409926295280457, -0.246826171875, 0.78271484375, 0.2001953125, 
240, 3537709710, -0.5105869174003601, 0.5605303049087524, -0.47661805152893066, 0.44491150975227356, 0.07217218726873398, -9.841160774230957, -0.7479584813117981, -0.29169490933418274, 0.2907087802886963, 0.6923400163650513, -0.247314453125, 0.783203125, 0.20166015625, 
241, 3537718043, -0.5105597972869873, 0.560499370098114, -0.47672316431999207, 0.4448690116405487, 0.07277292013168335, -9.82204818725586, -0.7469355463981628, -1.0790250301361084, 0.2049010545015335, 1.0037065744400024, -0.245849609375, 0.78076171875, 0.201171875, 
242, 3537726376, -0.5105252861976624, 0.5604941844940186, -0.47685638070106506, 0.4447726309299469, 0.06521013379096985, -9.875935554504395, -0.7655174732208252, -1.788744330406189, -0.09362001717090607, 1.372653841972351, -0.244873046875, 0.78125, 0.201904296875, 
243, 3537734709, -0.5104805827140808, 0.5604953765869141, -0.47701945900917053, 0.4446474015712738, 0.09045711904764175, -9.854320526123047, -0.7715495824813843, -2.335326671600342, -0.10860436409711838, 1.7114793062210083, -0.247314453125, 0.78271484375, 0.20263671875, 
244, 3537743042, -0.5104292035102844, 0.5604934692382812, -0.47719332575798035, 0.4445224404335022, 0.08792170137166977, -9.837751388549805, -0.7618987560272217, -2.377180337905884, 0.061256445944309235, 1.7617086172103882, -0.245849609375, 0.78125, 0.2001953125, 
245, 3537751375, -0.5103715062141418, 0.5604906678199768, -0.4773680567741394, 0.4444044232368469, 0.07908797264099121, -9.883766174316406, -0.7716283202171326, -2.432558536529541, 0.18033702671527863, 1.7027961015701294, -0.243408203125, 0.78125, 0.205322265625, 
246, 3537759708, -0.5103058815002441, 0.5604771375656128, -0.4775439202785492, 0.4443078339099884, 0.0942823737859726, -9.911791801452637, -0.7385921478271484, -2.2306668758392334, 0.45766231417655945, 1.5661951303482056, -0.246826171875, 0.78271484375, 0.20361328125, 
247, 3537768041, -0.5102718472480774, 0.5604290962219238, -0.4776957333087921, 0.44424426555633545, 0.08420346677303314, -9.890106201171875, -0.759270966053009, -1.4375731945037842, 0.591752827167511, 1.5867888927459717, -0.248291015625, 0.783203125, 0.2021484375, 
248, 3537776374, -0.5102472901344299, 0.5603761672973633, -0.4778301417827606, 0.4441947340965271, 0.08435897529125214, -9.924972534179688, -0.7547674775123596, -1.0762590169906616, 0.500335693359375, 1.4274173974990845, -0.246337890625, 0.78271484375, 0.205078125, 
249, 3537784707, -0.5102370977401733, 0.560319721698761, -0.47792670130729675, 0.4441739320755005, 0.06284505128860474, -9.909025192260742, -0.7608696818351746, -0.5736820101737976, 0.37121424078941345, 1.0577013492584229, -0.244873046875, 0.78173828125, 0.2001953125, 
250, 3537793040, -0.5102409720420837, 0.5602589249610901, -0.47799748182296753, 0.44416987895965576, 0.0692967027425766, -9.928153991699219, -0.772127628326416, -0.11539212614297867, 0.2670668065547943, 0.8414660096168518, -0.246826171875, 0.7822265625, 0.20263671875, 
251, 3537801373, -0.5102604627609253, 0.560204803943634, -0.4780414402484894, 0.4441682696342468, 0.056521765887737274, -9.955004692077637, -0.7783365845680237, 0.0851801335811615, -0.024051766842603683, 0.6860132217407227, -0.244384765625, 0.78369140625, 0.204833984375, 
252, 3537809706, -0.5102993845939636, 0.5601563453674316, -0.4780782163143158, 0.4441451132297516, 0.07951100170612335, -9.955948829650879, -0.7762765884399414, 0.1497536301612854, -0.42532435059547424, 0.8482281565666199, -0.247314453125, 0.78466796875, 0.20166015625, 
253, 3537818039, -0.5103534460067749, 0.5600937604904175, -0.4781222343444824, 0.4441145062446594, 0.04741614684462547, -9.971729278564453, -0.8000601530075073, 0.21896328032016754, -0.45316699147224426, 1.1518080234527588, -0.245849609375, 0.78271484375, 0.19970703125, 
254, 3537826372, -0.5104089379310608, 0.5600348114967346, -0.47819292545318604, 0.44404909014701843, 0.047831062227487564, -9.997149467468262, -0.7986792922019958, -0.1324768215417862, -0.5568022131919861, 1.575749158859253, -0.248779296875, 0.7802734375, 0.2021484375, 
255, 3537834705, -0.5104748010635376, 0.5599725842475891, -0.47827044129371643, 0.4439680874347687, 0.015874739736318588, -10.003273010253906, -0.830287516117096, -0.22658352553844452, -0.7506251335144043, 1.829842448234558, -0.245361328125, 0.7841796875, 0.20263671875, 
256, 3537843038, -0.5105752348899841, 0.5599013566970825, -0.47833412885665894, 0.4438740611076355, -0.030975500121712685, -10.074017524719238, -0.8167714476585388, 0.15295539796352386, -1.0483906269073486, 2.077352523803711, -0.244384765625, 0.7841796875, 0.201171875, 
257, 3537851371, -0.5107102394104004, 0.5598201155662537, -0.478358656167984, 0.44379445910453796, -0.057175032794475555, -10.110241889953613, -0.8203102946281433, 0.7711037397384644, -1.420053243637085, 1.9596041440963745, -0.243896484375, 0.783203125, 0.201416015625, 
258, 3537859704, -0.5108857750892639, 0.5597405433654785, -0.4783340096473694, 0.4437195956707001, -0.07450751960277557, -10.131072044372559, -0.7901305556297302, 1.4557722806930542, -1.9615379571914673, 1.776052474975586, -0.244873046875, 0.78271484375, 0.203125, 
259, 3537868037, -0.5111203193664551, 0.5596436262130737, -0.47825178503990173, 0.4436604380607605, -0.08990516513586044, -10.115076065063477, -0.8008239269256592, 2.4331347942352295, -2.644592761993408, 1.7002856731414795, -0.240966796875, 0.7822265625, 0.200439453125, 
260, 3537876370, -0.5113939642906189, 0.5595404505729675, -0.47813427448272705, 0.4436018168926239, -0.10127237439155579, -10.085716247558594, -0.7568581104278564, 3.0508220195770264, -2.9914608001708984, 1.6996967792510986, -0.243408203125, 0.78466796875, 0.202392578125, 
261, 3537884703, -0.5117150545120239, 0.5594106912612915, -0.477981835603714, 0.4435591399669647, -0.08710645884275436, -10.08539867401123, -0.729114830493927, 3.865124225616455, -3.2155086994171143, 1.7991055250167847, -0.240478515625, 0.783203125, 0.198486328125, 
262, 3537893036, -0.5120499134063721, 0.5592536926269531, -0.47783082723617554, 0.4435334801673889, -0.10176078975200653, -10.092744827270508, -0.7389399409294128, 4.32192850112915, -3.048170804977417, 1.9399323463439941, -0.241455078125, 0.78173828125, 0.202392578125, 
263, 3537901369, -0.5124010443687439, 0.5590518116950989, -0.47767603397369385, 0.4435495436191559, -0.06725876778364182, -10.095427513122559, -0.6826629638671875, 5.00452184677124, -2.571694850921631, 2.0200023651123047, -0.240966796875, 0.78515625, 0.197998046875, 
264, 3537909702, -0.5127403140068054, 0.5588372945785522, -0.4775567054748535, 0.4435563087463379, -0.1142280250787735, -10.10116195678711, -0.6930447816848755, 4.779834270477295, -2.254769802093506, 2.3580849170684814, -0.239990234375, 0.7841796875, 0.201416015625, 
265, 3537918035, -0.51308274269104, 0.5586124062538147, -0.47744762897491455, 0.4435606598854065, -0.16578727960586548, -10.083449363708496, -0.7039580941200256, 4.743128299713135, -2.1361758708953857, 2.5502686500549316, -0.242919921875, 0.78564453125, 0.19873046875, 
266, 3537926368, -0.513439953327179, 0.5583840608596802, -0.47734642028808594, 0.44354376196861267, -0.16516678035259247, -10.096369743347168, -0.7047163844108582, 4.748942852020264, -2.3411669731140137, 2.865041971206665, -0.243408203125, 0.78564453125, 0.2001953125, 
267, 3537934701, -0.5138234496116638, 0.5581446886062622, -0.47723129391670227, 0.44352516531944275, -0.15967483818531036, -10.122838973999023, -0.7289549708366394, 5.04622220993042, -2.431994915008545, 3.0186502933502197, -0.238525390625, 0.78662109375, 0.196533203125, 
268, 3537943034, -0.5142050981521606, 0.5579048991203308, -0.4771125614643097, 0.4435122013092041, -0.16593515872955322, -10.173931121826172, -0.7116799354553223, 5.15044641494751, -2.5230021476745605, 2.927156448364258, -0.239013671875, 0.78466796875, 0.200927734375, 
269, 3537951367, -0.5146247148513794, 0.5576498508453369, -0.4769701063632965, 0.4434993863105774, -0.17166759073734283, -10.195984840393066, -0.7106761932373047, 5.6386799812316895, -2.7182083129882812, 3.089934825897217, -0.241455078125, 0.787109375, 0.197509765625, 
270, 3537959700, -0.5150803923606873, 0.5573762059211731, -0.47681063413619995, 0.443485826253891, -0.17783132195472717, -10.208456993103027, -0.7152252197265625, 6.201578617095947, -3.096940755844116, 3.2917754650115967, -0.239501953125, 0.78564453125, 0.194091796875, 
271, 3537968033, -0.5155947804450989, 0.557072639465332, -0.47662150859832764, 0.4434727132320404, -0.14333194494247437, -10.172707557678223, -0.7168030738830566, 6.990445613861084, -3.3666584491729736, 3.6298062801361084, -0.239990234375, 0.78759765625, 0.196533203125, 
272, 3537976366, -0.5161388516426086, 0.5567355155944824, -0.47643789649009705, 0.44346052408218384, -0.13454952836036682, -10.144335746765137, -0.7057480812072754, 7.4871826171875, -3.44964861869812, 4.05336332321167, -0.234619140625, 0.789794921875, 0.196533203125, 
273, 3537984699, -0.5167495608329773, 0.5563617944717407, -0.47623321413993835, 0.4434383511543274, -0.11533644795417786, -10.152534484863281, -0.6938813328742981, 8.261321067810059, -3.664167642593384, 4.627352237701416, -0.236083984375, 0.7861328125, 0.195068359375, 
274, 3537993032, -0.5174210071563721, 0.5559102892875671, -0.4760359227657318, 0.4434337019920349, -0.13394026458263397, -10.140000343322754, -0.7244741320610046, 9.406201362609863, -3.6258747577667236, 5.419652938842773, -0.235595703125, 0.7861328125, 0.192626953125, 
275, 3538001365, -0.5182756185531616, 0.555270254611969, -0.47580379247665405, 0.44348636269569397, -0.09059612452983856, -10.26848030090332, -0.8433296084403992, 12.678114891052246, -3.3425049781799316, 7.1081953048706055, -0.235595703125, 0.78759765625, 0.190673828125, 
276, 3538009698, -0.5194383263587952, 0.5542882680892944, -0.4754827618598938, 0.44369879364967346, -0.07519274950027466, -10.462764739990234, -0.8847126960754395, 19.113672256469727, -2.8295035362243652, 9.396880149841309, -0.235595703125, 0.7900390625, 0.189208984375, 
277, 3538018031, -0.5211580395698547, 0.5527231693267822, -0.4749780297279358, 0.44417494535446167, -0.05536189675331116, -10.829996109008789, -0.9763559699058533, 30.314077377319336, -2.229285717010498, 13.322271347045898, -0.231201171875, 0.791015625, 0.18603515625, 
278, 3538026364, -0.5236658453941345, 0.5502747297286987, -0.47415581345558167, 0.44514286518096924, -0.014617101289331913, -11.305378913879395, -1.0421524047851562, 47.83837127685547, -0.5062921643257141, 17.969158172607422, -0.23046875, 0.791748046875, 0.178955078125, 
279, 3538034697, -0.5271599888801575, 0.5468398928642273, -0.47278672456741333, 0.4467049539089203, -0.10441607981920242, -11.482037544250488, -1.0452659130096436, 69.57793426513672, -0.25529828667640686, 22.024951934814453, -0.22412109375, 0.79638671875, 0.17431640625, 
280, 3538043030, -0.5315166711807251, 0.5426180362701416, -0.4708699882030487, 0.4487106502056122, -0.2795409858226776, -11.287497520446777, -0.9436081051826477, 88.070068359375, -1.74795401096344, 25.1032772064209, -0.22900390625, 0.800537109375, 0.16552734375, 
281, 3538051363, -0.5365771055221558, 0.5378553867340088, -0.4684188961982727, 0.4509817659854889, -0.39953362941741943, -10.85583782196045, -0.8066092133522034, 102.24185180664062, -4.812936305999756, 27.021352767944336, -0.22607421875, 0.8037109375, 0.1533203125, 
282, 3538059696, -0.5420472025871277, 0.5329067707061768, -0.4655517637729645, 0.45327797532081604, -0.4180736243724823, -10.316924095153809, -0.6644134521484375, 109.43511962890625, -9.26318645477295, 27.498512268066406, -0.221923828125, 0.80712890625, 0.13916015625, 
283, 3538068029, -0.5476266741752625, 0.5281054377555847, -0.46242403984069824, 0.45538759231567383, -0.39352136850357056, -9.782960891723633, -0.5215517282485962, 109.52362060546875, -14.135298728942871, 26.71319580078125, -0.213623046875, 0.810791015625, 0.127197265625, 
284, 3538076362, -0.553155779838562, 0.5235491991043091, -0.4591500461101532, 0.4572749137878418, -0.3595876097679138, -9.438898086547852, -0.3205738365650177, 106.85770416259766, -18.121192932128906, 25.453413009643555, -0.21435546875, 0.814453125, 0.11328125, 
285, 3538084695, -0.5587799549102783, 0.518971860408783, -0.4557938575744629, 0.4590088725090027, -0.13233938813209534, -10.022701263427734, -0.32616126537323, 107.20579528808594, -20.467615127563477, 26.76275634765625, -0.20849609375, 0.81787109375, 0.09912109375, 
286, 3538093028, -0.5650289058685303, 0.5136154294013977, -0.4521358609199524, 0.46099746227264404, 0.03502191975712776, -11.102356910705566, -0.3795318305492401, 121.20088958740234, -19.818958282470703, 31.477380752563477, -0.205322265625, 0.820556640625, 0.08740234375, 
287, 3538101361, -0.572739839553833, 0.5063790678977966, -0.44764649868011475, 0.4638598561286926, 0.16004936397075653, -12.391032218933105, -0.37588104605674744, 156.80960083007812, -17.09134292602539, 39.75784683227539, -0.2001953125, 0.8232421875, 0.07080078125, 
288, 3538109694, -0.5826842784881592, 0.496171772480011, -0.441769003868103, 0.4681204855442047, 0.1052841916680336, -13.82971477508545, -0.5727819204330444, 213.25588989257812, -13.274092674255371, 51.63005828857422, -0.196044921875, 0.828125, 0.044921875, 
289, 3538118027, -0.5950526595115662, 0.48278531432151794, -0.43391695618629456, 0.4738677442073822, -0.13831758499145508, -13.60244369506836, -0.6933659911155701, 276.9980773925781, -13.248649597167969, 61.17609405517578, -0.19140625, 0.83251953125, 0.014892578125, 
290, 3538126360, -0.6096110343933105, 0.46643516421318054, -0.423971951007843, 0.48069170117378235, -0.5738720893859863, -12.580944061279297, -0.6803933382034302, 335.89166259765625, -16.947525024414062, 70.41679382324219, -0.1796875, 0.8388671875, -0.024658203125, 
291, 3538134693, -0.625741183757782, 0.44780808687210083, -0.41208386421203613, 0.4879620671272278, -0.9337225556373596, -11.205388069152832, -0.377061665058136, 380.5305480957031, -24.345661163330078, 77.85404205322266, -0.173828125, 0.837158203125, -0.0703125, 
292, 3538143026, -0.6431784629821777, 0.4271947741508484, -0.39831095933914185, 0.4951551854610443, -1.2437071800231934, -10.734619140625, -0.23305469751358032, 417.8912658691406, -35.26415252685547, 86.96929931640625, -0.1650390625, 0.843017578125, -0.125244140625, 
293, 3538151359, -0.6618263721466064, 0.40443965792655945, -0.3824714720249176, 0.5021296739578247, -1.2588750123977661, -11.016392707824707, -0.2399093210697174, 456.8580017089844, -46.91706466674805, 96.7620849609375, -0.153564453125, 0.837890625, -0.18017578125, 
294, 3538159692, -0.6813086271286011, 0.37934377789497375, -0.3644663691520691, 0.5090039968490601, -0.9290779232978821, -10.33726978302002, -0.28100135922431946, 497.2374572753906, -55.37194061279297, 103.68675231933594, -0.145751953125, 0.829345703125, -0.238037109375, 
295, 3538168025, -0.7008990049362183, 0.352239191532135, -0.3445252478122711, 0.5157268643379211, -0.8989322781562805, -8.56945514678955, -0.007509976625442505, 529.4901123046875, -60.78706741333008, 105.83894348144531, -0.133544921875, 0.81640625, -0.3037109375, 
296, 3538176358, -0.7194785475730896, 0.32471153140068054, -0.32335373759269714, 0.5218808054924011, -1.148155927658081, -6.046440601348877, 1.029653549194336, 534.6510009765625, -67.61042022705078, 100.1927490234375, -0.124755859375, 0.797119140625, -0.366455078125, 
297, 3538184691, -0.7365155816078186, 0.29788586497306824, -0.30159640312194824, 0.5271169543266296, -1.6218754053115845, -4.688512802124023, 2.0165717601776123, 521.0094604492188, -75.69606018066406, 92.46708679199219, -0.119140625, 0.772705078125, -0.431396484375, 
298, 3538193024, -0.7513018250465393, 0.2732401490211487, -0.280108779668808, 0.5314399003982544, -1.7677940130233765, -2.871636390686035, 3.132920026779175, 483.8638916015625, -83.16207885742188, 77.45442199707031, -0.11279296875, 0.747802734375, -0.4912109375, 
299, 3538201357, -0.7636370062828064, 0.2516959011554718, -0.25956860184669495, 0.5349165797233582, -1.6463263034820557, -1.4290691614151, 4.080702781677246, 432.47821044921875, -89.7906494140625, 59.88973617553711, -0.113525390625, 0.715087890625, -0.54296875, 
300, 3538209690, -0.7736344933509827, 0.23322927951812744, -0.24024982750415802, 0.5379385352134705, -1.465136170387268, -1.8918315172195435, 4.530885219573975, 381.3572082519531, -92.81388854980469, 40.7063102722168, -0.11376953125, 0.687255859375, -0.5810546875, 
301, 3538218023, -0.7813002467155457, 0.21778571605682373, -0.22239582240581512, 0.5410024523735046, -0.7514849901199341, -1.4869070053100586, 4.933985233306885, 331.0693054199219, -91.77337646484375, 17.712976455688477, -0.120849609375, 0.657958984375, -0.61669921875, 
302, 3538226356, -0.7872747182846069, 0.204867422580719, -0.20565378665924072, 0.5440022349357605, -0.47253599762916565, -1.2047812938690186, 5.551147937774658, 290.3282470703125, -93.61140441894531, 1.4322733879089355, -0.126953125, 0.634033203125, -0.648193359375, 
303, 3538234689, -0.7918984293937683, 0.19370411336421967, -0.18986408412456512, 0.5471117496490479, -0.3664925992488861, -1.6472382545471191, 6.38543701171875, 260.75262451171875, -92.31983947753906, -12.151369094848633, -0.13916015625, 0.61083984375, -0.67138671875, 
304, 3538243022, -0.7954414486885071, 0.18370312452316284, -0.17488330602645874, 0.5504055023193359, -0.053246088325977325, -1.8612160682678223, 7.1310553550720215, 239.5568084716797, -88.92037200927734, -23.15924835205078, -0.1455078125, 0.58544921875, -0.6904296875, 
305, 3538251355, -0.7982128262519836, 0.1748955249786377, -0.160904198884964, 0.5535176396369934, 0.16245822608470917, -1.5810620784759521, 8.231561660766602, 216.57025146484375, -85.61868286132812, -27.359350204467773, -0.15673828125, 0.564697265625, -0.711181640625, 
306, 3538259688, -0.8004905581474304, 0.16696500778198242, -0.1478188931941986, 0.5563192367553711, 0.09871247410774231, -1.8229548931121826, 8.71827220916748, 198.224365234375, -82.11759948730469, -27.494277954101562, -0.170166015625, 0.541259765625, -0.72607421875, 
307, 3538268021, -0.8024479150772095, 0.1592903584241867, -0.13570638000965118, 0.558830738067627, 0.357618510723114, -2.1946299076080322, 9.430041313171387, 186.6592559814453, -73.39422607421875, -25.043346405029297, -0.176513671875, 0.52294921875, -0.741943359375, 
308, 3538276354, -0.8042365908622742, 0.15138380229473114, -0.12476114928722382, 0.5610036253929138, 0.5598810911178589, -2.117652654647827, 9.515897750854492, 179.22512817382812, -59.1446647644043, -19.60603904724121, -0.18896484375, 0.50439453125, -0.75439453125, 
309, 3538284687, -0.8058918118476868, 0.1430584043264389, -0.11503709852695465, 0.5628882050514221, 0.4774124026298523, -1.6505423784255981, 9.156753540039062, 173.6689910888672, -42.78520202636719, -14.189022064208984, -0.193115234375, 0.486083984375, -0.76611328125, 
310, 3538293020, -0.8074135780334473, 0.13452060520648956, -0.10670256614685059, 0.5644519925117493, 0.16159287095069885, -1.3050494194030762, 8.714698791503906, 164.490966796875, -26.15477180480957, -8.595375061035156, -0.196044921875, 0.4677734375, -0.7763671875, 
311, 3538301353, -0.8087411522865295, 0.12610094249248505, -0.09967060387134552, 0.5657790899276733, -0.15427909791469574, -0.6806559562683105, 7.908729076385498, 152.35269165039062, -12.766448020935059, -5.240113735198975, -0.20263671875, 0.449951171875, -0.7890625, 
312, 3538309686, -0.8099781274795532, 0.1180899515748024, -0.09327640384435654, 0.5668277740478516, -0.6710089445114136, -0.26514631509780884, 7.68945837020874, 142.31558227539062, -9.205101013183594, -2.301633834838867, -0.2021484375, 0.4326171875, -0.799560546875, 
313, 3538318019, -0.8111808896064758, 0.11098680645227432, -0.08680754899978638, 0.5675702095031738, -1.086071491241455, -0.7454352378845215, 8.057909965515137, 132.3134765625, -17.575742721557617, -0.44333821535110474, -0.202392578125, 0.41748046875, -0.80615234375, 
314, 3538326352, -0.8121606111526489, 0.10470032691955566, -0.07958818972110748, 0.5684211254119873, -0.927135705947876, -1.849398136138916, 8.923502922058105, 128.8736572265625, -31.882585525512695, -5.512397289276123, -0.20751953125, 0.40283203125, -0.81591796875, 
315, 3538334685, -0.8127878904342651, 0.09900304675102234, -0.07139274477958679, 0.5696325302124023, -0.27768805623054504, -2.352762222290039, 9.816784858703613, 129.7781219482422, -46.4966926574707, -14.350360870361328, -0.208740234375, 0.390625, -0.82177734375, 
316, 3538343018, -0.8131726980209351, 0.09344208985567093, -0.062185365706682205, 0.5711004137992859, 0.1856405884027481, -2.365757703781128, 10.644350051879883, 136.13516235351562, -58.276405334472656, -20.622684478759766, -0.2177734375, 0.374755859375, -0.829345703125, 
317, 3538351351, -0.8133438229560852, 0.0880618765950203, -0.05250604823231697, 0.5726814270019531, 0.4158957600593567, -1.849507212638855, 11.738545417785645, 137.61077880859375, -64.65882873535156, -24.3264217376709, -0.226806640625, 0.360595703125, -0.832763671875, 
318, 3538359684, -0.8133459091186523, 0.08308326452970505, -0.04336247593164444, 0.5741857886314392, 1.0204112529754639, -1.2871763706207275, 12.317397117614746, 128.67022705078125, -61.78618621826172, -24.442171096801758, -0.23388671875, 0.341552734375, -0.835693359375, 
319, 3538368017, -0.8132213354110718, 0.07829012721776962, -0.035669803619384766, 0.5755637288093567, 1.736025333404541, -0.9217454195022583, 12.642472267150879, 114.88050842285156, -47.09978485107422, -22.480878829956055, -0.244384765625, 0.3271484375, -0.84326171875, 
320, 3538376350, -0.8129098415374756, 0.07375124096870422, -0.030126240104436874, 0.5769184827804565, 2.1496851444244385, -0.5281233787536621, 12.765029907226562, 94.85353088378906, -25.003658294677734, -21.511842727661133, -0.248046875, 0.3134765625, -0.84912109375, 
321, 3538384683, -0.8125004172325134, 0.0696462020277977, -0.02692278102040291, 0.5781623721122742, 2.089416742324829, -0.13425558805465698, 12.54463005065918, 71.24308013916016, -2.3555984497070312, -18.850908279418945, -0.251953125, 0.301513671875, -0.8515625, 
322, 3538393016, -0.8121491074562073, 0.06630347669124603, -0.02563801407814026, 0.5791065692901611, 1.4288362264633179, -0.049603525549173355, 12.195578575134277, 47.464805603027344, 12.712078094482422, -13.490456581115723, -0.252197265625, 0.29541015625, -0.857421875, 
323, 3538401349, -0.8118074536323547, 0.06372132152318954, -0.025471430271863937, 0.5798821449279785, 0.7155015468597412, -0.3345637321472168, 11.712013244628906, 29.953542709350586, 18.994808197021484, -10.77389907836914, -0.250244140625, 0.291015625, -0.855712890625, 
324, 3538409682, -0.8114272952079773, 0.06166422367095947, -0.02548736147582531, 0.580635666847229, 0.16218894720077515, -0.9516099691390991, 11.221206665039062, 22.656848907470703, 16.831321716308594, -10.863109588623047, -0.24658203125, 0.286865234375, -0.86181640625, 
325, 3538418015, -0.8110467791557312, 0.05994750186800957, -0.024810582399368286, 0.5813758969306946, -0.19032640755176544, -1.6391512155532837, 11.027897834777832, 24.317312240600586, 6.381957054138184, -11.420191764831543, -0.2451171875, 0.2841796875, -0.86328125, 
326, 3538426348, -0.8106205463409424, 0.05801335349678993, -0.022962704300880432, 0.5822416543960571, -0.2255774885416031, -2.621565103530884, 10.930837631225586, 36.17683792114258, -4.832106590270996, -14.081110954284668, -0.243896484375, 0.283203125, -0.86474609375, 
327, 3538434681, -0.810032844543457, 0.05568407103419304, -0.020114630460739136, 0.5833911299705505, 0.12444497644901276, -2.5045602321624756, 11.195873260498047, 48.48946762084961, -12.53471565246582, -19.204883575439453, -0.244384765625, 0.275390625, -0.864501953125, 
328, 3538443014, -0.8092864155769348, 0.0533621609210968, -0.017219742760062218, 0.5847353935241699, 0.4300912022590637, -2.091594934463501, 11.709850311279297, 48.77705383300781, -12.927155494689941, -22.692428588867188, -0.2509765625, 0.26611328125, -0.87109375, 
329, 3538451347, -0.8084370493888855, 0.051627326756715775, -0.01568852923810482, 0.5861076712608337, 1.2151741981506348, -1.1157138347625732, 11.474482536315918, 31.154773712158203, -2.42372465133667, -22.965829849243164, -0.25390625, 0.262451171875, -0.87158203125, 
330, 3538459680, -0.8075990676879883, 0.050011809915304184, -0.01618674211204052, 0.5873880982398987, 2.1966428756713867, -0.31858664751052856, 11.300030708312988, 13.514427185058594, 19.104969024658203, -20.441457748413086, -0.25439453125, 0.260009765625, -0.87060546875, 
331, 3538468013, -0.8069595694541931, 0.04809752106666565, -0.018733885139226913, 0.5883501172065735, 2.481868267059326, -1.228986382484436, 11.486985206604004, 0.28953105211257935, 44.02335739135742, -13.820622444152832, -0.2509765625, 0.257568359375, -0.869873046875, 
332, 3538476346, -0.8065227270126343, 0.046080850064754486, -0.02267882414162159, 0.5889714360237122, 1.6814929246902466, -1.4596115350723267, 11.072189331054688, -9.779829978942871, 60.072608947753906, -7.455662250518799, -0.240478515625, 0.257568359375, -0.873046875, 
333, 3538484679, -0.8063522577285767, 0.04403533786535263, -0.026749340817332268, 0.5891905426979065, 0.5458924174308777, -1.5331522226333618, 10.60342025756836, -10.487861633300781, 61.38735580444336, -0.7454023957252502, -0.236572265625, 0.258544921875, -0.875732421875, 
334, 3538493012, -0.8063549399375916, 0.041957929730415344, -0.03002026304602623, 0.5891810655593872, -0.2867279648780823, -1.9951900243759155, 10.205811500549316, -3.580059051513672, 52.548973083496094, 2.7182533740997314, -0.233642578125, 0.259033203125, -0.878662109375, 
335, 3538501345, -0.8064327239990234, 0.040135566145181656, -0.03193250298500061, 0.5891007781028748, -0.8812243342399597, -1.9439060688018799, 9.932661056518555, 4.562963962554932, 35.3734130859375, 3.2257707118988037, -0.224609375, 0.256591796875, -0.881103515625, 
336, 3538509678, -0.8064266443252563, 0.03897908329963684, -0.03247145190834999, 0.5891574621200562, -1.4256473779678345, -1.771683931350708, 9.77379322052002, 8.368748664855957, 14.834781646728516, -0.025793537497520447, -0.21728515625, 0.2578125, -0.87890625, 
337, 3538518011, -0.8062265515327454, 0.03869447112083435, -0.03213360160589218, 0.5894683599472046, -1.38878333568573, -1.448209524154663, 9.65195083618164, 5.76905632019043, -1.7106214761734009, -5.276456356048584, -0.220703125, 0.2587890625, -0.88134765625, 
338, 3538526344, -0.8058421015739441, 0.03886866569519043, -0.03133801370859146, 0.5900252461433411, -0.6554169058799744, -1.603001594543457, 9.493576049804688, 4.447157382965088, -10.311270713806152, -9.943192481994629, -0.22021484375, 0.257080078125, -0.88330078125, 
339, 3538534677, -0.8053600192070007, 0.03931646794080734, -0.030375782400369644, 0.590703547000885, -0.08588806539773941, -1.6498761177062988, 9.269641876220703, 2.728518486022949, -14.258576393127441, -12.28732967376709, -0.22119140625, 0.25927734375, -0.882080078125, 
340, 3538543010, -0.8048994541168213, 0.039635784924030304, -0.02929903194308281, 0.5913641452789307, 0.16447874903678894, -1.427025318145752, 9.087617874145508, 5.123963356018066, -14.513236999511719, -11.928221702575684, -0.224609375, 0.256103515625, -0.882568359375, 
341, 3538551343, -0.8045361042022705, 0.0396672822535038, -0.028233258053660393, 0.5919079780578613, 0.3369646668434143, -1.480872392654419, 9.27318286895752, 8.192240715026855, -12.143532752990723, -9.721372604370117, -0.22607421875, 0.251708984375, -0.879638671875, 
342, 3538559676, -0.8043394684791565, 0.039570149034261703, -0.02742381952702999, 0.5922195911407471, 0.3643271327018738, -1.110150933265686, 9.398354530334473, 7.565074920654297, -8.46258544921875, -5.606213569641113, -0.22705078125, 0.251708984375, -0.882568359375, 
343, 3538568009, -0.8042993545532227, 0.039582666009664536, -0.02703176625072956, 0.5922914743423462, 0.2943785786628723, -0.617569625377655, 9.526232719421387, 2.9159884452819824, -4.91567850112915, -1.4920291900634766, -0.2314453125, 0.252685546875, -0.8818359375, 
344, 3538576342, -0.8043383359909058, 0.039893779903650284, -0.027119211852550507, 0.59221351146698, 0.2034042775630951, -0.5053776502609253, 9.684664726257324, -4.274221897125244, -2.1676816940307617, 0.9566020369529724, -0.23046875, 0.253173828125, -0.8798828125, 
345, 3538584675, -0.8043439984321594, 0.040549904108047485, -0.027652369812130928, 0.5921366214752197, 0.19260795414447784, -0.5656284093856812, 9.788146018981934, -11.770358085632324, -0.020184021443128586, 0.7924405932426453, -0.22998046875, 0.252197265625, -0.880859375, 
346, 3538593008, -0.8043168187141418, 0.04135577008128166, -0.028451355174183846, 0.5920798182487488, 0.24092964828014374, -0.8355998992919922, 9.82866382598877, -15.568796157836914, 1.7098145484924316, 0.3916289508342743, -0.22705078125, 0.255126953125, -0.878662109375, 
347, 3538601341, -0.8042919039726257, 0.042048946022987366, -0.029277849942445755, 0.5920247435569763, 0.22864007949829102, -1.1967823505401611, 9.731378555297852, -14.580036163330078, 2.9499025344848633, 0.45259085297584534, -0.225830078125, 0.2578125, -0.880126953125, 
348, 3538609674, -0.8042458295822144, 0.042660485953092575, -0.029970739036798477, 0.5920089483261108, 0.09277786314487457, -1.0698131322860718, 9.695959091186523, -12.549952507019043, 2.148099660873413, -0.20160967111587524, -0.228271484375, 0.25830078125, -0.87890625, 
349, 3538618007, -0.8041183352470398, 0.04329082369804382, -0.030485572293400764, 0.5921097993850708, -0.05506359785795212, -0.7991001009941101, 9.602508544921875, -11.342573165893555, 0.14770449697971344, -2.260763645172119, -0.226806640625, 0.26025390625, -0.87841796875, 
350, 3538626340, -0.8038558959960938, 0.044089578092098236, -0.030927181243896484, 0.5923843383789062, -0.021582994610071182, -0.6812535524368286, 9.501391410827637, -12.581944465637207, -1.8926873207092285, -5.39879035949707, -0.225830078125, 0.26171875, -0.877685546875, 
351, 3538634673, -0.8034591674804688, 0.045251164585351944, -0.03147431090474129, 0.5928059816360474, 0.055385321378707886, -0.430961549282074, 9.490501403808594, -17.508281707763672, -3.5168356895446777, -8.205214500427246, -0.225830078125, 0.263671875, -0.875732421875, 
352, 3538643006, -0.8029704689979553, 0.046664245426654816, -0.032269541174173355, 0.5933157205581665, 0.1043521985411644, -0.5099344849586487, 9.564932823181152, -22.290569305419922, -2.748690605163574, -9.89065933227539, -0.231201171875, 0.263671875, -0.875, 
353, 3538651339, -0.80241858959198, 0.04827313497662544, -0.03334100916981697, 0.5938740372657776, 0.13943155109882355, -0.5104295611381531, 9.639079093933105, -26.76730728149414, -1.2201608419418335, -10.843871116638184, -0.230224609375, 0.267333984375, -0.876220703125, 
354, 3538659672, -0.8018099665641785, 0.05005780979990959, -0.034675292670726776, 0.59447181224823, 0.07517480105161667, -0.43361714482307434, 9.78143310546875, -30.831525802612305, 0.2804633378982544, -11.655052185058594, -0.228515625, 0.268310546875, -0.8740234375, 
355, 3538668005, -0.8011231422424316, 0.05206235870718956, -0.03636203706264496, 0.595124363899231, 0.0872846320271492, -0.508614182472229, 10.018739700317383, -36.21138000488281, 2.4603397846221924, -12.756569862365723, -0.23193359375, 0.274169921875, -0.873779296875, 
356, 3538676338, -0.8003320097923279, 0.054323289543390274, -0.03852226212620735, 0.5958505272865295, 0.2050364762544632, -0.4517190158367157, 10.194633483886719, -42.901920318603516, 5.666634559631348, -14.212493896484375, -0.22998046875, 0.279296875, -0.869873046875, 
357, 3538684671, -0.7994135618209839, 0.05692175775766373, -0.041197460144758224, 0.5966612100601196, 0.2044004201889038, -0.4364098012447357, 10.258073806762695, -50.93962097167969, 8.71561050415039, -15.976765632629395, -0.228759765625, 0.282958984375, -0.868896484375, 
358, 3538693004, -0.7983447909355164, 0.05998336151242256, -0.04436100646853447, 0.5975648760795593, 0.10500723123550415, -0.38593506813049316, 10.344459533691406, -60.05045700073242, 10.425812721252441, -18.11519432067871, -0.230224609375, 0.286376953125, -0.8662109375, 
359, 3538701337, -0.7970802783966064, 0.06377537548542023, -0.04806746914982796, 0.5985730290412903, -0.07247521728277206, -0.21887698769569397, 10.48351001739502, -72.6871109008789, 10.60768985748291, -20.868356704711914, -0.22998046875, 0.294921875, -0.86181640625, 
360, 3538709670, -0.7955436706542969, 0.06877139955759048, -0.05260784551501274, 0.5996811985969543, -0.16688229143619537, 0.1662972867488861, 10.609044075012207, -92.86346435546875, 10.086749076843262, -24.268068313598633, -0.2314453125, 0.303955078125, -0.862060546875, 
361, 3538718003, -0.7936343550682068, 0.07543244957923889, -0.05830218270421028, 0.6008821725845337, -0.18959692120552063, 0.6005358695983887, 10.588301658630371, -120.95159912109375, 9.355049133300781, -28.467588424682617, -0.2294921875, 0.316162109375, -0.853271484375, 
362, 3538726336, -0.7912525534629822, 0.08407115936279297, -0.06535590440034866, 0.6021495461463928, -0.20111282169818878, 0.8291431665420532, 10.419892311096191, -154.1352081298828, 8.279380798339844, -33.27761459350586, -0.22802734375, 0.324951171875, -0.84912109375, 
363, 3538734669, -0.7883477210998535, 0.09481799602508545, -0.0737428292632103, 0.6033933758735657, -0.20228910446166992, 0.6242042779922485, 10.310606956481934, -188.8318328857422, 5.7879438400268555, -37.70261764526367, -0.2294921875, 0.344970703125, -0.836669921875, 
364, 3538743002, -0.7849230170249939, 0.10753919184207916, -0.08334041386842728, 0.6044746041297913, -0.12489963322877884, -0.12528522312641144, 10.219714164733887, -221.03717041015625, 2.8292055130004883, -40.68067169189453, -0.23095703125, 0.368408203125, -0.826171875, 
365, 3538751335, -0.7810531854629517, 0.12161035090684891, -0.09370952844619751, 0.6053012013435364, 0.04324670135974884, -0.9791825413703918, 9.90306568145752, -243.08616638183594, 0.08400639146566391, -42.035037994384766, -0.234375, 0.390625, -0.810546875, 
366, 3538759668, -0.7768856287002563, 0.13652360439300537, -0.10427358001470566, 0.6057567000389099, 0.11277680099010468, -1.9401065111160278, 9.678223609924316, -254.6195068359375, -5.0842366218566895, -41.291107177734375, -0.235107421875, 0.41552734375, -0.794189453125, 
367, 3538768001, -0.7725018858909607, 0.1518712192773819, -0.114739328622818, 0.6058174967765808, 0.046185221523046494, -2.9064157009124756, 9.519464492797852, -259.5369567871094, -10.171082496643066, -39.67652893066406, -0.238037109375, 0.44287109375, -0.776611328125, 
368, 3538776334, -0.7679724097251892, 0.16729703545570374, -0.12496233731508255, 0.6054903864860535, 0.17329801619052887, -3.736707925796509, 9.313127517700195, -259.139404296875, -13.993620872497559, -37.40386199951172, -0.24267578125, 0.46875, -0.757080078125, 
369, 3538784667, -0.7634185552597046, 0.18249309062957764, -0.13487298786640167, 0.6047326326370239, 0.3932817578315735, -4.363170623779297, 9.0059814453125, -255.0323486328125, -16.318401336669922, -33.375633239746094, -0.244140625, 0.490966796875, -0.737548828125, 
370, 3538793000, -0.7588410973548889, 0.19745910167694092, -0.14462395012378693, 0.6035379767417908, 0.48217064142227173, -4.551865577697754, 8.807368278503418, -252.0333251953125, -17.14417266845703, -28.968402862548828, -0.250244140625, 0.512451171875, -0.712890625, 
371, 3538801333, -0.7540955543518066, 0.21265263855457306, -0.15443482995033264, 0.6018909215927124, 0.3515743017196655, -4.539919853210449, 8.671448707580566, -256.38616943359375, -19.2907772064209, -25.92228126525879, -0.254150390625, 0.535888671875, -0.69384765625, 
372, 3538809666, -0.7490924596786499, 0.22838719189167023, -0.16439440846443176, 0.5997319221496582, 0.2321801781654358, -4.814530372619629, 8.363166809082031, -264.9450378417969, -23.187000274658203, -23.46846580505371, -0.26025390625, 0.556884765625, -0.66748046875, 
373, 3538817999, -0.7437540888786316, 0.2449347823858261, -0.1745368242263794, 0.5969737768173218, 0.2518848478794098, -4.934695243835449, 7.864825248718262, -277.363525390625, -29.125593185424805, -21.314714431762695, -0.260009765625, 0.58154296875, -0.640380859375, 
374, 3538826332, -0.7379955053329468, 0.2624119818210602, -0.1848670095205307, 0.5935746431350708, 0.29711273312568665, -5.064148902893066, 7.434726238250732, -291.2447814941406, -35.996280670166016, -19.817581176757812, -0.265380859375, 0.6025390625, -0.61669921875, 
375, 3538834665, -0.7316405177116394, 0.28087088465690613, -0.19560369849205017, 0.5895395874977112, 0.5348394513130188, -5.514361381530762, 6.795737266540527, -308.42498779296875, -40.65609359741211, -19.24777603149414, -0.271240234375, 0.626708984375, -0.58349609375, 
376, 3538842998, -0.7245129346847534, 0.3001653552055359, -0.20691418647766113, 0.584955096244812, 1.055793285369873, -5.636265754699707, 5.959855556488037, -325.82275390625, -41.70997619628906, -20.025890350341797, -0.273681640625, 0.6474609375, -0.5478515625, 
377, 3538851331, -0.7169638872146606, 0.31909966468811035, -0.21846289932727814, 0.5800138711929321, 1.7000480890274048, -6.315264701843262, 5.65625, -327.06201171875, -36.33063888549805, -18.22579002380371, -0.281005859375, 0.672119140625, -0.51220703125, 
378, 3538859664, -0.7092936635017395, 0.33675479888916016, -0.23009255528450012, 0.5749437212944031, 1.9475946426391602, -8.312957763671875, 5.641059875488281, -315.8554992675781, -25.910202026367188, -13.352015495300293, -0.28125, 0.69091796875, -0.47705078125, 
379, 3538867997, -0.7017505764961243, 0.3526853024959564, -0.24144484102725983, 0.5699716806411743, 1.684267520904541, -9.406587600708008, 5.608867645263672, -296.0870056152344, -14.530107498168945, -9.438040733337402, -0.2841796875, 0.708740234375, -0.442626953125, 
380, 3538876330, -0.6944291591644287, 0.3668435513973236, -0.252269983291626, 0.5652945041656494, 1.346823811531067, -9.419910430908203, 5.481023788452148, -272.64404296875, -5.428011894226074, -6.911788463592529, -0.286376953125, 0.722412109375, -0.409912109375, 
381, 3538884663, -0.6875107884407043, 0.3794354498386383, -0.26230937242507935, 0.5608525276184082, 1.0640971660614014, -9.430963516235352, 5.164841175079346, -248.86160278320312, -0.5411558747291565, -4.8254218101501465, -0.285400390625, 0.736328125, -0.378662109375, 
382, 3538892996, -0.681058406829834, 0.3906864821910858, -0.271467000246048, 0.5566267967224121, 0.8251597881317139, -9.493704795837402, 4.8808770179748535, -226.03182983398438, 0.48493772745132446, -2.7682549953460693, -0.285400390625, 0.745361328125, -0.3525390625, 
383, 3538901329, -0.6750476360321045, 0.4010705351829529, -0.2797805368900299, 0.5524311065673828, 0.5905184745788574, -9.07583999633789, 4.652275562286377, -209.09075927734375, -1.8351000547409058, -1.2055803537368774, -0.2822265625, 0.75390625, -0.324951171875, 
384, 3538909662, -0.6691868305206299, 0.4112580120563507, -0.28751546144485474, 0.5480828285217285, 0.30442607402801514, -8.376045227050781, 4.433165073394775, -202.50283813476562, -7.567460536956787, -0.8473238945007324, -0.287109375, 0.763427734375, -0.2978515625, 
385, 3538917995, -0.6631342172622681, 0.42195379734039307, -0.2949010133743286, 0.5433648228645325, 0.06405625492334366, -7.965049743652344, 4.246903896331787, -207.2130889892578, -15.53360366821289, -3.0673961639404297, -0.284423828125, 0.76953125, -0.274169921875, 
386, 3538926328, -0.656460702419281, 0.43369221687316895, -0.30219340324401855, 0.5381947159767151, 0.0012775715440511703, -7.585119724273682, 4.049640655517578, -221.3439483642578, -24.692535400390625, -8.162128448486328, -0.287841796875, 0.77685546875, -0.243896484375, 
387, 3538934661, -0.6487622857093811, 0.4471142292022705, -0.30966779589653015, 0.532265305519104, 0.026711560785770416, -6.973820209503174, 3.637127161026001, -247.27687072753906, -35.432464599609375, -14.935436248779297, -0.288818359375, 0.781494140625, -0.21728515625, 
388, 3538942994, -0.6398565173149109, 0.46218135952949524, -0.31748756766319275, 0.5255260467529297, 0.27936187386512756, -7.012539863586426, 2.9560532569885254, -275.242919921875, -44.57970428466797, -21.298704147338867, -0.287841796875, 0.787109375, -0.186279296875, 
389, 3538951327, -0.6298783421516418, 0.4782896637916565, -0.3256967067718506, 0.5180906653404236, 0.8965437412261963, -7.599655628204346, 2.5514235496520996, -297.20135498046875, -48.03011703491211, -25.113265991210938, -0.292724609375, 0.790771484375, -0.150634765625, 
390, 3538959660, -0.6191407442092896, 0.49454057216644287, -0.33438894152641296, 0.5101790428161621, 1.4613711833953857, -8.40121078491211, 2.0532612800598145, -308.8866882324219, -44.98263168334961, -23.741910934448242, -0.297607421875, 0.79443359375, -0.1064453125, 
391, 3538967993, -0.6081691980361938, 0.5099342465400696, -0.34344282746315, 0.5021436810493469, 1.7097852230072021, -9.325723648071289, 1.8312993049621582, -306.3673400878906, -35.65412521362305, -17.89655876159668, -0.301513671875, 0.791259765625, -0.064697265625, 
392, 3538976326, -0.597366213798523, 0.5238794684410095, -0.35260507464408875, 0.4943458139896393, 1.7263047695159912, -10.253981590270996, 1.6603586673736572, -292.61083984375, -23.87648582458496, -11.148957252502441, -0.30029296875, 0.793212890625, -0.0263671875, 
393, 3538984659, -0.5869438052177429, 0.536235511302948, -0.36172136664390564, 0.4869394898414612, 1.616105556488037, -10.622239112854004, 1.4469332695007324, -274.67755126953125, -12.473886489868164, -4.364315509796143, -0.30126953125, 0.79150390625, 0.009765625, 
394, 3538992992, -0.5768260955810547, 0.5473642945289612, -0.3707790970802307, 0.47978219389915466, 1.3589705228805542, -10.226333618164062, 1.2132452726364136, -260.8132019042969, -4.40916633605957, 1.2999364137649536, -0.300537109375, 0.790283203125, 0.0458984375, 
395, 3539001325, -0.5667036771774292, 0.557950496673584, -0.3798026144504547, 0.4725379943847656, 0.9097540378570557, -9.519410133361816, 0.9382565021514893, -256.8359069824219, -1.7316229343414307, 4.509865760803223, -0.30126953125, 0.78515625, 0.075439453125, 
396, 3539009658, -0.5561070442199707, 0.5687280297279358, -0.38873523473739624, 0.46495404839515686, 0.5037129521369934, -9.033503532409668, 0.5997034311294556, -263.07733154296875, -3.8116819858551025, 2.336327314376831, -0.296630859375, 0.7822265625, 0.106689453125, 
397, 3539017991, -0.5447374582290649, 0.5800422430038452, -0.3974170982837677, 0.45702943205833435, 0.365043044090271, -8.707770347595215, 0.11147622764110565, -273.5199279785156, -7.697534561157227, -4.789563179016113, -0.29931640625, 0.7724609375, 0.138427734375, 
398, 3539026324, -0.5321933627128601, 0.5924630165100098, -0.4058546721935272, 0.4483792185783386, 0.2561838626861572, -7.726858615875244, -0.24202927947044373, -293.53814697265625, -15.845816612243652, -14.773369789123535, -0.297119140625, 0.767333984375, 0.173583984375, 
399, 3539034657, -0.5183912515640259, 0.6061992645263672, -0.4139673113822937, 0.43866610527038574, -0.01677878387272358, -7.0596137046813965, -1.2460514307022095, -317.4215087890625, -27.986501693725586, -24.707969665527344, -0.29931640625, 0.755126953125, 0.210693359375, 
400, 3539042990, -0.5031064748764038, 0.6213433742523193, -0.4218403398990631, 0.4276341199874878, 0.1384330689907074, -6.843690395355225, -1.7661176919937134, -345.8155517578125, -40.732200622558594, -34.29713439941406, -0.300537109375, 0.74072265625, 0.25390625, 
401, 3539051323, -0.4861813187599182, 0.6376804113388062, -0.4297269582748413, 0.4151267409324646, 0.5555791258811951, -6.625554084777832, -2.396087408065796, -376.79974365234375, -50.757686614990234, -40.509979248046875, -0.298828125, 0.720703125, 0.294677734375, 
402, 3539059656, -0.46770593523979187, 0.6547122001647949, -0.437786340713501, 0.40118607878685, 0.9670850038528442, -6.762113571166992, -3.113337993621826, -404.4411926269531, -56.96671676635742, -42.39932632446289, -0.304443359375, 0.7001953125, 0.343017578125, 
403, 3539067989, -0.4479846954345703, 0.6718531250953674, -0.44600173830986023, 0.38601770997047424, 1.0715851783752441, -7.465087413787842, -3.528801918029785, -424.6728820800781, -60.13427734375, -40.60153579711914, -0.300537109375, 0.673583984375, 0.3935546875, 
404, 3539076322, -0.42738962173461914, 0.6885919570922852, -0.4543340504169464, 0.36981576681137085, 1.1662811040878296, -8.039702415466309, -4.218240737915039, -437.1844482421875, -61.457374572753906, -35.353050231933594, -0.301025390625, 0.647216796875, 0.44091796875, 
405, 3539084655, -0.40600210428237915, 0.7049253582954407, -0.462676078081131, 0.3523882031440735, 1.0773738622665405, -7.712621212005615, -4.8402862548828125, -450.0603332519531, -66.01040649414062, -29.528024673461914, -0.300048828125, 0.61328125, 0.489990234375, 
406, 3539092988, -0.38408005237579346, 0.7205080389976501, -0.47106629610061646, 0.3338433504104614, 1.085350513458252, -7.899606704711914, -5.4583611488342285, -458.3551025390625, -69.51577758789062, -20.662092208862305, -0.29443359375, 0.574462890625, 0.53369140625, 
407, 3539101321, -0.36184531450271606, 0.7350635528564453, -0.47936707735061646, 0.3145804703235626, 1.20376455783844, -8.603486061096191, -6.005116939544678, -460.30157470703125, -70.38343048095703, -12.508605003356934, -0.29345703125, 0.53662109375, 0.581298828125, 
408, 3539109654, -0.33931881189346313, 0.7485503554344177, -0.4875636100769043, 0.294653981924057, 1.1564844846725464, -8.100935935974121, -6.481431007385254, -461.8265380859375, -71.04280853271484, -4.503400802612305, -0.284423828125, 0.495361328125, 0.6240234375, 
409, 3539117987, -0.3168966770172119, 0.7606534361839294, -0.49559110403060913, 0.27454766631126404, 1.228346824645996, -8.159666061401367, -7.126899242401123, -454.83551025390625, -68.79751586914062, 4.321696758270264, -0.278564453125, 0.4482421875, 0.65771484375, 
410, 3539126320, -0.294523149728775, 0.7714511752128601, -0.5034329891204834, 0.2543197572231293, 1.2182085514068604, -7.5958967208862305, -7.654008865356445, -448.7400817871094, -66.25782775878906, 11.967246055603027, -0.268310546875, 0.402099609375, 0.695556640625, 
411, 3539134653, -0.272622287273407, 0.780657947063446, -0.51109778881073, 0.23459231853485107, 1.1796543598175049, -7.703372001647949, -7.957842826843262, -433.2088928222656, -59.39805221557617, 20.753440856933594, -0.263671875, 0.357421875, 0.7265625, 
412, 3539142986, -0.25166696310043335, 0.7880195379257202, -0.5186267495155334, 0.21614645421504974, 1.123222827911377, -8.102758407592773, -8.295360565185547, -406.66302490234375, -46.813316345214844, 30.485239028930664, -0.253173828125, 0.311279296875, 0.753662109375, 
413, 3539151319, -0.23213355243206024, 0.7934970855712891, -0.5259073376655579, 0.1997547298669815, 1.2609138488769531, -8.023192405700684, -8.719398498535156, -369.35491943359375, -29.98040199279785, 38.36991882324219, -0.244384765625, 0.268310546875, 0.771484375, 
414, 3539159652, -0.21397419273853302, 0.7973467111587524, -0.5329923629760742, 0.1854088306427002, 1.1320475339889526, -6.692492961883545, -8.846051216125488, -333.7972106933594, -13.714171409606934, 45.232398986816406, -0.240966796875, 0.231201171875, 0.78662109375, 
415, 3539167985, -0.1971421092748642, 0.7997971773147583, -0.5398670434951782, 0.17322559654712677, 0.9365854263305664, -6.430079460144043, -9.085136413574219, -298.7607727050781, 3.186617374420166, 50.22056579589844, -0.237548828125, 0.193603515625, 0.7978515625, 
416, 3539176318, -0.18110835552215576, 0.8013643622398376, -0.5464034080505371, 0.162672758102417, 0.7682369351387024, -5.172098636627197, -9.082709312438965, -274.63946533203125, 16.413530349731445, 50.516578674316406, -0.236328125, 0.161865234375, 0.807861328125, 
417, 3539184651, -0.16555863618850708, 0.802358090877533, -0.5526374578475952, 0.15299637615680695, 0.3535393178462982, -3.938170909881592, -9.040478706359863, -260.64691162109375, 22.928220748901367, 50.4107551574707, -0.234375, 0.131103515625, 0.81689453125, 
418, 3539192984, -0.15058378875255585, 0.8028914332389832, -0.5585101842880249, 0.14408475160598755, 0.141178160905838, -4.199126720428467, -9.273876190185547, -246.64834594726562, 27.180156707763672, 49.37627029418945, -0.240966796875, 0.103759765625, 0.822998046875, 
419, 3539201317, -0.13587990403175354, 0.803286612033844, -0.563909649848938, 0.1351938247680664, 0.0779663547873497, -3.1621828079223633, -9.205534934997559, -242.30377197265625, 24.58951187133789, 45.717529296875, -0.240478515625, 0.075439453125, 0.824462890625, 
420, 3539209650, -0.12168268859386444, 0.8035573959350586, -0.5688183903694153, 0.12624825537204742, -0.19317246973514557, -2.9573721885681152, -9.401369094848633, -235.953125, 19.401004791259766, 42.29222869873047, -0.24267578125, 0.0478515625, 0.830810546875, 
421, 3539217983, -0.10820268094539642, 0.8036867380142212, -0.5732606053352356, 0.11728673428297043, -0.062034934759140015, -3.4530534744262695, -9.43199348449707, -227.1332244873047, 13.052165985107422, 39.524539947509766, -0.244140625, 0.019287109375, 0.827880859375, 
422, 3539226316, -0.09574983268976212, 0.8035309910774231, -0.5773449540138245, 0.10884442925453186, 0.1350279599428177, -3.7476775646209717, -9.50322437286377, -210.6562957763672, 10.649599075317383, 38.692378997802734, -0.245361328125, -0.00146484375, 0.835205078125, 
423, 3539234649, -0.08454857021570206, 0.8029899001121521, -0.581177294254303, 0.10146811604499817, 0.43224287033081055, -3.9116997718811035, -9.365596771240234, -187.508056640625, 12.711066246032715, 39.439414978027344, -0.245361328125, -0.02685546875, 0.832275390625, 
424, 3539242982, -0.07454977184534073, 0.8020039200782776, -0.5849259495735168, 0.09538271278142929, 0.5867360830307007, -3.846130132675171, -9.01429557800293, -163.24513244628906, 17.904111862182617, 42.24542236328125, -0.244140625, -0.046875, 0.83056640625, 
425, 3539251315, -0.06533203274011612, 0.8006114959716797, -0.5886948704719543, 0.09052858501672745, 0.6251386404037476, -3.060880661010742, -8.716435432434082, -144.3786163330078, 25.731752395629883, 45.4997673034668, -0.252685546875, -0.0654296875, 0.83203125, 
426, 3539259648, -0.0564081072807312, 0.7989279627799988, -0.5924961566925049, 0.08651328831911087, 0.696634829044342, -2.2645416259765625, -8.472111701965332, -134.0894775390625, 33.002357482910156, 47.82485580444336, -0.25390625, -0.078125, 0.830810546875, 
427, 3539267981, -0.04770331829786301, 0.797036349773407, -0.596247673034668, 0.08336839079856873, 0.7938207983970642, -2.3166112899780273, -8.387931823730469, -124.41676330566406, 40.9668083190918, 48.55800247192383, -0.255126953125, -0.09375, 0.8291015625, 
428, 3539276314, -0.03927195444703102, 0.7950189709663391, -0.5998900532722473, 0.0808611661195755, 0.8285937309265137, -2.2404556274414062, -8.493745803833008, -115.93586730957031, 45.8092155456543, 48.289913177490234, -0.2626953125, -0.10498046875, 0.822021484375, 
429, 3539284647, -0.03112899884581566, 0.7930176258087158, -0.6032782196998596, 0.07882556319236755, 0.7805688977241516, -1.7175061702728271, -8.627402305603027, -108.6714096069336, 48.4068603515625, 45.44094467163086, -0.2685546875, -0.116943359375, 0.822509765625, 
430, 3539292980, -0.023270748555660248, 0.7910922169685364, -0.6063976287841797, 0.07692721486091614, 0.6484265327453613, -1.1216471195220947, -8.8644437789917, -104.1156234741211, 47.3680534362793, 42.131893157958984, -0.273681640625, -0.127197265625, 0.816162109375, 
431, 3539301313, -0.015665579587221146, 0.78923100233078, -0.6093154549598694, 0.07488440722227097, 0.5078431367874146, -1.2189533710479736, -8.891899108886719, -102.42957305908203, 43.53251647949219, 39.71476364135742, -0.277587890625, -0.13671875, 0.814453125, 
432, 3539309646, -0.008298743516206741, 0.787472665309906, -0.6119819283485413, 0.07280170172452927, 0.5356767773628235, -1.235504150390625, -8.883362770080566, -99.8846435546875, 40.96275329589844, 36.38095474243164, -0.2880859375, -0.14599609375, 0.809814453125, 
433, 3539317979, -0.001178488600999117, 0.7857661247253418, -0.6144604682922363, 0.07080031931400299, 0.7974499464035034, -1.0853351354599, -9.229867935180664, -96.40415954589844, 39.6784553527832, 34.14329147338867, -0.290283203125, -0.158203125, 0.805908203125, 
434, 3539326312, 0.0055938721634447575, 0.7841008901596069, -0.6167433857917786, 0.0691840872168541, 1.1103438138961792, -0.9079396724700928, -9.729665756225586, -89.1432113647461, 40.874996185302734, 32.017330169677734, -0.297119140625, -0.165771484375, 0.805419921875, 
435, 3539334645, 0.012119581922888756, 0.7824088335037231, -0.6189076900482178, 0.06816844642162323, 1.558686375617981, -0.578622579574585, -10.163552284240723, -81.33892059326172, 45.276458740234375, 31.240562438964844, -0.302490234375, -0.17529296875, 0.79931640625, 
436, 3539342978, 0.01849694363772869, 0.7806434631347656, -0.6210400462150574, 0.06757993996143341, 1.7708549499511719, -0.2483321577310562, -10.275132179260254, -76.0305404663086, 48.69868850708008, 31.737443923950195, -0.30908203125, -0.18505859375, 0.7958984375, 
437, 3539351311, 0.02470066025853157, 0.7787784934043884, -0.6231771111488342, 0.06744128465652466, 1.4680299758911133, -0.263818621635437, -10.2787504196167, -70.41019439697266, 52.11955642700195, 32.90837097167969, -0.31591796875, -0.190673828125, 0.790283203125, 
438, 3539359644, 0.030627524480223656, 0.7769277095794678, -0.6252124309539795, 0.06752028316259384, 1.2679870128631592, -0.30900508165359497, -10.308782577514648, -65.42478942871094, 52.11731719970703, 32.033565521240234, -0.322265625, -0.1943359375, 0.785400390625, 
439, 3539367977, 0.03619236499071121, 0.7750943899154663, -0.6271679997444153, 0.06769918650388718, 1.2516673803329468, -0.21453550457954407, -10.228787422180176, -60.67134094238281, 50.0723991394043, 31.4017333984375, -0.326904296875, -0.2001953125, 0.780517578125, 
440, 3539376310, 0.041374724358320236, 0.7733539342880249, -0.6290014386177063, 0.06762374192476273, 0.9997421503067017, 0.10074135661125183, -9.958308219909668, -58.574119567871094, 44.05252456665039, 29.537731170654297, -0.337158203125, -0.203857421875, 0.778076171875, 
441, 3539384643, 0.04616432636976242, 0.7717725038528442, -0.630656898021698, 0.06717529147863388, 0.821270227432251, 0.20756813883781433, -9.899484634399414, -57.41997528076172, 36.629730224609375, 26.41357421875, -0.341552734375, -0.21240234375, 0.775634765625, 
442, 3539392976, 0.05047975108027458, 0.7703566551208496, -0.6321431398391724, 0.06634653359651566, 0.9027144908905029, 0.2232333868741989, -10.182173728942871, -55.37099838256836, 28.448814392089844, 23.385244369506836, -0.348388671875, -0.218505859375, 0.77392578125, 
443, 3539401309, 0.0543929785490036, 0.7691455483436584, -0.6334078907966614, 0.06522959470748901, 1.1276538372039795, 0.4216576814651489, -10.480457305908203, -53.32149887084961, 21.860618591308594, 19.41839599609375, -0.35009765625, -0.22265625, 0.7705078125, 
444, 3539409642, 0.0580562986433506, 0.7681437134742737, -0.6344131827354431, 0.06409905105829239, 1.5367978811264038, 0.44661858677864075, -10.940309524536133, -50.35728454589844, 19.552656173706055, 15.073686599731445, -0.35302734375, -0.225341796875, 0.765380859375, 
