sep=,
PacketCounter,SampleTimeFine,Quat_W,Quat_X,Quat_Y,Quat_Z,Acc_X,Acc_Y,Acc_Z,Gyr_X,Gyr_Y,Gyr_Z,Mag_X,Mag_Y,Mag_Z,
0, 3709311179, -0.803080677986145, 0.13973824679851532, -0.10521025955677032, 0.5696211457252502, 0, 0, 0, 0, 0, 0, -0.204345703125, 0.47998046875, -0.76708984375, 
1, 3709319512, -0.8030121326446533, 0.13998617231845856, -0.10490194708108902, 0.569713830947876, 0.0031189057044684887, -3.418661594390869, 9.26951789855957, -0.43185603618621826, -5.614026069641113, -2.664290428161621, -0.207275390625, 0.48291015625, -0.76806640625, 
2, 3709327845, -0.8029666543006897, 0.14014087617397308, -0.10449051111936569, 0.5698153376579285, 0.05861329287290573, -3.4518964290618896, 9.330166816711426, 1.2718106508255005, -5.930719375610352, -2.610038995742798, -0.206298828125, 0.4814453125, -0.7646484375, 
3, 3709336178, -0.8029459118843079, 0.14019560813903809, -0.10405923426151276, 0.5699101090431213, 0.10356691479682922, -3.4812285900115967, 9.441343307495117, 2.758870840072632, -5.521199703216553, -2.2736220359802246, -0.208740234375, 0.48388671875, -0.768310546875, 
4, 3709344511, -0.8029428124427795, 0.1401546597480774, -0.10369215160608292, 0.569991409778595, 0.18225769698619843, -3.4540843963623047, 9.504632949829102, 3.139498472213745, -4.006348133087158, -1.6870816946029663, -0.210693359375, 0.4794921875, -0.764892578125, 
5, 3709352844, -0.8029660582542419, 0.14003899693489075, -0.10344327241182327, 0.5700323581695557, 0.2013685703277588, -3.334251880645752, 9.467458724975586, 3.2189788818359375, -2.338937997817993, -0.7384070754051208, -0.208740234375, 0.478271484375, -0.7666015625, 
6, 3709361177, -0.8030165433883667, 0.13988922536373138, -0.10331864655017853, 0.5700205564498901, 0.1731359213590622, -3.2456436157226562, 9.496994018554688, 2.4120543003082275, -0.7313632965087891, 0.3843544125556946, -0.208740234375, 0.4814453125, -0.767822265625, 
7, 3709369510, -0.8030776381492615, 0.13976825773715973, -0.10337094217538834, 0.5699547529220581, 0.12758351862430573, -3.212627410888672, 9.493477821350098, 0.8374702334403992, 0.769490122795105, 1.3254214525222778, -0.210205078125, 0.478759765625, -0.766357421875, 
8, 3709377843, -0.8031373023986816, 0.1397280991077423, -0.10355869680643082, 0.5698463916778564, 0.050479065626859665, -3.1205692291259766, 9.472844123840332, -1.3683124780654907, 1.6644515991210938, 1.968133807182312, -0.20703125, 0.477783203125, -0.76806640625, 
9, 3709386176, -0.8031836748123169, 0.13983888924121857, -0.10386098176240921, 0.569698691368103, -0.024238362908363342, -3.0833919048309326, 9.404794692993164, -3.8247432708740234, 1.5756725072860718, 2.2642343044281006, -0.211669921875, 0.480224609375, -0.767333984375, 
10, 3709394509, -0.8032068014144897, 0.14008714258670807, -0.10417071729898453, 0.5695487856864929, -0.05791538953781128, -3.1485249996185303, 9.335175514221191, -5.64232873916626, 0.7247931361198425, 1.9608333110809326, -0.206787109375, 0.479736328125, -0.7685546875, 
11, 3709402842, -0.803196907043457, 0.14039333164691925, -0.10446689277887344, 0.5694329142570496, -0.03770209848880768, -3.2273612022399902, 9.31225299835205, -5.997727870941162, 0.12052778899669647, 1.1819050312042236, -0.209228515625, 0.4794921875, -0.766357421875, 
12, 3709411175, -0.8031799793243408, 0.1406141072511673, -0.10464386641979218, 0.5693697333335876, -0.012462719343602657, -3.3434324264526367, 9.289270401000977, -4.251476287841797, -0.304322749376297, 0.47297966480255127, -0.206298828125, 0.47998046875, -0.7666015625, 
13, 3709419508, -0.8031569719314575, 0.14071230590343475, -0.10471580922603607, 0.5693645477294922, -0.03676624596118927, -3.365917205810547, 9.284278869628906, -1.811669111251831, -0.49502068758010864, -0.2775558531284332, -0.211669921875, 0.48291015625, -0.768798828125, 
14, 3709427841, -0.8031320571899414, 0.14068646728992462, -0.10464432835578918, 0.5694195628166199, -0.020836101844906807, -3.306480646133423, 9.272480964660645, 0.572977602481842, -0.8760837316513062, -1.0195233821868896, -0.207763671875, 0.48193359375, -0.76611328125, 
15, 3709436174, -0.8031002879142761, 0.14059430360794067, -0.10448700934648514, 0.5695159435272217, -0.02352873422205448, -3.261791944503784, 9.28796672821045, 2.215131998062134, -1.3276370763778687, -1.6372617483139038, -0.20556640625, 0.478515625, -0.76806640625, 
16, 3709444507, -0.8030490279197693, 0.14048649370670319, -0.10428258031606674, 0.5696523189544678, 0.003774382174015045, -3.1823108196258545, 9.28596305847168, 2.5861027240753174, -1.5095492601394653, -2.2612502574920654, -0.207275390625, 0.48193359375, -0.76513671875, 
17, 3709452840, -0.8029946088790894, 0.14039957523345947, -0.10409427434206009, 0.5697849988937378, -0.014287621714174747, -3.140437126159668, 9.307500839233398, 2.4079813957214355, -1.6074212789535522, -2.2836368083953857, -0.211181640625, 0.479736328125, -0.767333984375, 
18, 3709461173, -0.8029371500015259, 0.14029935002326965, -0.10390573740005493, 0.56992506980896, 0.04502953216433525, -3.220512628555298, 9.349081039428711, 2.368971109390259, -1.376432180404663, -2.3351728916168213, -0.211181640625, 0.48095703125, -0.765869140625, 
19, 3709469506, -0.8028775453567505, 0.1401904970407486, -0.10377081483602524, 0.5700604319572449, 0.08309924602508545, -3.228477954864502, 9.297445297241211, 2.225505828857422, -0.8333079218864441, -2.220139503479004, -0.210693359375, 0.48046875, -0.766357421875, 
20, 3709477839, -0.802827775478363, 0.140072301030159, -0.10366445034742355, 0.5701785683631897, 0.06459873914718628, -3.1872544288635254, 9.320884704589844, 1.9076074361801147, -0.3814728558063507, -1.848784327507019, -0.208740234375, 0.47998046875, -0.767333984375, 
21, 3709486172, -0.8027830719947815, 0.1399724930524826, -0.10363040119409561, 0.5702723860740662, 0.05482697859406471, -3.132266044616699, 9.322670936584473, 1.3039823770523071, 0.10884770005941391, -1.4631363153457642, -0.210693359375, 0.4814453125, -0.765869140625, 
22, 3709494505, -0.8027452826499939, 0.13992436230182648, -0.10365068912506104, 0.5703336000442505, 0.035921577364206314, -3.0860798358917236, 9.311141967773438, 0.08092817664146423, 0.3401186168193817, -0.9808714985847473, -0.210205078125, 0.48046875, -0.766845703125, 
23, 3709502838, -0.802700936794281, 0.1399535834789276, -0.10375490039587021, 0.5703698396682739, 0.027495527639985085, -3.0989692211151123, 9.296957969665527, -1.2849892377853394, 0.5103251934051514, -0.7404306530952454, -0.208251953125, 0.48095703125, -0.768310546875, 
24, 3709511171, -0.8026501536369324, 0.14000828564167023, -0.10389041155576706, 0.5704032182693481, 0.006454260088503361, -3.13936185836792, 9.25467586517334, -2.0254967212677, 0.771359920501709, -0.6981415748596191, -0.210205078125, 0.4814453125, -0.767333984375, 
25, 3709519504, -0.8025833368301392, 0.14009447395801544, -0.10406120866537094, 0.5704450607299805, -0.0016846619546413422, -3.1824731826782227, 9.188529014587402, -2.4720041751861572, 0.8420551419258118, -0.9319483637809753, -0.209228515625, 0.48291015625, -0.767822265625, 
26, 3709527837, -0.8025074601173401, 0.14016908407211304, -0.10417170822620392, 0.5705134272575378, -0.00978926382958889, -3.2350223064422607, 9.12197208404541, -2.0470895767211914, 0.44050079584121704, -1.359296202659607, -0.210693359375, 0.480224609375, -0.768798828125, 
27, 3709536170, -0.8024342656135559, 0.14020779728889465, -0.1041971892118454, 0.5706022381782532, 0.005879788659512997, -3.3240721225738525, 9.10885238647461, -0.7529305815696716, -0.2889541983604431, -1.7137717008590698, -0.212158203125, 0.48193359375, -0.766845703125, 
28, 3709544503, -0.8023614883422852, 0.14017333090305328, -0.1040957123041153, 0.5707312226295471, -0.027903934940695763, -3.3715267181396484, 9.093596458435059, 0.9132371544837952, -0.9263901114463806, -2.264631509780884, -0.206298828125, 0.48388671875, -0.76416015625, 
29, 3709552836, -0.802287757396698, 0.14012213051319122, -0.10388839244842529, 0.5708855390548706, -0.0564940944314003, -3.336091995239258, 9.096097946166992, 2.1592416763305664, -2.0259320735931396, -2.7616498470306396, -0.208740234375, 0.48046875, -0.765625, 
30, 3709561169, -0.8022167682647705, 0.14008915424346924, -0.10358252376317978, 0.5710487961769104, -0.046686802059412, -3.329833507537842, 9.10022258758545, 2.555083751678467, -3.13039231300354, -3.019226551055908, -0.208251953125, 0.48046875, -0.76513671875, 
31, 3709569502, -0.8021475076675415, 0.14011768996715546, -0.10324586927890778, 0.5712002515792847, -0.015047118999063969, -3.3470160961151123, 9.150247573852539, 2.2995312213897705, -4.091823101043701, -3.057135820388794, -0.211669921875, 0.479736328125, -0.765869140625, 
32, 3709577835, -0.8020912408828735, 0.14020799100399017, -0.10290035605430603, 0.5713192224502563, 0.014226043596863747, -3.3429956436157227, 9.186134338378906, 1.474265694618225, -4.643835067749023, -2.667978525161743, -0.210693359375, 0.4814453125, -0.766357421875, 
33, 3709586168, -0.8020551800727844, 0.1403232216835022, -0.10258845239877701, 0.5713977813720703, 0.054741956293582916, -3.369173049926758, 9.259679794311523, 1.1094934940338135, -4.686944007873535, -2.067965269088745, -0.214599609375, 0.478759765625, -0.767333984375, 
34, 3709594501, -0.8020407557487488, 0.1404346376657486, -0.10229577869176865, 0.5714431405067444, 0.08931659162044525, -3.403000831604004, 9.307150840759277, 0.8048889636993408, -4.4302897453308105, -1.4486387968063354, -0.213134765625, 0.478271484375, -0.764404296875, 
35, 3709602834, -0.8020548820495605, 0.14053945243358612, -0.10207806527614594, 0.5714366436004639, 0.11341516673564911, -3.3847877979278564, 9.357535362243652, 0.46060794591903687, -3.800537586212158, -0.5387697815895081, -0.213134765625, 0.478271484375, -0.767333984375, 
36, 3709611167, -0.8020890951156616, 0.1405980885028839, -0.10193756967782974, 0.5713989734649658, 0.12660938501358032, -3.369035482406616, 9.372415542602539, 0.1699376404285431, -2.56506085395813, 0.21929629147052765, -0.211181640625, 0.4794921875, -0.765869140625, 
37, 3709619500, -0.802129864692688, 0.14064645767211914, -0.1019066870212555, 0.5713353753089905, 0.10925967246294022, -3.353524684906006, 9.38345718383789, -0.41351616382598877, -1.4450781345367432, 0.7403665781021118, -0.213134765625, 0.480224609375, -0.766845703125, 
38, 3709627833, -0.8021653294563293, 0.1406865268945694, -0.10194488614797592, 0.5712689161300659, 0.06704322248697281, -3.3594472408294678, 9.391518592834473, -1.0656288862228394, -0.5029098987579346, 0.9111366868019104, -0.215087890625, 0.479736328125, -0.76806640625, 
39, 3709636166, -0.8021899461746216, 0.14072266221046448, -0.10203473269939423, 0.5712093114852905, 0.04470526799559593, -3.4038305282592773, 9.3757963180542, -1.2528690099716187, 0.013998179696500301, 0.8215894103050232, -0.213623046875, 0.478759765625, -0.764892578125, 
40, 3709644499, -0.8022179007530212, 0.1407233476638794, -0.102114737033844, 0.5711556077003479, 0.026308156549930573, -3.4633994102478027, 9.365782737731934, -0.9552316069602966, 0.3009544312953949, 0.8513532280921936, -0.211181640625, 0.480712890625, -0.768798828125, 
41, 3709652832, -0.8022459745407104, 0.14066573977470398, -0.10216028988361359, 0.5711222290992737, -0.023275351151823997, -3.4885058403015137, 9.261636734008789, 0.1731906533241272, 0.3077422082424164, 0.6047648787498474, -0.214599609375, 0.4794921875, -0.763427734375, 
42, 3709661165, -0.8022630214691162, 0.1405760496854782, -0.10213856399059296, 0.5711243152618408, -0.04593563452363014, -3.4843575954437256, 9.293854713439941, 0.899635910987854, 0.014126250520348549, 0.0743965432047844, -0.211669921875, 0.48193359375, -0.765869140625, 
43, 3709669498, -0.8022816181182861, 0.140472874045372, -0.10210109502077103, 0.5711303949356079, -0.009255778975784779, -3.419316530227661, 9.305970191955566, 1.3658918142318726, -0.1610623002052307, -0.0025870376266539097, -0.214599609375, 0.478271484375, -0.764404296875, 
44, 3709677831, -0.8022974729537964, 0.1403900682926178, -0.10204219818115234, 0.5711389183998108, -0.041193168610334396, -3.4013266563415527, 9.296298027038574, 1.1260401010513306, -0.43841323256492615, -0.08701155334711075, -0.209228515625, 0.480224609375, -0.768310546875, 
45, 3709686164, -0.8023031949996948, 0.14038771390914917, -0.10200203955173492, 0.5711386203765869, -0.05440448969602585, -3.3375308513641357, 9.296040534973145, 0.2395315021276474, -0.97661954164505, -0.18004246056079865, -0.211181640625, 0.475341796875, -0.766845703125, 
46, 3709694497, -0.8023067116737366, 0.14050516486167908, -0.10197889059782028, 0.5711088180541992, -0.06026685610413551, -3.3139922618865967, 9.293625831604004, -1.4408518075942993, -1.6742743253707886, 0.032363586127758026, -0.211181640625, 0.481201171875, -0.768310546875, 
47, 3709702830, -0.8023096323013306, 0.14067430794239044, -0.10200521349906921, 0.571058452129364, -0.024056831374764442, -3.3458662033081055, 9.274456024169922, -2.2500569820404053, -1.683265209197998, 0.23766165971755981, -0.213134765625, 0.478759765625, -0.766845703125, 
48, 3709711163, -0.8023244142532349, 0.1408308744430542, -0.1020585298538208, 0.5709894299507141, 0.004314988385885954, -3.4257466793060303, 9.259048461914062, -2.5045599937438965, -1.231993556022644, 0.6437754034996033, -0.212646484375, 0.477783203125, -0.767333984375, 
49, 3709719496, -0.8023566007614136, 0.1409665048122406, -0.10215330868959427, 0.5708937644958496, -0.0016440278850495815, -3.3863348960876465, 9.242996215820312, -2.4246435165405273, -0.7929142713546753, 1.1492211818695068, -0.211669921875, 0.47900390625, -0.764892578125, 
50, 3709727829, -0.802407443523407, 0.14106020331382751, -0.10225066542625427, 0.5707817673683167, -0.013009753078222275, -3.3820383548736572, 9.24845027923584, -2.1457557678222656, -0.3854686915874481, 1.5706522464752197, -0.214111328125, 0.4794921875, -0.761474609375, 
51, 3709736162, -0.8024681210517883, 0.14113564789295197, -0.10234823077917099, 0.5706603527069092, -0.03261544927954674, -3.3873422145843506, 9.249390602111816, -1.7630535364151, -0.38016650080680847, 1.745162010192871, -0.211669921875, 0.48046875, -0.765869140625, 
52, 3709744495, -0.8025311827659607, 0.14118705689907074, -0.10239794850349426, 0.5705500841140747, -0.0354318842291832, -3.3802921772003174, 9.249988555908203, -1.2770490646362305, -0.5952748656272888, 1.619216799736023, -0.214111328125, 0.479248046875, -0.765869140625, 
53, 3709752828, -0.8026074767112732, 0.14118336141109467, -0.10239722579717636, 0.5704436898231506, -0.04222029820084572, -3.375694990158081, 9.234875679016113, -0.06767281144857407, -0.8363047242164612, 1.6241858005523682, -0.207763671875, 0.480712890625, -0.771240234375, 
54, 3709761161, -0.8026852011680603, 0.14111903309822083, -0.10232366621494293, 0.5703635215759277, -0.043380118906497955, -3.312370538711548, 9.214622497558594, 1.0393614768981934, -1.0148870944976807, 1.3380746841430664, -0.212646484375, 0.479248046875, -0.764892578125, 
55, 3709769494, -0.8027558922767639, 0.1410500705242157, -0.10224083811044693, 0.570296049118042, -0.04076887667179108, -3.2430362701416016, 9.269231796264648, 1.3413021564483643, -1.1477482318878174, 1.0815739631652832, -0.210205078125, 0.48388671875, -0.764892578125, 
56, 3709777827, -0.8028095364570618, 0.14098434150218964, -0.10213514417409897, 0.5702555179595947, -0.010136791504919529, -3.1965768337249756, 9.267914772033691, 1.3166102170944214, -1.2429821491241455, 0.6338883638381958, -0.212646484375, 0.479736328125, -0.765380859375, 
57, 3709786160, -0.8028443455696106, 0.14095428586006165, -0.10205081850290298, 0.5702291131019592, -0.008526189252734184, -3.1744604110717773, 9.243139266967773, 0.9113929271697998, -1.338215708732605, 0.29014527797698975, -0.209716796875, 0.479248046875, -0.766845703125, 
58, 3709794493, -0.8028643727302551, 0.1409682333469391, -0.10197613388299942, 0.5702109336853027, 0.012109762988984585, -3.102538585662842, 9.252001762390137, 0.1591540426015854, -1.4335774183273315, 0.06251154094934464, -0.213623046875, 0.478759765625, -0.768310546875, 
59, 3709802826, -0.8028630018234253, 0.14103947579860687, -0.10194654762744904, 0.570200502872467, 0.04456936568021774, -3.083733558654785, 9.219099044799805, -0.6833877563476562, -1.4474347829818726, -0.20639951527118683, -0.211669921875, 0.479248046875, -0.766845703125, 
60, 3709811159, -0.8028470873832703, 0.14113175868988037, -0.10192715376615524, 0.5702035427093506, 0.027504555881023407, -3.134822368621826, 9.21789836883545, -1.180457592010498, -1.3502544164657593, -0.4432030916213989, -0.214599609375, 0.478759765625, -0.767333984375, 
61, 3709819492, -0.8028136491775513, 0.1412721574306488, -0.1019413024187088, 0.5702133178710938, 0.05503189191222191, -3.139394760131836, 9.254262924194336, -1.8241177797317505, -1.4216923713684082, -0.6917891502380371, -0.210205078125, 0.4814453125, -0.765869140625, 
62, 3709827825, -0.8027725219726562, 0.14143076539039612, -0.101932592689991, 0.5702334046363831, 0.04892611503601074, -3.165095806121826, 9.228848457336426, -2.022935628890991, -1.68224036693573, -0.9067695140838623, -0.210693359375, 0.479248046875, -0.766357421875, 
63, 3709836158, -0.8027376532554626, 0.14159119129180908, -0.10193135589361191, 0.5702430009841919, 0.08298762887716293, -3.253401279449463, 9.228476524353027, -1.9274969100952148, -1.7463784217834473, -0.7607171535491943, -0.213134765625, 0.48046875, -0.764892578125, 
64, 3709844491, -0.8027231097221375, 0.14168435335159302, -0.1019054725766182, 0.5702448487281799, 0.10740984231233597, -3.2461681365966797, 9.209905624389648, -1.1394747495651245, -1.4333724975585938, -0.4331367015838623, -0.216552734375, 0.481201171875, -0.76513671875, 
65, 3709852824, -0.8027218580245972, 0.14173096418380737, -0.10190495103597641, 0.5702351331710815, 0.0975789874792099, -3.2799575328826904, 9.250370025634766, -0.6387934684753418, -0.9323582053184509, -0.12266658246517181, -0.212158203125, 0.48193359375, -0.763916015625, 
66, 3709861157, -0.8027220368385315, 0.14174340665340424, -0.101880744099617, 0.5702361464500427, 0.09916701167821884, -3.32283878326416, 9.272788047790527, -0.23413974046707153, -0.8032112717628479, -0.1898527294397354, -0.213134765625, 0.4794921875, -0.764404296875, 
67, 3709869490, -0.8027151226997375, 0.1417728215456009, -0.10184469819068909, 0.5702450275421143, 0.07678576558828354, -3.334841251373291, 9.300777435302734, -0.1550941914319992, -1.144546389579773, -0.41584712266921997, -0.213134765625, 0.47802734375, -0.762939453125, 
68, 3709877823, -0.8027102947235107, 0.14178791642189026, -0.10176693648099899, 0.5702618956565857, 0.09766491502523422, -3.273484230041504, 9.288152694702148, 0.16947658360004425, -1.373563289642334, -0.5232219696044922, -0.213134765625, 0.484375, -0.763427734375, 
69, 3709886156, -0.8026960492134094, 0.14181509613990784, -0.10168765485286713, 0.5702893733978271, 0.11442029476165771, -3.2387070655822754, 9.280678749084473, 0.22029519081115723, -1.5581393241882324, -0.7600255012512207, -0.212158203125, 0.48046875, -0.764892578125, 
70, 3709894489, -0.8026804327964783, 0.14183372259140015, -0.10161024332046509, 0.5703204870223999, 0.1016848161816597, -3.201326370239258, 9.27453327178955, 0.12723872065544128, -1.3521242141723633, -0.7772639393806458, -0.215087890625, 0.479248046875, -0.765625, 
71, 3709902822, -0.8026410937309265, 0.14188729226589203, -0.10158262401819229, 0.5703674554824829, 0.10714958608150482, -3.19696307182312, 9.281078338623047, -0.49753087759017944, -1.1216217279434204, -1.108763337135315, -0.211669921875, 0.48046875, -0.763427734375, 
72, 3709911155, -0.8025911450386047, 0.14195898175239563, -0.10158705711364746, 0.5704190731048584, 0.12952449917793274, -3.220787525177002, 9.255433082580566, -1.1406530141830444, -0.7845640182495117, -1.1605042219161987, -0.212158203125, 0.4794921875, -0.762939453125, 
73, 3709919488, -0.8025262951850891, 0.14203453063964844, -0.10163890570402145, 0.5704821944236755, 0.09990794211626053, -3.217041254043579, 9.23960018157959, -1.389981985092163, -0.35030025243759155, -1.3638042211532593, -0.216552734375, 0.477783203125, -0.76220703125, 
74, 3709927821, -0.8024488091468811, 0.1421499252319336, -0.10171095281839371, 0.570549726486206, 0.13348007202148438, -3.2345399856567383, 9.184660911560059, -2.1845099925994873, -0.2970995008945465, -1.5235602855682373, -0.213134765625, 0.48095703125, -0.766357421875, 
75, 3709936154, -0.8023703098297119, 0.14225204288959503, -0.1018419936299324, 0.5706113576889038, 0.14569737017154694, -3.2535674571990967, 9.176827430725098, -2.334634780883789, 0.33251115679740906, -1.3365507125854492, -0.212646484375, 0.48046875, -0.763916015625, 
76, 3709944487, -0.8022997975349426, 0.14227542281150818, -0.10200397670269012, 0.5706756114959717, 0.13896958529949188, -3.3098011016845703, 9.230667114257812, -1.8650234937667847, 1.3932991027832031, -1.1036149263381958, -0.213134765625, 0.4833984375, -0.761962890625, 
77, 3709952820, -0.8022380471229553, 0.14226892590522766, -0.10222426801919937, 0.5707247257232666, 0.05886328965425491, -3.3712375164031982, 9.26865291595459, -1.8206851482391357, 2.1207687854766846, -0.7394060492515564, -0.211669921875, 0.4814453125, -0.764892578125, 
78, 3709961153, -0.8021817803382874, 0.14226564764976501, -0.10243729501962662, 0.5707665681838989, -0.010195423848927021, -3.3829941749572754, 9.289878845214844, -1.9750111103057861, 2.097895383834839, -0.5949417948722839, -0.211669921875, 0.47998046875, -0.763916015625, 
79, 3709969486, -0.8021314144134521, 0.142313152551651, -0.10264650732278824, 0.5707880258560181, -0.02828863449394703, -3.3799197673797607, 9.30186939239502, -2.346750497817993, 1.5037989616394043, -0.4422298073768616, -0.21337890625, 0.4833984375, -0.759033203125, 
80, 3709977819, -0.8020924925804138, 0.14238804578781128, -0.10282230377197266, 0.5707921981811523, 0.006751843728125095, -3.3869919776916504, 9.339241981506348, -2.562959909439087, 0.9785022139549255, -0.2345239371061325, -0.211181640625, 0.4814453125, -0.765869140625, 
81, 3709986152, -0.8020596504211426, 0.14247550070285797, -0.10298977792263031, 0.5707862973213196, -0.022766955196857452, -3.434687614440918, 9.27531623840332, -2.4641666412353516, 0.6525354981422424, -0.14174920320510864, -0.2158203125, 0.482421875, -0.759765625, 
82, 3709994485, -0.8020395040512085, 0.14251841604709625, -0.10310332477092743, 0.5707831382751465, -0.03446124121546745, -3.427989959716797, 9.278085708618164, -1.6933826208114624, 0.5241824984550476, -0.14856255054473877, -0.212646484375, 0.482421875, -0.764404296875, 
83, 3710002818, -0.8020129799842834, 0.14256872236728668, -0.10322713851928711, 0.5707854628562927, -0.039936404675245285, -3.440084934234619, 9.25609302520752, -1.6870304346084595, 0.4698292016983032, -0.21687574684619904, -0.208740234375, 0.48193359375, -0.76123046875, 
84, 3710011151, -0.8019900321960449, 0.14264808595180511, -0.10333853960037231, 0.570777952671051, -0.09531212598085403, -3.444946050643921, 9.205564498901367, -2.089583396911621, 0.19921471178531647, -0.14961275458335876, -0.213134765625, 0.48388671875, -0.762939453125, 
85, 3710019484, -0.8019648194313049, 0.14274926483631134, -0.1034565344452858, 0.5707665681838989, -0.08977567404508591, -3.439333915710449, 9.191328048706055, -2.218653678894043, -0.02328333631157875, -0.13703615963459015, -0.210693359375, 0.48193359375, -0.762451171875, 
86, 3710027817, -0.8019468188285828, 0.1428174525499344, -0.10350405424833298, 0.5707664489746094, -0.0629379078745842, -3.459758996963501, 9.143373489379883, -1.4430546760559082, -0.43193280696868896, -0.2528381049633026, -0.210205078125, 0.4833984375, -0.765869140625, 
87, 3710036150, -0.8019297122955322, 0.14287592470645905, -0.1034969836473465, 0.5707769393920898, -0.08144226670265198, -3.4228570461273193, 9.096677780151367, -0.719811201095581, -1.0355066061019897, -0.5002716183662415, -0.215576171875, 0.4814453125, -0.759765625, 
88, 3710044483, -0.801907479763031, 0.14293639361858368, -0.10340725630521774, 0.5708093047142029, -0.08749684691429138, -3.402514934539795, 9.10123348236084, -0.23921135067939758, -1.832314133644104, -0.8572571873664856, -0.211181640625, 0.482421875, -0.762939453125, 
89, 3710052816, -0.8018854260444641, 0.14301417768001556, -0.10328700393438339, 0.5708426237106323, -0.06771346926689148, -3.407615900039673, 9.131195068359375, -0.021772101521492004, -2.3836610317230225, -1.0412187576293945, -0.208740234375, 0.48291015625, -0.764892578125, 
90, 3710061149, -0.8018661737442017, 0.1431145966053009, -0.10313647985458374, 0.5708718299865723, -0.028025994077324867, -3.3686513900756836, 9.14631462097168, -0.2004057765007019, -2.798175811767578, -1.0544354915618896, -0.210205078125, 0.484375, -0.765380859375, 
91, 3710069482, -0.8018411993980408, 0.14323733747005463, -0.10295779258012772, 0.5709083080291748, -0.02678900584578514, -3.3472952842712402, 9.22339153289795, -0.05893836170434952, -3.3712689876556396, -1.277048945426941, -0.214599609375, 0.482421875, -0.765625, 
92, 3710077815, -0.8018137812614441, 0.14341065287590027, -0.10274870693683624, 0.5709408521652222, 0.04691101983189583, -3.4341578483581543, 9.257133483886719, -0.5540615320205688, -4.003607749938965, -1.3629335165023804, -0.213134765625, 0.48193359375, -0.761962890625, 
93, 3710086148, -0.8017967939376831, 0.1435648798942566, -0.10252667963504791, 0.5709658861160278, 0.09123452007770538, -3.4384779930114746, 9.276739120483398, -0.06805702298879623, -4.129117012023926, -1.2182897329330444, -0.212158203125, 0.48388671875, -0.765380859375, 
94, 3710094481, -0.8018102645874023, 0.14365580677986145, -0.10227584093809128, 0.5709692239761353, 0.07684553414583206, -3.4787373542785645, 9.30037784576416, 0.7234867811203003, -3.93762469291687, -0.6754984855651855, -0.216796875, 0.4833984375, -0.76220703125, 
95, 3710102814, -0.8018398880958557, 0.14370517432689667, -0.1020534336566925, 0.5709549188613892, 0.09019763767719269, -3.437412977218628, 9.321255683898926, 1.1281150579452515, -3.452568769454956, -0.27161335945129395, -0.21728515625, 0.48388671875, -0.76123046875, 
96, 3710111147, -0.8018758296966553, 0.14373858273029327, -0.10185858607292175, 0.5709307193756104, 0.10616304725408554, -3.336961030960083, 9.3350830078125, 0.9254550933837891, -2.963592529296875, 0.019710155203938484, -0.214599609375, 0.48095703125, -0.761474609375, 
97, 3710119480, -0.801911473274231, 0.1437956541776657, -0.10174733400344849, 0.5708861351013184, 0.07906515151262283, -3.291001081466675, 9.382405281066895, 0.14019951224327087, -2.3565609455108643, 0.3184233605861664, -0.212890625, 0.48583984375, -0.760986328125, 
98, 3710127813, -0.8019416928291321, 0.1438506543636322, -0.10170383006334305, 0.5708376169204712, 0.08308064937591553, -3.2607929706573486, 9.406927108764648, -0.5469151139259338, -1.5163369178771973, 0.545288622379303, -0.21630859375, 0.48388671875, -0.76123046875, 
99, 3710136146, -0.8019691109657288, 0.14393439888954163, -0.10170841962099075, 0.5707770586013794, 0.08000560104846954, -3.2788608074188232, 9.433834075927734, -1.1018987894058228, -1.307632327079773, 0.6227205395698547, -0.213623046875, 0.4833984375, -0.761474609375, 
100, 3710144479, -0.8019915223121643, 0.14404138922691345, -0.10171519964933395, 0.5707173943519592, 0.05027365684509277, -3.2642252445220947, 9.421088218688965, -1.5463312864303589, -1.3609867095947266, 0.5826597809791565, -0.21630859375, 0.48388671875, -0.7626953125, 
101, 3710152812, -0.8019965887069702, 0.14419059455394745, -0.10173159092664719, 0.5706696510314941, 0.05077137053012848, -3.2029662132263184, 9.423323631286621, -1.942481279373169, -1.6365448236465454, 0.23768730461597443, -0.215576171875, 0.48193359375, -0.76318359375, 
102, 3710161145, -0.8019811511039734, 0.14437423646450043, -0.10174044966697693, 0.5706434845924377, 0.055556029081344604, -3.209861993789673, 9.387154579162598, -2.438347339630127, -1.8413816690444946, -0.13296350836753845, -0.21533203125, 0.484375, -0.76025390625, 
103, 3710169478, -0.8019550442695618, 0.14460159838199615, -0.10176930576562881, 0.5706173777580261, 0.027747856453061104, -3.230773448944092, 9.375616073608398, -2.934187889099121, -2.025317668914795, -0.33106398582458496, -0.21728515625, 0.48486328125, -0.7626953125, 
104, 3710177811, -0.8019190430641174, 0.14480870962142944, -0.10175912827253342, 0.5706173181533813, 0.05558152124285698, -3.306314706802368, 9.342988967895508, -2.5536882877349854, -2.1258022785186768, -0.729160487651825, -0.215087890625, 0.48291015625, -0.7607421875, 
105, 3710186144, -0.8018818497657776, 0.14494770765304565, -0.1016840860247612, 0.5706477761268616, 0.05613769218325615, -3.421215534210205, 9.329075813293457, -1.0870938301086426, -2.348876714706421, -1.1256943941116333, -0.217041015625, 0.48193359375, -0.7607421875, 
106, 3710194477, -0.8018565773963928, 0.14501851797103882, -0.10153540223836899, 0.570691704750061, 0.06021733954548836, -3.3853566646575928, 9.303658485412598, 0.11991304159164429, -2.508402109146118, -1.2262558937072754, -0.216064453125, 0.48193359375, -0.763671875, 
107, 3710202810, -0.8018407225608826, 0.1450391709804535, -0.10135085135698318, 0.570741593837738, 0.0732160359621048, -3.357285261154175, 9.29246711730957, 1.1465060710906982, -2.61956787109375, -1.225205659866333, -0.214599609375, 0.48388671875, -0.7626953125, 
108, 3710211143, -0.8018450736999512, 0.14501971006393433, -0.10111711174249649, 0.5707818269729614, 0.10169064998626709, -3.411031484603882, 9.305624008178711, 1.837424397468567, -2.8076534271240234, -0.9406573176383972, -0.21533203125, 0.48291015625, -0.759765625, 
109, 3710219476, -0.8018723726272583, 0.1449516862630844, -0.10090132802724838, 0.5707988739013672, 0.11851020157337189, -3.3616702556610107, 9.346263885498047, 2.410466194152832, -2.3933942317962646, -0.462311327457428, -0.22021484375, 0.486328125, -0.759033203125, 
110, 3710227809, -0.8019146919250488, 0.1448318511247635, -0.10070700198411942, 0.570804238319397, 0.12327661365270615, -3.3342857360839844, 9.40434741973877, 2.6631760597229004, -1.75583016872406, 0.08510328829288483, -0.216064453125, 0.48291015625, -0.76171875, 
111, 3710236142, -0.801969051361084, 0.14472134411334991, -0.10056445002555847, 0.5707809925079346, 0.10612474381923676, -3.319380044937134, 9.445433616638184, 2.3017849922180176, -1.3692600727081299, 0.39874958992004395, -0.216064453125, 0.48193359375, -0.76318359375, 
112, 3710244475, -0.8020231127738953, 0.14463737607002258, -0.1004568338394165, 0.5707453489303589, 0.11448600888252258, -3.261406660079956, 9.49294376373291, 1.5543357133865356, -1.1779985427856445, 0.7497926950454712, -0.2158203125, 0.48193359375, -0.75927734375, 
113, 3710252808, -0.8020740747451782, 0.14461033046245575, -0.10044583678245544, 0.5706824064254761, 0.14081086218357086, -3.1283888816833496, 9.481014251708984, 0.2874557375907898, -0.6480913758277893, 0.9575497508049011, -0.2197265625, 0.482421875, -0.761962890625, 
114, 3710261141, -0.8021054267883301, 0.14465364813804626, -0.10050535202026367, 0.5706169605255127, 0.11856552213430405, -3.115056037902832, 9.467896461486816, -1.2507686614990234, -0.3393886089324951, 0.9999925494194031, -0.217041015625, 0.4794921875, -0.7607421875, 
115, 3710269474, -0.8021023273468018, 0.1447478085756302, -0.10065068304538727, 0.5705718994140625, 0.13564209640026093, -3.1570680141448975, 9.431597709655762, -2.358994245529175, 0.23561255633831024, 0.47976744174957275, -0.2177734375, 0.484375, -0.75732421875, 
116, 3710277807, -0.8020797967910767, 0.14483435451984406, -0.10080622136592865, 0.5705539584159851, 0.11222747713327408, -3.2284727096557617, 9.345940589904785, -2.5255379676818848, 0.5802520513534546, 0.10515923798084259, -0.218505859375, 0.48095703125, -0.76318359375, 
117, 3710286140, -0.8020427823066711, 0.144892156124115, -0.10091985017061234, 0.5705713629722595, 0.057025425136089325, -3.3080689907073975, 9.278730392456055, -1.6905649900436401, 0.3416042625904083, -0.4902307987213135, -0.2158203125, 0.48486328125, -0.7607421875, 
118, 3710294473, -0.802007794380188, 0.14485667645931244, -0.10089006274938583, 0.5706348419189453, 0.03569292277097702, -3.3788321018218994, 9.233869552612305, 0.3620699942111969, -0.3256337344646454, -1.096161127090454, -0.214111328125, 0.48046875, -0.760498046875, 
119, 3710302806, -0.8019750118255615, 0.14475636184215546, -0.10075827687978745, 0.5707297921180725, 0.05519682914018631, -3.373645305633545, 9.235896110534668, 2.0947704315185547, -0.9743398427963257, -1.5820119380950928, -0.21630859375, 0.4853515625, -0.759765625, 
120, 3710311139, -0.8019506931304932, 0.14462235569953918, -0.1005311980843544, 0.5708378553390503, 0.057375483214855194, -3.298203229904175, 9.219507217407227, 3.081507682800293, -1.6374667882919312, -1.8096200227737427, -0.21728515625, 0.48388671875, -0.75927734375, 
121, 3710319472, -0.801914632320404, 0.14452765882015228, -0.10030662268400192, 0.5709519386291504, 0.05821048840880394, -3.2217376232147217, 9.25158977508545, 2.781615734100342, -2.0001895427703857, -2.011972188949585, -0.218994140625, 0.47998046875, -0.76123046875, 
122, 3710327805, -0.8018731474876404, 0.14447401463985443, -0.10011894255876541, 0.5710567235946655, 0.09113369882106781, -3.186230182647705, 9.25818920135498, 1.846901774406433, -1.8483744859695435, -1.8558027744293213, -0.21630859375, 0.484375, -0.7626953125, 
123, 3710336138, -0.8018145561218262, 0.14446553587913513, -0.10001179575920105, 0.5711598992347717, 0.1040278747677803, -3.219265937805176, 9.247883796691895, 0.8488429188728333, -1.3724873065948486, -1.951087474822998, -0.217529296875, 0.47998046875, -0.76123046875, 
124, 3710344471, -0.8017470240592957, 0.14448143541812897, -0.0999562069773674, 0.571260392665863, 0.1397026777267456, -3.2933428287506104, 9.289158821105957, -0.015138012357056141, -0.8970872759819031, -1.8857710361480713, -0.2197265625, 0.48193359375, -0.762939453125, 
125, 3710352804, -0.8016760945320129, 0.1445099264383316, -0.09995004534721375, 0.5713537931442261, 0.13239996135234833, -3.311718225479126, 9.323906898498535, -0.39100131392478943, -0.5522429347038269, -1.791664719581604, -0.2177734375, 0.48291015625, -0.76123046875, 
126, 3710361137, -0.8016093373298645, 0.14456933736801147, -0.0999562069773674, 0.5714313387870789, 0.14142166078090668, -3.3189332485198975, 9.284309387207031, -1.0103535652160645, -0.6040605306625366, -1.5646711587905884, -0.2197265625, 0.48193359375, -0.759765625, 
127, 3710369470, -0.8015536665916443, 0.14462906122207642, -0.10000739246606827, 0.5714852809906006, 0.17390602827072144, -3.337412118911743, 9.274683952331543, -1.208786964416504, -0.2648768126964569, -1.1649354696273804, -0.2197265625, 0.48388671875, -0.760498046875, 
128, 3710377803, -0.8015046119689941, 0.14464853703975677, -0.10009448230266571, 0.5715338587760925, 0.186481773853302, -3.3701047897338867, 9.257702827453613, -1.2105287313461304, 0.5027434229850769, -0.8446806073188782, -0.217529296875, 0.4814453125, -0.76025390625, 
129, 3710386136, -0.8014559149742126, 0.14465339481830597, -0.10026885569095612, 0.5715705156326294, 0.17511305212974548, -3.4026072025299072, 9.265470504760742, -1.5819352865219116, 1.480797529220581, -0.5995011925697327, -0.2197265625, 0.4794921875, -0.75830078125, 
130, 3710394469, -0.801428496837616, 0.1446283608675003, -0.10048092901706696, 0.5715779662132263, 0.18244734406471252, -3.42865252494812, 9.244694709777832, -1.7182540893554688, 2.329986095428467, -0.47629669308662415, -0.21923828125, 0.482421875, -0.76025390625, 
131, 3710402802, -0.8013747930526733, 0.14452499151229858, -0.10072152316570282, 0.5716372728347778, 0.18477976322174072, -3.4852542877197266, 9.225768089294434, -0.888455331325531, 3.1125264167785645, -0.608414888381958, -0.22021484375, 0.482421875, -0.75927734375, 
132, 3710411135, -0.801339328289032, 0.1443542093038559, -0.10092497617006302, 0.5716938972473145, 0.16188853979110718, -3.5087060928344727, 9.227758407592773, 0.012205183506011963, 3.353607654571533, -0.5282936096191406, -0.218017578125, 0.48291015625, -0.76318359375, 
133, 3710419468, -0.8013050556182861, 0.14416494965553284, -0.10111050307750702, 0.5717571377754211, 0.10244373977184296, -3.4984238147735596, 9.251236915588379, 0.5348124504089355, 3.1624999046325684, -0.4883609712123871, -0.2177734375, 0.484375, -0.7578125, 
134, 3710427801, -0.8012768626213074, 0.14399351179599762, -0.10124912858009338, 0.5718151926994324, 0.12317617237567902, -3.4449455738067627, 9.254060745239258, 0.5483879446983337, 2.6308252811431885, -0.5989888906478882, -0.215576171875, 0.484375, -0.76318359375, 
135, 3710436134, -0.8012325763702393, 0.1438804715871811, -0.10141603648662567, 0.5718761682510376, 0.1304306536912918, -3.3640389442443848, 9.265867233276367, -0.18191228806972504, 2.3676645755767822, -0.6846684813499451, -0.216552734375, 0.47998046875, -0.76025390625, 
136, 3710444467, -0.801204264163971, 0.1438412070274353, -0.10161637514829636, 0.5718903541564941, 0.06073184683918953, -3.326622724533081, 9.30457592010498, -1.4554774761199951, 2.364232063293457, -0.658644437789917, -0.21630859375, 0.482421875, -0.75927734375, 
137, 3710452800, -0.8011424541473389, 0.14390450716018677, -0.10189273953437805, 0.5719115734100342, 0.07077547162771225, -3.2701003551483154, 9.310431480407715, -3.0749118328094482, 2.131321668624878, -0.4142846167087555, -0.215576171875, 0.482421875, -0.76220703125, 
138, 3710461133, -0.8010659217834473, 0.14406649768352509, -0.1022379994392395, 0.5719164609909058, 0.08485465496778488, -3.272869110107422, 9.33505630493164, -4.918599605560303, 2.1591904163360596, -0.21223953366279602, -0.2177734375, 0.482421875, -0.76220703125, 
139, 3710469466, -0.8009876608848572, 0.1442861557006836, -0.10264851152896881, 0.5718972682952881, 0.11046727746725082, -3.3158159255981445, 9.345958709716797, -5.942092418670654, 2.322122573852539, -0.051638297736644745, -0.216552734375, 0.482421875, -0.7626953125, 
140, 3710477799, -0.8009188175201416, 0.14450401067733765, -0.10310870409011841, 0.5718557238578796, 0.14479005336761475, -3.352566957473755, 9.351536750793457, -6.488752365112305, 2.950798749923706, 0.3305132985115051, -0.21728515625, 0.4833984375, -0.759765625, 
141, 3710486132, -0.8008480072021484, 0.14464828372001648, -0.10362698137760162, 0.571824848651886, 0.14884836971759796, -3.3893327713012695, 9.398649215698242, -5.960944652557373, 4.068526744842529, 0.45528024435043335, -0.21533203125, 0.486572265625, -0.75732421875, 
142, 3710494465, -0.8007797598838806, 0.14465628564357758, -0.10414273291826248, 0.5718246698379517, 0.13789471983909607, -3.515056848526001, 9.4129056930542, -4.553135395050049, 5.196628570556641, 0.5439310669898987, -0.214111328125, 0.48388671875, -0.76220703125, 
143, 3710502798, -0.8007246255874634, 0.14451250433921814, -0.10462232679128647, 0.5718508362770081, 0.09401059150695801, -3.540374755859375, 9.433032035827637, -2.3726723194122314, 6.000019073486328, 0.2833830714225769, -0.211669921875, 0.48486328125, -0.761962890625, 
144, 3710511131, -0.8006674647331238, 0.1442195475101471, -0.10503309965133667, 0.5719292163848877, 0.05688881129026413, -3.493927001953125, 9.446616172790527, -0.2787085175514221, 6.56796407699585, -0.06295979022979736, -0.21044921875, 0.484130859375, -0.757568359375, 
145, 3710519464, -0.8006172180175781, 0.14384648203849792, -0.10540147125720978, 0.5720256567001343, 0.006882466841489077, -3.433171033859253, 9.442770004272461, 1.1381300687789917, 6.711198329925537, -0.3402850925922394, -0.21484375, 0.4853515625, -0.7587890625, 
146, 3710527797, -0.8005515336990356, 0.14348338544368744, -0.10572353005409241, 0.5721495151519775, -0.033835552632808685, -3.3500494956970215, 9.404250144958496, 1.2413299083709717, 6.289255142211914, -0.8234463930130005, -0.209716796875, 0.485107421875, -0.760986328125, 
147, 3710536130, -0.8004599809646606, 0.1432003676891327, -0.10601431131362915, 0.5722947716712952, -0.05372605100274086, -3.2942984104156494, 9.366313934326172, 0.746385931968689, 5.3046441078186035, -1.4864453077316284, -0.211181640625, 0.484619140625, -0.759521484375, 
148, 3710544463, -0.8003595471382141, 0.1430111676454544, -0.10627447068691254, 0.5724341869354248, -0.06912335008382797, -3.292829990386963, 9.354886054992676, -0.23339693248271942, 4.315908908843994, -1.63260018825531, -0.210693359375, 0.484375, -0.762451171875, 
149, 3710552796, -0.8002407550811768, 0.1429242640733719, -0.10655398666858673, 0.5725699663162231, -0.08766534179449081, -3.2607786655426025, 9.290498733520508, -1.3898541927337646, 3.6574697494506836, -1.9055709838867188, -0.211669921875, 0.48681640625, -0.763916015625, 
150, 3710561129, -0.8001230955123901, 0.14289268851280212, -0.10682731866836548, 0.5726913809776306, -0.07458052784204483, -3.2928946018218994, 9.228287696838379, -2.1321544647216797, 3.2063262462615967, -1.7671518325805664, -0.207275390625, 0.48486328125, -0.765869140625, 
151, 3710569462, -0.8000093102455139, 0.14291231334209442, -0.10712220519781113, 0.5727904438972473, -0.08171416819095612, -3.3783159255981445, 9.146275520324707, -2.729017496109009, 2.9085092544555664, -1.5896962881088257, -0.208251953125, 0.4833984375, -0.76171875, 
152, 3710577795, -0.7998914122581482, 0.14294534921646118, -0.10740863531827927, 0.5728931427001953, -0.07102532684803009, -3.344802141189575, 9.097803115844727, -2.973479986190796, 2.7893776893615723, -1.5970731973648071, -0.210693359375, 0.48486328125, -0.761474609375, 
153, 3710586128, -0.7997877597808838, 0.14297248423099518, -0.10770267248153687, 0.5729758739471436, -0.07875875383615494, -3.350158452987671, 9.070796012878418, -2.808651924133301, 2.7933731079101562, -1.3421345949172974, -0.208251953125, 0.48486328125, -0.766845703125, 
154, 3710594461, -0.7997094392776489, 0.14294368028640747, -0.10794223099946976, 0.5730473399162292, -0.07462744414806366, -3.4171512126922607, 9.043983459472656, -1.8911502361297607, 2.7061314582824707, -1.1113249063491821, -0.207763671875, 0.485595703125, -0.76123046875, 
155, 3710602794, -0.7996430397033691, 0.14288079738616943, -0.10815823078155518, 0.5731148719787598, -0.0818796455860138, -3.4470865726470947, 9.038761138916016, -1.1531785726547241, 2.559054136276245, -0.9002635478973389, -0.205810546875, 0.489013671875, -0.76220703125, 
156, 3710611127, -0.7996113300323486, 0.14273257553577423, -0.10829322040081024, 0.5731704831123352, -0.04343988373875618, -3.46947979927063, 9.068841934204102, 0.3174244165420532, 2.4683542251586914, -0.7899686694145203, -0.210205078125, 0.486572265625, -0.761962890625, 
157, 3710619460, -0.7995907068252563, 0.14246082305908203, -0.10838951915502548, 0.5732488036155701, -0.037717487663030624, -3.5456972122192383, 9.135370254516602, 2.193410634994507, 2.841963291168213, -0.5823651552200317, -0.207275390625, 0.485107421875, -0.7626953125, 
158, 3710627793, -0.7996010780334473, 0.14210882782936096, -0.10841542482376099, 0.573316752910614, -0.06886069476604462, -3.482292890548706, 9.151860237121582, 3.5209460258483887, 2.8355345726013184, -0.5025513172149658, -0.208740234375, 0.48388671875, -0.765380859375, 
159, 3710636126, -0.799602210521698, 0.14179149270057678, -0.1083829253911972, 0.57340008020401, -0.09062251448631287, -3.3814494609832764, 9.146685600280762, 3.7602338790893555, 1.7628101110458374, -0.6500893235206604, -0.206787109375, 0.48388671875, -0.76318359375, 
160, 3710644459, -0.7995932698249817, 0.14158347249031067, -0.10830453038215637, 0.5734785199165344, -0.11607839167118073, -3.338352918624878, 9.16280460357666, 2.735177516937256, 0.45179662108421326, -0.7917615175247192, -0.202392578125, 0.486572265625, -0.763671875, 
161, 3710652792, -0.7995895147323608, 0.14151284098625183, -0.10825321823358536, 0.5735108852386475, -0.06367460638284683, -3.2962589263916016, 9.193241119384766, 1.1110045909881592, -0.48270025849342346, -0.534159243106842, -0.206298828125, 0.48388671875, -0.7666015625, 
162, 3710661125, -0.7995904684066772, 0.14152245223522186, -0.10822959244251251, 0.5735116600990295, -0.02200929820537567, -3.3070454597473145, 9.209220886230469, -0.1844993233680725, -0.7656863331794739, -0.24228502810001373, -0.206298828125, 0.482421875, -0.76513671875, 
163, 3710669458, -0.7995845079421997, 0.14162324368953705, -0.10831479728221893, 0.5734789967536926, 0.013120720162987709, -3.30566668510437, 9.203203201293945, -1.9519330263137817, -0.45682990550994873, 0.1743433028459549, -0.205322265625, 0.48486328125, -0.76416015625, 
164, 3710677791, -0.7995807528495789, 0.1417245864868164, -0.10848354548215866, 0.5734272599220276, 0.04543929919600487, -3.306856393814087, 9.208564758300781, -2.7980222702026367, 0.5220052599906921, 0.5625014305114746, -0.208251953125, 0.486083984375, -0.763427734375, 
165, 3710686124, -0.7995702028274536, 0.14177919924259186, -0.10876215249300003, 0.5733756422996521, 0.051789168268442154, -3.3984880447387695, 9.240796089172363, -3.006291389465332, 2.0030202865600586, 0.7931575179100037, -0.206298828125, 0.48583984375, -0.7646484375, 
166, 3710694457, -0.7995585799217224, 0.1417049765586853, -0.10907195508480072, 0.5733513236045837, 0.07250876724720001, -3.513178825378418, 9.254158973693848, -1.9529058933258057, 3.5344693660736084, 0.7062996029853821, -0.205810546875, 0.48388671875, -0.76416015625, 
167, 3710702790, -0.7995458841323853, 0.1414819061756134, -0.10938438773155212, 0.5733646750450134, 0.02389162965118885, -3.5050814151763916, 9.294523239135742, -0.1278662532567978, 4.6956658363342285, 0.5434444546699524, -0.205810546875, 0.48583984375, -0.765625, 
168, 3710711123, -0.799544632434845, 0.14116665720939636, -0.10963793098926544, 0.573395848274231, -0.10232535004615784, -3.501905679702759, 9.345128059387207, 1.2453769445419312, 4.880984306335449, 0.5025128722190857, -0.206787109375, 0.484619140625, -0.76220703125, 
169, 3710719456, -0.7995330095291138, 0.140873983502388, -0.10988648235797882, 0.5734363198280334, -0.19098050892353058, -3.386082887649536, 9.358136177062988, 1.1850298643112183, 4.59187650680542, 0.23612484335899353, -0.205810546875, 0.4853515625, -0.7646484375, 
170, 3710727789, -0.7995138764381409, 0.140679270029068, -0.1101066842675209, 0.5734685063362122, -0.17842385172843933, -3.2759759426116943, 9.306032180786133, 0.14936941862106323, 3.5760931968688965, 0.14639818668365479, -0.202880859375, 0.48486328125, -0.76611328125, 
171, 3710736122, -0.7994838356971741, 0.1406259983778, -0.11033772677183151, 0.5734791159629822, -0.17610545456409454, -3.323025941848755, 9.270780563354492, -1.390596866607666, 2.4829800128936768, 0.021426308900117874, -0.202392578125, 0.485595703125, -0.765625, 
172, 3710744455, -0.7994558215141296, 0.1406453251838684, -0.11055736243724823, 0.573471188545227, -0.13766896724700928, -3.3560731410980225, 9.214404106140137, -2.2724695205688477, 1.9340412616729736, -0.12048936635255814, -0.201904296875, 0.486328125, -0.76708984375, 
173, 3710752788, -0.7994316816329956, 0.1406383514404297, -0.1107756644487381, 0.5734644532203674, -0.09178641438484192, -3.381974935531616, 9.218189239501953, -1.8146147727966309, 1.9356294870376587, 0.1633547842502594, -0.200927734375, 0.485107421875, -0.764404296875, 
174, 3710761121, -0.799424946308136, 0.14052090048789978, -0.11097661405801773, 0.5734637379646301, -0.09180288016796112, -3.448014736175537, 9.210541725158691, -0.573502779006958, 2.67134690284729, 0.45077210664749146, -0.201904296875, 0.484375, -0.765625, 
175, 3710769454, -0.799429714679718, 0.14029815793037415, -0.11123472452163696, 0.573461651802063, -0.11062697321176529, -3.3849148750305176, 9.226066589355469, 0.307101845741272, 4.039018630981445, 0.7450028657913208, -0.201416015625, 0.484375, -0.765869140625, 
176, 3710777787, -0.7994421124458313, 0.14000533521175385, -0.11153872311115265, 0.5734566450119019, -0.10973314940929413, -3.367696762084961, 9.249377250671387, 0.5755903124809265, 5.216044902801514, 0.9403626322746277, -0.202880859375, 0.48779296875, -0.76806640625, 
177, 3710786120, -0.7994423508644104, 0.13975700736045837, -0.11194539815187454, 0.5734377503395081, -0.18368783593177795, -3.4227678775787354, 9.2865629196167, -0.6174055337905884, 5.8481526374816895, 1.2211459875106812, -0.200927734375, 0.488037109375, -0.76416015625, 
178, 3710794453, -0.7994561791419983, 0.1395338922739029, -0.11231793463230133, 0.5733999013900757, -0.17295029759407043, -3.3692827224731445, 9.289944648742676, -0.772653341293335, 5.487273216247559, 0.9869292378425598, -0.198974609375, 0.486083984375, -0.766357421875, 
179, 3710802786, -0.7994222044944763, 0.13935954868793488, -0.11268824338912964, 0.5734171271324158, -0.14919809997081757, -3.351792812347412, 9.295232772827148, -1.153331995010376, 4.988179683685303, 0.3687809109687805, -0.198974609375, 0.488037109375, -0.767822265625, 
180, 3710811119, -0.7993756532669067, 0.13926629722118378, -0.11306118220090866, 0.5734313130378723, -0.19849708676338196, -3.35502290725708, 9.305617332458496, -2.248135805130005, 4.491546154022217, 0.18338511884212494, -0.200439453125, 0.486572265625, -0.767578125, 
181, 3710819452, -0.7993243336677551, 0.13927753269672394, -0.1134607344865799, 0.5734211802482605, -0.20751860737800598, -3.4159460067749023, 9.27826976776123, -3.499263286590576, 3.8193256855010986, 0.30121058225631714, -0.197998046875, 0.488037109375, -0.769775390625, 
182, 3710827785, -0.7992871999740601, 0.13931742310523987, -0.11386740207672119, 0.5733826160430908, -0.15497280657291412, -3.440563678741455, 9.241608619689941, -4.042131423950195, 3.685900926589966, 0.7222317457199097, -0.199462890625, 0.488037109375, -0.764404296875, 
183, 3710836118, -0.7992734909057617, 0.13934415578842163, -0.11431346833705902, 0.5733063817024231, -0.14373640716075897, -3.4255316257476807, 9.270273208618164, -4.0686163902282715, 4.024393558502197, 1.3903535604476929, -0.194580078125, 0.487548828125, -0.76416015625, 
184, 3710844451, -0.7992764711380005, 0.1393527388572693, -0.11478850245475769, 0.5732051730155945, -0.1663385033607483, -3.4761688709259033, 9.283072471618652, -4.25708532333374, 4.480992794036865, 1.9522784948349, -0.194580078125, 0.487060546875, -0.76611328125, 
185, 3710852784, -0.799293041229248, 0.13935858011245728, -0.11530445516109467, 0.5730772614479065, -0.1275983452796936, -3.521054267883301, 9.22638988494873, -4.413409233093262, 4.811262607574463, 2.3611841201782227, -0.195068359375, 0.484619140625, -0.76611328125, 
186, 3710861117, -0.7993339896202087, 0.13925880193710327, -0.11580728739500046, 0.5729430317878723, -0.056035712361335754, -3.520613670349121, 9.201008796691895, -3.258822202682495, 5.598643779754639, 2.6313886642456055, -0.196533203125, 0.489501953125, -0.765380859375, 
187, 3710869450, -0.7993723750114441, 0.13908295333385468, -0.11637923121452332, 0.5728163719177246, -0.08065101504325867, -3.454720973968506, 9.23581314086914, -2.8131606578826904, 6.824875831604004, 2.91709041595459, -0.193115234375, 0.489013671875, -0.765625, 
188, 3710877783, -0.799409031867981, 0.13881267607212067, -0.11700540781021118, 0.5727030038833618, -0.12073839455842972, -3.458080768585205, 9.296161651611328, -2.3377857208251953, 8.233197212219238, 3.1697235107421875, -0.191162109375, 0.489990234375, -0.76611328125, 
189, 3710886116, -0.7994652986526489, 0.13847459852695465, -0.11770059168338776, 0.5725639462471008, -0.16963914036750793, -3.4612698554992676, 9.332376480102539, -1.9872548580169678, 9.405739784240723, 3.690307378768921, -0.190185546875, 0.489501953125, -0.76806640625, 
190, 3710894449, -0.7995326519012451, 0.13818421959877014, -0.11839444935321808, 0.5723971128463745, -0.2893856465816498, -3.3210337162017822, 9.325958251953125, -2.6724612712860107, 9.038150787353516, 4.0194501876831055, -0.1884765625, 0.489990234375, -0.7685546875, 
191, 3710902782, -0.7995970845222473, 0.13800226151943207, -0.11908667534589767, 0.5722073316574097, -0.3759419620037079, -3.332078695297241, 9.276095390319824, -3.747157573699951, 8.035505294799805, 4.051774978637695, -0.190185546875, 0.4912109375, -0.765625, 
192, 3710911115, -0.7996386885643005, 0.13796751201152802, -0.11976762861013412, 0.5720152258872986, -0.4127029776573181, -3.272116184234619, 9.271430969238281, -5.472046852111816, 6.8875532150268555, 3.626579523086548, -0.186767578125, 0.49169921875, -0.767822265625, 
193, 3710919448, -0.7996474504470825, 0.13810370862483978, -0.1204337626695633, 0.571830153465271, -0.37112662196159363, -3.299713611602783, 9.225104331970215, -7.137919902801514, 5.344705581665039, 2.990705728530884, -0.188232421875, 0.4912109375, -0.76416015625, 
194, 3710927781, -0.7996286153793335, 0.13834340870380402, -0.12101396918296814, 0.5716758966445923, -0.3631141185760498, -3.410720109939575, 9.19330883026123, -7.751892566680908, 3.783209800720215, 2.113213062286377, -0.185302734375, 0.49072265625, -0.761962890625, 
195, 3710936114, -0.7995832562446594, 0.13863080739974976, -0.12150101363658905, 0.5715664625167847, -0.339904248714447, -3.475034475326538, 9.166020393371582, -7.369677543640137, 2.420865535736084, 1.141844391822815, -0.187255859375, 0.49609375, -0.76416015625, 
196, 3710944447, -0.7995293140411377, 0.1389104127883911, -0.12187082320451736, 0.5714954733848572, -0.36801213026046753, -3.5048704147338867, 9.14428997039795, -6.46475076675415, 1.3725515604019165, 0.45538264513015747, -0.185302734375, 0.497802734375, -0.762939453125, 
197, 3710952780, -0.7994775176048279, 0.13911858201026917, -0.12213584035634995, 0.5714607834815979, -0.33117902278900146, -3.5682382583618164, 9.099853515625, -4.640531063079834, 0.7543264031410217, -0.02282228320837021, -0.186279296875, 0.495361328125, -0.762939453125, 
198, 3710961113, -0.7994362115859985, 0.13916943967342377, -0.12227106839418411, 0.5714773535728455, -0.2586115300655365, -3.6503827571868896, 9.09975814819336, -1.935693383216858, 0.720464289188385, -0.4320608973503113, -0.182861328125, 0.495849609375, -0.762451171875, 
199, 3710969446, -0.7994115948677063, 0.1390237808227539, -0.12232773751020432, 0.5715351104736328, -0.22257749736309052, -3.6527414321899414, 9.14976978302002, 1.094150424003601, 1.3767009973526, -0.6279841661453247, -0.186279296875, 0.496826171875, -0.763671875, 
200, 3710977779, -0.7993976473808289, 0.13874152302742004, -0.12231318652629852, 0.5716261267662048, -0.25764527916908264, -3.549327850341797, 9.154666900634766, 3.085836410522461, 1.815293550491333, -0.8303878903388977, -0.185302734375, 0.4921875, -0.765869140625, 
201, 3710986112, -0.7993883490562439, 0.13842898607254028, -0.12228169292211533, 0.5717215538024902, -0.33079108595848083, -3.4773802757263184, 9.191229820251465, 3.7143077850341797, 1.7644494771957397, -0.8100758194923401, -0.183837890625, 0.495361328125, -0.763916015625, 
202, 3710994445, -0.7993723750114441, 0.13816699385643005, -0.12225105613470078, 0.5718139410018921, -0.3737451732158661, -3.373230218887329, 9.218379974365234, 2.9789483547210693, 1.3804152011871338, -0.6599507927894592, -0.184814453125, 0.49365234375, -0.763427734375, 
203, 3711002778, -0.7993525862693787, 0.13806122541427612, -0.12229642271995544, 0.5718575119972229, -0.3833923935890198, -3.2906367778778076, 9.193970680236816, 0.7290706634521484, 0.9033243060112, -0.5227096676826477, -0.184814453125, 0.494873046875, -0.763916015625, 
204, 3711011111, -0.7993252873420715, 0.13807161152362823, -0.1223980039358139, 0.5718714594841003, -0.38529521226882935, -3.26753306388855, 9.174272537231445, -1.2032030820846558, 0.6257173418998718, -0.25798657536506653, -0.182373046875, 0.494140625, -0.765869140625, 
205, 3711019444, -0.7992942333221436, 0.13816653192043304, -0.12255516648292542, 0.571858286857605, -0.37689071893692017, -3.3488380908966064, 9.149378776550293, -2.4725677967071533, 0.46475744247436523, -0.11219034343957901, -0.183349609375, 0.494384765625, -0.763916015625, 
206, 3711027777, -0.7992618083953857, 0.1382659524679184, -0.12269583344459534, 0.5718491673469543, -0.36994948983192444, -3.459395408630371, 9.14234733581543, -2.529559373855591, 0.4086622893810272, -0.35027462244033813, -0.182861328125, 0.496337890625, -0.762939453125, 
207, 3711036110, -0.7992169260978699, 0.13836540281772614, -0.1228032112121582, 0.5718647837638855, -0.416448175907135, -3.5035243034362793, 9.107043266296387, -2.108384609222412, -0.038933638483285904, -0.6403559446334839, -0.182861328125, 0.495849609375, -0.765869140625, 
208, 3711044443, -0.7991597056388855, 0.13842476904392242, -0.12279461324214935, 0.5719322562217712, -0.4413915276527405, -3.480774402618408, 9.068326950073242, -0.8456795811653137, -0.8592295050621033, -1.2758961915969849, -0.181884765625, 0.494873046875, -0.763427734375, 
209, 3711052776, -0.7991032004356384, 0.1384754180908203, -0.12265589833259583, 0.5720288753509521, -0.4350617825984955, -3.544250249862671, 9.067619323730469, 0.47702667117118835, -2.1862518787384033, -2.009334087371826, -0.182373046875, 0.49609375, -0.766357421875, 
210, 3711061109, -0.7990269064903259, 0.1385072022676468, -0.12238934636116028, 0.5721846222877502, -0.4258546531200409, -3.5616254806518555, 9.050802230834961, 1.5996730327606201, -3.284308671951294, -2.8249683380126953, -0.182861328125, 0.496337890625, -0.763427734375, 
211, 3711069442, -0.7989500164985657, 0.13852261006832123, -0.12203294038772583, 0.5723645091056824, -0.37678009271621704, -3.5156774520874023, 9.036116600036621, 2.679108142852783, -4.108983993530273, -3.4402992725372314, -0.188232421875, 0.494140625, -0.76416015625, 
212, 3711077775, -0.7988379001617432, 0.13851608335971832, -0.12163536995649338, 0.572607159614563, -0.33634865283966064, -3.457437515258789, 9.014097213745117, 3.1055591106414795, -4.463817596435547, -3.5639901161193848, -0.186767578125, 0.4921875, -0.765380859375, 
213, 3711086108, -0.798766016960144, 0.13854394853115082, -0.12123018503189087, 0.5727863907814026, -0.32349684834480286, -3.4331600666046143, 9.042678833007812, 2.936044454574585, -4.753796577453613, -3.5060250759124756, -0.187255859375, 0.49462890625, -0.7626953125, 
214, 3711094441, -0.7986868023872375, 0.13861054182052612, -0.12083611637353897, 0.5729641914367676, -0.3160942792892456, -3.403520345687866, 9.0584135055542, 2.2526309490203857, -4.934941291809082, -3.3323352336883545, -0.185791015625, 0.4931640625, -0.765380859375, 
215, 3711102774, -0.7986266016960144, 0.13868054747581482, -0.12047212570905685, 0.5731076598167419, -0.28790193796157837, -3.4602041244506836, 9.090909957885742, 2.11116361618042, -4.7191667556762695, -3.01320743560791, -0.185302734375, 0.49267578125, -0.764404296875, 
216, 3711111107, -0.7986055016517639, 0.13873031735420227, -0.12010981142520905, 0.573201060295105, -0.28519633412361145, -3.464810609817505, 9.120920181274414, 2.187852382659912, -4.390407562255859, -2.689340829849243, -0.186767578125, 0.49267578125, -0.763427734375, 
217, 3711119440, -0.798559308052063, 0.13876014947891235, -0.11976487934589386, 0.5733305215835571, -0.2425476461648941, -3.490234613418579, 9.138128280639648, 2.4041647911071777, -4.242895126342773, -2.647000789642334, -0.190673828125, 0.4951171875, -0.76513671875, 
218, 3711127773, -0.7985273599624634, 0.13878528773784637, -0.1194039136171341, 0.5734441876411438, -0.21815486252307892, -3.4500200748443604, 9.108323097229004, 2.4503984451293945, -4.23536491394043, -2.6658782958984375, -0.188720703125, 0.4931640625, -0.765625, 
219, 3711136106, -0.798475980758667, 0.138830304145813, -0.11909877508878708, 0.5735683441162109, -0.22084911167621613, -3.37864351272583, 9.166708946228027, 1.9058656692504883, -3.9280965328216553, -2.5784568786621094, -0.188720703125, 0.49267578125, -0.76171875, 
220, 3711144439, -0.7984331846237183, 0.13892214000225067, -0.11883954703807831, 0.5736591815948486, -0.24515321850776672, -3.382263660430908, 9.169437408447266, 0.8541706800460815, -3.7214670181274414, -2.2845592498779297, -0.190673828125, 0.4921875, -0.763671875, 
221, 3711152772, -0.7983789443969727, 0.13907861709594727, -0.1186494305729866, 0.5737363696098328, -0.23933522403240204, -3.416266679763794, 9.152135848999023, -0.30793434381484985, -3.6296138763427734, -2.0476274490356445, -0.189697265625, 0.4912109375, -0.76611328125, 
222, 3711161105, -0.7983198165893555, 0.13926386833190918, -0.11847265064716339, 0.5738101601600647, -0.21747319400310516, -3.4374170303344727, 9.149321556091309, -0.8834861516952515, -3.5855321884155273, -2.152287483215332, -0.191162109375, 0.49169921875, -0.763671875, 
223, 3711169438, -0.7982478141784668, 0.13944785296916962, -0.11830762773752213, 0.5738996863365173, -0.2261875718832016, -3.509228229522705, 9.148627281188965, -0.8220121264457703, -3.5182435512542725, -2.3207013607025146, -0.191162109375, 0.49072265625, -0.76171875, 
224, 3711177771, -0.7981848120689392, 0.13959281146526337, -0.11810793727636337, 0.5739930868148804, -0.23058733344078064, -3.5337283611297607, 9.17033576965332, -0.2359839677810669, -3.491271734237671, -2.3388872146606445, -0.191650390625, 0.4912109375, -0.7646484375, 
225, 3711186104, -0.7981150150299072, 0.13973045349121094, -0.11788168549537659, 0.5741031765937805, -0.27700695395469666, -3.519284248352051, 9.200420379638672, 0.20789796113967896, -3.7878334522247314, -2.5695433616638184, -0.194580078125, 0.491455078125, -0.767333984375, 
226, 3711194437, -0.7980459332466125, 0.13984839618206024, -0.11762445420026779, 0.5742232799530029, -0.24207672476768494, -3.5713791847229004, 9.201888084411621, 0.5429322123527527, -3.9156739711761475, -2.5767664909362793, -0.193603515625, 0.4912109375, -0.765869140625, 
227, 3711202770, -0.797993004322052, 0.13994817435741425, -0.11738711595535278, 0.5743212103843689, -0.20824767649173737, -3.511538028717041, 9.2443265914917, 0.7233588695526123, -3.662707805633545, -2.262864112854004, -0.196044921875, 0.49169921875, -0.762939453125, 
228, 3711211103, -0.7979636192321777, 0.14001744985580444, -0.11716674268245697, 0.5743899941444397, -0.18924978375434875, -3.5377912521362305, 9.275345802307129, 0.7878297567367554, -3.1862058639526367, -1.8157161474227905, -0.197021484375, 0.490966796875, -0.765380859375, 
229, 3711219436, -0.7979384660720825, 0.14007756114006042, -0.11700515449047089, 0.5744432806968689, -0.17570185661315918, -3.611830711364746, 9.341108322143555, 0.5417794585227966, -2.6483068466186523, -1.3442350625991821, -0.195068359375, 0.49169921875, -0.765380859375, 
230, 3711227769, -0.7979061007499695, 0.140139639377594, -0.11688324064016342, 0.5744980573654175, -0.16131578385829926, -3.56776762008667, 9.364725112915039, 0.05513463914394379, -2.1651203632354736, -1.2381922006607056, -0.195068359375, 0.48974609375, -0.761474609375, 
231, 3711236102, -0.7978754639625549, 0.14022645354270935, -0.11681024730205536, 0.5745341181755066, -0.16857750713825226, -3.5266811847686768, 9.351378440856934, -0.4891550540924072, -1.9119744300842285, -1.0709567070007324, -0.192626953125, 0.49072265625, -0.765625, 
232, 3711244435, -0.7978392243385315, 0.14031757414340973, -0.11676259338855743, 0.5745718479156494, -0.16968762874603271, -3.5330677032470703, 9.345152854919434, -0.8864317536354065, -1.6479429006576538, -0.8822566866874695, -0.195556640625, 0.4921875, -0.765869140625, 
233, 3711252768, -0.7978067994117737, 0.1404176503419876, -0.11677638441324234, 0.5745896697044373, -0.13137029111385345, -3.5461490154266357, 9.337518692016602, -1.3529694080352783, -1.0961867570877075, -0.740046501159668, -0.196533203125, 0.49072265625, -0.761962890625, 
234, 3711261101, -0.7977725267410278, 0.14052452147006989, -0.1168593242764473, 0.574594259262085, -0.15867112576961517, -3.4991819858551025, 9.331401824951172, -2.137328624725342, -0.36497724056243896, -0.3822924494743347, -0.195068359375, 0.4912109375, -0.763916015625, 
235, 3711269434, -0.7977500557899475, 0.1406407654285431, -0.11699217557907104, 0.5745701193809509, -0.21675202250480652, -3.5348098278045654, 9.300739288330078, -2.5199286937713623, -0.0146513432264328, 0.00464898394420743, -0.195068359375, 0.49169921875, -0.761962890625, 
236, 3711277767, -0.7977385520935059, 0.14075782895088196, -0.1171555444598198, 0.5745239853858948, -0.2764131426811218, -3.5761890411376953, 9.274831771850586, -2.916206121444702, 0.3726743459701538, 0.30876678228378296, -0.197998046875, 0.4912109375, -0.762451171875, 
237, 3711286100, -0.7977182865142822, 0.14089347422122955, -0.1173492819070816, 0.574479341506958, -0.29599320888519287, -3.552280902862549, 9.244190216064453, -3.242429256439209, 0.4567658603191376, 0.3337150812149048, -0.197021484375, 0.4921875, -0.759521484375, 
238, 3711294433, -0.7977319955825806, 0.14102616906166077, -0.11750918626785278, 0.5743951201438904, -0.284200519323349, -3.5519516468048096, 9.238179206848145, -3.06284761428833, 0.2547464072704315, 0.49290749430656433, -0.197021484375, 0.4912109375, -0.763427734375, 
239, 3711302766, -0.7977325916290283, 0.14113333821296692, -0.11764618754386902, 0.5743398666381836, -0.3077884018421173, -3.5858256816864014, 9.245940208435059, -2.4580445289611816, 0.004853897728025913, 0.5511542558670044, -0.196533203125, 0.494140625, -0.763427734375, 
240, 3711311099, -0.7977447509765625, 0.14120087027549744, -0.11771966516971588, 0.5742912292480469, -0.3002138137817383, -3.563382387161255, 9.253082275390625, -1.623327612876892, -0.3240969181060791, 0.5747706294059753, -0.195068359375, 0.4931640625, -0.759521484375, 
241, 3711319432, -0.7977665066719055, 0.1412455290555954, -0.11777444928884506, 0.5742387771606445, -0.28386056423187256, -3.504807233810425, 9.246759414672852, -1.076719880104065, -0.4320608973503113, 0.6283811926841736, -0.194091796875, 0.49560546875, -0.763427734375, 
242, 3711327765, -0.797801673412323, 0.1412874013185501, -0.11780904233455658, 0.5741724967956543, -0.2635605037212372, -3.439723253250122, 9.253174781799316, -1.0129148960113525, -0.5382574796676636, 0.7102954983711243, -0.195556640625, 0.4921875, -0.759521484375, 
243, 3711336098, -0.7978239059448242, 0.1413627415895462, -0.1178886741399765, 0.574106752872467, -0.27913862466812134, -3.3968098163604736, 9.25571346282959, -1.6307814121246338, -0.4286029636859894, 0.7758423686027527, -0.194580078125, 0.49267578125, -0.763916015625, 
244, 3711344431, -0.7978329062461853, 0.14149542152881622, -0.11797697842121124, 0.5740434527397156, -0.24652701616287231, -3.3769872188568115, 9.249943733215332, -2.484478235244751, -0.6929419040679932, 0.6129871010780334, -0.193115234375, 0.4951171875, -0.761474609375, 
245, 3711352764, -0.7978147864341736, 0.14167913794517517, -0.1181144192814827, 0.573995053768158, -0.2300359308719635, -3.3555784225463867, 9.207233428955078, -3.326751232147217, -0.5495277643203735, 0.2041582614183426, -0.194580078125, 0.49365234375, -0.760009765625, 
246, 3711361097, -0.7977831363677979, 0.141898512840271, -0.1182638555765152, 0.5739541053771973, -0.18947213888168335, -3.3894271850585938, 9.198688507080078, -3.9612152576446533, -0.594839334487915, 0.019121024757623672, -0.194580078125, 0.4931640625, -0.760009765625, 
247, 3711369430, -0.7977433800697327, 0.14211641252040863, -0.11843176186084747, 0.5739209651947021, -0.1682652235031128, -3.4495930671691895, 9.177118301391602, -3.959319829940796, -0.4214053452014923, -0.130402073264122, -0.1943359375, 0.496337890625, -0.760009765625, 
248, 3711377763, -0.7977031469345093, 0.14229683578014374, -0.11857756972312927, 0.5739020109176636, -0.20653297007083893, -3.5050246715545654, 9.190733909606934, -3.487173318862915, -0.2738674283027649, -0.2224852591753006, -0.196044921875, 0.49365234375, -0.760986328125, 
249, 3711386096, -0.7976666688919067, 0.142450749874115, -0.11872042715549469, 0.5738850831985474, -0.22219178080558777, -3.496776819229126, 9.180826187133789, -3.0266804695129395, -0.16495567560195923, -0.22596880793571472, -0.196044921875, 0.49365234375, -0.762939453125, 
250, 3711394429, -0.7976452112197876, 0.14256927371025085, -0.11879866570234299, 0.5738692283630371, -0.22269195318222046, -3.501446008682251, 9.136218070983887, -2.22820782661438, -0.48820731043815613, -0.3000451624393463, -0.19482421875, 0.4970703125, -0.760986328125, 
251, 3711402762, -0.7976273894309998, 0.14265292882919312, -0.11881505697965622, 0.5738697648048401, -0.21407029032707214, -3.5350565910339355, 9.150339126586914, -1.1932134628295898, -0.9930894374847412, -0.40683090686798096, -0.194091796875, 0.4951171875, -0.760498046875, 
252, 3711411095, -0.7976182103157043, 0.14270900189876556, -0.11875440925359726, 0.5738811492919922, -0.18940012156963348, -3.5460147857666016, 9.209528923034668, -0.3816520869731903, -1.5402863025665283, -0.5323918461799622, -0.194091796875, 0.49609375, -0.760986328125, 
253, 3711419428, -0.7976012229919434, 0.14279517531394958, -0.11871384084224701, 0.5738916993141174, -0.16949163377285004, -3.49873423576355, 9.234236717224121, -0.7529817223548889, -1.6207664012908936, -0.6220929622650146, -0.193115234375, 0.494140625, -0.7587890625, 
254, 3711427761, -0.7976008057594299, 0.14293451607227325, -0.11869283020496368, 0.5738620758056641, -0.14855274558067322, -3.449885845184326, 9.218526840209961, -1.650068998336792, -1.736696481704712, -0.3781941831111908, -0.194580078125, 0.494140625, -0.761474609375, 
255, 3711436094, -0.7975832223892212, 0.14311277866363525, -0.1187632828950882, 0.5738275051116943, -0.09892817586660385, -3.466758966445923, 9.23690128326416, -2.7143404483795166, -1.2164455652236938, -0.06531630456447601, -0.193603515625, 0.49462890625, -0.760986328125, 
256, 3711444427, -0.7975512742996216, 0.14329886436462402, -0.11891409754753113, 0.5737941265106201, -0.047180041670799255, -3.485368251800537, 9.27121353149414, -3.598595380783081, -0.3763499855995178, 0.17954298853874207, -0.1943359375, 0.496826171875, -0.758544921875, 
257, 3711452760, -0.7975265979766846, 0.14350076019763947, -0.11915663629770279, 0.573727548122406, -0.08101056516170502, -3.4962339401245117, 9.232681274414062, -4.397195816040039, 0.43276530504226685, 0.5291516780853271, -0.19677734375, 0.49755859375, -0.760498046875, 
258, 3711461093, -0.7974933385848999, 0.1437273919582367, -0.11942607164382935, 0.5736610889434814, -0.13414353132247925, -3.4531071186065674, 9.154170036315918, -5.032991886138916, 0.6094009876251221, 0.5357344746589661, -0.19775390625, 0.49755859375, -0.75927734375, 
259, 3711469426, -0.7974456548690796, 0.14397309720516205, -0.11970739811658859, 0.5736072063446045, -0.15550538897514343, -3.4999520778656006, 9.114591598510742, -5.208577632904053, 0.5746681690216064, 0.21417342126369476, -0.1953125, 0.499267578125, -0.754638671875, 
260, 3711477759, -0.7974402904510498, 0.14422264695167542, -0.11992420256137848, 0.5735064148902893, -0.2026383876800537, -3.5660250186920166, 9.083905220031738, -4.843344211578369, 0.1550813913345337, -0.05699167400598526, -0.19287109375, 0.498291015625, -0.757568359375, 
261, 3711486092, -0.7973862290382385, 0.14442814886569977, -0.12007873505353928, 0.5734976530075073, -0.2182331681251526, -3.6066370010375977, 8.998539924621582, -3.7060723304748535, -0.3976610004901886, -0.515486478805542, -0.19677734375, 0.498291015625, -0.755126953125, 
262, 3711494425, -0.7973369359970093, 0.14459766447544098, -0.12013787031173706, 0.5735110640525818, -0.24847832322120667, -3.628840208053589, 9.008499145507812, -2.6494596004486084, -1.104870080947876, -0.682465672492981, -0.19384765625, 0.496826171875, -0.758544921875, 
263, 3711502758, -0.7972986102104187, 0.1447353959083557, -0.12012619525194168, 0.5735321640968323, -0.243055060505867, -3.589662790298462, 8.990233421325684, -1.570972204208374, -1.6532963514328003, -0.9370712041854858, -0.1962890625, 0.496826171875, -0.757080078125, 
264, 3711511091, -0.7972713112831116, 0.14487555623054504, -0.12005104124546051, 0.5735505819320679, -0.2549837827682495, -3.574690818786621, 9.002583503723145, -1.2099908590316772, -2.3039238452911377, -0.9551548957824707, -0.19580078125, 0.497314453125, -0.759033203125, 
265, 3711519424, -0.7972493171691895, 0.14505521953105927, -0.11995843797922134, 0.5735552310943604, -0.2572100758552551, -3.542071580886841, 9.0068998336792, -1.3883171081542969, -2.929243803024292, -0.85684734582901, -0.19384765625, 0.498779296875, -0.758056640625, 
266, 3711527757, -0.7972393035888672, 0.14524710178375244, -0.11986342817544937, 0.5735403299331665, -0.20128291845321655, -3.566340208053589, 9.049517631530762, -1.6403101682662964, -3.0297799110412598, -0.5697630643844604, -0.19482421875, 0.497314453125, -0.756103515625, 
267, 3711536090, -0.7972293496131897, 0.14541220664978027, -0.11977925896644592, 0.5735300183296204, -0.17455370724201202, -3.6070094108581543, 9.069930076599121, -1.2956960201263428, -2.7727408409118652, -0.5589026212692261, -0.19482421875, 0.496337890625, -0.755615234375, 
268, 3711544423, -0.7972306609153748, 0.14552193880081177, -0.11965593695640564, 0.5735257863998413, -0.2019556313753128, -3.605973482131958, 9.070723533630371, -0.4750928580760956, -2.7040181159973145, -0.4810865819454193, -0.19677734375, 0.499755859375, -0.757080078125, 
269, 3711552756, -0.7972158789634705, 0.14563795924186707, -0.11951794475317001, 0.5735456347465515, -0.22010371088981628, -3.559110403060913, 9.084168434143066, -0.2929244041442871, -2.9069085121154785, -0.9552061557769775, -0.1962890625, 0.499267578125, -0.755615234375, 
270, 3711561089, -0.7971878051757812, 0.1457761973142624, -0.11934585869312286, 0.573585569858551, -0.2203422635793686, -3.5424439907073975, 9.095951080322266, -0.3905658721923828, -3.340275764465332, -1.3085289001464844, -0.19482421875, 0.499755859375, -0.753173828125, 
271, 3711569422, -0.7971473336219788, 0.14594028890132904, -0.11913882941007614, 0.5736430883407593, -0.1791028082370758, -3.584484338760376, 9.1235933303833, -0.26421085000038147, -3.9255099296569824, -1.7877713441848755, -0.1953125, 0.496337890625, -0.757568359375, 
272, 3711577755, -0.7970727682113647, 0.14611899852752686, -0.11889946460723877, 0.573750913143158, -0.17210660874843597, -3.566106081008911, 9.202105522155762, -0.29884129762649536, -4.44898796081543, -1.9669939279556274, -0.1982421875, 0.500244140625, -0.75390625, 
273, 3711586088, -0.7970242500305176, 0.14630012214183807, -0.11862501502037048, 0.5738290548324585, -0.15495163202285767, -3.589526414871216, 9.267862319946289, 0.09862761199474335, -4.745037078857422, -2.2396063804626465, -0.19775390625, 0.500244140625, -0.75732421875, 
274, 3711594421, -0.7969903349876404, 0.1464851200580597, -0.11832501739263535, 0.5738904476165771, -0.16921909153461456, -3.6018948554992676, 9.321041107177734, 0.13400088250637054, -4.99531364440918, -2.083615303039551, -0.19775390625, 0.500732421875, -0.7548828125, 
275, 3711602754, -0.7969545722007751, 0.14668531715869904, -0.11805600672960281, 0.5739445686340332, -0.12044341117143631, -3.5309486389160156, 9.358272552490234, -0.1678500771522522, -4.903076171875, -1.897092580795288, -0.19970703125, 0.500732421875, -0.75390625, 
276, 3711611087, -0.7968983054161072, 0.14692024886608124, -0.11784445494413376, 0.5740060210227966, -0.1177753433585167, -3.476564884185791, 9.407913208007812, -1.1657038927078247, -4.611356735229492, -1.598405122756958, -0.20263671875, 0.499755859375, -0.75390625, 
277, 3711619420, -0.7968425750732422, 0.14721916615962982, -0.11772014200687408, 0.5740323066711426, -0.11420722305774689, -3.483092784881592, 9.430246353149414, -2.4774343967437744, -4.120818614959717, -1.6170010566711426, -0.1982421875, 0.498779296875, -0.7587890625, 
278, 3711627753, -0.7968168258666992, 0.147529736161232, -0.11766348779201508, 0.5739997625350952, -0.09285461157560349, -3.547898530960083, 9.422248840332031, -3.286332130432129, -3.2229113578796387, -1.4430547952651978, -0.20166015625, 0.498291015625, -0.75244140625, 
279, 3711636086, -0.7967478632926941, 0.14779441058635712, -0.11769118160009384, 0.5740219354629517, -0.08676961809396744, -3.5965442657470703, 9.41049861907959, -3.335306406021118, -2.17252254486084, -1.3136005401611328, -0.19873046875, 0.502197265625, -0.75390625, 
280, 3711644419, -0.7966781258583069, 0.14798319339752197, -0.11774930357933044, 0.5740581154823303, -0.07610012590885162, -3.705106735229492, 9.422365188598633, -2.852247476577759, -1.1512317657470703, -1.2277159690856934, -0.19921875, 0.500732421875, -0.7529296875, 
281, 3711652752, -0.7966057062149048, 0.14812861382961273, -0.11784446239471436, 0.5741015672683716, -0.0478568859398365, -3.7043449878692627, 9.370849609375, -2.533914089202881, -0.4424603283405304, -1.2414708137512207, -0.20263671875, 0.501220703125, -0.75244140625, 
282, 3711661085, -0.796562910079956, 0.14818808436393738, -0.11795005947351456, 0.5741239190101624, -0.00549667002633214, -3.6746702194213867, 9.3309965133667, -1.7685604095458984, 0.5130146741867065, -1.039169430732727, -0.202392578125, 0.502197265625, -0.7529296875, 
283, 3711669418, -0.7965170741081238, 0.14815177023410797, -0.11813350021839142, 0.5741593837738037, 0.0036875265650451183, -3.7136800289154053, 9.466836929321289, -1.1996939182281494, 1.9002560377120972, -0.4718654453754425, -0.20068359375, 0.501220703125, -0.755859375, 
284, 3711677751, -0.7964720726013184, 0.1480594128370285, -0.11836878210306168, 0.5741971731185913, -0.10339216887950897, -3.694042682647705, 9.454127311706543, -1.115525484085083, 3.003563642501831, -0.3047325611114502, -0.20068359375, 0.500244140625, -0.7529296875, 
285, 3711686084, -0.7963517904281616, 0.14815814793109894, -0.11876621097326279, 0.574256420135498, -0.09911572933197021, -3.4701383113861084, 9.469886779785156, -4.480570316314697, 3.34615421295166, -1.104024887084961, -0.19677734375, 0.501220703125, -0.754638671875, 
286, 3711694417, -0.7961965799331665, 0.14855915307998657, -0.1193324625492096, 0.5742508172988892, -0.06179981306195259, -3.3095223903656006, 9.34938907623291, -9.421709060668945, 2.988579511642456, -1.237449288368225, -0.202392578125, 0.501220703125, -0.75146484375, 
287, 3711702750, -0.7959682941436768, 0.14925292134284973, -0.12024831771850586, 0.5741962790489197, 0.13198606669902802, -3.4580531120300293, 9.23753833770752, -15.496000289916992, 4.268881797790527, -0.6264986395835876, -0.2001953125, 0.501708984375, -0.75146484375, 
288, 3711711083, -0.7957839965820312, 0.14987172186374664, -0.12158176302909851, 0.5740095376968384, 0.4250788986682892, -3.664630174636841, 9.05038070678711, -18.234399795532227, 9.134513854980469, 2.2477400302886963, -0.19970703125, 0.50244140625, -0.751953125, 
289, 3711719416, -0.7956839203834534, 0.1502455174922943, -0.1236368790268898, 0.5736114382743835, 0.9135761260986328, -3.8729209899902344, 8.78647518157959, -21.296533584594727, 18.3420467376709, 7.023722171783447, -0.201416015625, 0.50634765625, -0.752197265625, 
290, 3711727749, -0.7957016825675964, 0.1500943899154663, -0.12666453421115875, 0.5729652047157288, 1.3744279146194458, -3.8225607872009277, 8.32700252532959, -23.523942947387695, 32.616024017333984, 13.313901901245117, -0.192626953125, 0.508544921875, -0.745849609375, 
291, 3711736082, -0.7960970997810364, 0.14894098043441772, -0.13050433993339539, 0.5718544721603394, 1.956084966659546, -4.013457775115967, 7.033412456512451, -18.86406707763672, 47.578285217285156, 25.05019187927246, -0.188232421875, 0.5126953125, -0.74658203125, 
292, 3711744415, -0.79716557264328, 0.14556320011615753, -0.13517975807189941, 0.5701470375061035, 2.352443218231201, -4.472499847412109, 7.647763252258301, -0.9206067323684692, 71.67448425292969, 43.11812973022461, -0.1806640625, 0.51513671875, -0.753662109375, 
293, 3711752748, -0.7989521622657776, 0.13865619897842407, -0.14145125448703766, 0.5678419470787048, 2.908132791519165, -5.587244987487793, 10.11591911315918, 25.724742889404297, 114.42645263671875, 64.5171127319336, -0.16748046875, 0.51513671875, -0.756591796875, 
294, 3711761081, -0.8012278079986572, 0.12782657146453857, -0.15031421184539795, 0.5648918151855469, 3.0613348484039307, -6.4889373779296875, 12.665962219238281, 48.15680694580078, 171.4799346923828, 88.0373306274414, -0.148193359375, 0.51416015625, -0.76318359375, 
295, 3711769414, -0.8035356998443604, 0.11357001960277557, -0.16261444985866547, 0.5612412691116333, 2.525268077850342, -6.329669952392578, 15.065826416015625, 57.93231201171875, 234.55624389648438, 109.09329223632812, -0.115966796875, 0.511962890625, -0.7744140625, 
296, 3711777747, -0.8054019808769226, 0.09797658026218414, -0.1790994107723236, 0.5564659833908081, 1.8127031326293945, -5.684096813201904, 16.009469985961914, 37.104469299316406, 290.5246276855469, 127.68854522705078, -0.081787109375, 0.512451171875, -0.785888671875, 
297, 3711786080, -0.8066002130508423, 0.08258990943431854, -0.1999444216489792, 0.5500909090042114, 1.3006527423858643, -3.834601640701294, 15.251694679260254, -3.295687675476074, 336.5672302246094, 145.62245178222656, -0.040283203125, 0.510009765625, -0.788330078125, 
298, 3711794413, -0.8070473670959473, 0.0679064691066742, -0.22487545013427734, 0.5417535901069641, 1.4536371231079102, -2.8710391521453857, 13.66841983795166, -48.3654670715332, 376.6356201171875, 164.465576171875, 0.010498046875, 0.51416015625, -0.79296875, 
299, 3711802746, -0.8066263198852539, 0.05332569777965546, -0.2530740797519684, 0.5314757823944092, 1.4470657110214233, -3.8084402084350586, 12.630134582519531, -80.56114959716797, 412.8145446777344, 182.22891235351562, 0.069580078125, 0.5224609375, -0.7890625, 
300, 3711811079, -0.8051861524581909, 0.037842098623514175, -0.28313738107681274, 0.5196914672851562, 0.35779115557670593, -5.344717979431152, 11.461127281188965, -90.28331756591797, 442.8194885253906, 196.06121826171875, 0.131591796875, 0.530029296875, -0.779052734375, 
301, 3711819412, -0.8024333119392395, 0.021043997257947922, -0.3134898841381073, 0.5073310136795044, -1.7852458953857422, -5.800572872161865, 10.007469177246094, -80.60619354248047, 459.97308349609375, 198.2796173095703, 0.19482421875, 0.542724609375, -0.765625, 
302, 3711827745, -0.7988249063491821, 0.0036612339317798615, -0.3433862626552582, 0.4939168691635132, -3.6476242542266846, -4.090639114379883, 8.655591011047363, -75.85861206054688, 462.7069091796875, 206.391357421875, 0.2626953125, 0.5419921875, -0.748291015625, 
303, 3711836078, -0.794425368309021, -0.014509335160255432, -0.37168267369270325, 0.4801380932331085, -5.426253795623779, -3.7851855754852295, 6.964883327484131, -57.99855041503906, 453.8937072753906, 208.59927368164062, 0.328125, 0.54248046875, -0.72607421875, 
304, 3711844411, -0.7893227934837341, -0.033504046499729156, -0.3974509537220001, 0.46677884459495544, -7.093325614929199, -4.059138298034668, 5.248017311096191, -30.09292221069336, 435.5220031738281, 204.1478729248047, 0.393798828125, 0.538818359375, -0.701416015625, 
305, 3711852744, -0.7837626338005066, -0.05301803722977638, -0.42037802934646606, 0.45408186316490173, -8.227256774902344, -2.809615135192871, 4.120171546936035, -2.301577568054199, 409.8890380859375, 198.10125732421875, 0.452392578125, 0.533447265625, -0.679931640625, 
306, 3711861077, -0.7778266072273254, -0.07190534472465515, -0.4407077133655548, 0.4422609508037567, -9.370224952697754, -1.416398525238037, 3.388747453689575, 12.441292762756348, 379.79022216796875, 184.62889099121094, 0.506591796875, 0.52294921875, -0.656494140625, 
307, 3711869410, -0.7716029286384583, -0.08958479762077332, -0.4587688446044922, 0.43143653869628906, -10.11483097076416, -0.49920567870140076, 2.8649206161499023, 19.705263137817383, 348.63336181640625, 167.08457946777344, 0.556396484375, 0.509521484375, -0.6337890625, 
308, 3711877743, -0.7652276158332825, -0.10612460970878601, -0.4743902385234833, 0.4220440685749054, -10.090384483337402, -0.42843806743621826, 1.559880256652832, 31.253765106201172, 315.4237365722656, 146.82501220703125, 0.600341796875, 0.49658203125, -0.60986328125, 
309, 3711886076, -0.7586292028427124, -0.12108747661113739, -0.48765063285827637, 0.41475236415863037, -10.502556800842285, 0.26373597979545593, 0.7704664468765259, 42.447349548339844, 279.5469970703125, 116.55213928222656, 0.63525390625, 0.483154296875, -0.58740234375, 
310, 3711894409, -0.7518824338912964, -0.13405106961727142, -0.49913209676742554, 0.4093568027019501, -10.536458015441895, 1.112738013267517, 1.3040974140167236, 44.64786911010742, 247.6341094970703, 85.47063446044922, 0.668212890625, 0.47607421875, -0.568115234375, 
311, 3711902742, -0.7452014684677124, -0.14515739679336548, -0.5092660784721375, 0.4052841365337372, -10.845949172973633, 1.10513174533844, 1.2932789325714111, 42.03810501098633, 220.1316375732422, 61.900474548339844, 0.69287109375, 0.4658203125, -0.554931640625, 
312, 3711911075, -0.7394661903381348, -0.15481632947921753, -0.5180323123931885, 0.4010820984840393, -12.205256462097168, 1.8369901180267334, 1.4032801389694214, 31.982269287109375, 191.86219787597656, 61.054264068603516, 0.714599609375, 0.455810546875, -0.539306640625, 
313, 3711919408, -0.7334063649177551, -0.16262969374656677, -0.5261053442955017, 0.39860063791275024, -8.67282485961914, 0.6404241323471069, 1.5548889636993408, 30.037385940551758, 173.10252380371094, 30.1297550201416, 0.730224609375, 0.4541015625, -0.5205078125, 
314, 3711927741, -0.7274531126022339, -0.16888947784900665, -0.5332287549972534, 0.3974396288394928, -7.540844917297363, 0.31879493594169617, 2.126469612121582, 28.833585739135742, 151.43299865722656, 8.213849067687988, 0.745361328125, 0.449462890625, -0.50830078125, 
315, 3711936074, -0.7215365767478943, -0.17399589717388153, -0.5400682091712952, 0.39678657054901123, -7.069629192352295, -0.13629767298698425, 2.327043294906616, 22.543018341064453, 140.6873016357422, -4.397274494171143, 0.754150390625, 0.448486328125, -0.4970703125, 
316, 3711944407, -0.716769278049469, -0.17909404635429382, -0.5463182330131531, 0.3945966362953186, -8.68403434753418, -0.322710245847702, 2.4009273052215576, 11.45718002319336, 130.07949829101562, 18.386884689331055, 0.764404296875, 0.44775390625, -0.484375, 
317, 3711952740, -0.7131531834602356, -0.18484589457511902, -0.551986038684845, 0.39058801531791687, -9.017250061035156, -0.7436549067497253, 2.5573480129241943, 4.616844654083252, 123.57604217529297, 48.98978805541992, 0.775146484375, 0.44580078125, -0.470458984375, 
318, 3711961073, -0.7102260589599609, -0.19067826867103577, -0.5567981004714966, 0.38626331090927124, -7.692848205566406, -1.90398108959198, 2.6110424995422363, 5.7994384765625, 111.32496643066406, 58.48163604736328, 0.783447265625, 0.4384765625, -0.461181640625, 
319, 3711969406, -0.7077885866165161, -0.19690707325935364, -0.5605881214141846, 0.3821081817150116, -8.696612358093262, -2.2148447036743164, 2.566624164581299, 15.168288230895996, 99.11629486083984, 65.23675537109375, 0.79541015625, 0.429443359375, -0.453369140625, 
320, 3711977739, -0.7053132057189941, -0.2030274122953415, -0.5637677311897278, 0.37879014015197754, -7.893781661987305, -1.9593976736068726, 2.5655384063720703, 23.82911491394043, 90.76649475097656, 57.61653137207031, 0.8056640625, 0.427978515625, -0.440673828125, 
321, 3711986072, -0.7029045820236206, -0.20921766757965088, -0.5670970678329468, 0.3749091327190399, -9.456536293029785, -0.8222255110740662, 2.4920830726623535, 19.221847534179688, 93.50337219238281, 63.63967514038086, 0.816650390625, 0.416748046875, -0.435546875, 
322, 3711994405, -0.7004187703132629, -0.21478304266929626, -0.5706208944320679, 0.3710477352142334, -8.91636848449707, -1.1859426498413086, 2.3044166564941406, 12.515260696411133, 92.84081268310547, 57.52653121948242, 0.825927734375, 0.410400390625, -0.425537109375, 
323, 3712002738, -0.6979740262031555, -0.2192026972770691, -0.5740572810173035, 0.36775487661361694, -8.794072151184082, -1.3404507637023926, 2.078474760055542, 6.305211067199707, 84.01734161376953, 43.62063217163086, 0.83447265625, 0.4013671875, -0.416748046875, 
324, 3712011071, -0.695642352104187, -0.22293055057525635, -0.5771746039390564, 0.3650425672531128, -9.516105651855469, -0.9487236738204956, 1.9047186374664307, 5.4859232902526855, 74.9454345703125, 34.0290641784668, 0.84228515625, 0.400146484375, -0.407958984375, 
325, 3712019404, -0.6932037472724915, -0.226107656955719, -0.5802785754203796, 0.36279937624931335, -8.80383586883545, -1.1110446453094482, 1.9853270053863525, 4.370668888092041, 71.33191680908203, 24.764801025390625, 0.84912109375, 0.39501953125, -0.399658203125, 
326, 3712027737, -0.6907902956008911, -0.22935329377651215, -0.5831539630889893, 0.3607494831085205, -9.366501808166504, -0.5190262198448181, 1.9993512630462646, 7.595797061920166, 68.81961822509766, 24.215185165405273, 0.85205078125, 0.39404296875, -0.39453125, 
327, 3712036070, -0.6883735656738281, -0.23235490918159485, -0.5861492156982422, 0.35858726501464844, -9.123579025268555, -0.4860527217388153, 2.5532541275024414, 3.8250293731689453, 69.00115203857422, 23.021373748779297, 0.85888671875, 0.390380859375, -0.38525390625, 
328, 3712044403, -0.6860527992248535, -0.23503637313842773, -0.589561939239502, 0.35568100214004517, -9.0716552734375, -0.23311227560043335, 2.763179302215576, -7.596428871154785, 73.1099624633789, 26.52682113647461, 0.866455078125, 0.3857421875, -0.3779296875, 
329, 3712052736, -0.6836686730384827, -0.23809200525283813, -0.5928156971931458, 0.3528200685977936, -9.40410327911377, -1.3517849445343018, 1.9692814350128174, -2.688101053237915, 73.67444610595703, 29.433982849121094, 0.869873046875, 0.38427734375, -0.372314453125, 
330, 3712061069, -0.681246280670166, -0.2416665107011795, -0.5957490801811218, 0.3501235842704773, -9.86821460723877, -1.1538193225860596, 1.688836932182312, 5.182314395904541, 73.08836364746094, 32.88414001464844, 0.87353515625, 0.382080078125, -0.35986328125, 
331, 3712069402, -0.6789630055427551, -0.24473309516906738, -0.5986167788505554, 0.3475278615951538, -9.75338363647461, -0.4234972298145294, 1.4848662614822388, 1.1322444677352905, 68.41740417480469, 28.763866424560547, 0.879150390625, 0.37646484375, -0.3525390625, 
332, 3712077735, -0.6769819259643555, -0.24693839251995087, -0.6013512015342712, 0.3451036512851715, -9.823343276977539, -0.9584640860557556, 0.6128549575805664, -5.900978088378906, 60.125396728515625, 21.867477416992188, 0.885986328125, 0.372314453125, -0.34326171875, 
333, 3712086068, -0.6752136945724487, -0.24841001629829407, -0.6040376424789429, 0.3428126573562622, -9.628355979919434, -1.5293593406677246, 0.4905575215816498, -12.102248191833496, 53.85123062133789, 15.830371856689453, 0.8876953125, 0.37646484375, -0.33935546875, 
334, 3712094401, -0.6735972166061401, -0.24975216388702393, -0.606637179851532, 0.3404186964035034, -8.888786315917969, -1.9422435760498047, 0.27211207151412964, -14.2889404296875, 51.64962387084961, 16.630868911743164, 0.892822265625, 0.37060546875, -0.33203125, 
335, 3712102734, -0.6719725131988525, -0.2515716552734375, -0.6089461445808411, 0.3381597697734833, -8.695596694946289, -2.0554237365722656, -0.0949091985821724, -7.331350803375244, 50.67276382446289, 20.41417694091797, 0.896240234375, 0.367919921875, -0.324951171875, 
336, 3712111067, -0.6706193685531616, -0.25338077545166016, -0.6109421253204346, 0.33588743209838867, -8.951061248779297, -1.2923698425292969, -0.17546331882476807, -7.038935661315918, 45.61781311035156, 22.716201782226562, 0.900146484375, 0.364501953125, -0.32080078125, 
337, 3712119400, -0.669647753238678, -0.2550765573978424, -0.6124480366706848, 0.333793580532074, -9.360007286071777, -0.7841656804084778, -0.5402165055274963, -5.636343955993652, 36.63520812988281, 23.66975212097168, 0.901123046875, 0.36328125, -0.3134765625, 
338, 3712127733, -0.6689951419830322, -0.25657522678375244, -0.6135103702545166, 0.3319976329803467, -9.232751846313477, -0.4116533696651459, -0.2603761553764343, -4.036039352416992, 28.012666702270508, 22.2085018157959, 0.905029296875, 0.361328125, -0.308837890625, 
339, 3712136066, -0.6684025526046753, -0.25816231966018677, -0.6141980290412903, 0.3306867480278015, -8.890128135681152, -0.16965213418006897, -0.18807321786880493, 2.3799357414245605, 22.653413772583008, 20.164886474609375, 0.909912109375, 0.35791015625, -0.307373046875, 
340, 3712144399, -0.6677526235580444, -0.2596975862979889, -0.614782452583313, 0.32971012592315674, -8.792924880981445, 0.3766334354877472, 0.23505060374736786, 5.388431549072266, 20.853931427001953, 16.681396484375, 0.912841796875, 0.3544921875, -0.3037109375, 
341, 3712152732, -0.6670999526977539, -0.26071813702583313, -0.6155560612678528, 0.3287816643714905, -8.75577449798584, 0.9172310829162598, 0.3880065083503723, 0.23264136910438538, 20.021286010742188, 11.27901554107666, 0.912841796875, 0.355224609375, -0.30078125, 
342, 3712161065, -0.6665453910827637, -0.2610652446746826, -0.6164849996566772, 0.32788941264152527, -8.8277587890625, 0.8083075881004333, 0.2129872590303421, -6.704527854919434, 17.519540786743164, 5.045480728149414, 0.913818359375, 0.354248046875, -0.298828125, 
343, 3712169398, -0.6660804152488708, -0.26086217164993286, -0.6174344420433044, 0.32720834016799927, -8.77458381652832, 0.5636696219444275, -0.19157686829566956, -10.358757972717285, 13.63134765625, -1.1370419263839722, 0.911865234375, 0.35107421875, -0.2978515625, 
344, 3712177731, -0.6656731963157654, -0.260302871465683, -0.6182677745819092, 0.32690906524658203, -8.768135070800781, 0.18494874238967896, -0.17866678535938263, -10.07800006866455, 9.17690372467041, -7.081056594848633, 0.913818359375, 0.356201171875, -0.296875, 
345, 3712186064, -0.6653330326080322, -0.25935402512550354, -0.6190378665924072, 0.3268985152244568, -8.77552604675293, 0.08157692104578018, -0.203549325466156, -11.131746292114258, 5.171579837799072, -12.408666610717773, 0.915771484375, 0.3564453125, -0.291259765625, 
346, 3712194397, -0.6650868654251099, -0.25809410214424133, -0.6196691989898682, 0.3271997272968292, -8.86878490447998, -0.16879592835903168, -0.20013216137886047, -11.048318862915039, 0.6522026658058167, -17.094715118408203, 0.915283203125, 0.3583984375, -0.29052734375, 
347, 3712202730, -0.6648842692375183, -0.25678500533103943, -0.620048463344574, 0.327921986579895, -8.916214942932129, -0.43518975377082825, -0.21840007603168488, -6.917203903198242, -3.8017687797546387, -20.172882080078125, 0.912109375, 0.3603515625, -0.293212890625, 
348, 3712211063, -0.6648005247116089, -0.25546330213546753, -0.6200435161590576, 0.3291313946247101, -9.037431716918945, -0.4686543345451355, -0.3193306028842926, -1.5807576179504395, -10.053336143493652, -22.9437313079834, 0.9111328125, 0.3603515625, -0.291259765625, 
349, 3712219396, -0.6649237871170044, -0.2540091872215271, -0.6195943355560303, 0.3308493196964264, -9.134527206420898, -0.4595017433166504, -0.3429451584815979, 2.8426570892333984, -18.31787872314453, -26.12126350402832, 0.91064453125, 0.3671875, -0.292724609375, 
350, 3712227729, -0.6653314232826233, -0.25231075286865234, -0.6186994314193726, 0.33299726247787476, -9.145208358764648, -0.4527435898780823, -0.307369202375412, 5.292996883392334, -27.38849449157715, -29.387483596801758, 0.90625, 0.37060546875, -0.297607421875, 
351, 3712236062, -0.6661079525947571, -0.25000619888305664, -0.617370069026947, 0.3356398046016693, -9.336722373962402, -0.18794719874858856, -0.3923034071922302, 4.67810583114624, -39.033809661865234, -35.76978302001953, 0.902099609375, 0.37451171875, -0.30126953125, 
352, 3712244395, -0.6672341227531433, -0.24675852060317993, -0.6155183911323547, 0.3391883075237274, -10.215507507324219, -0.3590414822101593, -0.6903784871101379, 4.925755500793457, -54.22962951660156, -48.773494720458984, 0.90087890625, 0.376708984375, -0.30859375, 
353, 3712252728, -0.6688342690467834, -0.24231776595115662, -0.6129409670829773, 0.3438737988471985, -10.315587997436523, -0.5899702906608582, -0.9254062175750732, 5.393699645996094, -74.3502197265625, -64.52234649658203, 0.897216796875, 0.385009765625, -0.3125, 
354, 3712261061, -0.6710394620895386, -0.23653629422187805, -0.6093749403953552, 0.3498879075050354, -10.867061614990234, -0.6877797245979309, -1.1033000946044922, 6.903791904449463, -99.2999038696289, -81.99962615966797, 0.885498046875, 0.39306640625, -0.323974609375, 
355, 3712269394, -0.673993706703186, -0.22931964695453644, -0.6046262383460999, 0.35717642307281494, -11.768996238708496, -0.5210383534431458, -1.2511948347091675, 7.609970569610596, -127.55258178710938, -98.2259292602539, 0.87646484375, 0.400634765625, -0.33740234375, 
356, 3712277727, -0.6780676245689392, -0.22062015533447266, -0.5983545184135437, 0.36541157960891724, -12.73573112487793, 0.01420170534402132, -1.5613179206848145, 5.666890621185303, -161.2667999267578, -109.1419448852539, 0.862060546875, 0.412353515625, -0.349609375, 
357, 3712286060, -0.6843799352645874, -0.21045680344104767, -0.5899584889411926, 0.3732077181339264, -13.300050735473633, 1.1970746517181396, -2.1598381996154785, -7.691641807556152, -205.50433349609375, -99.28843688964844, 0.845458984375, 0.4208984375, -0.376708984375, 
358, 3712294393, -0.6926196813583374, -0.1982763111591339, -0.5791437029838562, 0.3815230131149292, -13.455945014953613, 0.6527579426765442, -3.3714845180511475, -15.654629707336426, -255.82052612304688, -103.78108215332031, 0.827392578125, 0.43408203125, -0.39794921875, 
359, 3712302726, -0.7038221955299377, -0.1828836351633072, -0.564501941204071, 0.3905487358570099, -14.210219383239746, 0.7943272590637207, -3.4328560829162598, -28.568700790405273, -334.62054443359375, -110.02393341064453, 0.803955078125, 0.440673828125, -0.424072265625, 
360, 3712311059, -0.7177819013595581, -0.16261067986488342, -0.5448914766311646, 0.40179958939552307, -18.103849411010742, -0.336255818605423, -3.251358985900879, -38.8165283203125, -436.0791931152344, -142.31077575683594, 0.771484375, 0.456298828125, -0.4619140625, 
361, 3712319392, -0.7323364019393921, -0.1381530463695526, -0.5217085480690002, 0.4152352213859558, -13.599230766296387, -2.063708782196045, -4.8452935218811035, -45.31241226196289, -503.7394714355469, -183.8216094970703, 0.726318359375, 0.475341796875, -0.505859375, 
362, 3712327725, -0.7458814382553101, -0.11453807353973389, -0.4959196150302887, 0.4296607971191406, -2.869633436203003, -0.4498363435268402, -3.129157543182373, -12.956947326660156, -520.017578125, -188.73117065429688, 0.673095703125, 0.490478515625, -0.548828125, 
363, 3712336058, -0.7576884627342224, -0.09375017881393433, -0.46953460574150085, 0.44346266984939575, 3.6374950408935547, -1.716329574584961, -0.018261566758155823, 18.09247398376465, -496.3771667480469, -172.2063446044922, 0.61767578125, 0.50341796875, -0.590576171875, 
364, 3712344391, -0.7678021192550659, -0.07552097737789154, -0.4441812336444855, 0.4555022716522217, 2.149559736251831, -1.9277491569519043, 2.961662769317627, 29.22337532043457, -456.9969787597656, -149.1232147216797, 0.561279296875, 0.51513671875, -0.630126953125, 
365, 3712352724, -0.776667058467865, -0.05757689103484154, -0.4205726683139801, 0.4653971195220947, -2.2380216121673584, 0.4220919609069824, 5.856688499450684, 9.54133415222168, -426.71051025390625, -134.20904541015625, 0.51220703125, 0.519287109375, -0.66259765625, 
366, 3712361057, -0.785126805305481, -0.03738782927393913, -0.39781826734542847, 0.4732033312320709, -6.2331624031066895, 0.7553690671920776, 6.592027187347412, -31.730276107788086, -428.1373596191406, -128.29600524902344, 0.4609375, 0.527587890625, -0.683349609375, 
367, 3712369390, -0.793419361114502, -0.0132061168551445, -0.3736248314380646, 0.4803315997123718, -9.249576568603516, -0.040824562311172485, 5.818027973175049, -69.04364776611328, -468.2389221191406, -143.0317840576172, 0.40673828125, 0.538818359375, -0.703125, 
368, 3712377723, -0.8013800382614136, 0.015097249299287796, -0.3454490602016449, 0.48808780312538147, -10.253042221069336, -1.3820083141326904, 4.467727184295654, -84.52691650390625, -537.5628662109375, -172.70516967773438, 0.346923828125, 0.552734375, -0.716552734375, 
369, 3712386056, -0.8082132935523987, 0.047185018658638, -0.31174084544181824, 0.49737831950187683, -8.579987525939941, -2.757206439971924, 2.7489490509033203, -81.9554672241211, -618.1550903320312, -216.1849365234375, 0.27001953125, 0.56591796875, -0.7294921875, 
370, 3712394389, -0.8129345178604126, 0.08052565157413483, -0.2725987732410431, 0.5082772970199585, -3.8057823181152344, -4.589382648468018, 1.561275601387024, -53.2904167175293, -677.329833984375, -257.5989990234375, 0.18212890625, 0.58056640625, -0.7353515625, 
371, 3712402722, -0.8147249817848206, 0.1124780923128128, -0.2299315333366394, 0.5202944278717041, 2.988846778869629, -5.206799507141113, 0.8824368715286255, -12.060331344604492, -694.6075439453125, -289.1485290527344, 0.08984375, 0.579833984375, -0.737548828125, 
372, 3712411055, -0.8136378526687622, 0.142056405544281, -0.18673175573349, 0.5319281816482544, 7.152316093444824, -4.158326148986816, 0.5599977970123291, 12.614656448364258, -675.298583984375, -298.88873291015625, -0.0078125, 0.5791015625, -0.7353515625, 
373, 3712419388, -0.81000155210495, 0.16802211105823517, -0.14558494091033936, 0.5426544547080994, 8.416363716125488, -2.469362258911133, -0.013824403285980225, 30.798259735107422, -620.8250732421875, -293.94305419921875, -0.09912109375, 0.5703125, -0.72265625, 
374, 3712427721, -0.8040851354598999, 0.18790432810783386, -0.10786327719688416, 0.553631067276001, 7.400267124176025, -1.8098633289337158, 2.2220778465270996, 68.18486022949219, -532.232666015625, -293.7095642089844, -0.184814453125, 0.56103515625, -0.70947265625, 
375, 3712436054, -0.7969599366188049, 0.20259760320186615, -0.07504409551620483, 0.564074695110321, 8.295390129089355, -1.2945038080215454, 6.614585876464844, 84.38005065917969, -437.8526306152344, -276.54193115234375, -0.259765625, 0.535888671875, -0.693115234375, 
376, 3712444387, -0.7903447151184082, 0.2125849425792694, -0.04699849337339401, 0.5726751685142517, 8.183721542358398, -2.1017441749572754, 9.395730018615723, 98.38268280029297, -354.7744140625, -234.24851989746094, -0.319580078125, 0.515869140625, -0.67822265625, 
377, 3712452720, -0.7846078872680664, 0.22051425278186798, -0.022272683680057526, 0.5790255665779114, 7.411144256591797, -3.597850799560547, 11.206183433532715, 95.77259826660156, -309.4840087890625, -191.78192138671875, -0.36572265625, 0.49169921875, -0.66552734375, 
378, 3712461053, -0.779192328453064, 0.2295180708169937, 0.00005280040204524994, 0.583252489566803, 6.782865524291992, -1.5286004543304443, 11.49954605102539, 65.31897735595703, -298.75555419921875, -159.37005615234375, -0.407958984375, 0.472900390625, -0.6513671875, 
379, 3712469386, -0.7730590105056763, 0.24223023653030396, 0.019768867641687393, 0.5859318971633911, 7.2637834548950195, 1.1916083097457886, 11.1253662109375, 2.4511806964874268, -305.3388366699219, -140.28738403320312, -0.445068359375, 0.45947265625, -0.632568359375, 
380, 3712477719, -0.7658164501190186, 0.2589421570301056, 0.03780760616064072, 0.5874073505401611, 7.51378059387207, -0.01359422504901886, 10.525521278381348, -57.0567512512207, -324.1100158691406, -129.73802185058594, -0.477783203125, 0.447998046875, -0.606201171875, 
381, 3712486052, -0.7573027014732361, 0.27823397517204285, 0.055293064564466476, 0.5882379412651062, 7.5907721519470215, -2.973263740539551, 9.24969482421875, -92.7935562133789, -342.0313720703125, -129.92210388183594, -0.5166015625, 0.4453125, -0.5703125, 
382, 3712494385, -0.747825026512146, 0.2988581359386444, 0.07300709187984467, 0.5883148312568665, 7.504199504852295, -3.7956507205963135, 7.512988090515137, -108.04939270019531, -358.84832763671875, -129.6890411376953, -0.55078125, 0.43896484375, -0.53173828125, 
383, 3712502718, -0.7376644015312195, 0.31969061493873596, 0.0913749560713768, 0.5876245498657227, 7.5202741622924805, -4.560085296630859, 6.131275177001953, -106.82855224609375, -371.06329345703125, -129.84771728515625, -0.583740234375, 0.431396484375, -0.48974609375, 
384, 3712511051, -0.7271437048912048, 0.33889681100845337, 0.11054180562496185, 0.5866807699203491, 7.902862548828125, -6.546890735626221, 5.60076379776001, -85.2325668334961, -367.6083679199219, -135.68142700195312, -0.6142578125, 0.425537109375, -0.444091796875, 
385, 3712519384, -0.7165802717208862, 0.3555360734462738, 0.1299716979265213, 0.5858471393585205, 8.100951194763184, -6.606159210205078, 5.882987022399902, -57.70732116699219, -349.0572509765625, -142.31593322753906, -0.64599609375, 0.4169921875, -0.403564453125, 
386, 3712527717, -0.7061777710914612, 0.3692559599876404, 0.1485886126756668, 0.5855655074119568, 8.226924896240234, -5.689853191375732, 6.427057266235352, -35.75160598754883, -314.5246887207031, -147.63803100585938, -0.6708984375, 0.40478515625, -0.365966796875, 
387, 3712536050, -0.6963826417922974, 0.38033902645111084, 0.16567470133304596, 0.5856177806854248, 8.618844985961914, -5.5437750816345215, 7.525622844696045, -20.0017147064209, -275.4852600097656, -143.6613311767578, -0.6962890625, 0.384765625, -0.330322265625, 
388, 3712544383, -0.6879995465278625, 0.3887290954589844, 0.18100474774837494, 0.5854795575141907, 8.679086685180664, -5.621478080749512, 7.8358283042907715, -0.5838876366615295, -234.738037109375, -127.35476684570312, -0.712646484375, 0.37060546875, -0.30126953125, 
389, 3712552716, -0.6811292767524719, 0.3953869342803955, 0.19389252364635468, 0.5849277377128601, 8.771450996398926, -4.378561496734619, 8.20906925201416, 5.308869361877441, -196.13804626464844, -102.57209777832031, -0.728271484375, 0.35498046875, -0.275390625, 
390, 3712561049, -0.6758383512496948, 0.4011102616786957, 0.20405429601669312, 0.5837100148200989, 8.95173454284668, -3.0163912773132324, 8.415679931640625, 2.4548981189727783, -162.48196411132812, -71.24454498291016, -0.74072265625, 0.346435546875, -0.256103515625, 
391, 3712569382, -0.6718096137046814, 0.4067608416080475, 0.21133925020694733, 0.5818551778793335, 8.750894546508789, -3.0145092010498047, 8.413195610046387, -11.168387413024902, -135.14280700683594, -39.57911682128906, -0.748291015625, 0.336181640625, -0.239013671875, 
392, 3712577715, -0.6688939332962036, 0.41258862614631653, 0.2162299007177353, 0.5793089866638184, 8.98344612121582, -2.619642972946167, 7.877011299133301, -23.774627685546875, -115.07115936279297, -10.320793151855469, -0.754638671875, 0.33349609375, -0.221923828125, 
393, 3712586048, -0.6667360067367554, 0.4190111458301544, 0.21919572353363037, 0.5760630965232849, 8.954936981201172, -2.8688888549804688, 7.277737617492676, -38.154842376708984, -103.82108306884766, 14.781074523925781, -0.75439453125, 0.337890625, -0.207275390625, 
394, 3712594381, -0.6648848056793213, 0.42616939544677734, 0.22095556557178497, 0.5722665786743164, 9.001073837280273, -3.167189359664917, 6.303170204162598, -51.076175689697266, -100.84650421142578, 31.494047164916992, -0.756591796875, 0.339111328125, -0.189208984375, 
395, 3712602714, -0.6629161238670349, 0.43382981419563293, 0.22212952375411987, 0.5683265328407288, 9.142850875854492, -3.4712681770324707, 5.87373685836792, -60.48080062866211, -100.6351089477539, 36.775115966796875, -0.75732421875, 0.342529296875, -0.173828125, 
396, 3712611047, -0.660695493221283, 0.44135016202926636, 0.22335012257099152, 0.5646315813064575, 9.247983932495117, -4.3461785316467285, 5.453960418701172, -61.654258728027344, -99.06217193603516, 31.60016441345215, -0.759033203125, 0.350830078125, -0.156982421875, 
397, 3712619380, -0.6584818363189697, 0.4478299021720886, 0.22528494894504547, 0.5613372325897217, 9.07239055633545, -5.01023530960083, 5.222982883453369, -47.27780532836914, -95.22933197021484, 20.75006103515625, -0.75537109375, 0.352783203125, -0.14111328125, 
398, 3712627713, -0.6563348770141602, 0.45285362005233765, 0.22843037545681, 0.5585429668426514, 8.786913871765137, -4.890952110290527, 5.030840873718262, -25.93093490600586, -91.66609191894531, 4.831741809844971, -0.757080078125, 0.355224609375, -0.1279296875, 
399, 3712636046, -0.6540126800537109, 0.4566917419433594, 0.23257039487361908, 0.5564294457435608, 8.778999328613281, -3.6693122386932373, 5.166464805603027, -10.776956558227539, -87.84614562988281, -12.638176918029785, -0.76171875, 0.353759765625, -0.11669921875, 
400, 3712644379, -0.6515721678733826, 0.45948097109794617, 0.23756884038448334, 0.5548824667930603, 8.822796821594238, -3.281341552734375, 5.145045280456543, 2.6333024501800537, -84.3615493774414, -27.323843002319336, -0.759765625, 0.35400390625, -0.108642578125, 
401, 3712652712, -0.649027407169342, 0.461736261844635, 0.24332940578460693, 0.5534946322441101, 8.534442901611328, -2.86104416847229, 5.3727641105651855, 12.091998100280762, -86.4510269165039, -36.164791107177734, -0.7666015625, 0.34765625, -0.094482421875, 
402, 3712661045, -0.6462454795837402, 0.4641209840774536, 0.2493896782398224, 0.5520560145378113, 8.3611478805542, -1.8651812076568604, 5.29067325592041, 11.841808319091797, -91.2293472290039, -38.924888610839844, -0.765625, 0.342041015625, -0.083984375, 
403, 3712669378, -0.6428844928741455, 0.46749937534332275, 0.2551041543483734, 0.5505165457725525, 8.477534294128418, -1.0725858211517334, 5.2985734939575195, -2.923816442489624, -98.32711029052734, -36.8727912902832, -0.766845703125, 0.33935546875, -0.0751953125, 
404, 3712677711, -0.6390643119812012, 0.4720168113708496, 0.2600386440753937, 0.548798143863678, 8.709501266479492, -1.5177682638168335, 5.147186279296875, -21.26969337463379, -102.82516479492188, -29.680238723754883, -0.771240234375, 0.33251953125, -0.06103515625, 
405, 3712686044, -0.6351337432861328, 0.4774458408355713, 0.26412931084632874, 0.5467073917388916, 8.835611343383789, -2.689393997192383, 4.621857643127441, -34.988529205322266, -105.0924301147461, -18.579845428466797, -0.7724609375, 0.329833984375, -0.045654296875, 
406, 3712694377, -0.6314706802368164, 0.4834338426589966, 0.26745545864105225, 0.5440648794174194, 9.162463188171387, -3.1889214515686035, 3.6874516010284424, -41.90602493286133, -105.28227996826172, -4.614712238311768, -0.77392578125, 0.3291015625, -0.031005859375, 
407, 3712702710, -0.628260612487793, 0.48970720171928406, 0.27009278535842896, 0.5408586263656616, 9.226541519165039, -4.084949016571045, 3.3324599266052246, -44.40515899658203, -103.50347137451172, 9.213708877563477, -0.772705078125, 0.330078125, -0.01513671875, 
408, 3712711043, -0.6255725622177124, 0.49571147561073303, 0.272204726934433, 0.537434995174408, 9.722379684448242, -4.630011558532715, 3.2217578887939453, -41.70574188232422, -96.5010986328125, 17.59703826904297, -0.77392578125, 0.332275390625, -0.00048828125, 
409, 3712719376, -0.6235156655311584, 0.5009960532188416, 0.2740558385848999, 0.5339730978012085, 9.821147918701172, -4.993019104003906, 2.826995611190796, -32.95606231689453, -86.82209777832031, 21.589208602905273, -0.76953125, 0.333251953125, 0.010986328125, 
410, 3712727709, -0.6219250559806824, 0.5053042769432068, 0.27597999572753906, 0.5307679176330566, 9.918990135192871, -4.4825544357299805, 2.78965163230896, -21.834766387939453, -76.75723266601562, 18.70687484741211, -0.76708984375, 0.3330078125, 0.0234375, 
411, 3712736042, -0.6206068992614746, 0.5085065960884094, 0.27832815051078796, 0.5280193090438843, 9.805249214172363, -4.465364933013916, 2.7331621646881104, -9.089852333068848, -68.09999084472656, 9.570133209228516, -0.767333984375, 0.333740234375, 0.033447265625, 
412, 3712744375, -0.6193690299987793, 0.5106180310249329, 0.28158706426620483, 0.5257021188735962, 9.512857437133789, -3.8060719966888428, 2.5528039932250977, 5.717631816864014, -64.62494659423828, -4.00068998336792, -0.765869140625, 0.3359375, 0.042236328125, 
413, 3712752708, -0.6178784370422363, 0.5121152997016907, 0.2856763005256653, 0.5237900018692017, 9.326884269714355, -2.8797032833099365, 2.5276100635528564, 13.63448715209961, -65.3967514038086, -17.559616088867188, -0.76416015625, 0.334716796875, 0.04931640625, 
414, 3712761041, -0.6160762310028076, 0.5134611129760742, 0.2902878522872925, 0.5220569372177124, 8.91128921508789, -2.5667641162872314, 2.601640224456787, 15.762388229370117, -68.6937484741211, -25.523164749145508, -0.76513671875, 0.332275390625, 0.056640625, 
415, 3712769374, -0.6140580177307129, 0.5150917768478394, 0.29499173164367676, 0.5201882123947144, 8.82554817199707, -2.524458646774292, 2.89048433303833, 13.051983833312988, -73.3536376953125, -25.51518440246582, -0.76513671875, 0.328857421875, 0.062744140625, 
416, 3712777707, -0.6120542287826538, 0.5173566937446594, 0.2990344166755676, 0.5179889798164368, 9.100519180297852, -2.426093816757202, 3.187311887741089, 4.3845391273498535, -74.5758056640625, -15.28405475616455, -0.76611328125, 0.32763671875, 0.072509765625, 
417, 3712786040, -0.6102105379104614, 0.5205038189888, 0.3018549978733063, 0.5153688192367554, 9.401060104370117, -2.5626962184906006, 3.319700002670288, -8.851181983947754, -72.92315673828125, 1.6419057846069336, -0.7626953125, 0.326416015625, 0.08349609375, 
418, 3712794373, -0.6087051630020142, 0.5244987607002258, 0.3033241331577301, 0.5122267603874207, 9.615119934082031, -3.0567514896392822, 3.095682382583618, -20.978870391845703, -69.91259765625, 21.69964599609375, -0.763427734375, 0.3271484375, 0.09375, 
419, 3712802706, -0.6075997948646545, 0.5291845798492432, 0.30364978313446045, 0.5085130333900452, 9.914551734924316, -3.366650342941284, 2.7572455406188965, -29.52518653869629, -67.6726303100586, 40.34315872192383, -0.760009765625, 0.330322265625, 0.101318359375, 
420, 3712811039, -0.6067317128181458, 0.5343356728553772, 0.3031396269798279, 0.5044510364532471, 10.10936450958252, -3.580596446990967, 2.617685556411743, -36.09653091430664, -65.4776382446289, 53.02739715576172, -0.75830078125, 0.331298828125, 0.11181640625, 
421, 3712819372, -0.6059222221374512, 0.5393270254135132, 0.3020774722099304, 0.5007357597351074, 10.406972885131836, -3.6338865756988525, 2.72267484664917, -39.58728790283203, -56.98097610473633, 53.84260940551758, -0.753173828125, 0.341552734375, 0.119140625, 
422, 3712827705, -0.6052692532539368, 0.5431358218193054, 0.3010129928588867, 0.49804258346557617, 10.848088264465332, -4.295025825500488, 2.789743185043335, -32.855491638183594, -40.57765197753906, 41.59834289550781, -0.744873046875, 0.344970703125, 0.13232421875, 
423, 3712836038, -0.6049572825431824, 0.5450136661529541, 0.3005429208278656, 0.49665212631225586, 10.858251571655273, -4.432516098022461, 2.7292182445526123, -15.5357027053833, -21.167278289794922, 20.56917381286621, -0.745849609375, 0.347412109375, 0.13671875, 
424, 3712844371, -0.6050173044204712, 0.5447895526885986, 0.3009876012802124, 0.4965555965900421, 10.541558265686035, -4.022311210632324, 2.7280826568603516, 5.616279602050781, -3.1779963970184326, -3.109529733657837, -0.74462890625, 0.351318359375, 0.135498046875, 
425, 3712852704, -0.60530686378479, 0.5428893566131592, 0.3022342026233673, 0.4975258708000183, 9.945891380310059, -3.373227119445801, 2.800992012023926, 22.364093780517578, 10.52756404876709, -23.45296859741211, -0.744384765625, 0.346923828125, 0.13232421875, 
426, 3712861037, -0.6056192517280579, 0.5400013327598572, 0.3039993643760681, 0.4992101192474365, 9.368032455444336, -2.804107904434204, 2.9549028873443604, 31.313371658325195, 18.402563095092773, -37.12357711791992, -0.747802734375, 0.3447265625, 0.129150390625, 
427, 3712869370, -0.6058575510978699, 0.536893904209137, 0.3057810366153717, 0.5011807680130005, 9.210158348083496, -2.3386154174804688, 3.147594451904297, 31.530155181884766, 21.581253051757812, -41.14957046508789, -0.752685546875, 0.341796875, 0.12939453125, 
428, 3712877703, -0.6060333251953125, 0.5341471433639526, 0.3072119355201721, 0.503024697303772, 9.104522705078125, -2.230252504348755, 3.277501106262207, 26.14962387084961, 20.821290969848633, -36.31922912597656, -0.751953125, 0.33642578125, 0.122314453125, 
429, 3712886036, -0.6062687635421753, 0.5320749878883362, 0.30791139602661133, 0.5045071840286255, 9.223634719848633, -2.3591699600219727, 3.5126659870147705, 17.46150016784668, 19.845651626586914, -24.77192497253418, -0.7568359375, 0.333984375, 0.12109375, 
430, 3712894369, -0.6066519618034363, 0.5306904911994934, 0.3077816665172577, 0.5055827498435974, 9.469308853149414, -2.586379289627075, 3.5391557216644287, 8.747085571289062, 19.62996482849121, -11.26630973815918, -0.755859375, 0.332763671875, 0.11376953125, 
431, 3712902702, -0.6072725057601929, 0.529853880405426, 0.30682510137557983, 0.5062962174415588, 9.769805908203125, -2.8847532272338867, 3.446249008178711, 1.7263745069503784, 21.08749008178711, 1.6486862897872925, -0.755859375, 0.332275390625, 0.11572265625, 
432, 3712911035, -0.6080442070960999, 0.5294214487075806, 0.3053536117076874, 0.5067118406295776, 9.883427619934082, -3.236691474914551, 3.337702512741089, -2.915452241897583, 21.028451919555664, 10.760673522949219, -0.7568359375, 0.331787109375, 0.11181640625, 
433, 3712919368, -0.608893632888794, 0.5292636752128601, 0.3035854399204254, 0.5069190859794617, 10.054838180541992, -3.41703462600708, 3.11489200592041, -5.79866886138916, 20.417577743530273, 16.242687225341797, -0.75830078125, 0.335205078125, 0.110107421875, 
434, 3712927701, -0.6097027063369751, 0.529175341129303, 0.30169400572776794, 0.5071678757667542, 10.078978538513184, -3.517186403274536, 3.2014992237091064, -7.748912811279297, 21.08388328552246, 16.91698455810547, -0.7548828125, 0.336181640625, 0.10546875, 
435, 3712936034, -0.6104657053947449, 0.5289242267608643, 0.2997986972332001, 0.5076359510421753, 10.231719017028809, -3.7046408653259277, 3.1030163764953613, -7.61448860168457, 23.670156478881836, 13.993782997131348, -0.7578125, 0.33447265625, 0.103759765625, 
436, 3712944367, -0.6112480163574219, 0.5282384157180786, 0.2980457842350006, 0.5084400773048401, 10.392618179321289, -3.937614679336548, 2.949965715408325, -4.259458541870117, 28.016950607299805, 8.595043182373047, -0.75390625, 0.337158203125, 0.103515625, 
437, 3712952700, -0.6122187376022339, 0.5268740653991699, 0.29652050137519836, 0.509578287601471, 10.221126556396484, -4.170862197875977, 2.9660537242889404, 3.077989101409912, 34.06368637084961, 2.554356575012207, -0.75537109375, 0.34130859375, 0.097412109375, 
438, 3712961033, -0.6133344769477844, 0.5247724056243896, 0.29524993896484375, 0.5111407041549683, 9.62899398803711, -4.018928527832031, 3.153332471847534, 10.347372055053711, 40.735557556152344, -4.738704681396484, -0.7568359375, 0.3408203125, 0.09326171875, 
439, 3712969366, -0.614576518535614, 0.5220751166343689, 0.2943657338619232, 0.5129178762435913, 9.39102554321289, -4.07169246673584, 2.9926209449768066, 18.17054557800293, 43.73988342285156, -10.983010292053223, -0.758056640625, 0.337158203125, 0.08349609375, 
440, 3712977699, -0.615779459476471, 0.5192235112190247, 0.2939290702342987, 0.5146171450614929, 9.12960147857666, -3.6521389484405518, 2.8227157592773438, 22.620925903320312, 40.313995361328125, -14.327981948852539, -0.758544921875, 0.3369140625, 0.0810546875, 
441, 3712986032, -0.6166637539863586, 0.5166846513748169, 0.2936169505119324, 0.5162889957427979, 9.114012718200684, -3.0404374599456787, 2.894247531890869, 18.733871459960938, 35.577354431152344, -16.0859317779541, -0.758544921875, 0.3388671875, 0.073974609375, 
442, 3712994365, -0.6175047159194946, 0.5144280791282654, 0.2929290235042572, 0.5179254412651062, 9.091686248779297, -3.580343008041382, 3.353703737258911, 13.463065147399902, 36.31873321533203, -12.172735214233398, -0.763916015625, 0.335693359375, 0.071044921875, 
443, 3713002698, -0.6184874773025513, 0.5122805833816528, 0.2916354835033417, 0.5196086168289185, 9.347325325012207, -3.5216774940490723, 3.5040957927703857, 9.082822799682617, 41.602169036865234, -6.9479875564575195, -0.76171875, 0.33447265625, 0.060791015625, 
444, 3713011031, -0.6196283102035522, 0.5101760029792786, 0.28928500413894653, 0.521630048751831, 9.56956958770752, -3.262699842453003, 3.657907724380493, 0.8764956593513489, 53.28434371948242, -0.9693859219551086, -0.76416015625, 0.334228515625, 0.05615234375, 
445, 3713019364, -0.6211274862289429, 0.5076368451118469, 0.2855026125907898, 0.524401068687439, 9.855420112609863, -3.5546276569366455, 4.333009719848633, -6.114340782165527, 75.30428314208984, 3.4262287616729736, -0.76513671875, 0.335205078125, 0.048828125, 
