sep=,
PacketCounter,SampleTimeFine,Quat_W,Quat_X,Quat_Y,Quat_Z,Acc_X,Acc_Y,Acc_Z,Gyr_X,Gyr_Y,Gyr_Z,Mag_X,Mag_Y,Mag_Z,
0, 3283853198, -0.06003546342253685, 0.6938827633857727, 0.03212255239486694, 0.7168622016906738, 0, 0, 0, 0, 0, 0, -0.8037109375, -0.30615234375, 0.07568359375, 
1, 3283861531, -0.05993206799030304, 0.6938960552215576, 0.031993791460990906, 0.7168636918067932, 9.79450511932373, -0.6099573969841003, 0.17267854511737823, -2.3530004024505615, -0.5967860221862793, -0.053917963057756424, -0.807861328125, -0.308837890625, 0.069091796875, 
2, 3283869864, -0.05993138626217842, 0.6939297318458557, 0.03198454529047012, 0.7168315052986145, 9.784744262695312, -0.6729893684387207, 0.17362093925476074, -0.19646117091178894, -1.174438238143921, -0.027304774150252342, -0.80615234375, -0.303466796875, 0.069580078125, 
3, 3283878197, -0.06005813926458359, 0.693980872631073, 0.03206658735871315, 0.7167677879333496, 9.75378704071045, -0.7043073773384094, 0.1736447662115097, 1.9185187816619873, -1.6634907722473145, 0.2719079256057739, -0.8056640625, -0.303466796875, 0.072021484375, 
4, 3283886530, -0.06030953302979469, 0.6940436363220215, 0.03224525973200798, 0.7166777849197388, 9.710996627807617, -0.727940559387207, 0.1922002136707306, 4.061892509460449, -2.0571305751800537, 0.7250493764877319, -0.80712890625, -0.305419921875, 0.073974609375, 
5, 3283894863, -0.060674816370010376, 0.6941164135932922, 0.032500606030225754, 0.7165650725364685, 9.673561096191406, -0.713317334651947, 0.2550678551197052, 5.909626007080078, -2.381150245666504, 1.014618158340454, -0.80712890625, -0.306884765625, 0.07421875, 
6, 3283903196, -0.061074770987033844, 0.6942105889320374, 0.032770171761512756, 0.7164275646209717, 9.64428424835205, -0.6057499647140503, 0.3200662136077881, 6.369401454925537, -2.8271968364715576, 1.3749592304229736, -0.80859375, -0.30517578125, 0.075927734375, 
7, 3283911529, -0.06145108863711357, 0.6943280696868896, 0.03298298642039299, 0.716271698474884, 9.636381149291992, -0.4710248112678528, 0.41287335753440857, 5.5782551765441895, -3.1931469440460205, 1.583382248878479, -0.80517578125, -0.305419921875, 0.07373046875, 
8, 3283919862, -0.061720676720142365, 0.6944343447685242, 0.033081114292144775, 0.7161409258842468, 9.697864532470703, -0.4397358298301697, 0.46849215030670166, 3.4234836101531982, -2.7969210147857666, 1.7275137901306152, -0.80859375, -0.30322265625, 0.075439453125, 
9, 3283928195, -0.06183040142059326, 0.6945069432258606, 0.033030226826667786, 0.7160634398460388, 9.796833992004395, -0.4259363114833832, 0.45858871936798096, 0.43560847640037537, -1.9029583930969238, 1.3892006874084473, -0.81103515625, -0.3037109375, 0.076904296875, 
10, 3283936528, -0.06177881360054016, 0.694528341293335, 0.03283948823809624, 0.7160558104515076, 9.870946884155273, -0.4800533652305603, 0.44670045375823975, -2.471133232116699, -0.6863846778869629, 1.1794203519821167, -0.80859375, -0.30517578125, 0.076416015625, 
11, 3283944861, -0.06164359301328659, 0.6944916844367981, 0.03252597898244858, 0.716117262840271, 9.954524040222168, -0.5676769018173218, 0.39168474078178406, -4.458824157714844, 0.6135250329971313, 1.3168920278549194, -0.80712890625, -0.30419921875, 0.07763671875, 
12, 3283953194, -0.06150362268090248, 0.6944048404693604, 0.03215924650430679, 0.7162300944328308, 10.05264663696289, -0.6435978412628174, 0.2908777594566345, -5.01129674911499, 1.6374540328979492, 1.8394222259521484, -0.8076171875, -0.30419921875, 0.077392578125, 
13, 3283961527, -0.06144231557846069, 0.6942887306213379, 0.03175248205661774, 0.7163660526275635, 10.162442207336426, -0.6598328351974487, 0.17803692817687988, -4.637609958648682, 2.218231201171875, 2.836405038833618, -0.8076171875, -0.3017578125, 0.072998046875, 
14, 3283969860, -0.0614737942814827, 0.6941542625427246, 0.03134523704648018, 0.7165117263793945, 10.20135498046875, -0.6104270219802856, 0.09752635657787323, -3.748054027557373, 2.5312881469726562, 3.866147994995117, -0.80712890625, -0.30126953125, 0.072998046875, 
15, 3283978193, -0.061599165201187134, 0.6940528154373169, 0.030933648347854614, 0.7166171669960022, 10.155160903930664, -0.5730541944503784, 0.024452868849039078, -2.9028098583221436, 1.8684687614440918, 4.751325607299805, -0.80810546875, -0.30224609375, 0.073974609375, 
16, 3283986526, -0.0617937333881855, 0.6940152049064636, 0.030548688024282455, 0.7166533470153809, 10.114884376525879, -0.5044992566108704, 0.04144582524895668, -2.0069265365600586, 0.584094226360321, 5.394626617431641, -0.8076171875, -0.298828125, 0.074951171875, 
17, 3283994859, -0.062029048800468445, 0.694066047668457, 0.030197013169527054, 0.716598629951477, 10.034804344177246, -0.4271664023399353, 0.058206286281347275, -1.3260233402252197, -1.1614775657653809, 5.46217155456543, -0.80908203125, -0.302001953125, 0.072998046875, 
18, 3284003192, -0.062247760593891144, 0.6942073702812195, 0.029910214245319366, 0.7164547443389893, 10.04039478302002, -0.3638990521430969, 0.08323010802268982, -0.8861501216888428, -2.9708669185638428, 4.924605846405029, -0.8076171875, -0.30029296875, 0.076416015625, 
19, 3284011525, -0.06242036074399948, 0.6944219470024109, 0.02967080846428871, 0.716241717338562, 10.008997917175293, -0.3029177188873291, 0.13932693004608154, -0.8918620944023132, -4.4037017822265625, 3.9764435291290283, -0.80859375, -0.30029296875, 0.073486328125, 
20, 3284019858, -0.06254443526268005, 0.6946883797645569, 0.02949584648013115, 0.7159796953201294, 9.999083518981934, -0.2778570055961609, 0.19830943644046783, -0.7462193965911865, -5.466640472412109, 3.07661509513855, -0.810546875, -0.30029296875, 0.076904296875, 
21, 3284028191, -0.06263966858386993, 0.6949690580368042, 0.029335618019104004, 0.7157056927680969, 10.01555347442627, -0.27017346024513245, 0.21571770310401917, -0.8818981051445007, -5.732593059539795, 2.540586233139038, -0.8076171875, -0.29736328125, 0.077880859375, 
22, 3284036524, -0.06269440799951553, 0.6952356100082397, 0.029191497713327408, 0.715447723865509, 10.03930377960205, -0.285774290561676, 0.2804765999317169, -1.107610821723938, -5.48649263381958, 2.0962307453155518, -0.8076171875, -0.29931640625, 0.079833984375, 
23, 3284044857, -0.0627421960234642, 0.6954726576805115, 0.029034622013568878, 0.7152193784713745, 10.001777648925781, -0.2918510138988495, 0.3264240026473999, -1.2824279069900513, -4.890218734741211, 1.9876774549484253, -0.808349609375, -0.295166015625, 0.078369140625, 
24, 3284053190, -0.06278608739376068, 0.6956764459609985, 0.0288933627307415, 0.7150229811668396, 9.976964950561523, -0.3173568546772003, 0.39960503578186035, -1.1522819995880127, -4.2836222648620605, 1.8826847076416016, -0.80908203125, -0.298828125, 0.077392578125, 
25, 3284061523, -0.06285136938095093, 0.695816695690155, 0.028748806565999985, 0.7148866653442383, 9.992081642150879, -0.3176572620868683, 0.409821093082428, -0.946830153465271, -3.062361001968384, 1.9264849424362183, -0.808837890625, -0.294921875, 0.07666015625, 
26, 3284069856, -0.06291663646697998, 0.6958945393562317, 0.02861059084534645, 0.7148109674453735, 9.961817741394043, -0.2813262641429901, 0.3951856195926666, -0.8578463196754456, -1.8866163492202759, 1.9107577800750732, -0.80712890625, -0.2998046875, 0.078369140625, 
27, 3284078189, -0.06299286335706711, 0.6959062814712524, 0.028475020080804825, 0.7147980332374573, 9.907139778137207, -0.27667108178138733, 0.36878395080566406, -0.6928907036781311, -0.6230151057243347, 1.7926764488220215, -0.807373046875, -0.2958984375, 0.076416015625, 
28, 3284086522, -0.06307903677225113, 0.6958743929862976, 0.028369195759296417, 0.7148256301879883, 9.857134819030762, -0.29209235310554504, 0.32904887199401855, -0.285240113735199, 0.1605372279882431, 1.6738007068634033, -0.807373046875, -0.295654296875, 0.080322265625, 
29, 3284094855, -0.06317324936389923, 0.6958005428314209, 0.028303679078817368, 0.7148919105529785, 9.852018356323242, -0.3105764389038086, 0.28580614924430847, 0.21163760125637054, 0.9229961037635803, 1.2001421451568604, -0.808837890625, -0.296142578125, 0.078857421875, 
30, 3284103188, -0.06327037513256073, 0.695706307888031, 0.02829718589782715, 0.7149751782417297, 9.785876274108887, -0.3497382700443268, 0.24994894862174988, 0.8285307884216309, 1.2235279083251953, 0.758296549320221, -0.8046875, -0.29638671875, 0.075439453125, 
31, 3284111521, -0.06340751051902771, 0.6956404447555542, 0.028352264314889908, 0.715025007724762, 9.709563255310059, -0.396267831325531, 0.2289683073759079, 1.8078911304473877, 0.5987455248832703, 0.48757973313331604, -0.8095703125, -0.29931640625, 0.077392578125, 
32, 3284119854, -0.06355892866849899, 0.6956146359443665, 0.028451263904571533, 0.715032696723938, 9.683439254760742, -0.4231775104999542, 0.2196182757616043, 2.354499101638794, -0.24126051366329193, 0.3757224380970001, -0.807861328125, -0.294677734375, 0.077392578125, 
33, 3284128187, -0.06374935805797577, 0.695644736289978, 0.028571337461471558, 0.7149816751480103, 9.732767105102539, -0.41701531410217285, 0.2484334409236908, 2.912992000579834, -1.3450803756713867, 0.5163701772689819, -0.810302734375, -0.295166015625, 0.07861328125, 
34, 3284136520, -0.06393609195947647, 0.6957091093063354, 0.02869267761707306, 0.7148974537849426, 9.747953414916992, -0.4308469891548157, 0.2557048201560974, 2.8687045574188232, -2.013406753540039, 0.6246927380561829, -0.808349609375, -0.293701171875, 0.080322265625, 
35, 3284144853, -0.06411965191364288, 0.6958074569702148, 0.02878084033727646, 0.7147817611694336, 9.755412101745605, -0.3643221855163574, 0.30072373151779175, 2.4988861083984375, -2.6092705726623535, 0.8393142819404602, -0.807861328125, -0.296875, 0.077392578125, 
36, 3284153186, -0.064240962266922, 0.6959202289581299, 0.028813745826482773, 0.7146598100662231, 9.793694496154785, -0.310602068901062, 0.3509615957736969, 1.346450686454773, -2.7966132164001465, 0.8794006705284119, -0.809326171875, -0.295166015625, 0.078125, 
37, 3284161519, -0.06427586823701859, 0.6960317492485046, 0.02877616137266159, 0.7145495414733887, 9.849132537841797, -0.3519882261753082, 0.40071943402290344, -0.1730753779411316, -2.6373698711395264, 0.5845552682876587, -0.808837890625, -0.294189453125, 0.07763671875, 
38, 3284169852, -0.06423255801200867, 0.6961131691932678, 0.02871309593319893, 0.7144766449928284, 9.892782211303711, -0.37332868576049805, 0.3891448676586151, -1.1644229888916016, -1.998166561126709, 0.12447236478328705, -0.810302734375, -0.294189453125, 0.07861328125, 
39, 3284178185, -0.06413544714450836, 0.6961526274681091, 0.028593916445970535, 0.7144516706466675, 9.921944618225098, -0.37711089849472046, 0.3790430724620819, -2.2101755142211914, -1.093292474746704, -0.0328630656003952, -0.809326171875, -0.295166015625, 0.07861328125, 
40, 3284186518, -0.06400765478610992, 0.6961610913276672, 0.028463874012231827, 0.7144601941108704, 9.94079875946045, -0.4196335971355438, 0.3384663760662079, -2.5977187156677246, -0.4789349436759949, -0.16582655906677246, -0.807373046875, -0.295654296875, 0.078369140625, 
41, 3284194851, -0.0638933852314949, 0.6961477398872375, 0.02832620218396187, 0.7144888043403625, 9.945452690124512, -0.4844125509262085, 0.31674471497535706, -2.530071496963501, -0.05281655117869377, -0.0909305289387703, -0.809326171875, -0.295654296875, 0.078125, 
42, 3284203184, -0.0638272687792778, 0.696116030216217, 0.028225872665643692, 0.7145295739173889, 9.947970390319824, -0.5408177971839905, 0.29840558767318726, -1.693203330039978, 0.22295910120010376, 0.11256174743175507, -0.810791015625, -0.294921875, 0.07666015625, 
43, 3284211517, -0.06384842842817307, 0.6960697770118713, 0.02818811684846878, 0.7145742177963257, 9.94217300415039, -0.5825632810592651, 0.2526169419288635, -0.23180881142616272, 0.3898870646953583, 0.2565649747848511, -0.808349609375, -0.295166015625, 0.079833984375, 
44, 3284219850, -0.06393870711326599, 0.6960229873657227, 0.028228189796209335, 0.7146100997924805, 9.912924766540527, -0.5869551301002502, 0.2387690544128418, 1.1989126205444336, 0.2614060640335083, 0.3031828999519348, -0.807861328125, -0.293701171875, 0.077880859375, 
45, 3284228183, -0.06409220397472382, 0.6960006356239319, 0.028335850685834885, 0.7146139144897461, 9.895448684692383, -0.5614538788795471, 0.27916383743286133, 2.4602088928222656, -0.3102652430534363, 0.20933234691619873, -0.807373046875, -0.294677734375, 0.078857421875, 
46, 3284236516, -0.06426005065441132, 0.6959772109985352, 0.028484109789133072, 0.7146157622337341, 9.914118766784668, -0.5257520079612732, 0.2971572279930115, 2.99759578704834, -0.3601874113082886, 0.0700165182352066, -0.810302734375, -0.296875, 0.07958984375, 
47, 3284244849, -0.06443773955106735, 0.6959640383720398, 0.02864440158009529, 0.7146062254905701, 9.866889953613281, -0.49140027165412903, 0.3052452802658081, 3.20796537399292, -0.5664331316947937, -0.041443832218647, -0.811279296875, -0.29736328125, 0.07861328125, 
48, 3284253182, -0.06455321609973907, 0.6959697008132935, 0.028780102729797363, 0.7145847082138062, 9.790787696838379, -0.45596936345100403, 0.3224842846393585, 2.3551905155181885, -0.8768521547317505, -0.29223281145095825, -0.810302734375, -0.29541015625, 0.07763671875, 
49, 3284261515, -0.06458906829357147, 0.6959880590438843, 0.028883136808872223, 0.7145594954490662, 9.810295104980469, -0.4862664043903351, 0.32681548595428467, 1.2670466899871826, -1.0332013368606567, -0.8608943819999695, -0.808837890625, -0.29638671875, 0.076904296875, 
50, 3284269848, -0.06455107778310776, 0.6960030198097229, 0.02895820513367653, 0.7145453691482544, 9.896788597106934, -0.5408621430397034, 0.3262842297554016, 0.2806423604488373, -0.9057961106300354, -1.2230027914047241, -0.808349609375, -0.292724609375, 0.080322265625, 
51, 3284278181, -0.06451375037431717, 0.6960064768791199, 0.029016543179750443, 0.7145429849624634, 9.916543960571289, -0.5596598982810974, 0.33781448006629944, 0.12754608690738678, -0.6570307612419128, -1.1772558689117432, -0.812255859375, -0.29541015625, 0.07861328125, 
52, 3284286514, -0.06447643041610718, 0.6959949731826782, 0.029088817536830902, 0.7145547270774841, 9.987150192260742, -0.6012393832206726, 0.31361639499664307, 0.27288123965263367, -0.39568865299224854, -1.2238481044769287, -0.810791015625, -0.29833984375, 0.0771484375, 
53, 3284294847, -0.06450018286705017, 0.6959413886070251, 0.02919832617044449, 0.714600145816803, 10.059603691101074, -0.6918931603431702, 0.28618577122688293, 1.2507047653198242, 0.34047722816467285, -1.1320466995239258, -0.810302734375, -0.294921875, 0.0771484375, 
54, 3284303180, -0.06458969414234161, 0.69585120677948, 0.029359467327594757, 0.7146733403205872, 10.109750747680664, -0.7440764307975769, 0.2794409990310669, 2.404369592666626, 0.937083899974823, -0.9131986498832703, -0.808349609375, -0.296142578125, 0.078369140625, 
55, 3284311513, -0.06477785110473633, 0.6957274079322815, 0.029552120715379715, 0.7147689461708069, 10.104026794433594, -0.7293306589126587, 0.25680190324783325, 3.684696674346924, 1.5013654232025146, -0.3875945508480072, -0.807373046875, -0.296142578125, 0.079345703125, 
56, 3284319846, -0.06502357125282288, 0.695594310760498, 0.029738977551460266, 0.7148682475090027, 10.067754745483398, -0.6529974937438965, 0.2548660635948181, 4.179564476013184, 1.6514908075332642, 0.3343810737133026, -0.811279296875, -0.296142578125, 0.07958984375, 
57, 3284328179, -0.06529518961906433, 0.6954733729362488, 0.029885195195674896, 0.7149550914764404, 10.017873764038086, -0.6067899465560913, 0.21722444891929626, 4.0223188400268555, 1.4655826091766357, 0.8853432536125183, -0.809326171875, -0.296630859375, 0.079833984375, 
58, 3284336512, -0.06553031504154205, 0.6953824162483215, 0.029973331838846207, 0.7150183320045471, 9.957475662231445, -0.5772221684455872, 0.18490134179592133, 3.0848124027252197, 0.9752492904663086, 1.2243221998214722, -0.807861328125, -0.293212890625, 0.077392578125, 
59, 3284344845, -0.06571966409683228, 0.6953436136245728, 0.029995165765285492, 0.7150378227233887, 9.839733123779297, -0.5390682816505432, 0.18091531097888947, 1.9678266048431396, 0.0937609151005745, 1.35843825340271, -0.809326171875, -0.293701171875, 0.08056640625, 
60, 3284353178, -0.06585024297237396, 0.6953787803649902, 0.029988419264554977, 0.7149918675422668, 9.753790855407715, -0.5489739179611206, 0.2091074287891388, 1.0836485624313354, -1.2670848369598389, 1.2544187307357788, -0.808837890625, -0.294189453125, 0.0791015625, 
61, 3284361511, -0.06595031172037125, 0.6954742670059204, 0.02997181937098503, 0.7148905396461487, 9.748289108276367, -0.5911239981651306, 0.2537831962108612, 0.6652401089668274, -2.38407039642334, 1.0142852067947388, -0.809814453125, -0.293701171875, 0.0791015625, 
62, 3284369844, -0.06603727489709854, 0.6956072449684143, 0.02997632324695587, 0.7147530317306519, 9.76065444946289, -0.6104239225387573, 0.2852865159511566, 0.7252286672592163, -3.13187837600708, 0.8410306572914124, -0.809814453125, -0.294677734375, 0.078125, 
63, 3284378177, -0.06616159528493881, 0.6957499980926514, 0.030000515282154083, 0.7146015167236328, 9.757027626037598, -0.6168876886367798, 0.34751734137535095, 1.2751147747039795, -3.3541324138641357, 0.9261977672576904, -0.809326171875, -0.294677734375, 0.0791015625, 
64, 3284386510, -0.06628848612308502, 0.6958792209625244, 0.030029304325580597, 0.7144626379013062, 9.779862403869629, -0.4901087284088135, 0.4159834384918213, 1.3512150049209595, -3.1132569313049316, 1.0006073713302612, -0.809326171875, -0.295654296875, 0.081298828125, 
65, 3284394843, -0.06639333069324493, 0.6959663033485413, 0.03002043440937996, 0.7143684029579163, 9.823161125183105, -0.47344860434532166, 0.44723913073539734, 0.7913134098052979, -2.238607406616211, 0.975864052772522, -0.809814453125, -0.293701171875, 0.07958984375, 
66, 3284403176, -0.06646599620580673, 0.6959963440895081, 0.029974035918712616, 0.7143344283103943, 9.859307289123535, -0.5670701861381531, 0.45534276962280273, 0.13904687762260437, -1.089552640914917, 1.0517076253890991, -0.808837890625, -0.293701171875, 0.07958984375, 
67, 3284411509, -0.06653115153312683, 0.6959564685821533, 0.0298929400742054, 0.714370608329773, 9.868396759033203, -0.5500750541687012, 0.4423244893550873, -0.23611201345920563, 0.3067176342010498, 1.1046522855758667, -0.811279296875, -0.29541015625, 0.07763671875, 
68, 3284419842, -0.06658802926540375, 0.6958560347557068, 0.029787853360176086, 0.7144675850868225, 9.883269309997559, -0.4763166606426239, 0.41425061225891113, -0.5233500599861145, 1.4922724962234497, 1.2847203016281128, -0.808349609375, -0.290771484375, 0.076171875, 
69, 3284428175, -0.06664804369211197, 0.695712149143219, 0.029640354216098785, 0.7146082520484924, 9.906848907470703, -0.4447520077228546, 0.33373773097991943, -0.8802589178085327, 2.3857228755950928, 1.5523124933242798, -0.807373046875, -0.291748046875, 0.078857421875, 
70, 3284436508, -0.06668949127197266, 0.6955376863479614, 0.029483765363693237, 0.7147806286811829, 9.978533744812012, -0.4915660321712494, 0.25282612442970276, -1.13937246799469, 2.9804084300994873, 1.5268261432647705, -0.811767578125, -0.295166015625, 0.0791015625, 
71, 3284444841, -0.06674197316169739, 0.6953511834144592, 0.029344316571950912, 0.7149627804756165, 9.980928421020508, -0.5132695436477661, 0.15761198103427887, -0.8535175323486328, 3.1896510124206543, 1.3479106426239014, -0.811279296875, -0.292724609375, 0.07861328125, 
72, 3284453174, -0.06681498885154724, 0.6951810121536255, 0.02926028147339821, 0.7151249051094055, 9.933483123779297, -0.5369796752929688, 0.14740683138370514, -0.12366552650928497, 2.7884037494659424, 1.153601050376892, -0.809814453125, -0.293212890625, 0.07861328125, 
73, 3284461507, -0.06694687157869339, 0.6950582265853882, 0.029247041791677475, 0.7152324318885803, 9.903647422790527, -0.5296860933303833, 0.11332390457391739, 1.1124390363693237, 1.7673949003219604, 1.0164111852645874, -0.813720703125, -0.291748046875, 0.077880859375, 
74, 3284469840, -0.06712549924850464, 0.6949794292449951, 0.029304809868335724, 0.715289831161499, 9.871255874633789, -0.5385989546775818, 0.13350114226341248, 2.239567995071411, 0.800073504447937, 0.9702287912368774, -0.811767578125, -0.292236328125, 0.07861328125, 
75, 3284478173, -0.06734426319599152, 0.6949553489685059, 0.02941369265317917, 0.7152883410453796, 9.919061660766602, -0.4951111674308777, 0.15180276334285736, 3.1008212566375732, -0.32227832078933716, 0.8441043496131897, -0.809326171875, -0.291259765625, 0.07958984375, 
76, 3284486506, -0.06756572425365448, 0.6949838995933533, 0.029560722410678864, 0.715233564376831, 9.940485954284668, -0.5210164189338684, 0.20736107230186462, 3.4715864658355713, -1.3918261528015137, 0.685910701751709, -0.809326171875, -0.293701171875, 0.07861328125, 
77, 3284494839, -0.06778252124786377, 0.6950359344482422, 0.02972152829170227, 0.7151558995246887, 9.96148681640625, -0.44458961486816406, 0.2614419162273407, 3.5518105030059814, -1.8454543352127075, 0.43110036849975586, -0.812255859375, -0.291748046875, 0.07861328125, 
78, 3284503172, -0.06795677542686462, 0.6950966715812683, 0.029846560209989548, 0.7150750756263733, 9.9505615234375, -0.36289840936660767, 0.2764069139957428, 2.7863292694091797, -1.9565948247909546, 0.4688301682472229, -0.810791015625, -0.294189453125, 0.0791015625, 
79, 3284511505, -0.06805597245693207, 0.6951614618301392, 0.029853593558073044, 0.7150022983551025, 9.912917137145996, -0.34245339035987854, 0.31125953793525696, 0.9022998213768005, -1.828446626663208, 0.7467445731163025, -0.809814453125, -0.290771484375, 0.07958984375, 
80, 3284519838, -0.06805378198623657, 0.6952133178710938, 0.029738083481788635, 0.714957058429718, 9.869380950927734, -0.3184790313243866, 0.3630293011665344, -1.2725406885147095, -1.3778151273727417, 0.9963295459747314, -0.811279296875, -0.293701171875, 0.07861328125, 
81, 3284528171, -0.06797140091657639, 0.695252537727356, 0.029523730278015137, 0.7149354815483093, 9.883410453796387, -0.3392486572265625, 0.32781434059143066, -3.007111072540283, -0.9563329815864563, 1.0223537683486938, -0.809326171875, -0.290771484375, 0.0791015625, 
82, 3284536504, -0.06782342493534088, 0.6952782273292542, 0.029286619275808334, 0.7149343490600586, 9.862433433532715, -0.41159769892692566, 0.3005078136920929, -3.8555052280426025, -0.6434550881385803, 0.6731804609298706, -0.807861328125, -0.287353515625, 0.0791015625, 
83, 3284544837, -0.06768739223480225, 0.6952929496765137, 0.029086880385875702, 0.7149410843849182, 9.830330848693848, -0.4775787889957428, 0.2850172221660614, -3.356976270675659, -0.47852519154548645, 0.3217276334762573, -0.813232421875, -0.289794921875, 0.077392578125, 
84, 3284553170, -0.06760885566473007, 0.6953026056289673, 0.028985656797885895, 0.7149431109428406, 9.783535957336426, -0.5055834054946899, 0.26866644620895386, -1.842995524406433, -0.554087221622467, 0.04737353324890137, -0.811279296875, -0.292724609375, 0.07763671875, 
85, 3284561503, -0.06764225661754608, 0.6953023672103882, 0.02899700030684471, 0.7149398326873779, 9.820918083190918, -0.5302903056144714, 0.2547556459903717, 0.35397592186927795, -0.5578012466430664, -0.026305822655558586, -0.808349609375, -0.292724609375, 0.0771484375, 
86, 3284569836, -0.06777175515890121, 0.6952911019325256, 0.029141172766685486, 0.7149327993392944, 9.835949897766113, -0.5604328513145447, 0.2735273540019989, 2.582542896270752, -0.5817761421203613, -0.25373461842536926, -0.810791015625, -0.293701171875, 0.0771484375, 
87, 3284578169, -0.06799586117267609, 0.6952630281448364, 0.02938985824584961, 0.7149285674095154, 9.854948997497559, -0.5066679120063782, 0.28056570887565613, 4.53465461730957, -0.4338794946670532, -0.43193286657333374, -0.809326171875, -0.292236328125, 0.0791015625, 
88, 3284586502, -0.06823903322219849, 0.6952139735221863, 0.029687009751796722, 0.7149408459663391, 9.870198249816895, -0.47846049070358276, 0.31604376435279846, 5.200931549072266, -0.12256410717964172, -0.63041752576828, -0.811279296875, -0.291259765625, 0.078125, 
89, 3284594835, -0.06847561150789261, 0.6951541304588318, 0.02995872125029564, 0.7149649262428284, 9.925191879272461, -0.4342005252838135, 0.31721600890159607, 4.895354747772217, 0.13031242787837982, -0.567867636680603, -0.811279296875, -0.291748046875, 0.07861328125, 
90, 3284603168, -0.0686299055814743, 0.695087194442749, 0.030156049877405167, 0.7150070071220398, 9.926751136779785, -0.3743101954460144, 0.3268706798553467, 3.375354051589966, 0.39559903740882874, -0.5865147709846497, -0.812744140625, -0.291748046875, 0.078125, 
91, 3284611501, -0.06868267059326172, 0.6950303316116333, 0.030216701328754425, 0.7150545716285706, 9.88191032409668, -0.34366586804389954, 0.30634942650794983, 1.0496584177017212, 0.44823628664016724, -0.3760170042514801, -0.810302734375, -0.291259765625, 0.07568359375, 
92, 3284619834, -0.06862936168909073, 0.6949900984764099, 0.030149925500154495, 0.7151017785072327, 9.878605842590332, -0.422067791223526, 0.2757706940174103, -1.2337353229522705, 0.34665027260780334, -0.09725724905729294, -0.808349609375, -0.291259765625, 0.0791015625, 
93, 3284628167, -0.06848683953285217, 0.6949806213378906, 0.029982268810272217, 0.7151317000389099, 9.868666648864746, -0.48598143458366394, 0.25473952293395996, -3.089230537414551, -0.05276532471179962, -0.07625357806682587, -0.808837890625, -0.289794921875, 0.0791015625, 
94, 3284636500, -0.06829066574573517, 0.6950081586837769, 0.02977067232131958, 0.715132474899292, 9.828871726989746, -0.5075360536575317, 0.2530898451805115, -4.068718433380127, -0.6857443451881409, -0.04610562324523926, -0.811767578125, -0.289794921875, 0.08154296875, 
95, 3284644833, -0.06811866164207458, 0.6950742602348328, 0.02957276999950409, 0.7150928378105164, 9.786067008972168, -0.6346637010574341, 0.24507834017276764, -3.732480764389038, -1.4421581029891968, 0.01917225494980812, -0.811279296875, -0.291259765625, 0.0791015625, 
96, 3284653166, -0.06799031049013138, 0.6951552629470825, 0.029429424554109573, 0.7150322198867798, 9.807880401611328, -0.7117156982421875, 0.2459663450717926, -2.774815559387207, -1.8360283374786377, 0.04878230765461922, -0.811279296875, -0.293212890625, 0.08154296875, 
97, 3284661499, -0.06795695424079895, 0.6952346563339233, 0.029377974569797516, 0.7149602770805359, 9.890151023864746, -0.7051708102226257, 0.26179230213165283, -0.9585359692573547, -1.9623323678970337, 0.01745610311627388, -0.808349609375, -0.292724609375, 0.07958984375, 
98, 3284669832, -0.06806584447622299, 0.6952890157699585, 0.029443200677633286, 0.7148942947387695, 9.975425720214844, -0.697986900806427, 0.25578469038009644, 1.5715229511260986, -1.7246575355529785, 0.3801024258136749, -0.810302734375, -0.288818359375, 0.07861328125, 
99, 3284678165, -0.06828516721725464, 0.6953042149543762, 0.029572371393442154, 0.7148534059524536, 10.03239631652832, -0.623129665851593, 0.2815004289150238, 3.2934911251068115, -1.1015914678573608, 0.7196447253227234, -0.810791015625, -0.290283203125, 0.07666015625, 
100, 3284686498, -0.06858029216527939, 0.6952868103981018, 0.029754895716905594, 0.7148345708847046, 10.075494766235352, -0.5520994067192078, 0.29945626854896545, 4.553199291229248, -0.6005001068115234, 1.0170515775680542, -0.810302734375, -0.290283203125, 0.080078125, 
101, 3284694831, -0.06890662014484406, 0.6952486634254456, 0.029916968196630478, 0.7148333787918091, 10.041655540466309, -0.47323620319366455, 0.2989494502544403, 4.672741413116455, -0.18367968499660492, 1.3974742889404297, -0.811279296875, -0.290283203125, 0.07763671875, 
102, 3284703164, -0.06917423754930496, 0.695203423500061, 0.030005980283021927, 0.714847981929779, 9.985451698303223, -0.33771416544914246, 0.34161901473999023, 3.3848564624786377, 0.06748069822788239, 1.597393274307251, -0.812255859375, -0.288818359375, 0.079345703125, 
103, 3284711497, -0.06934992223978043, 0.6951776146888733, 0.02999155968427658, 0.7148566842079163, 9.898720741271973, -0.2725742757320404, 0.31058597564697266, 1.487738847732544, -0.10524889081716537, 1.6018502712249756, -0.809814453125, -0.290771484375, 0.08056640625, 
104, 3284719830, -0.06936177611351013, 0.6951892971992493, 0.02985650673508644, 0.7148498296737671, 9.794083595275879, -0.2628539800643921, 0.29438698291778564, -1.30819571018219, -0.5883334279060364, 1.2687627077102661, -0.809326171875, -0.288818359375, 0.08056640625, 
105, 3284728163, -0.06919737905263901, 0.695259153842926, 0.029598906636238098, 0.7148082852363586, 9.684015274047852, -0.20841139554977417, 0.313723623752594, -4.242024898529053, -1.4332958459854126, 0.673872172832489, -0.810791015625, -0.288330078125, 0.07958984375, 
106, 3284736496, -0.06887924671173096, 0.6953709125518799, 0.02928813174366951, 0.7147431373596191, 9.643145561218262, -0.33126649260520935, 0.31299450993537903, -6.26234769821167, -2.0949623584747314, -0.19856154918670654, -0.810791015625, -0.292724609375, 0.07861328125, 
107, 3284744829, -0.06849543750286102, 0.6955125331878662, 0.02897791564464569, 0.7146551012992859, 9.677251815795898, -0.4698677659034729, 0.27045437693595886, -6.890357494354248, -2.6232049465179443, -0.9031579494476318, -0.807373046875, -0.290771484375, 0.080322265625, 
108, 3284753162, -0.0681212767958641, 0.6956493258476257, 0.028729505836963654, 0.7145675420761108, 9.704022407531738, -0.56175696849823, 0.2835538387298584, -6.200770854949951, -2.6387526988983154, -1.313830852508545, -0.808837890625, -0.289794921875, 0.078125, 
109, 3284761495, -0.06784805655479431, 0.6957617402076721, 0.028571993112564087, 0.7144904136657715, 9.74350643157959, -0.6516136527061462, 0.308328777551651, -4.302396774291992, -2.3308184146881104, -1.2976938486099243, -0.812744140625, -0.290283203125, 0.076904296875, 
110, 3284769828, -0.06770413368940353, 0.6958135962486267, 0.028516825288534164, 0.7144559025764465, 9.762812614440918, -0.703600287437439, 0.2759163975715637, -2.0399434566497803, -1.3861143589019775, -0.9838684797286987, -0.810791015625, -0.289794921875, 0.080078125, 
111, 3284778161, -0.0677143782377243, 0.6957918405532837, 0.028541531413793564, 0.7144750356674194, 9.8233642578125, -0.6990830898284912, 0.2909991145133972, 0.2556172311306, -0.1469232439994812, -0.40117013454437256, -0.812255859375, -0.289306640625, 0.080078125, 
112, 3284786494, -0.0678357481956482, 0.6956995129585266, 0.028623759746551514, 0.7145501971244812, 9.85319709777832, -0.6412835121154785, 0.2581893503665924, 1.940444827079773, 1.0542947053909302, 0.14926695823669434, -0.808349609375, -0.290283203125, 0.07958984375, 
113, 3284794827, -0.06801041960716248, 0.6955550312995911, 0.028726521879434586, 0.7146700024604797, 9.86846923828125, -0.5566458702087402, 0.2559347450733185, 2.6790060997009277, 2.0105767250061035, 0.3260308504104614, -0.810302734375, -0.288818359375, 0.07763671875, 
114, 3284803160, -0.0681653767824173, 0.6953827738761902, 0.028825227171182632, 0.7148187160491943, 9.855389595031738, -0.4737708270549774, 0.24864351749420166, 2.467329978942871, 2.5424306392669678, 0.221960186958313, -0.811279296875, -0.292236328125, 0.0810546875, 
115, 3284811493, -0.0682554692029953, 0.6952183842658997, 0.028875164687633514, 0.714968204498291, 9.828540802001953, -0.4166935086250305, 0.19072844088077545, 1.3565683364868164, 2.5070831775665283, -0.03644905611872673, -0.808837890625, -0.293212890625, 0.078125, 
116, 3284819826, -0.06825239956378937, 0.6950897574424744, 0.02889389917254448, 0.7150927186012268, 9.832992553710938, -0.4301096796989441, 0.15688762068748474, 0.13955916464328766, 1.8940576314926147, -0.5266799330711365, -0.812744140625, -0.290771484375, 0.078369140625, 
117, 3284828159, -0.06816425919532776, 0.6950122714042664, 0.02889382094144821, 0.715176522731781, 9.80521011352539, -0.4976608455181122, 0.1409100443124771, -0.877774178981781, 1.0016573667526245, -1.2120399475097656, -0.811279296875, -0.290771484375, 0.07763671875, 
118, 3284836492, -0.06796300411224365, 0.6950036287307739, 0.028844032436609268, 0.7152061462402344, 9.819305419921875, -0.485415518283844, 0.1126030683517456, -2.5031254291534424, -0.2060665339231491, -1.6843152046203613, -0.812744140625, -0.291748046875, 0.0771484375, 
119, 3284844825, -0.06769942492246628, 0.6950557827949524, 0.0287494920194149, 0.7151842713356018, 9.82446575164795, -0.5559383034706116, 0.08986291289329529, -3.5770533084869385, -1.2599642276763916, -1.8838757276535034, -0.809814453125, -0.290283203125, 0.07958984375, 
120, 3284853158, -0.06740117818117142, 0.6951420903205872, 0.028630416840314865, 0.7151332497596741, 9.845638275146484, -0.7150339484214783, 0.08486609905958176, -4.168383598327637, -1.8855661153793335, -1.8636916875839233, -0.812255859375, -0.289794921875, 0.0791015625, 
121, 3284861491, -0.06713996827602386, 0.695227324962616, 0.028520412743091583, 0.7150793075561523, 9.913167953491211, -0.8525010943412781, 0.08103122562170029, -3.7104785442352295, -1.8757305145263672, -1.6699458360671997, -0.809814453125, -0.292236328125, 0.0771484375, 
122, 3284869824, -0.06698201596736908, 0.695286750793457, 0.02849123254418373, 0.71503746509552, 9.959404945373535, -0.9522556662559509, 0.07413408905267715, -1.9212979078292847, -1.561187505722046, -1.3619344234466553, -0.810791015625, -0.291259765625, 0.0771484375, 
123, 3284878157, -0.06699049472808838, 0.6952888369560242, 0.0285576730966568, 0.7150320410728455, 10.068047523498535, -1.0029932260513306, 0.057186588644981384, 0.6360142827033997, -0.6483219265937805, -0.7861777544021606, -0.807861328125, -0.291748046875, 0.078125, 
124, 3284886490, -0.06721724569797516, 0.6952189803123474, 0.02873043343424797, 0.7150718569755554, 10.124268531799316, -1.0084432363510132, 0.00420036306604743, 3.8292641639709473, 0.4569450914859772, 0.36304333806037903, -0.814208984375, -0.293701171875, 0.080078125, 
125, 3284894823, -0.06765249371528625, 0.6951040625572205, 0.028986617922782898, 0.7151322960853577, 10.097994804382324, -0.9657843708992004, -0.03575697913765907, 6.655795097351074, 1.1288834810256958, 1.4835894107818604, -0.810302734375, -0.293212890625, 0.0830078125, 
126, 3284903156, -0.06826379895210266, 0.6949712038040161, 0.02933588996529579, 0.7151889801025391, 10.02375602722168, -0.9305417537689209, 0.0009686967823654413, 9.29239559173584, 1.2252182960510254, 2.4177658557891846, -0.812255859375, -0.291259765625, 0.07861328125, 
127, 3284911489, -0.06899000704288483, 0.6948760747909546, 0.029737256467342377, 0.7151950597763062, 9.965826988220215, -0.7929030656814575, 0.03257278725504875, 10.880454063415527, 0.3975713849067688, 3.0129640102386475, -0.809326171875, -0.289306640625, 0.07763671875, 
128, 3284919822, -0.06971695274114609, 0.6948272585868835, 0.030145738273859024, 0.7151549458503723, 9.966352462768555, -0.6242824196815491, 0.07188684493303299, 10.939675331115723, -0.534338653087616, 3.115088701248169, -0.808837890625, -0.291748046875, 0.076171875, 
129, 3284928155, -0.07035960257053375, 0.6948381662368774, 0.030486557632684708, 0.7150669693946838, 9.93521499633789, -0.4769706726074219, 0.09693919122219086, 9.433889389038086, -1.5170029401779175, 2.90190052986145, -0.810302734375, -0.293701171875, 0.07861328125, 
130, 3284936488, -0.07080283761024475, 0.6949175000190735, 0.030712448060512543, 0.714936375617981, 9.85353946685791, -0.34561166167259216, 0.12455384433269501, 6.348578453063965, -2.6023552417755127, 2.2089080810546875, -0.812255859375, -0.286865234375, 0.079345703125, 
131, 3284944821, -0.071047343313694, 0.6950562000274658, 0.030797652900218964, 0.7147735357284546, 9.853776931762695, -0.3795315623283386, 0.17019271850585938, 2.9602246284484863, -3.4042086601257324, 1.5559239387512207, -0.812744140625, -0.289794921875, 0.078857421875, 
132, 3284953154, -0.0711100772023201, 0.6952620148658752, 0.03077095001935959, 0.7145683765411377, 9.790225982666016, -0.41538918018341064, 0.2383321076631546, 0.1365623027086258, -4.4743971824646, 1.0104944705963135, -0.812255859375, -0.290283203125, 0.08203125, 
133, 3284961487, -0.07104578614234924, 0.6955081820487976, 0.030665062367916107, 0.7143396139144897, 9.788199424743652, -0.4784201681613922, 0.26448556780815125, -1.9014981985092163, -5.0357584953308105, 0.46165814995765686, -0.812255859375, -0.287841796875, 0.08154296875, 
134, 3284969820, -0.07089439034461975, 0.6957587003707886, 0.030499614775180817, 0.7141177654266357, 9.861454963684082, -0.5630125999450684, 0.2467075139284134, -3.3100507259368896, -5.026435375213623, 0.2669643759727478, -0.810791015625, -0.289306640625, 0.0810546875, 
135, 3284978153, -0.07075507938861847, 0.6959761381149292, 0.030303023755550385, 0.7139280438423157, 9.916810035705566, -0.651930034160614, 0.2298099845647812, -3.4653751850128174, -4.324246406555176, 0.5444945693016052, -0.812255859375, -0.291748046875, 0.07958984375, 
136, 3284986486, -0.07068685442209244, 0.696131706237793, 0.03011038899421692, 0.7137914299964905, 9.901511192321777, -0.7015286684036255, 0.20386864244937897, -2.7248167991638184, -3.2168664932250977, 1.2211971282958984, -0.806884765625, -0.28662109375, 0.08056640625, 
137, 3284994819, -0.07073698937892914, 0.6962326169013977, 0.02996062859892845, 0.7136942148208618, 9.846670150756836, -0.7311820387840271, 0.18199993669986725, -1.1590697765350342, -2.260763645172119, 1.8154728412628174, -0.809326171875, -0.291259765625, 0.083984375, 
138, 3285003152, -0.0709059089422226, 0.6963016390800476, 0.029874660074710846, 0.7136138677597046, 9.86313533782959, -0.7008162140846252, 0.19293609261512756, 0.6541236042976379, -1.8363358974456787, 2.4377965927124023, -0.8115234375, -0.28662109375, 0.08203125, 
139, 3285011485, -0.07115651667118073, 0.696377694606781, 0.029824577271938324, 0.7135167121887207, 9.811120986938477, -0.5755969882011414, 0.2001805156469345, 1.804894208908081, -2.030440092086792, 2.818551778793335, -0.811279296875, -0.289306640625, 0.08203125, 
140, 3285019818, -0.0714394748210907, 0.6964833736419678, 0.029814820736646652, 0.7133857607841492, 9.783315658569336, -0.49296316504478455, 0.2065509557723999, 2.479060649871826, -2.707271099090576, 2.891066074371338, -0.811767578125, -0.287841796875, 0.08154296875, 
141, 3285028151, -0.07167774438858032, 0.6966404914855957, 0.029777511954307556, 0.7132096290588379, 9.75705623626709, -0.3722265958786011, 0.26951947808265686, 1.7683684825897217, -3.601259231567383, 2.6868438720703125, -0.8115234375, -0.2880859375, 0.0859375, 
142, 3285036484, -0.07182027399539948, 0.6968445777893066, 0.0297078974545002, 0.7129990458488464, 9.718741416931152, -0.2591974437236786, 0.32485562562942505, 0.481893390417099, -4.434336185455322, 2.2062437534332275, -0.814208984375, -0.289306640625, 0.082763671875, 
143, 3285044817, -0.0718063935637474, 0.6970943808555603, 0.02954249083995819, 0.7127630114555359, 9.72674560546875, -0.20205502212047577, 0.3596995174884796, -1.988330602645874, -5.057453632354736, 1.5404527187347412, -0.8115234375, -0.287109375, 0.08544921875, 
144, 3285053150, -0.07163801044225693, 0.6973612904548645, 0.02928832173347473, 0.7125295400619507, 9.757963180541992, -0.22084635496139526, 0.3683649003505707, -4.360797882080078, -5.212804317474365, 0.9756591320037842, -0.8095703125, -0.2861328125, 0.08642578125, 
145, 3285061483, -0.07135668396949768, 0.6976268291473389, 0.02898217737674713, 0.7123100161552429, 9.806061744689941, -0.3246353268623352, 0.38449811935424805, -5.98041296005249, -5.024514675140381, 0.2636089324951172, -0.80859375, -0.28369140625, 0.0849609375, 
146, 3285069816, -0.07102708518505096, 0.6978564858436584, 0.02870159223675728, 0.712129533290863, 9.875988006591797, -0.4197550415992737, 0.3714308738708496, -6.150208950042725, -4.379701137542725, -0.41784507036209106, -0.8125, -0.28759765625, 0.08544921875, 
147, 3285078149, -0.07073098421096802, 0.6980465054512024, 0.0284857377409935, 0.7119814157485962, 9.909896850585938, -0.4675431549549103, 0.35751473903656006, -5.1829633712768555, -3.6960830688476562, -0.8448343873023987, -0.809326171875, -0.28759765625, 0.0849609375, 
148, 3285086482, -0.07054361701011658, 0.6981899738311768, 0.028394971042871475, 0.7118629217147827, 9.940922737121582, -0.5637992024421692, 0.35740572214126587, -2.867488145828247, -3.0677146911621094, -0.9415281414985657, -0.810546875, -0.2880859375, 0.08984375, 
149, 3285094815, -0.07049314677715302, 0.6982763409614563, 0.028396349400281906, 0.7117831110954285, 9.993568420410156, -0.6034989356994629, 0.3583509922027588, -0.607134222984314, -2.14275860786438, -0.6309810876846313, -0.808837890625, -0.28759765625, 0.08251953125, 
150, 3285103148, -0.07056650519371033, 0.6983017325401306, 0.028495483100414276, 0.7117469310760498, 10.011479377746582, -0.5941271185874939, 0.32777151465415955, 1.5781314373016357, -1.2041252851486206, -0.3391580879688263, -0.8125, -0.287109375, 0.084228515625, 
151, 3285111481, -0.0707332044839859, 0.6982866525650024, 0.028649140149354935, 0.711739182472229, 9.987010955810547, -0.5452980399131775, 0.327562153339386, 3.0588388442993164, -0.5233755707740784, -0.07528023421764374, -0.8115234375, -0.28759765625, 0.087890625, 
152, 3285119814, -0.07091018557548523, 0.6982570886611938, 0.028814349323511124, 0.7117437124252319, 9.9386625289917, -0.4751482307910919, 0.34281086921691895, 3.2574007511138916, -0.30119776725769043, -0.02026085928082466, -0.80908203125, -0.28662109375, 0.08935546875, 
153, 3285128147, -0.07103830575942993, 0.6982589960098267, 0.028921902179718018, 0.7117248177528381, 9.849932670593262, -0.3421926498413086, 0.4155174791812897, 2.181884765625, -0.7650972008705139, 0.007594620808959007, -0.807861328125, -0.287109375, 0.08447265625, 
154, 3285136480, -0.07105571031570435, 0.6983237266540527, 0.02894832193851471, 0.7116585373878479, 9.796921730041504, -0.3299293518066406, 0.4429320693016052, 0.3028755187988281, -1.8303931951522827, -0.1428249627351761, -0.81005859375, -0.2861328125, 0.08642578125, 
155, 3285144813, -0.07090312242507935, 0.6984706521034241, 0.02886725589632988, 0.7115327715873718, 9.77910327911377, -0.3057745397090912, 0.5117449164390564, -2.428972005844116, -3.1424310207366943, -0.7632785439491272, -0.81201171875, -0.287109375, 0.0849609375, 
156, 3285153146, -0.07058429718017578, 0.698662281036377, 0.028714057058095932, 0.7113826870918274, 9.826854705810547, -0.2802502512931824, 0.5109953284263611, -4.77382755279541, -3.8358850479125977, -1.5752242803573608, -0.81103515625, -0.28662109375, 0.0849609375, 
157, 3285161479, -0.07015855610370636, 0.698846161365509, 0.028498992323875427, 0.7112526297569275, 9.909351348876953, -0.348102331161499, 0.49164336919784546, -6.434501647949219, -3.524365186691284, -2.1264681816101074, -0.8115234375, -0.28662109375, 0.0888671875, 
158, 3285169812, -0.06967095285654068, 0.6989821195602417, 0.02825535461306572, 0.7111768126487732, 9.940105438232422, -0.43417787551879883, 0.46963319182395935, -7.256462097167969, -2.5553276538848877, -2.4512569904327393, -0.8095703125, -0.28564453125, 0.08447265625, 
159, 3285178145, -0.06919968873262405, 0.6990666389465332, 0.02801058068871498, 0.7111494541168213, 9.963604927062988, -0.5113731622695923, 0.45494475960731506, -7.0646891593933105, -1.5601632595062256, -2.4205968379974365, -0.810302734375, -0.28857421875, 0.08447265625, 
160, 3285186478, -0.06880298256874084, 0.6991198658943176, 0.02780764549970627, 0.7111434936523438, 9.979471206665039, -0.5955237150192261, 0.5011316537857056, -5.932333469390869, -1.0801266431808472, -2.0525710582733154, -0.807373046875, -0.28955078125, 0.087158203125, 
161, 3285194811, -0.06855180114507675, 0.6991381645202637, 0.027684040367603302, 0.7111546993255615, 10.045159339904785, -0.5962216854095459, 0.452995628118515, -3.737039804458618, -0.573861300945282, -1.4944623708724976, -0.81103515625, -0.2890625, 0.08642578125, 
162, 3285203144, -0.0684424415230751, 0.6991071701049805, 0.027633264660835266, 0.7111976146697998, 10.044662475585938, -0.5861040949821472, 0.4478744566440582, -1.6211504936218262, 0.1792612075805664, -0.7832576632499695, -0.808837890625, -0.2890625, 0.08740234375, 
163, 3285211477, -0.0684514120221138, 0.699052631855011, 0.027655206620693207, 0.7112493515014648, 9.993021965026855, -0.5092681050300598, 0.47020643949508667, 0.24742066860198975, 0.48750290274620056, -0.41602638363838196, -0.8125, -0.2880859375, 0.0888671875, 
164, 3285219810, -0.068511463701725, 0.6989758610725403, 0.027745407074689865, 0.7113156914710999, 9.920064926147461, -0.42799171805381775, 0.5310149192810059, 1.4212698936462402, 0.7837827801704407, -0.5211472511291504, -0.809326171875, -0.28759765625, 0.08349609375, 
165, 3285228143, -0.0685577541589737, 0.6988937258720398, 0.027871955186128616, 0.7113868594169617, 9.86021900177002, -0.34771621227264404, 0.5813865065574646, 1.718497395515442, 0.8530692458152771, -1.080203652381897, -0.810546875, -0.2900390625, 0.087890625, 
166, 3285236476, -0.0685519203543663, 0.698809027671814, 0.028054192662239075, 0.7114635705947876, 9.825102806091309, -0.37861084938049316, 0.5894630551338196, 1.6910902261734009, 0.8487660884857178, -2.0641744136810303, -0.81103515625, -0.28759765625, 0.087890625, 
167, 3285244809, -0.06846344470977783, 0.6987338066101074, 0.02824385091662407, 0.7115384340286255, 9.822099685668945, -0.40805187821388245, 0.6781833171844482, 0.9847776293754578, 0.7057874798774719, -3.004601240158081, -0.81005859375, -0.2861328125, 0.087890625, 
168, 3285253142, -0.06830458343029022, 0.6986714601516724, 0.02843022346496582, 0.7116074562072754, 9.8219575881958, -0.4705195426940918, 0.7419672012329102, 0.24242593348026276, 0.49587884545326233, -3.585378408432007, -0.807373046875, -0.2880859375, 0.08251953125, 
169, 3285261475, -0.06809306889772415, 0.6986103653907776, 0.0285707525908947, 0.7116820216178894, 9.808122634887695, -0.501188337802887, 0.761713981628418, -0.6534191370010376, 0.5551500916481018, -3.728663921356201, -0.807861328125, -0.291015625, 0.087158203125, 
170, 3285269808, -0.06783607602119446, 0.6985223293304443, 0.02862459048628807, 0.7117907404899597, 9.876465797424316, -0.5376678109169006, 0.775619626045227, -1.9882279634475708, 1.213487148284912, -3.3185033798217773, -0.807861328125, -0.2919921875, 0.086181640625, 
171, 3285278141, -0.06754916161298752, 0.6983761191368103, 0.028529811650514603, 0.7119651436805725, 9.967208862304688, -0.5101495385169983, 0.7192400693893433, -3.7136545181274414, 2.537768840789795, -2.334635019302368, -0.807861328125, -0.28955078125, 0.085693359375, 
172, 3285286474, -0.06723887473344803, 0.6981491446495056, 0.028286553919315338, 0.7122269868850708, 9.99170970916748, -0.5066035985946655, 0.6994192004203796, -5.338263034820557, 4.299951553344727, -1.1849658489227295, -0.811279296875, -0.28955078125, 0.08349609375, 
173, 3285294807, -0.06691841781139374, 0.6978554129600525, 0.027932681143283844, 0.7125590443611145, 9.95461654663086, -0.528190016746521, 0.6478046178817749, -6.536931991577148, 5.7191596031188965, -0.37878331542015076, -0.809326171875, -0.29150390625, 0.0849609375, 
174, 3285303140, -0.06659340858459473, 0.6975520849227905, 0.027533341199159622, 0.7129018902778625, 9.940103530883789, -0.5427480936050415, 0.6064583659172058, -6.9716572761535645, 5.963160991668701, 0.06568771600723267, -0.808837890625, -0.293701171875, 0.083251953125, 
175, 3285311473, -0.06628042459487915, 0.6972705721855164, 0.027145110070705414, 0.7132211923599243, 9.906225204467773, -0.5036536455154419, 0.6355329751968384, -6.735289096832275, 5.503795146942139, 0.04250682517886162, -0.810791015625, -0.296142578125, 0.08203125, 
176, 3285319806, -0.06599016487598419, 0.6970415115356445, 0.026855118572711945, 0.7134828567504883, 9.827400207519531, -0.4920251667499542, 0.7091341018676758, -5.602397441864014, 4.371005535125732, -0.5403066873550415, -0.813232421875, -0.290283203125, 0.080810546875, 
177, 3285328139, -0.0656902864575386, 0.6968677639961243, 0.026652101427316666, 0.7136880159378052, 9.788424491882324, -0.39822864532470703, 0.8102024793624878, -4.7835612297058105, 3.1795332431793213, -1.4575780630111694, -0.809814453125, -0.291748046875, 0.080078125, 
178, 3285336472, -0.06530225276947021, 0.6967225670814514, 0.02652858942747116, 0.7138698697090149, 9.815136909484863, -0.38691848516464233, 0.8894411325454712, -4.952358722686768, 2.5961687564849854, -2.9925365447998047, -0.808349609375, -0.294189453125, 0.078857421875, 
179, 3285344805, -0.06479690968990326, 0.6965377330780029, 0.026406779885292053, 0.7141007781028748, 9.920491218566895, -0.4453504681587219, 0.975239634513855, -6.0845842361450195, 3.3904919624328613, -4.28316068649292, -0.813232421875, -0.29443359375, 0.07861328125, 
180, 3285353138, -0.06414541602134705, 0.6962764263153076, 0.02620641142129898, 0.7144218683242798, 10.014761924743652, -0.5393615365028381, 1.0437018871307373, -8.17783260345459, 5.043200492858887, -5.0085062980651855, -0.807861328125, -0.296142578125, 0.080322265625, 
181, 3285361471, -0.06337133795022964, 0.6958972215652466, 0.025853238999843597, 0.7148730158805847, 10.07270336151123, -0.5867171883583069, 1.0001698732376099, -10.826628684997559, 7.506266117095947, -4.971186637878418, -0.808837890625, -0.293212890625, 0.07568359375, 
182, 3285369804, -0.06251074373722076, 0.6953786015510559, 0.02530748024582863, 0.7154728770256042, 10.188039779663086, -0.6834455132484436, 0.8661133646965027, -13.447271347045898, 10.466758728027344, -4.095101833343506, -0.810302734375, -0.29541015625, 0.0751953125, 
183, 3285378137, -0.06163592264056206, 0.6947242021560669, 0.024562537670135498, 0.7162099480628967, 10.206926345825195, -0.7872447967529297, 0.7080855369567871, -15.460222244262695, 13.24252700805664, -2.5566604137420654, -0.810546875, -0.2978515625, 0.07275390625, 
184, 3285386470, -0.06078715622425079, 0.6939845681190491, 0.023697849363088608, 0.7170281410217285, 10.192363739013672, -0.918408989906311, 0.5322210788726807, -16.360971450805664, 15.006529808044434, -1.1923431158065796, -0.810791015625, -0.294921875, 0.07275390625, 
185, 3285394803, -0.06004639342427254, 0.6932079195976257, 0.022781942039728165, 0.7178710103034973, 10.217156410217285, -0.9474614858627319, 0.3183498978614807, -15.948015213012695, 15.652235984802246, 0.256744384765625, -0.80908203125, -0.297607421875, 0.06884765625, 
186, 3285403136, -0.05944903939962387, 0.6924498677253723, 0.021893851459026337, 0.7186797261238098, 10.179827690124512, -0.9395870566368103, 0.15222477912902832, -14.175922393798828, 15.198943138122559, 1.5141990184783936, -0.81005859375, -0.294677734375, 0.06591796875, 
187, 3285411469, -0.05900203809142113, 0.6917711496353149, 0.021122906357049942, 0.7193926572799683, 10.079947471618652, -0.9018215537071228, 0.06323592364788055, -11.66854190826416, 13.41659927368164, 1.913370966911316, -0.8115234375, -0.295166015625, 0.063720703125, 
188, 3285419802, -0.058739591389894485, 0.6912185549736023, 0.020547177642583847, 0.7199618816375732, 9.941404342651367, -0.755989670753479, 0.01446295715868473, -7.994562149047852, 10.730303764343262, 2.1081671714782715, -0.810546875, -0.2978515625, 0.05859375, 
189, 3285428135, -0.058584075421094894, 0.6908148527145386, 0.020191919058561325, 0.7203719019889832, 9.836681365966797, -0.6770581007003784, -0.011878615245223045, -4.852232933044434, 7.562206268310547, 1.170378565788269, -0.810546875, -0.297119140625, 0.060546875, 
190, 3285436468, -0.05846855416893959, 0.6905430555343628, 0.02005074918270111, 0.7206459045410156, 9.816656112670898, -0.5521145462989807, 0.04552476853132248, -2.4379630088806152, 4.836108684539795, -0.2505072355270386, -0.80908203125, -0.293701171875, 0.05810546875, 
191, 3285444801, -0.058293506503105164, 0.6903651356697083, 0.020003188401460648, 0.7208318114280701, 9.85436725616455, -0.3266732394695282, 0.14951898157596588, -2.0674784183502197, 2.9465205669403076, -1.702322006225586, -0.81298828125, -0.294921875, 0.056396484375, 
192, 3285453134, -0.057998109608888626, 0.6902111768722534, 0.019950557500123978, 0.7210046648979187, 9.90764045715332, -0.27071842551231384, 0.17807376384735107, -3.3352291584014893, 2.5866150856018066, -2.7597544193267822, -0.810546875, -0.296630859375, 0.06005859375, 
193, 3285461467, -0.057535815984010696, 0.6900303363800049, 0.019779939204454422, 0.7212193012237549, 9.92969799041748, -0.3030053973197937, 0.16029590368270874, -6.034816265106201, 3.2708740234375, -3.4026975631713867, -0.8134765625, -0.2978515625, 0.056884765625, 
194, 3285469800, -0.05693460628390312, 0.6897818446159363, 0.019450366497039795, 0.7215136289596558, 9.898942947387695, -0.31156373023986816, 0.14922858774662018, -8.9435453414917, 4.811212062835693, -3.2862045764923096, -0.81201171875, -0.2978515625, 0.057373046875, 
195, 3285478133, -0.05624646320939064, 0.6894428730010986, 0.018956787884235382, 0.7219045162200928, 9.811856269836426, -0.3909665048122406, 0.06438298523426056, -11.365704536437988, 6.712045192718506, -2.7615225315093994, -0.81005859375, -0.29736328125, 0.052978515625, 
196, 3285486466, -0.05551353842020035, 0.6890459060668945, 0.01833708956837654, 0.7223560810089111, 9.711295127868652, -0.5471983551979065, -0.03432580456137657, -12.996588706970215, 7.9681925773620605, -2.0046727657318115, -0.810546875, -0.29736328125, 0.055419921875, 
197, 3285494799, -0.05483085289597511, 0.6886305809020996, 0.017674408853054047, 0.7228206992149353, 9.616825103759766, -0.7013422846794128, -0.12121248990297318, -12.932245254516602, 8.30519962310791, -1.1789722442626953, -0.811279296875, -0.301025390625, 0.050537109375, 
198, 3285503132, -0.05422622337937355, 0.6882303357124329, 0.017060093581676483, 0.7232621908187866, 9.54526424407959, -0.8029190897941589, -0.2426488697528839, -11.723484992980957, 7.935202121734619, -0.7725254893302917, -0.812255859375, -0.30029296875, 0.052001953125, 
199, 3285511465, -0.0537685863673687, 0.6878656148910522, 0.016566697508096695, 0.7236546874046326, 9.530586242675781, -0.8855500221252441, -0.3265188932418823, -9.16917896270752, 7.052560329437256, -0.4817013442516327, -0.811279296875, -0.297607421875, 0.048095703125, 
200, 3285519798, -0.05347985774278641, 0.6875366568565369, 0.016243070363998413, 0.7239959239959717, 9.583995819091797, -0.8477522134780884, -0.42196622490882874, -5.871806621551514, 6.133878707885742, -0.28982505202293396, -0.811767578125, -0.298095703125, 0.047119140625, 
201, 3285528131, -0.053368955850601196, 0.6872434020042419, 0.01606341078877449, 0.7242865562438965, 9.61241340637207, -0.7504273653030396, -0.4475156366825104, -2.6921069622039795, 5.229747772216797, 0.09670653194189072, -0.812255859375, -0.301025390625, 0.050537109375, 
202, 3285536464, -0.05343234911561012, 0.6869709491729736, 0.016053274273872375, 0.7245405316352844, 9.641864776611328, -0.6975231170654297, -0.5005214214324951, 0.5561747550964355, 4.593361854553223, 0.3300778865814209, -0.811279296875, -0.297607421875, 0.044677734375, 
203, 3285544797, -0.0536574088037014, 0.6867287755012512, 0.016199003905057907, 0.7247500419616699, 9.722267150878906, -0.6388588547706604, -0.5119799375534058, 3.6362357139587402, 3.8052124977111816, 0.43266287446022034, -0.812255859375, -0.298095703125, 0.045654296875, 
204, 3285553130, -0.053990982472896576, 0.6865279078483582, 0.016500525176525116, 0.7249090671539307, 9.773423194885254, -0.526147186756134, -0.4990648627281189, 6.1805739402771, 2.8138387203216553, 0.16560883820056915, -0.812255859375, -0.298095703125, 0.045166015625, 
205, 3285561463, -0.0543997585773468, 0.6864007711410522, 0.01689981296658516, 0.7249894738197327, 9.813169479370117, -0.5793088674545288, -0.43389731645584106, 7.835203647613525, 1.3041874170303345, -0.010245694778859615, -0.813232421875, -0.3046875, 0.045166015625, 
206, 3285569796, -0.05479332059621811, 0.6863933801651001, 0.017284132540225983, 0.7249579429626465, 9.836692810058594, -0.3910072445869446, -0.30466750264167786, 7.473324298858643, -0.961122989654541, 0.16788849234580994, -0.811767578125, -0.298583984375, 0.046630859375, 
207, 3285578129, -0.055067941546440125, 0.6864650249481201, 0.017533376812934875, 0.7248631119728088, 9.883359909057617, -0.203672394156456, -0.23140989243984222, 5.067712783813477, -2.249493360519409, 0.2555660307407379, -0.812744140625, -0.297119140625, 0.043701171875, 
208, 3285586462, -0.05515285208821297, 0.6866075396537781, 0.017561238259077072, 0.7247209548950195, 9.872220993041992, -0.1657782942056656, -0.20806632936000824, 0.9205116629600525, -3.303929328918457, 0.5741559267044067, -0.813232421875, -0.296630859375, 0.046630859375, 
209, 3285594795, -0.05501117929816246, 0.6867868900299072, 0.01732029765844345, 0.7245675325393677, 9.843912124633789, -0.13427624106407166, -0.19785264134407043, -3.813831329345703, -3.594855308532715, 0.8080394268035889, -0.812255859375, -0.296630859375, 0.045166015625, 
210, 3285603128, -0.054629456251859665, 0.6869775056838989, 0.01687418296933174, 0.7244263291358948, 9.818244934082031, -0.22262068092823029, -0.2191120684146881, -8.247527122497559, -3.5286684036254883, 0.41186410188674927, -0.810791015625, -0.298095703125, 0.047607421875, 
211, 3285611461, -0.05412404239177704, 0.6871737241744995, 0.016330886632204056, 0.7242905497550964, 9.755688667297363, -0.35731175541877747, -0.22559663653373718, -10.473814964294434, -3.4342803955078125, 0.020965253934264183, -0.809814453125, -0.29833984375, 0.049072265625, 
212, 3285619794, -0.053619179874658585, 0.6873905062675476, 0.015830930322408676, 0.7241335511207581, 9.713152885437012, -0.5703491568565369, -0.29993706941604614, -9.962120056152344, -3.9251770973205566, -0.2883138656616211, -0.811767578125, -0.299072265625, 0.046630859375, 
213, 3285628127, -0.053254954516887665, 0.6876659989356995, 0.015475872904062271, 0.7239065170288086, 9.695721626281738, -0.6493065357208252, -0.3209477961063385, -7.238019943237305, -5.192313194274902, -0.2625459134578705, -0.812255859375, -0.298095703125, 0.045654296875, 
214, 3285636460, -0.05311030521988869, 0.6879881620407104, 0.015328358858823776, 0.7236142754554749, 9.690420150756836, -0.7126204371452332, -0.26062047481536865, -3.095249652862549, -6.433911323547363, 0.08712681382894516, -0.812255859375, -0.299560546875, 0.045166015625, 
215, 3285644793, -0.05318953096866608, 0.6883787512779236, 0.015357721596956253, 0.7232360243797302, 9.684118270874023, -0.6986122131347656, -0.1494784951210022, 1.0621839761734009, -7.9657721519470215, 0.6693128943443298, -0.812255859375, -0.298583984375, 0.046630859375, 
216, 3285653126, -0.053447410464286804, 0.6888153553009033, 0.015564512461423874, 0.7227967977523804, 9.681225776672363, -0.6337652802467346, -0.06950877606868744, 4.184354305267334, -9.13818645477295, 0.871281087398529, -0.809814453125, -0.2998046875, 0.0498046875, 
217, 3285661459, -0.05377121642231941, 0.6892989873886108, 0.015838999301195145, 0.7223055958747864, 9.733078956604004, -0.5434466600418091, 0.058225683867931366, 5.712115287780762, -10.078330039978027, 0.8772490620613098, -0.810791015625, -0.296875, 0.049072265625, 
218, 3285669792, -0.05408644676208496, 0.6898221373558044, 0.016124602407217026, 0.7217760682106018, 9.668768882751465, -0.3873274028301239, 0.23460997641086578, 5.466859340667725, -10.899087905883789, 0.7791978716850281, -0.812255859375, -0.2998046875, 0.052978515625, 
219, 3285678125, -0.054296355694532394, 0.6903851628303528, 0.01633923128247261, 0.7212170958518982, 9.672552108764648, -0.3191814422607422, 0.3700328767299652, 3.74540376663208, -11.472335815429688, 0.3682943284511566, -0.81201171875, -0.296875, 0.052001953125, 
220, 3285686458, -0.05435960367321968, 0.6909604668617249, 0.01646672934293747, 0.7206583023071289, 9.728710174560547, -0.3208301365375519, 0.4954652786254883, 1.4739073514938354, -11.633731842041016, -0.186061829328537, -0.8115234375, -0.29931640625, 0.054443359375, 
221, 3285694791, -0.0542861744761467, 0.6915329098701477, 0.016501586884260178, 0.7201135754585266, 9.777205467224121, -0.3579418957233429, 0.56088787317276, -0.7521364688873291, -11.358376502990723, -0.7413784861564636, -0.8125, -0.29931640625, 0.056396484375, 
222, 3285703124, -0.05414123460650444, 0.6920495629310608, 0.016495924443006516, 0.7196282744407654, 9.875959396362305, -0.4522205591201782, 0.5961126685142517, -1.7964545488357544, -10.303071022033691, -1.0513875484466553, -0.81298828125, -0.2998046875, 0.056396484375, 
223, 3285711457, -0.054008085280656815, 0.6924970149993896, 0.01648905500769615, 0.7192078232765198, 9.976556777954102, -0.5641123056411743, 0.6236675381660461, -1.643178939819336, -8.924306869506836, -1.0529500246047974, -0.81298828125, -0.298583984375, 0.061767578125, 
224, 3285719790, -0.05397150292992592, 0.6928419470787048, 0.016555987298488617, 0.718876838684082, 10.049779891967773, -0.6720626354217529, 0.5889028906822205, 0.046835631132125854, -7.162149906158447, -0.8256749510765076, -0.8115234375, -0.30078125, 0.05712890625, 
225, 3285728123, -0.054099634289741516, 0.6930985450744629, 0.016731858253479004, 0.718615710735321, 10.111175537109375, -0.7806926369667053, 0.5549030900001526, 2.854104995727539, -5.605701446533203, -0.3678716719150543, -0.810546875, -0.297607421875, 0.0615234375, 
226, 3285736456, -0.05442820116877556, 0.6932892203330994, 0.017050500959157944, 0.7183992862701416, 10.128767013549805, -0.7552499175071716, 0.49930936098098755, 6.1015801429748535, -4.653107643127441, 0.26522260904312134, -0.8134765625, -0.295654296875, 0.059814453125, 
227, 3285744789, -0.05493580549955368, 0.6934728026390076, 0.0174911729991436, 0.7181729078292847, 10.072681427001953, -0.746534526348114, 0.536914050579071, 8.827600479125977, -4.644783020019531, 0.7984853982925415, -0.81103515625, -0.299072265625, 0.0654296875, 
228, 3285753122, -0.05551786720752716, 0.6936792135238647, 0.01798129454255104, 0.7179166674613953, 10.034198760986328, -0.6362164616584778, 0.556812047958374, 10.210333824157715, -5.253659248352051, 1.167202353477478, -0.81005859375, -0.300048828125, 0.0634765625, 
229, 3285761455, -0.05609289929270744, 0.6939342021942139, 0.01841352880001068, 0.7176146507263184, 10.025444030761719, -0.46856310963630676, 0.5972239375114441, 9.670182228088379, -6.072188377380371, 1.6329460144042969, -0.81201171875, -0.297119140625, 0.06396484375, 
230, 3285769788, -0.05656981095671654, 0.6942614316940308, 0.01874428614974022, 0.7172517776489258, 9.891138076782227, -0.344636470079422, 0.6762500405311584, 7.568968772888184, -7.3674750328063965, 1.7622212171554565, -0.80859375, -0.301025390625, 0.065673828125, 
231, 3285778121, -0.05684120953083038, 0.6946630477905273, 0.018928926438093185, 0.7168364524841309, 9.838074684143066, -0.31301048398017883, 0.7474595904350281, 4.244753360748291, -8.48884105682373, 1.1271930932998657, -0.80810546875, -0.297607421875, 0.06591796875, 
232, 3285786454, -0.05688054859638214, 0.6950971484184265, 0.01899123564362526, 0.7164108753204346, 9.873245239257812, -0.22365765273571014, 0.7875077724456787, 0.6749991774559021, -8.923589706420898, 0.08797209709882736, -0.80859375, -0.29736328125, 0.0693359375, 
233, 3285794787, -0.05671489238739014, 0.6955377459526062, 0.01895255222916603, 0.7159973978996277, 9.88946533203125, -0.24349384009838104, 0.8291690945625305, -2.2396576404571533, -8.795365333557129, -1.0375559329986572, -0.80810546875, -0.29638671875, 0.0693359375, 
234, 3285803120, -0.056438252329826355, 0.6959389448165894, 0.018884535878896713, 0.7156310081481934, 9.946588516235352, -0.39700213074684143, 0.8277723789215088, -3.6195733547210693, -8.015642166137695, -1.8326473236083984, -0.810546875, -0.296875, 0.072265625, 
235, 3285811453, -0.05617593601346016, 0.6962716579437256, 0.01888824626803398, 0.7153279781341553, 9.997957229614258, -0.5577057600021362, 0.8302056789398193, -2.88718581199646, -6.726325035095215, -2.5150365829467773, -0.8095703125, -0.2998046875, 0.07177734375, 
236, 3285819786, -0.05600221827626228, 0.6965006589889526, 0.01900770142674446, 0.7151153683662415, 10.004512786865234, -0.6923754215240479, 0.8101979494094849, -0.6955801844596863, -4.9670610427856445, -2.7787346839904785, -0.80908203125, -0.29931640625, 0.072998046875, 
237, 3285828119, -0.05597462132573128, 0.6966423392295837, 0.019239716231822968, 0.7149733304977417, 9.983684539794922, -0.7212326526641846, 0.7836912870407104, 1.8867830038070679, -3.439607858657837, -2.55983567237854, -0.81005859375, -0.2978515625, 0.07177734375, 
238, 3285836452, -0.05608003959059715, 0.6966935992240906, 0.019544709473848343, 0.7149069309234619, 9.968216896057129, -0.770805299282074, 0.7680585980415344, 3.90116286277771, -1.8885633945465088, -1.9711177349090576, -0.81005859375, -0.30078125, 0.072998046875, 
239, 3285844785, -0.05630248039960861, 0.6966782808303833, 0.019862640649080276, 0.7148954272270203, 9.975162506103516, -0.7638421058654785, 0.7235630750656128, 5.162229061126709, -0.6482706665992737, -1.07108473777771, -0.81005859375, -0.30029296875, 0.073486328125, 
240, 3285853118, -0.05656776204705238, 0.6966118812561035, 0.020153697580099106, 0.714931070804596, 9.949613571166992, -0.6594981551170349, 0.7001033425331116, 5.359048843383789, 0.30100569128990173, -0.3763243854045868, -0.80810546875, -0.298828125, 0.072021484375, 
241, 3285861451, -0.0568280853331089, 0.6965330243110657, 0.020395852625370026, 0.7149803638458252, 9.943070411682129, -0.5928198099136353, 0.6521560549736023, 4.83518648147583, 0.6231046915054321, -0.03852381184697151, -0.81005859375, -0.298095703125, 0.06884765625, 
242, 3285869784, -0.05700106918811798, 0.6964680552482605, 0.020549345761537552, 0.7150257229804993, 9.885577201843262, -0.553924560546875, 0.6079962253570557, 3.117521286010742, 0.46219602227211, 0.026472311466932297, -0.8076171875, -0.298828125, 0.070556640625, 
243, 3285878117, -0.057098135352134705, 0.6964372992515564, 0.02062733843922615, 0.7150454521179199, 9.890250205993652, -0.5441596508026123, 0.5782715082168579, 1.6619668006896973, -0.055864639580249786, -0.03370833024382591, -0.8125, -0.298828125, 0.072265625, 
244, 3285886450, -0.057112786918878555, 0.696439802646637, 0.020670723170042038, 0.7150406241416931, 9.84814167022705, -0.5046759843826294, 0.5502753853797913, 0.47984427213668823, -0.6426099538803101, -0.41710221767425537, -0.80859375, -0.30029296875, 0.072509765625, 
245, 3285894783, -0.05708732083439827, 0.6964701414108276, 0.020681243389844894, 0.7150126695632935, 9.869930267333984, -0.5107203125953674, 0.5220288038253784, -0.21418622136116028, -1.0972368717193604, -0.5377708673477173, -0.80908203125, -0.29833984375, 0.07080078125, 
246, 3285903116, -0.057039473205804825, 0.6965224742889404, 0.020711056888103485, 0.714964747428894, 9.896719932556152, -0.6209179162979126, 0.5405698418617249, -0.27829867601394653, -1.5519664287567139, -0.8533125519752502, -0.81005859375, -0.2998046875, 0.07275390625, 
247, 3285911449, -0.05702047795057297, 0.6965582966804504, 0.020768675953149796, 0.7149298191070557, 9.942322731018066, -0.6239639520645142, 0.5589374303817749, 0.28438201546669006, -1.2574282884597778, -0.9190899133682251, -0.80810546875, -0.2998046875, 0.077392578125, 
248, 3285919782, -0.05704701319336891, 0.6965439319610596, 0.02085559442639351, 0.7149391174316406, 10.0121488571167, -0.6157310009002686, 0.5524569749832153, 1.0308831930160522, -0.3701000511646271, -0.7329256534576416, -0.81103515625, -0.299560546875, 0.07080078125, 
249, 3285928115, -0.057114895433187485, 0.6964780688285828, 0.020932987332344055, 0.7149955034255981, 10.050788879394531, -0.5735152959823608, 0.4989253282546997, 1.225372076034546, 0.6341699957847595, -0.36044350266456604, -0.8134765625, -0.2998046875, 0.0751953125, 
250, 3285936448, -0.057196322828531265, 0.6963339447975159, 0.0209713876247406, 0.7151283025741577, 10.061628341674805, -0.5605184435844421, 0.47110649943351746, 1.1470180749893188, 2.1401844024658203, 0.13610123097896576, -0.81103515625, -0.2978515625, 0.07373046875, 
251, 3285944781, -0.05727604031562805, 0.6961405277252197, 0.02092030644416809, 0.7153118252754211, 10.040791511535645, -0.4984489679336548, 0.42928874492645264, 0.38901615142822266, 3.1924169063568115, 0.8585250377655029, -0.81005859375, -0.2978515625, 0.072265625, 
252, 3285953114, -0.057332150638103485, 0.6959078907966614, 0.020793896168470383, 0.7155373096466064, 9.980414390563965, -0.45560017228126526, 0.34834495186805725, -0.67373126745224, 4.020987510681152, 1.3670446872711182, -0.8076171875, -0.2998046875, 0.072021484375, 
253, 3285961447, -0.057376496493816376, 0.6956747770309448, 0.020632818341255188, 0.7157648205757141, 9.903746604919434, -0.5652801990509033, 0.2518298029899597, -1.1717746257781982, 4.08901834487915, 1.5122774839401245, -0.8115234375, -0.30078125, 0.0732421875, 
254, 3285969780, -0.05740588158369064, 0.6954700946807861, 0.020476531237363815, 0.715965986251831, 9.85933780670166, -0.5725961923599243, 0.19040223956108093, -1.239319086074829, 3.5307042598724365, 1.4175556898117065, -0.81005859375, -0.298583984375, 0.0703125, 
255, 3285978113, -0.0574767105281353, 0.6952952146530151, 0.020368441939353943, 0.7161332368850708, 9.832664489746094, -0.6160612106323242, 0.113737553358078, -0.33395838737487793, 2.9006197452545166, 1.332106590270996, -0.81005859375, -0.299072265625, 0.0673828125, 
256, 3285986446, -0.057621557265520096, 0.6951467990875244, 0.020343944430351257, 0.7162664532661438, 9.811494827270508, -0.6661563515663147, 0.06655139476060867, 1.136618971824646, 2.2527337074279785, 1.3642525672912598, -0.810546875, -0.298583984375, 0.0703125, 
257, 3285994779, -0.057872314006090164, 0.6950347423553467, 0.020417094230651855, 0.7163529396057129, 9.81797981262207, -0.6814611554145813, 0.048274341970682144, 3.103407621383667, 1.4235495328903198, 1.4511359930038452, -0.810546875, -0.297607421875, 0.068359375, 
258, 3286003112, -0.05823797360062599, 0.694948136806488, 0.020588532090187073, 0.7164022922515869, 9.841312408447266, -0.6857712268829346, 0.05452217534184456, 5.1519575119018555, 0.7481277585029602, 1.7502080202102661, -0.81201171875, -0.297607421875, 0.0693359375, 
259, 3286011445, -0.058706801384687424, 0.6948903799057007, 0.02083192765712738, 0.7164130806922913, 9.831298828125, -0.6593039631843567, 0.11002211272716522, 6.845648288726807, 0.09160931408405304, 2.047435760498047, -0.81201171875, -0.299560546875, 0.07080078125, 
260, 3286019778, -0.05923812836408615, 0.6948564648628235, 0.021137584000825882, 0.7163933515548706, 9.822300910949707, -0.5866369009017944, 0.1792776733636856, 8.035991668701172, -0.49094802141189575, 2.169666290283203, -0.80908203125, -0.296875, 0.068359375, 
261, 3286028111, -0.05979633331298828, 0.6948660016059875, 0.02145027369260788, 0.7163283228874207, 9.827522277832031, -0.4915775656700134, 0.30325621366500854, 8.139986038208008, -1.3133955001831055, 2.3361847400665283, -0.81103515625, -0.29736328125, 0.06982421875, 
262, 3286036444, -0.06028180196881294, 0.6949126124382019, 0.021700918674468994, 0.7162350416183472, 9.810901641845703, -0.41062766313552856, 0.41362690925598145, 7.010936737060547, -1.9556212425231934, 2.328551769256592, -0.809326171875, -0.2939453125, 0.07177734375, 
263, 3286044777, -0.06064485013484955, 0.6949974298477173, 0.02183651551604271, 0.7161176204681396, 9.823565483093262, -0.30790168046951294, 0.5386837720870972, 4.4546356201171875, -2.46378231048584, 2.17179274559021, -0.810791015625, -0.2919921875, 0.07275390625, 
264, 3286053110, -0.060812558978796005, 0.6950998902320862, 0.021816618740558624, 0.7160048484802246, 9.844033241271973, -0.25910744071006775, 0.6327010989189148, 1.2697361707687378, -2.5639593601226807, 1.816779375076294, -0.809814453125, -0.2939453125, 0.07177734375, 
265, 3286061443, -0.06077821925282478, 0.6951982378959656, 0.021606747061014175, 0.7159183621406555, 9.890145301818848, -0.2443104237318039, 0.6815841197967529, -2.532069444656372, -2.1480095386505127, 1.5531063079833984, -0.81201171875, -0.2978515625, 0.07080078125, 
266, 3286069776, -0.06057283282279968, 0.6952534914016724, 0.021264512091875076, 0.7158925533294678, 9.982556343078613, -0.2629777789115906, 0.6824681758880615, -5.457368850708008, -1.10732901096344, 1.1369519233703613, -0.810546875, -0.29541015625, 0.072265625, 
267, 3286078109, -0.060300063341856, 0.6952621936798096, 0.0208728089928627, 0.7159186601638794, 9.991777420043945, -0.3266281187534332, 0.6747887134552002, -6.695201873779297, -0.10404501110315323, 0.8206672072410583, -0.811767578125, -0.29296875, 0.0712890625, 
268, 3286086442, -0.06001553311944008, 0.6952248215675354, 0.02049916610121727, 0.7159896492958069, 9.956660270690918, -0.4041563868522644, 0.6639353632926941, -6.475099563598633, 0.7327848672866821, 0.5514616966247559, -0.809814453125, -0.294921875, 0.0732421875, 
269, 3286094775, -0.059797368943691254, 0.695160448551178, 0.020203087478876114, 0.7160786986351013, 9.972472190856934, -0.4582604467868805, 0.6827601194381714, -5.087524890899658, 1.1420234441757202, 0.3779764473438263, -0.806640625, -0.2958984375, 0.069091796875, 
270, 3286103108, -0.05967262387275696, 0.6950638294219971, 0.02003791183233261, 0.7161877155303955, 9.989917755126953, -0.4837578237056732, 0.6917879581451416, -2.856525421142578, 1.5531320571899414, 0.08443732559680939, -0.81005859375, -0.294921875, 0.06787109375, 
271, 3286111441, -0.05966120585799217, 0.6949306130409241, 0.020006779581308365, 0.7163186073303223, 10.037886619567871, -0.5374608039855957, 0.7356286644935608, -0.7084384560585022, 2.0726397037506104, -0.18237334489822388, -0.8125, -0.29541015625, 0.068359375, 
272, 3286119774, -0.059686534106731415, 0.6948146224021912, 0.02002900466322899, 0.716428279876709, 10.011981010437012, -0.5785033702850342, 0.8771510720252991, 0.43986043334007263, 1.636608600616455, -0.2349337488412857, -0.81005859375, -0.29345703125, 0.06982421875, 
273, 3286128107, -0.05975111573934555, 0.6947478652000427, 0.020086906850337982, 0.7164860963821411, 9.932394981384277, -0.6568312644958496, 1.098276138305664, 1.2043685913085938, 0.6409322023391724, -0.19069798290729523, -0.81103515625, -0.29541015625, 0.06982421875, 
274, 3286136440, -0.05985337868332863, 0.6947236061096191, 0.020161490887403488, 0.7164989709854126, 9.93851089477539, -0.6887186169624329, 1.2250101566314697, 1.6426537036895752, -0.21247009932994843, 0.12731555104255676, -0.8115234375, -0.296142578125, 0.068359375, 
275, 3286144773, -0.05993567779660225, 0.6947227120399475, 0.020138386636972427, 0.7164937257766724, 10.155284881591797, -0.7214285731315613, 1.3529173135757446, 0.5162932872772217, -0.545634388923645, 0.8260974884033203, -0.810546875, -0.29638671875, 0.068359375, 
276, 3286153106, -0.05995984375476837, 0.6948217153549194, 0.019934579730033875, 0.7164013981819153, 10.316082954406738, -1.0356905460357666, 1.7864779233932495, -1.919838309288025, -2.2234694957733154, 2.1395702362060547, -0.812744140625, -0.2939453125, 0.069091796875, 
277, 3286161439, -0.06004993990063667, 0.6950879096984863, 0.019660256803035736, 0.7161429524421692, 10.063167572021484, -1.351887822151184, 2.2951412200927734, -1.9836434125900269, -5.402733325958252, 3.583674907684326, -0.812744140625, -0.2958984375, 0.07275390625, 
278, 3286169772, -0.06022575497627258, 0.6955284476280212, 0.019337542355060577, 0.7157092690467834, 10.045026779174805, -1.3676220178604126, 2.6869163513183594, -1.8299835920333862, -8.712349891662598, 5.143223762512207, -0.812255859375, -0.29345703125, 0.071533203125, 
279, 3286178105, -0.0605437271296978, 0.6961774826049805, 0.01895631104707718, 0.7150613069534302, 10.146536827087402, -1.3689274787902832, 3.1249895095825195, -1.278355360031128, -12.756837844848633, 7.258934020996094, -0.808837890625, -0.292724609375, 0.07470703125, 
280, 3286186438, -0.06093187257647514, 0.6969374418258667, 0.01851530745625496, 0.7142993211746216, 10.172880172729492, -1.460739016532898, 3.766213893890381, -1.1400129795074463, -14.840788841247559, 8.72125244140625, -0.813232421875, -0.29248046875, 0.071044921875, 
281, 3286194771, -0.06126260757446289, 0.6976318955421448, 0.01791450008749962, 0.713607907295227, 10.34062385559082, -1.5034610033035278, 4.364126682281494, -3.3014445304870605, -13.461793899536133, 9.530354499816895, -0.807861328125, -0.291748046875, 0.0771484375, 
282, 3286203104, -0.06145782768726349, 0.6981735229492188, 0.017150595784187317, 0.713080108165741, 10.56451416015625, -1.6492559909820557, 5.046740531921387, -6.036558628082275, -10.23073673248291, 9.672795295715332, -0.810791015625, -0.291259765625, 0.0771484375, 
283, 3286211437, -0.06152099370956421, 0.69846111536026, 0.01633310690522194, 0.7128121852874756, 10.597006797790527, -1.8516424894332886, 5.585625171661377, -7.535554885864258, -5.350071430206299, 8.527478218078613, -0.810302734375, -0.287841796875, 0.07763671875, 
284, 3286219770, -0.06154314801096916, 0.6983600854873657, 0.015622753649950027, 0.7129252552986145, 10.73265266418457, -1.9889215230941772, 5.9356231689453125, -6.7767333984375, 2.1396725177764893, 6.77244234085083, -0.809814453125, -0.287109375, 0.0810546875, 
285, 3286228103, -0.061556145548820496, 0.6976557970046997, 0.014937713742256165, 0.7136279344558716, 11.101036071777344, -2.1647989749908447, 6.18600606918335, -6.384605407714844, 13.539623260498047, 5.703484058380127, -0.810791015625, -0.28515625, 0.079345703125, 
286, 3286236436, -0.061520274728536606, 0.6963028311729431, 0.01414833590388298, 0.7149671912193298, 11.483482360839844, -2.2836198806762695, 6.42557954788208, -7.306593418121338, 26.24452781677246, 5.6595330238342285, -0.812255859375, -0.283935546875, 0.073486328125, 
287, 3286244769, -0.06151088699698448, 0.6942693591117859, 0.013224832713603973, 0.7169604301452637, 11.642395973205566, -2.257996082305908, 6.480218887329102, -7.796805381774902, 39.0821647644043, 6.410138130187988, -0.811767578125, -0.285888671875, 0.070068359375, 
288, 3286253102, -0.061652280390262604, 0.6915833353996277, 0.012206997722387314, 0.719557523727417, 11.886395454406738, -2.4559309482574463, 6.417909622192383, -6.9711103439331055, 51.623687744140625, 8.27568531036377, -0.812255859375, -0.28466796875, 0.064697265625, 
289, 3286261435, -0.06208902597427368, 0.6883216500282288, 0.011096227914094925, 0.7226588726043701, 12.140401840209961, -2.839113473892212, 6.474704742431641, -4.664444923400879, 61.957664489746094, 11.42886734008789, -0.817626953125, -0.283935546875, 0.056884765625, 
290, 3286269768, -0.0629093199968338, 0.6846792697906494, 0.009990572929382324, 0.7260561585426331, 12.290349006652832, -3.040916919708252, 6.686177730560303, -0.7187642455101013, 68.88201141357422, 15.0113525390625, -0.81494140625, -0.281494140625, 0.046630859375, 
291, 3286278101, -0.06422446668148041, 0.6807354092597961, 0.00900489091873169, 0.7296534180641174, 12.472116470336914, -3.0812418460845947, 6.876319885253906, 5.35333776473999, 73.40050506591797, 18.45636558532715, -0.81689453125, -0.2783203125, 0.03955078125, 
292, 3286286434, -0.06600072979927063, 0.6766272783279419, 0.00814969465136528, 0.7333170175552368, 12.512282371520996, -3.0291976928710938, 7.062500476837158, 11.135759353637695, 75.95085906982422, 21.933679580688477, -0.82080078125, -0.275634765625, 0.029052734375, 
293, 3286294767, -0.06819076836109161, 0.6724033951759338, 0.007360182702541351, 0.7370007634162903, 12.528836250305176, -2.9282114505767822, 7.324294090270996, 15.742178916931152, 76.8919906616211, 25.295909881591797, -0.8203125, -0.272705078125, 0.0185546875, 
294, 3286303100, -0.07076083868741989, 0.6681755781173706, 0.006790619343519211, 0.7406002879142761, 12.564029693603516, -2.9344482421875, 7.698391914367676, 21.506038665771484, 76.38601684570312, 27.36036491394043, -0.8212890625, -0.26806640625, 0.009765625, 
295, 3286311433, -0.07361431419849396, 0.6639168858528137, 0.006485298275947571, 0.7441464066505432, 12.668330192565918, -2.7717556953430176, 8.037965774536133, 26.78101921081543, 75.5217056274414, 27.67828941345215, -0.82080078125, -0.26416015625, -0.000732421875, 
296, 3286319766, -0.07650834321975708, 0.6595596671104431, 0.006380654871463776, 0.7477216720581055, 12.854317665100098, -2.5256426334381104, 8.238371849060059, 29.35719108581543, 77.05428314208984, 26.413402557373047, -0.82177734375, -0.260009765625, -0.00927734375, 
297, 3286328099, -0.07935763895511627, 0.6549421548843384, 0.006319597363471985, 0.7514744997024536, 13.04518985748291, -2.26482892036438, 8.343960762023926, 27.799156188964844, 80.95467376708984, 24.883468627929688, -0.822509765625, -0.2578125, -0.019775390625, 
298, 3286336432, -0.08176859468221664, 0.6500244736671448, 0.005986196920275688, 0.755478024482727, 13.323515892028809, -2.0128891468048096, 8.316995620727539, 23.200590133666992, 86.9085922241211, 22.971237182617188, -0.824462890625, -0.254638671875, -0.02978515625, 
299, 3286344765, -0.08386197686195374, 0.6446478962898254, 0.005406342446804047, 0.7598472833633423, 13.550206184387207, -1.9784038066864014, 8.226262092590332, 18.288606643676758, 95.1955337524414, 21.425430297851562, -0.825439453125, -0.252685546875, -0.041015625, 
300, 3286353098, -0.08580486476421356, 0.6386250257492065, 0.004619671031832695, 0.7647058367729187, 13.840703964233398, -2.1938931941986084, 8.082290649414062, 14.15259075164795, 106.0801773071289, 20.62591552734375, -0.827880859375, -0.25, -0.05322265625, 
301, 3286361431, -0.08765482902526855, 0.6318906545639038, 0.0036540646106004715, 0.7700767517089844, 14.148641586303711, -2.437098979949951, 7.885687351226807, 12.075871467590332, 118.23851013183594, 20.5064697265625, -0.82958984375, -0.246826171875, -0.066650390625, 
302, 3286369764, -0.0894911140203476, 0.6244518160820007, 0.0025950558483600616, 0.7759157419204712, 14.474441528320312, -2.5746655464172363, 7.671238899230957, 13.328868865966797, 130.34095764160156, 21.08574676513672, -0.82861328125, -0.241943359375, -0.08349609375, 
303, 3286378097, -0.0916857123374939, 0.6162222027778625, 0.0016136299818754196, 0.7822160720825195, 14.57888412475586, -2.7494332790374756, 7.337653160095215, 16.544069290161133, 142.1751251220703, 23.039676666259766, -0.824951171875, -0.24169921875, -0.10009765625, 
304, 3286386430, -0.09404370188713074, 0.6073393821716309, 0.0005865003913640976, 0.7888566851615906, 14.62588119506836, -2.70796537399292, 7.013838768005371, 19.899906158447266, 152.63375854492188, 25.348735809326172, -0.82373046875, -0.23876953125, -0.1240234375, 
305, 3286394763, -0.09677264094352722, 0.5978633761405945, -0.0003958065062761307, 0.7957355380058289, 14.5857572555542, -2.635505437850952, 6.72599983215332, 23.512239456176758, 160.38453674316406, 28.26007843017578, -0.82080078125, -0.235595703125, -0.138916015625, 
306, 3286403096, -0.09973621368408203, 0.5880468487739563, -0.0013923980295658112, 0.8026533126831055, 14.350893020629883, -2.4526233673095703, 6.491367340087891, 26.475252151489258, 165.0651092529297, 31.320615768432617, -0.822998046875, -0.230712890625, -0.164306640625, 
307, 3286411429, -0.10284800827503204, 0.5779553055763245, -0.002489440143108368, 0.809558093547821, 14.147331237792969, -2.052168130874634, 6.312297821044922, 26.521894454956055, 167.46295166015625, 33.43840789794922, -0.81689453125, -0.22802734375, -0.18310546875, 
308, 3286419762, -0.10582344233989716, 0.567729651927948, -0.0038847867399454117, 0.8163761496543884, 14.17870807647705, -1.688302755355835, 6.039203643798828, 22.724443435668945, 169.36178588867188, 34.77188491821289, -0.817138671875, -0.222412109375, -0.205078125, 
309, 3286428095, -0.10846713930368423, 0.5573967099189758, -0.005741452798247337, 0.8231110572814941, 14.20275592803955, -1.5359735488891602, 5.902613162994385, 15.866045951843262, 169.7611541748047, 34.88542938232422, -0.815185546875, -0.218505859375, -0.226806640625, 
310, 3286436428, -0.11072345077991486, 0.5471246838569641, -0.007979074493050575, 0.8296577334403992, 14.071579933166504, -1.4546765089035034, 5.741824150085449, 7.7193732261657715, 169.07254028320312, 33.58758544921875, -0.80810546875, -0.21435546875, -0.2470703125, 
311, 3286444761, -0.11247135698795319, 0.5368404984474182, -0.010721438564360142, 0.8360850811004639, 13.891030311584473, -1.4324898719787598, 5.603531360626221, -0.6319450736045837, 168.21603393554688, 32.147396087646484, -0.802490234375, -0.2119140625, -0.27001953125, 
312, 3286453094, -0.11386562883853912, 0.526625394821167, -0.013784609735012054, 0.8423246741294861, 13.715469360351562, -1.6007450819015503, 5.4183807373046875, -8.293692588806152, 167.50677490234375, 30.34981918334961, -0.7978515625, -0.207763671875, -0.290771484375, 
313, 3286461427, -0.11483130604028702, 0.5163661241531372, -0.017294909805059433, 0.8484582304954529, 13.665882110595703, -1.8361232280731201, 5.290099620819092, -14.64946174621582, 166.992919921875, 29.60244369506836, -0.794677734375, -0.205810546875, -0.316650390625, 
314, 3286469760, -0.11582355946302414, 0.5061372518539429, -0.020878471434116364, 0.8543856739997864, 13.532341003417969, -2.0250532627105713, 5.11772346496582, -17.290767669677734, 166.3213348388672, 29.9475040435791, -0.78857421875, -0.20068359375, -0.337158203125, 
315, 3286478093, -0.11673983931541443, 0.4957621395587921, -0.02461523748934269, 0.8602246642112732, 13.406418800354004, -2.339751958847046, 4.941287517547607, -17.105316162109375, 166.56439208984375, 31.48194694519043, -0.782958984375, -0.194091796875, -0.35791015625, 
316, 3286486426, -0.11800586432218552, 0.48536500334739685, -0.02820020169019699, 0.8658526539802551, 13.308256149291992, -2.4181811809539795, 4.861907958984375, -15.266728401184082, 166.1497039794922, 33.75203323364258, -0.7763671875, -0.189453125, -0.3779296875, 
317, 3286494759, -0.1193702220916748, 0.4748026728630066, -0.03171699121594429, 0.8713827133178711, 13.306819915771484, -2.606342315673828, 4.813096046447754, -11.359357833862305, 166.1993865966797, 35.9586296081543, -0.767822265625, -0.1875, -0.397705078125, 
318, 3286503092, -0.12127067148685455, 0.4641096889972687, -0.034821949899196625, 0.8767461180686951, 13.221149444580078, -2.619206190109253, 4.702524662017822, -4.9916768074035645, 166.8800811767578, 38.75547790527344, -0.760009765625, -0.18017578125, -0.419677734375, 
319, 3286511425, -0.1235455647110939, 0.45317360758781433, -0.03768211603164673, 0.8820152878761292, 12.85987377166748, -2.431340217590332, 4.570102214813232, 0.7207396030426025, 168.006591796875, 41.7900505065918, -0.75, -0.176513671875, -0.4375, 
320, 3286519758, -0.12603901326656342, 0.44211509823799133, -0.040327996015548706, 0.8871430158615112, 12.652494430541992, -2.1884357929229736, 4.468987941741943, 4.80667781829834, 168.74951171875, 43.601829528808594, -0.741943359375, -0.17041015625, -0.45947265625, 
321, 3286528091, -0.12857717275619507, 0.43095114827156067, -0.04295114800333977, 0.8921350240707397, 12.551589965820312, -1.8783196210861206, 4.488668918609619, 5.4804277420043945, 168.5701904296875, 44.11635971069336, -0.73486328125, -0.169921875, -0.478515625, 
322, 3286536424, -0.13091395795345306, 0.41982293128967285, -0.045778337866067886, 0.8969478011131287, 12.236943244934082, -1.2769386768341064, 4.515074253082275, 1.596103549003601, 168.12657165527344, 43.33665466308594, -0.72265625, -0.163330078125, -0.501708984375, 
323, 3286544757, -0.1329408437013626, 0.40876227617263794, -0.049019213765859604, 0.9015753269195557, 11.634394645690918, -1.1783455610275269, 4.413462162017822, -5.512660026550293, 166.6338348388672, 42.021156311035156, -0.7119140625, -0.159423828125, -0.51953125, 
324, 3286553090, -0.13453592360019684, 0.3979398310184479, -0.05281396582722664, 0.9059555530548096, 11.04881477355957, -1.1006598472595215, 4.257458686828613, -15.43050765991211, 164.1240997314453, 40.24424743652344, -0.700439453125, -0.154296875, -0.536865234375, 
325, 3286561423, -0.13569746911525726, 0.38730260729789734, -0.05725005269050598, 0.9101132154464722, 10.730152130126953, -1.0536582469940186, 4.077018737792969, -26.27560806274414, 161.61538696289062, 38.471012115478516, -0.69091796875, -0.14697265625, -0.556640625, 
326, 3286569756, -0.13651077449321747, 0.37692177295684814, -0.06220587342977524, 0.9140164256095886, 10.562753677368164, -1.2189033031463623, 3.9370296001434326, -35.33591079711914, 158.7790985107422, 37.31349563598633, -0.678955078125, -0.141357421875, -0.574462890625, 
327, 3286578089, -0.1371825933456421, 0.3667634129524231, -0.0675046443939209, 0.9176651239395142, 10.394068717956543, -1.622294306755066, 3.8928256034851074, -40.991973876953125, 154.99462890625, 37.45155715942383, -0.6669921875, -0.134521484375, -0.59326171875, 
328, 3286586422, -0.13788384199142456, 0.35700976848602295, -0.07278649508953094, 0.9209966659545898, 10.068366050720215, -1.9555569887161255, 3.9532554149627686, -41.710731506347656, 148.6610870361328, 38.108280181884766, -0.65576171875, -0.12451171875, -0.609375, 
329, 3286594755, -0.1387685239315033, 0.34754008054733276, -0.07773733139038086, 0.9240762591362, 9.64064884185791, -2.322885036468506, 3.9445009231567383, -37.38118362426758, 142.63320922851562, 38.859832763671875, -0.645263671875, -0.11962890625, -0.622802734375, 
330, 3286603088, -0.13985273241996765, 0.33828091621398926, -0.0822521224617958, 0.9269533157348633, 9.286627769470215, -2.426121950149536, 3.8293755054473877, -31.533157348632812, 138.32864379882812, 39.61277389526367, -0.63134765625, -0.11279296875, -0.640380859375, 
331, 3286611421, -0.1411505937576294, 0.3290773630142212, -0.08632819354534149, 0.9296949505805969, 9.051668167114258, -2.2287631034851074, 3.688159704208374, -25.168235778808594, 135.56874084472656, 40.35920715332031, -0.623291015625, -0.10546875, -0.655029296875, 
332, 3286619754, -0.14262479543685913, 0.3198230266571045, -0.08996354788541794, 0.9323511123657227, 8.790229797363281, -2.2292513847351074, 3.5036394596099854, -18.776058197021484, 135.10159301757812, 40.97947692871094, -0.611083984375, -0.104248046875, -0.66748046875, 
333, 3286628087, -0.14426124095916748, 0.31038543581962585, -0.0931587964296341, 0.9349714517593384, 8.481972694396973, -2.4822371006011963, 3.440288782119751, -12.058605194091797, 135.94432067871094, 41.296897888183594, -0.59814453125, -0.0966796875, -0.6806640625, 
334, 3286636420, -0.14606903493404388, 0.3007921576499939, -0.09574462473392487, 0.9375614523887634, 8.290151596069336, -2.759510040283203, 3.499432325363159, -3.267282247543335, 136.67324829101562, 41.283164978027344, -0.587646484375, -0.094482421875, -0.696533203125, 
335, 3286644753, -0.1481126844882965, 0.2911948263645172, -0.0975298136472702, 0.940083384513855, 8.053894996643066, -2.8149893283843994, 3.6817612648010254, 8.006113052368164, 134.28651428222656, 41.03801345825195, -0.5751953125, -0.087158203125, -0.70849609375, 
336, 3286653086, -0.1504468023777008, 0.28173524141311646, -0.09824103116989136, 0.9425181150436401, 7.4529829025268555, -2.947352170944214, 3.8293416500091553, 22.598447799682617, 129.8173065185547, 40.60102081298828, -0.564208984375, -0.08837890625, -0.72021484375, 
337, 3286661419, -0.15299612283706665, 0.27242571115493774, -0.09804916381835938, 0.944861650466919, 6.987956523895264, -2.722003221511841, 3.901808738708496, 34.7758903503418, 125.16423034667969, 39.77351760864258, -0.548828125, -0.08544921875, -0.73291015625, 
338, 3286669752, -0.15561282634735107, 0.26334014534950256, -0.09739675372838974, 0.9470751881599426, 6.754532814025879, -2.146944284439087, 4.0561418533325195, 40.294090270996094, 120.90336608886719, 38.999088287353516, -0.540283203125, -0.087158203125, -0.744384765625, 
339, 3286678085, -0.15814687311649323, 0.25460541248321533, -0.09675784409046173, 0.9491071105003357, 6.519829273223877, -1.5693011283874512, 4.30786657333374, 38.90674591064453, 115.65730285644531, 37.79584503173828, -0.525390625, -0.088623046875, -0.754638671875, 
340, 3286686418, -0.1604733020067215, 0.24626211822032928, -0.09646879136562347, 0.9509457349777222, 6.2480292320251465, -1.1881595849990845, 4.619021415710449, 32.42441940307617, 111.06594848632812, 36.3053092956543, -0.516357421875, -0.088623046875, -0.763916015625, 
341, 3286694751, -0.16251540184020996, 0.2382979840040207, -0.09686340391635895, 0.9525864124298096, 5.94221830368042, -1.1912932395935059, 4.848933219909668, 21.501157760620117, 107.19698333740234, 34.75577926635742, -0.502197265625, -0.087646484375, -0.773193359375, 
342, 3286703084, -0.16427665948867798, 0.2307070791721344, -0.09807761013507843, 0.9540277123451233, 5.827506065368652, -1.2877249717712402, 5.092673301696777, 8.663429260253906, 103.98700714111328, 33.79087829589844, -0.4912109375, -0.08740234375, -0.78369140625, 
343, 3286711417, -0.16586296260356903, 0.22342729568481445, -0.1000562533736229, 0.9552796483039856, 5.653067111968994, -1.4129806756973267, 5.240147590637207, -2.797333002090454, 101.1677474975586, 33.86262512207031, -0.482177734375, -0.08642578125, -0.791015625, 
344, 3286719750, -0.1674150973558426, 0.21643760800361633, -0.10253830254077911, 0.9563543200492859, 5.33042573928833, -1.8333163261413574, 5.313259601593018, -10.501809120178223, 98.10757446289062, 35.031707763671875, -0.47021484375, -0.08447265625, -0.799072265625, 
345, 3286728083, -0.16901959478855133, 0.20974324643611908, -0.10528172552585602, 0.9572650790214539, 5.159872531890869, -2.4437379837036133, 5.544731140136719, -14.614156723022461, 94.19171905517578, 36.402198791503906, -0.462890625, -0.080810546875, -0.8037109375, 
346, 3286736416, -0.1707364022731781, 0.20340412855148315, -0.10783804208040237, 0.9580435752868652, 5.092965126037598, -2.854694128036499, 5.973130226135254, -12.923539161682129, 88.60743713378906, 37.192935943603516, -0.4521484375, -0.073486328125, -0.812744140625, 
347, 3286744749, -0.17260371148586273, 0.19728201627731323, -0.10982882231473923, 0.9587627053260803, 4.882610321044922, -3.016051769256592, 6.281242370605469, -5.561916828155518, 83.98356628417969, 37.3576545715332, -0.441650390625, -0.071044921875, -0.819580078125, 
348, 3286753082, -0.17460323870182037, 0.19114530086517334, -0.11125931888818741, 0.9594786763191223, 4.905369281768799, -2.8673877716064453, 6.492140293121338, 2.1247031688690186, 82.68574523925781, 37.66327667236328, -0.435791015625, -0.069091796875, -0.825927734375, 
349, 3286761415, -0.17672652006149292, 0.18494878709316254, -0.11220692098140717, 0.9601937532424927, 5.0163469314575195, -2.5344393253326416, 6.741312026977539, 9.061113357543945, 82.09635925292969, 38.07390213012695, -0.4267578125, -0.066650390625, -0.829833984375, 
350, 3286769748, -0.1788916289806366, 0.1785731017589569, -0.11262951791286469, 0.9609500169754028, 4.5880303382873535, -2.4675791263580322, 6.877777099609375, 16.501262664794922, 83.25335693359375, 37.51372528076172, -0.416015625, -0.0634765625, -0.83447265625, 
351, 3286778081, -0.18103273212909698, 0.17194445431232452, -0.11263186484575272, 0.9617573022842407, 3.904283285140991, -2.2547457218170166, 6.978084564208984, 22.79804229736328, 85.71794891357422, 36.39300537109375, -0.405517578125, -0.064208984375, -0.8447265625, 
352, 3286786414, -0.18305212259292603, 0.165113627910614, -0.11223998665809631, 0.9626174569129944, 3.550133466720581, -2.170196533203125, 6.938677787780762, 28.208850860595703, 87.73099517822266, 34.069515228271484, -0.39794921875, -0.067138671875, -0.850830078125, 
353, 3286794747, -0.18488624691963196, 0.1581878364086151, -0.11161068081855774, 0.963502824306488, 3.4574270248413086, -1.966482162475586, 6.97177791595459, 31.3109188079834, 88.73934173583984, 31.129823684692383, -0.390625, -0.068115234375, -0.853759765625, 
354, 3286803080, -0.18658648431301117, 0.15137313306331635, -0.11074575781822205, 0.9643692374229431, 3.395019054412842, -2.052396059036255, 7.20664644241333, 33.727684020996094, 86.82646179199219, 28.753461837768555, -0.376220703125, -0.068603515625, -0.860595703125, 
355, 3286811413, -0.18819113075733185, 0.14475861191749573, -0.10949249565601349, 0.9652156233787537, 3.2925989627838135, -2.326215982437134, 7.390649318695068, 38.23627471923828, 83.29776763916016, 26.398332595825195, -0.3701171875, -0.071044921875, -0.86669921875, 
356, 3286819746, -0.18970999121665955, 0.13839024305343628, -0.1078614741563797, 0.9660355448722839, 3.2635104656219482, -2.212714910507202, 7.589393615722656, 42.30108642578125, 79.11129760742188, 24.229825973510742, -0.359130859375, -0.07421875, -0.87158203125, 
357, 3286828079, -0.19116291403770447, 0.13236717879772186, -0.10587374866008759, 0.9668128490447998, 3.059582233428955, -2.060234546661377, 7.718783855438232, 46.053707122802734, 73.63822174072266, 22.254610061645508, -0.34716796875, -0.080078125, -0.874755859375, 
358, 3286836412, -0.19252678751945496, 0.12673252820968628, -0.1036764532327652, 0.967535138130188, 2.905952215194702, -1.9966000318527222, 7.898764610290527, 47.4727897644043, 67.92453002929688, 20.28782081604004, -0.342041015625, -0.084716796875, -0.88232421875, 
359, 3286844745, -0.19380804896354675, 0.12147199362516403, -0.10142064094543457, 0.968192994594574, 2.835143566131592, -1.7546135187149048, 8.106043815612793, 47.12712478637695, 62.835575103759766, 18.709423065185547, -0.336669921875, -0.08642578125, -0.881591796875, 
360, 3286853078, -0.1949504017829895, 0.11654184758663177, -0.09926402568817139, 0.9687930345535278, 2.6922364234924316, -1.1776682138442993, 8.18519115447998, 44.512062072753906, 58.7591552734375, 16.734235763549805, -0.32861328125, -0.092529296875, -0.88720703125, 
361, 3286861411, -0.19584934413433075, 0.11173152923583984, -0.0975048840045929, 0.9693568348884583, 2.480562925338745, -0.7828701734542847, 7.96887731552124, 38.551273345947266, 58.550445556640625, 14.050840377807617, -0.319580078125, -0.09765625, -0.89208984375, 
362, 3286869744, -0.19643087685108185, 0.10700433701276779, -0.09648170322179794, 0.9698747396469116, 2.652244806289673, -0.5957369208335876, 7.8624653816223145, 27.87181854248047, 59.732643127441406, 10.973758697509766, -0.314697265625, -0.1015625, -0.895751953125, 
363, 3286878077, -0.19669091701507568, 0.10232804715633392, -0.09600366652011871, 0.9703740477561951, 2.4468653202056885, -0.8765448331832886, 7.738276481628418, 20.049400329589844, 60.9814338684082, 7.466257572174072, -0.30322265625, -0.101806640625, -0.895263671875, 
364, 3286886410, -0.1966738998889923, 0.09753579646348953, -0.09593719989061356, 0.9708774089813232, 2.2316808700561523, -1.3167362213134766, 7.612719535827637, 14.403158187866211, 63.95631408691406, 4.494201183319092, -0.30029296875, -0.1025390625, -0.90087890625, 
365, 3286894743, -0.1965589076280594, 0.09269408881664276, -0.09601923823356628, 0.9713668823242188, 2.2435877323150635, -1.5964778661727905, 7.641284942626953, 12.481186866760254, 65.1953353881836, 3.489017963409424, -0.290771484375, -0.10791015625, -0.90234375, 
366, 3286903076, -0.1963789165019989, 0.08783741295337677, -0.095792256295681, 0.971876859664917, 1.915615200996399, -1.822528600692749, 7.464371204376221, 16.517669677734375, 64.60578155517578, 2.1905505657196045, -0.283447265625, -0.10791015625, -0.906494140625, 
367, 3286911409, -0.19615255296230316, 0.08284501731395721, -0.09528882801532745, 0.9724101424217224, 1.5830484628677368, -1.723162055015564, 7.246031284332275, 20.628293991088867, 65.8379135131836, 1.3567533493041992, -0.275390625, -0.11181640625, -0.907470703125, 
368, 3286919742, -0.1959267407655716, 0.07759799063205719, -0.09463662654161453, 0.972952127456665, 1.4927380084991455, -1.66733717918396, 6.922560214996338, 23.2408390045166, 68.77545928955078, 1.5004503726959229, -0.261962890625, -0.11328125, -0.913330078125, 
369, 3286928075, -0.19571411609649658, 0.07214418798685074, -0.0939345732331276, 0.973482608795166, 1.4293782711029053, -1.6530706882476807, 6.604220867156982, 24.541133880615234, 71.45802307128906, 1.9301832914352417, -0.25927734375, -0.115478515625, -0.919189453125, 
370, 3286936408, -0.19550427794456482, 0.06646712124347687, -0.09326578676700592, 0.9739930629730225, 1.277940034866333, -1.4935250282287598, 6.25600528717041, 24.597444534301758, 74.43392944335938, 2.3368122577667236, -0.24462890625, -0.12109375, -0.918212890625, 
371, 3286944741, -0.1952933371067047, 0.06053565815091133, -0.0928296223282814, 0.974463701248169, 1.425606369972229, -1.4254792928695679, 5.8144025802612305, 22.189674377441406, 78.51628875732422, 2.9758148193359375, -0.240478515625, -0.1201171875, -0.920654296875, 
372, 3286953074, -0.19506341218948364, 0.054340533912181854, -0.09276454895734787, 0.9748808145523071, 1.633483648300171, -1.3536745309829712, 5.384212970733643, 17.763853073120117, 82.94129943847656, 3.5026276111602783, -0.2265625, -0.123046875, -0.9267578125, 
373, 3286961407, -0.19490529596805573, 0.04803331196308136, -0.09311340749263763, 0.975210428237915, 1.355238437652588, -1.3622543811798096, 4.9657793045043945, 12.536649703979492, 85.49016571044922, 5.162980079650879, -0.21923828125, -0.1259765625, -0.929931640625, 
374, 3286969740, -0.1949274092912674, 0.041781485080718994, -0.09385790675878525, 0.9754224419593811, 0.8727536201477051, -1.3415225744247437, 4.53873348236084, 6.972047805786133, 85.40716552734375, 8.075362205505371, -0.208251953125, -0.12646484375, -0.931884765625, 
375, 3286978073, -0.19517134130001068, 0.03584061935544014, -0.0949954092502594, 0.9754999876022339, 0.45127275586128235, -1.254120111465454, 4.247982025146484, 0.9011781811714172, 82.02519989013672, 11.248520851135254, -0.1943359375, -0.12890625, -0.93798828125, 
376, 3286986406, -0.19567802548408508, 0.03056919202208519, -0.09640941768884659, 0.9754392504692078, 0.06409046053886414, -1.1507560014724731, 4.139986515045166, -4.73624849319458, 73.27556610107422, 14.392849922180176, -0.18505859375, -0.13037109375, -0.941162109375, 
377, 3286994739, -0.19638609886169434, 0.026200298219919205, -0.09795261919498444, 0.97527015209198, -0.47964903712272644, -1.1142464876174927, 4.141108512878418, -8.87205982208252, 61.30433654785156, 16.259370803833008, -0.1806640625, -0.1259765625, -0.94287109375, 
378, 3287003072, -0.1971665322780609, 0.022873541340231895, -0.09952007979154587, 0.9750377535820007, -0.7915647029876709, -1.0970959663391113, 4.329391956329346, -12.1556978225708, 47.173828125, 15.990735054016113, -0.173583984375, -0.12646484375, -0.945068359375, 
379, 3287011405, -0.197860985994339, 0.02061552181839943, -0.10100989043712616, 0.9747942686080933, -0.9255038499832153, -1.219474196434021, 4.585476398468018, -13.969367980957031, 32.83787155151367, 13.395825386047363, -0.165283203125, -0.124267578125, -0.9462890625, 
380, 3287019738, -0.19833408296108246, 0.01928752101957798, -0.10230579972267151, 0.9745901226997375, -0.6852036118507385, -1.3105617761611938, 4.9182562828063965, -13.993947982788086, 20.072093963623047, 8.959352493286133, -0.163330078125, -0.122314453125, -0.94580078125, 
381, 3287028071, -0.1986667662858963, 0.01866830140352249, -0.10337130725383759, 0.9744218587875366, -0.2607465386390686, -1.407646894454956, 5.413291931152344, -12.738679885864258, 10.233980178833008, 5.934654235839844, -0.159912109375, -0.119140625, -0.947998046875, 
382, 3287036404, -0.19897615909576416, 0.01848316751420498, -0.10397506505250931, 0.9742981195449829, -0.08187466114759445, -1.557080864906311, 5.941723346710205, -7.76710844039917, 3.1169326305389404, 4.751863956451416, -0.157958984375, -0.115234375, -0.948974609375, 
383, 3287044737, -0.19934047758579254, 0.018583260476589203, -0.10402892529964447, 0.9742160439491272, -0.18327921628952026, -1.7439724206924438, 6.533167839050293, -1.0165778398513794, -2.195037603378296, 4.840155601501465, -0.158447265625, -0.1142578125, -0.949462890625, 
384, 3287053070, -0.19978156685829163, 0.01874552294611931, -0.10355912148952484, 0.9741725921630859, -0.36937105655670166, -1.8325135707855225, 7.030585765838623, 5.813522815704346, -4.646039009094238, 5.5263872146606445, -0.160400390625, -0.11376953125, -0.9501953125, 
385, 3287061403, -0.20025037229061127, 0.018721818923950195, -0.1026381254196167, 0.9741742610931396, -0.37426522374153137, -1.895695686340332, 7.506824016571045, 12.533316612243652, -3.342683792114258, 5.934883117675781, -0.156982421875, -0.1181640625, -0.947998046875, 
386, 3287069736, -0.20075742900371552, 0.01843263767659664, -0.10131669044494629, 0.9742137789726257, -0.4720202386379242, -1.9279125928878784, 7.8859758377075195, 18.597183227539062, -1.0121723413467407, 6.6024932861328125, -0.160888671875, -0.119140625, -0.946533203125, 
387, 3287078069, -0.20126980543136597, 0.01785372383892536, -0.0996835008263588, 0.9742872714996338, -0.536060631275177, -1.8510853052139282, 8.121201515197754, 23.71923065185547, 2.0852560997009277, 6.916948318481445, -0.159912109375, -0.122802734375, -0.946533203125, 
388, 3287086402, -0.20175981521606445, 0.016927286982536316, -0.09797821193933487, 0.974375307559967, -0.3253874182701111, -1.5444324016571045, 8.216005325317383, 25.567211151123047, 6.500269412994385, 7.0219807624816895, -0.161865234375, -0.125732421875, -0.947509765625, 
389, 3287094735, -0.20223943889141083, 0.01570294424891472, -0.09649742394685745, 0.9744440913200378, -0.014873960986733437, -1.2187106609344482, 8.289262771606445, 23.450170516967773, 11.195569038391113, 7.401482582092285, -0.158935546875, -0.124267578125, -0.945556640625, 
390, 3287103068, -0.20272383093833923, 0.014188626781105995, -0.09540997445583344, 0.9744738936424255, -0.052284643054008484, -1.0125118494033813, 8.251816749572754, 18.839778900146484, 16.089807510375977, 8.03266716003418, -0.15576171875, -0.131103515625, -0.94921875, 
391, 3287111401, -0.20321416854858398, 0.012595534324645996, -0.09485131502151489, 0.9744481444358826, -0.4162546396255493, -0.7671809196472168, 8.118660926818848, 11.992667198181152, 18.669763565063477, 8.484769821166992, -0.15673828125, -0.1328125, -0.9501953125, 
392, 3287119734, -0.20369994640350342, 0.01100941002368927, -0.09499777853488922, 0.9743516445159912, -0.5369613170623779, -0.6295037865638733, 7.862969875335693, 2.341705322265625, 20.47167205810547, 8.722674369812012, -0.15185546875, -0.132568359375, -0.949462890625, 
393, 3287128067, -0.20425239205360413, 0.009612621739506721, -0.09589215368032455, 0.9741632342338562, -0.3863113522529602, -0.42210152745246887, 7.812355041503906, -8.239027976989746, 19.99495506286621, 9.751587867736816, -0.14990234375, -0.131591796875, -0.947509765625, 
394, 3287136400, -0.2048298418521881, 0.008532577194273472, -0.09733939915895462, 0.9739086031913757, -0.6906176805496216, -0.5575147867202759, 7.799528121948242, -16.700210571289062, 17.197267532348633, 9.917107582092285, -0.14697265625, -0.130126953125, -0.95166015625, 
395, 3287144733, -0.20536759495735168, 0.007908156141638756, -0.09927135705947876, 0.9736053347587585, -1.0403504371643066, -0.556618869304657, 7.754002094268799, -24.472793579101562, 12.568607330322266, 8.979819297790527, -0.1494140625, -0.123291015625, -0.951416015625, 
396, 3287153066, -0.20572900772094727, 0.00773618882521987, -0.10156363248825073, 0.9732941389083862, -1.1380425691604614, -0.5172337889671326, 7.520129680633545, -30.67624855041504, 7.708648681640625, 6.0514326095581055, -0.14453125, -0.11962890625, -0.949462890625, 
397, 3287161399, -0.2058364450931549, 0.007982299663126469, -0.10410504043102264, 0.9730008244514465, -1.1389620304107666, -0.6531132459640503, 7.204195499420166, -35.1347541809082, 3.2255401611328125, 2.055070638656616, -0.14501953125, -0.1181640625, -0.950927734375, 
398, 3287169732, -0.20569927990436554, 0.00852852314710617, -0.10678160190582275, 0.9727350473403931, -1.1603093147277832, -0.9232558608055115, 6.886360168457031, -37.8402099609375, -0.1073237806558609, -1.7217910289764404, -0.14599609375, -0.115234375, -0.953369140625, 
399, 3287178065, -0.2053213119506836, 0.009295003488659859, -0.10948329418897629, 0.9725075960159302, -0.9910054206848145, -1.0708106756210327, 6.46051025390625, -38.717803955078125, -2.5794591903686523, -5.361603736877441, -0.144287109375, -0.111083984375, -0.951904296875, 
400, 3287186398, -0.20474833250045776, 0.010235821828246117, -0.11204763501882553, 0.9723268151283264, -0.841953456401825, -1.2513628005981445, 5.870794773101807, -37.38248825073242, -5.044986248016357, -8.39130973815918, -0.144287109375, -0.104736328125, -0.9541015625, 
401, 3287194731, -0.20404677093029022, 0.011231360957026482, -0.11447856575250626, 0.9721800684928894, -0.5112583041191101, -1.5474563837051392, 5.142754554748535, -35.66573715209961, -5.909825325012207, -10.301751136779785, -0.148193359375, -0.101806640625, -0.951904296875, 
402, 3287203064, -0.20339630544185638, 0.012272216379642487, -0.11668339371681213, 0.9720417857170105, -0.2457556575536728, -1.53413987159729, 4.343789100646973, -32.801292419433594, -7.268328666687012, -9.756318092346191, -0.1474609375, -0.0947265625, -0.952392578125, 
403, 3287211397, -0.20288735628128052, 0.013352845795452595, -0.11858156323432922, 0.9719040393829346, -0.31245046854019165, -1.5383880138397217, 3.5312697887420654, -28.73435401916504, -8.84952163696289, -7.97335958480835, -0.1474609375, -0.0927734375, -0.954345703125, 
404, 3287219730, -0.20261675119400024, 0.014441359788179398, -0.12028412520885468, 0.9717357754707336, -0.20155653357505798, -1.3928619623184204, 2.901702880859375, -26.201438903808594, -9.929084777832031, -4.760435104370117, -0.1455078125, -0.090087890625, -0.953857421875, 
405, 3287228063, -0.20269563794136047, 0.015818797051906586, -0.12165939062833786, 0.9715266227722168, -0.4161872863769531, -1.0815125703811646, 2.679104804992676, -22.569997787475586, -15.25559139251709, -0.5109786987304688, -0.1474609375, -0.084228515625, -0.9541015625, 
406, 3287236396, -0.2030351161956787, 0.017798643559217453, -0.1224290132522583, 0.971324622631073, -1.2026983499526978, -0.986879825592041, 2.5772511959075928, -16.151784896850586, -25.459211349487305, 1.8035125732421875, -0.152587890625, -0.082275390625, -0.951904296875, 
407, 3287244729, -0.20340943336486816, 0.020544322207570076, -0.1226094588637352, 0.9711694121360779, -1.5076467990875244, -0.869817852973938, 2.5770256519317627, -10.268208503723145, -37.35478210449219, 0.7091565728187561, -0.151611328125, -0.081787109375, -0.952880859375, 
408, 3287253062, -0.2036704421043396, 0.02414233610033989, -0.12224487960338593, 0.9710779190063477, -1.3108155727386475, -0.73648601770401, 2.6754655838012695, -5.361787796020508, -50.07992935180664, -2.5787441730499268, -0.161865234375, -0.083251953125, -0.951416015625, 
409, 3287261395, -0.20371519029140472, 0.028619816526770592, -0.12137330323457718, 0.9710562825202942, -1.0329416990280151, -0.4758710265159607, 2.881227493286133, -0.9435036778450012, -62.84454345703125, -7.306691646575928, -0.166015625, -0.079345703125, -0.948486328125, 
410, 3287269728, -0.20344102382659912, 0.03383973240852356, -0.1201142892241478, 0.9711024165153503, -0.7486003637313843, -0.237325519323349, 3.154815196990967, 2.07212495803833, -73.297119140625, -13.148144721984863, -0.17578125, -0.078857421875, -0.945068359375, 
411, 3287278061, -0.20285388827323914, 0.03957439213991165, -0.11878865957260132, 0.9711714386940002, -0.37129124999046326, -0.14613491296768188, 3.4113850593566895, 1.4745560884475708, -79.82403564453125, -18.275352478027344, -0.185302734375, -0.08056640625, -0.942138671875, 
412, 3287286394, -0.2020120769739151, 0.04562823101878166, -0.11761222779750824, 0.9712247252464294, 0.01359554659575224, -0.11884550005197525, 3.6649820804595947, -1.6330333948135376, -83.27005004882812, -22.070201873779297, -0.194091796875, -0.08056640625, -0.94189453125, 
413, 3287294727, -0.20101019740104675, 0.05182347819209099, -0.11671006679534912, 0.9712305068969727, 0.4766086935997009, -0.4209453761577606, 4.040097236633301, -5.8135480880737305, -84.16548156738281, -24.13783836364746, -0.20556640625, -0.07958984375, -0.93505859375, 
414, 3287303060, -0.2000567764043808, 0.05801193416118622, -0.11592478305101395, 0.971171498298645, 0.8281336426734924, -0.7928363680839539, 4.547084331512451, -7.4782280921936035, -83.87762451171875, -23.212543487548828, -0.21533203125, -0.0810546875, -0.93408203125, 
415, 3287311393, -0.19916513562202454, 0.06405624747276306, -0.11489047855138779, 0.9710978269577026, 0.835296094417572, -1.3078715801239014, 4.916741847991943, -3.681455373764038, -82.74066162109375, -22.320158004760742, -0.226806640625, -0.083251953125, -0.928466796875, 
416, 3287319726, -0.19835293292999268, 0.06996007263660431, -0.11347529292106628, 0.9710230231285095, 0.9633700251579285, -1.8572622537612915, 5.209683418273926, 1.8097723722457886, -82.04080963134766, -21.36609649658203, -0.236572265625, -0.083251953125, -0.924560546875, 
417, 3287328059, -0.19759182631969452, 0.07573872804641724, -0.11159772425889969, 0.9709623456001282, 1.2242915630340576, -2.1215343475341797, 5.477535247802734, 8.446207046508789, -81.68536376953125, -20.97532081604004, -0.24609375, -0.082275390625, -0.920166015625, 
418, 3287336392, -0.19688278436660767, 0.0813690721988678, -0.10922201722860336, 0.970920979976654, 1.5162004232406616, -2.127210855484009, 5.673732280731201, 15.53445053100586, -81.1309585571289, -20.620126724243164, -0.25537109375, -0.08447265625, -0.9228515625, 
419, 3287344725, -0.19623583555221558, 0.08682690560817719, -0.1065136045217514, 0.9708799719810486, 1.8292537927627563, -1.9119548797607422, 5.800408363342285, 20.571243286132812, -79.80152893066406, -19.90958595275879, -0.263427734375, -0.0888671875, -0.910400390625, 
420, 3287353058, -0.19564995169639587, 0.0921124517917633, -0.10374310612678528, 0.9708112478256226, 2.1019506454467773, -1.3967084884643555, 5.865092754364014, 21.838455200195312, -77.81057739257812, -18.837053298950195, -0.275146484375, -0.092529296875, -0.911865234375, 
421, 3287361391, -0.1950792670249939, 0.09731542319059372, -0.10113345831632614, 0.9706938862800598, 2.2719790935516357, -1.1059592962265015, 5.926503658294678, 19.922929763793945, -76.32855224609375, -18.184547424316406, -0.283447265625, -0.097412109375, -0.90771484375, 
422, 3287369724, -0.1944364309310913, 0.10248440504074097, -0.09889304637908936, 0.9705217480659485, 2.609780788421631, -1.1471009254455566, 5.986429691314697, 14.852686882019043, -74.88741302490234, -18.455951690673828, -0.290771484375, -0.100341796875, -0.903564453125, 
423, 3287378057, -0.19367161393165588, 0.10790898650884628, -0.09717101603746414, 0.970260500907898, 2.8503615856170654, -0.9070967435836792, 6.340512275695801, 7.013484477996826, -76.82847595214844, -19.46467399597168, -0.2978515625, -0.101806640625, -0.89794921875, 
424, 3287386390, -0.19275930523872375, 0.11381222307682037, -0.09569645673036575, 0.9699141979217529, 2.7514610290527344, -1.311737298965454, 6.688735485076904, 2.0494978427886963, -82.52869415283203, -21.477134704589844, -0.310302734375, -0.1015625, -0.89306640625, 
425, 3287394723, -0.1917058378458023, 0.12041404843330383, -0.0942743793129921, 0.9694650173187256, 2.671923875808716, -1.6956199407577515, 7.03924560546875, -0.8089808225631714, -91.62435913085938, -23.92214584350586, -0.323486328125, -0.10498046875, -0.88671875, 
426, 3287403056, -0.19049566984176636, 0.12769174575805664, -0.09278391301631927, 0.9689159393310547, 2.9950685501098633, -1.890154242515564, 7.45808744430542, -2.1169087886810303, -100.83564758300781, -26.739238739013672, -0.33251953125, -0.10791015625, -0.881591796875, 
427, 3287411389, -0.1892068088054657, 0.13558758795261383, -0.09117948263883591, 0.9682478308677673, 3.4350502490997314, -1.9816309213638306, 7.789972305297852, -2.459609270095825, -109.40982818603516, -28.462963104248047, -0.34375, -0.1064453125, -0.877197265625, 
428, 3287419722, -0.18790939450263977, 0.14389176666736603, -0.08952101320028305, 0.9674564599990845, 3.6805975437164307, -2.1130011081695557, 8.090142250061035, -3.0217740535736084, -115.27674102783203, -28.870189666748047, -0.357177734375, -0.108154296875, -0.873291015625, 
429, 3287428055, -0.1866387128829956, 0.1523488312959671, -0.08808259665966034, 0.966539204120636, 4.038344860076904, -2.090327739715576, 8.22329330444336, -6.3966474533081055, -116.94043731689453, -27.9388484954834, -0.3701171875, -0.111083984375, -0.864990234375, 
430, 3287436388, -0.1853698492050171, 0.16047416627407074, -0.0871509239077568, 0.9655523300170898, 4.628273963928223, -1.8797121047973633, 7.8881683349609375, -12.410882949829102, -111.45991516113281, -26.27654457092285, -0.382568359375, -0.109130859375, -0.855224609375, 
431, 3287444721, -0.18413503468036652, 0.16796404123306274, -0.08706843852996826, 0.9645218253135681, 5.405969142913818, -1.8111424446105957, 7.679147720336914, -21.995546340942383, -100.89501190185547, -23.0714054107666, -0.39453125, -0.10986328125, -0.846923828125, 
432, 3287453054, -0.1830551028251648, 0.17501457035541534, -0.08759985119104385, 0.9634250402450562, 5.515317916870117, -2.1140642166137695, 7.739589691162109, -28.79452133178711, -93.95291900634766, -18.911026000976562, -0.4033203125, -0.10986328125, -0.8408203125, 
433, 3287461387, -0.1820412278175354, 0.1817515641450882, -0.08846860378980637, 0.9622896909713745, 5.225067138671875, -2.6320712566375732, 7.989945411682129, -32.31441116333008, -88.9944839477539, -16.736759185791016, -0.412841796875, -0.10498046875, -0.83642578125, 
434, 3287469720, -0.18109330534934998, 0.1883818358182907, -0.08931931853294373, 0.9611141681671143, 5.036398410797119, -2.9153892993927, 8.132246017456055, -31.742002487182617, -87.9355697631836, -15.69189167022705, -0.423828125, -0.10400390625, -0.830078125, 
435, 3287478053, -0.180212140083313, 0.1951308697462082, -0.08968737721443176, 0.959898054599762, 4.908281326293945, -3.309101104736328, 8.120512962341309, -25.479936599731445, -90.7470703125, -16.088455200195312, -0.434326171875, -0.1025390625, -0.82275390625, 
436, 3287486386, -0.17940211296081543, 0.20208263397216797, -0.0893448144197464, 0.9586426019668579, 5.039898872375488, -3.3443918228149414, 8.132768630981445, -16.51422691345215, -95.52523040771484, -17.225282669067383, -0.443115234375, -0.100830078125, -0.817138671875, 
437, 3287494719, -0.17870286107063293, 0.20934635400772095, -0.08825001120567322, 0.9573149681091309, 5.131328582763672, -3.203073024749756, 8.28432846069336, -7.08424711227417, -101.6677017211914, -18.04532241821289, -0.45556640625, -0.098876953125, -0.809814453125, 
438, 3287503052, -0.17807751893997192, 0.21694770455360413, -0.08658847957849503, 0.9558898210525513, 5.2692975997924805, -2.8894715309143066, 8.534250259399414, -0.42333099246025085, -108.03775787353516, -18.888574600219727, -0.463134765625, -0.102294921875, -0.8017578125, 
439, 3287511385, -0.17734239995479584, 0.2247219681739807, -0.08493134379386902, 0.9543778896331787, 5.611504077911377, -2.155524969100952, 8.531137466430664, -1.2666122913360596, -110.25338745117188, -20.298534393310547, -0.47802734375, -0.099853515625, -0.791748046875, 
440, 3287519718, -0.17636075615882874, 0.23234295845031738, -0.08403805643320084, 0.9528127312660217, 6.194451808929443, -1.3746802806854248, 8.205924034118652, -11.808566093444824, -106.42993927001953, -20.877483367919922, -0.48876953125, -0.104736328125, -0.783203125, 
441, 3287528051, -0.1750432252883911, 0.23966607451438904, -0.08453602343797684, 0.9511964321136475, 6.927249908447266, -0.9631658792495728, 7.81882381439209, -30.387231826782227, -98.73503112792969, -20.348608016967773, -0.50146484375, -0.101806640625, -0.7744140625, 
442, 3287536384, -0.17341351509094238, 0.2467932254076004, -0.08648239076137543, 0.9494960308074951, 7.251373291015625, -0.9341898560523987, 7.696363925933838, -50.04856872558594, -92.79341888427734, -19.24514389038086, -0.5087890625, -0.09716796875, -0.766845703125, 
443, 3287544717, -0.1715383678674698, 0.253996878862381, -0.08936476707458496, 0.9476681351661682, 6.711634159088135, -1.5173912048339844, 7.697852611541748, -63.38777542114258, -91.48187255859375, -19.02741241455078, -0.519287109375, -0.09619140625, -0.759033203125, 
444, 3287553050, -0.16938894987106323, 0.26150327920913696, -0.09259672462940216, 0.9457008838653564, 6.045130729675293, -2.422511339187622, 7.727866172790527, -69.83743286132812, -94.97174072265625, -21.457317352294922, -0.52783203125, -0.090576171875, -0.752197265625, 
