sep=,
PacketCounter,SampleTimeFine,Quat_W,Quat_X,Quat_Y,Quat_Z,Acc_X,Acc_Y,Acc_Z,Gyr_X,Gyr_Y,Gyr_Z,Mag_X,Mag_Y,Mag_Z,
0, 4015523930, -0.6813538670539856, 0.5131853818893433, -0.40374141931533813, 0.33075204491615295, 0, 0, 0, 0, 0, 0, -0.022216796875, 0.85009765625, -0.2021484375, 
1, 4015532263, -0.6814073920249939, 0.5143520832061768, -0.40330374240875244, 0.3293600082397461, -2.3795392513275146, -8.482783317565918, 0.4023324251174927, -16.445587158203125, -20.02310562133789, 3.5705745220184326, -0.020751953125, 0.848876953125, -0.197265625, 
2, 4015540596, -0.6815767884254456, 0.5155949592590332, -0.40261971950531006, 0.327900230884552, -2.362945556640625, -8.324220657348633, 0.2771703898906708, -15.560772895812988, -23.842679977416992, 2.559478282928467, -0.020263671875, 0.849365234375, -0.1982421875, 
3, 4015548929, -0.6819080114364624, 0.516837477684021, -0.40176400542259216, 0.3263009190559387, -2.351536512374878, -8.479142189025879, 0.1518096923828125, -14.447016716003418, -27.294898986816406, 3.3849754333496094, -0.017822265625, 0.847900390625, -0.193115234375, 
4, 4015557262, -0.6824750304222107, 0.5179867744445801, -0.4007748067378998, 0.3245050609111786, -2.4768712520599365, -8.893375396728516, 0.0867542251944542, -12.344959259033203, -30.86801528930664, 5.850476264953613, -0.018310546875, 0.847412109375, -0.192138671875, 
5, 4015565595, -0.6834471225738525, 0.5188553333282471, -0.39969736337661743, 0.3223934471607208, -2.763546943664551, -9.488280296325684, 0.048669930547475815, -8.202981948852539, -34.88838577270508, 11.540687561035156, -0.017333984375, 0.846923828125, -0.193603515625, 
6, 4015573928, -0.6849749684333801, 0.5192260146141052, -0.39860057830810547, 0.3199026882648468, -3.1008715629577637, -10.573391914367676, 0.09353389590978622, -1.5258039236068726, -38.65977096557617, 20.164966583251953, -0.013916015625, 0.846435546875, -0.1953125, 
7, 4015582261, -0.6869739294052124, 0.5191975831985474, -0.39732667803764343, 0.31723615527153015, -3.0280096530914307, -11.325223922729492, 0.09352929145097733, 5.386351585388184, -42.376522064208984, 24.81747817993164, -0.013916015625, 0.84619140625, -0.1865234375, 
8, 4015590594, -0.6894503831863403, 0.5187267661094666, -0.39589256048202515, 0.3144143223762512, -3.1686971187591553, -11.743810653686523, 0.0771586000919342, 12.852694511413574, -45.71168518066406, 29.639644622802734, -0.009521484375, 0.845703125, -0.193115234375, 
9, 4015598927, -0.6921355128288269, 0.5180968046188354, -0.39426976442337036, 0.3115796148777008, -3.07685923576355, -11.454024314880371, 0.11086194217205048, 16.57318115234375, -48.011924743652344, 30.185962677001953, -0.0068359375, 0.843505859375, -0.194091796875, 
10, 4015607260, -0.69480961561203, 0.5174719095230103, -0.3925724923610687, 0.30879735946655273, -2.9850611686706543, -10.717849731445312, 0.23562230169773102, 17.072782516479492, -48.33623504638672, 29.079004287719727, -0.00244140625, 0.844970703125, -0.197265625, 
11, 4015615593, -0.6973112225532532, 0.5169220566749573, -0.3909265398979187, 0.3061562180519104, -3.0379812717437744, -10.067672729492188, 0.4900253117084503, 15.656412124633789, -46.20957946777344, 26.960697174072266, -0.0009765625, 0.843994140625, -0.19677734375, 
12, 4015623926, -0.6995759010314941, 0.5163936614990234, -0.38937661051750183, 0.3038475513458252, -2.9651036262512207, -9.502785682678223, 0.7456692457199097, 15.164352416992188, -41.76342010498047, 23.340484619140625, -0.0009765625, 0.844970703125, -0.19873046875, 
13, 4015632259, -0.7016867995262146, 0.5157044529914856, -0.38793283700942993, 0.30199193954467773, -2.990187644958496, -9.21839427947998, 0.9727014899253845, 17.59040069580078, -36.01110076904297, 19.951269149780273, 0.00439453125, 0.8447265625, -0.199462890625, 
14, 4015640592, -0.7037878036499023, 0.5147024989128113, -0.3865574300289154, 0.30057239532470703, -3.1757986545562744, -9.191818237304688, 1.2305408716201782, 22.592815399169922, -30.924203872680664, 17.859424591064453, 0.005126953125, 0.843994140625, -0.202392578125, 
15, 4015648925, -0.7059387564659119, 0.5133897066116333, -0.3851165771484375, 0.29962149262428284, -3.2212095260620117, -9.367568969726562, 1.4213358163833618, 28.70136070251465, -27.206628799438477, 14.712507247924805, 0.004638671875, 0.843505859375, -0.205810546875, 
16, 4015657258, -0.7081478834152222, 0.5117794871330261, -0.3835415840148926, 0.29918327927589417, -3.0301151275634766, -9.417865753173828, 1.6586833000183105, 35.28315353393555, -23.987117767333984, 10.610918998718262, 0.007568359375, 0.844970703125, -0.207763671875, 
17, 4015665591, -0.7103784680366516, 0.5098745226860046, -0.3819008767604828, 0.2992466986179352, -2.8036141395568848, -9.389009475708008, 1.8813436031341553, 41.207462310791016, -19.983068466186523, 6.896491527557373, 0.004150390625, 0.84423828125, -0.211181640625, 
18, 4015673924, -0.7124820351600647, 0.5078654289245605, -0.3802869915962219, 0.2997170686721802, -2.7397453784942627, -9.210341453552246, 2.1557018756866455, 43.37294006347656, -15.786271095275879, 3.1427183151245117, 0.004638671875, 0.841552734375, -0.218505859375, 
19, 4015682257, -0.7143380045890808, 0.5059655904769897, -0.3787759840488434, 0.3004246950149536, -2.8222320079803467, -9.026693344116211, 2.3510076999664307, 41.37981414794922, -12.262873649597168, -0.06648185104131699, 0.0068359375, 0.84326171875, -0.221435546875, 
20, 4015690590, -0.715879499912262, 0.5043506026268005, -0.37737837433815, 0.3012291193008423, -2.7545735836029053, -9.049891471862793, 2.5285561084747314, 36.43813705444336, -10.028664588928223, -2.9999043941497803, 0.00732421875, 0.842529296875, -0.227783203125, 
21, 4015698923, -0.7171148061752319, 0.5030595064163208, -0.3760930299758911, 0.30205610394477844, -2.5956521034240723, -9.095356941223145, 2.682567834854126, 30.764442443847656, -8.50259017944336, -5.407464981079102, 0.001953125, 0.8427734375, -0.232421875, 
22, 4015707256, -0.7180700302124023, 0.5020706057548523, -0.37495848536491394, 0.3028414845466614, -2.428959608078003, -9.096674919128418, 2.752394437789917, 25.020000457763672, -7.127408981323242, -6.665712833404541, 0.0029296875, 0.8408203125, -0.23388671875, 
23, 4015715589, -0.7187408804893494, 0.5013993978500366, -0.3740060031414032, 0.3035391867160797, -2.2740437984466553, -9.043614387512207, 2.806030035018921, 18.693096160888672, -5.773412704467773, -7.379220485687256, 0.0009765625, 0.84228515625, -0.235107421875, 
24, 4015723922, -0.7191358804702759, 0.5010325312614441, -0.37326133251190186, 0.3041258156299591, -2.104016065597534, -9.006702423095703, 2.816864013671875, 12.362533569335938, -4.353818893432617, -7.551987648010254, 0, 0.839599609375, -0.238037109375, 
25, 4015732255, -0.7192882895469666, 0.5009299516677856, -0.37269967794418335, 0.30462217330932617, -1.993449091911316, -9.03738784790039, 2.822082281112671, 6.828371524810791, -3.006817102432251, -7.783539295196533, 0, 0.841064453125, -0.241943359375, 
26, 4015740588, -0.7192427515983582, 0.501015841960907, -0.37231719493865967, 0.30505597591400146, -1.9890720844268799, -9.111414909362793, 2.796402931213379, 2.548283100128174, -1.4600753784179688, -7.711306095123291, -0.00244140625, 0.836669921875, -0.240478515625, 
27, 4015748921, -0.719028115272522, 0.5012544989585876, -0.3720816671848297, 0.30545690655708313, -1.9547773599624634, -9.161700248718262, 2.7530298233032227, -0.9347019791603088, 0.012576591223478317, -7.879388332366943, -0.00244140625, 0.839599609375, -0.238525390625, 
28, 4015757254, -0.7186855673789978, 0.5016087293624878, -0.37198659777641296, 0.3057974576950073, -1.9008948802947998, -9.215071678161621, 2.6864404678344727, -3.835859537124634, 1.1348515748977661, -7.428793907165527, -0.00390625, 0.842041015625, -0.2412109375, 
29, 4015765587, -0.7182474136352539, 0.5020498633384705, -0.3719993233680725, 0.3060874342918396, -1.9052859544754028, -9.297135353088379, 2.6458895206451416, -6.088581562042236, 1.9985381364822388, -7.044966220855713, -0.00732421875, 0.842529296875, -0.2412109375, 
30, 4015773920, -0.7177220582962036, 0.502573549747467, -0.3720947802066803, 0.3063443601131439, -1.9873805046081543, -9.299703598022461, 2.57574200630188, -8.002208709716797, 2.661754846572876, -6.923055171966553, -0.00732421875, 0.843505859375, -0.240478515625, 
31, 4015782253, -0.7171112298965454, 0.5031912326812744, -0.37225472927093506, 0.3065662384033203, -1.9823328256607056, -9.249723434448242, 2.503798484802246, -9.994688987731934, 3.1212234497070312, -6.985861301422119, -0.00390625, 0.839599609375, -0.23876953125, 
32, 4015790586, -0.7164286375045776, 0.5038895010948181, -0.3724674880504608, 0.3067565858364105, -2.0099432468414307, -9.255623817443848, 2.4041216373443604, -11.646553993225098, 3.426980972290039, -7.012783050537109, -0.0087890625, 0.843505859375, -0.239501953125, 
33, 4015798919, -0.715713620185852, 0.5046007633209229, -0.37273240089416504, 0.3069348633289337, -2.0071072578430176, -9.356508255004883, 2.3009233474731445, -12.30350399017334, 3.9942071437835693, -6.7461113929748535, -0.00927734375, 0.841552734375, -0.239990234375, 
34, 4015807252, -0.7149683833122253, 0.5053390860557556, -0.3730333149433136, 0.3070911467075348, -2.054537534713745, -9.337566375732422, 2.2174808979034424, -13.022214889526367, 4.211544036865234, -6.534000396728516, -0.0087890625, 0.840576171875, -0.23291015625, 
35, 4015815585, -0.7142208218574524, 0.5060879588127136, -0.37333783507347107, 0.30722808837890625, -2.2126359939575195, -9.401361465454102, 2.1114721298217773, -13.279280662536621, 4.106705665588379, -6.3946332931518555, -0.009765625, 0.840576171875, -0.237060546875, 
36, 4015823918, -0.7134765982627869, 0.5068903565406799, -0.3735804855823517, 0.30733901262283325, -2.308741331100464, -9.382209777832031, 1.9854809045791626, -13.630578994750977, 3.047633409500122, -6.819701194763184, -0.012939453125, 0.84375, -0.231689453125, 
37, 4015832251, -0.7127764821052551, 0.507712721824646, -0.3737398087978363, 0.3074124753475189, -2.3131115436553955, -9.478232383728027, 1.9157105684280396, -13.382685661315918, 1.6852376461029053, -6.959939956665039, -0.012939453125, 0.84423828125, -0.232177734375, 
38, 4015840584, -0.7121285796165466, 0.5085334777832031, -0.3738235831260681, 0.3074554204940796, -2.3084001541137695, -9.588061332702637, 1.8625725507736206, -12.816967010498047, 0.44251155853271484, -6.947721004486084, -0.010986328125, 0.84228515625, -0.229736328125, 
39, 4015848917, -0.7115159034729004, 0.5093377828598022, -0.37386390566825867, 0.3074936270713806, -2.18269681930542, -9.657057762145996, 1.8444209098815918, -12.272461891174316, -0.09990833699703217, -6.983504772186279, -0.011962890625, 0.84228515625, -0.229736328125, 
40, 4015857250, -0.710932731628418, 0.5100831985473633, -0.3739120066165924, 0.30754849314689636, -2.073746919631958, -9.631638526916504, 1.8130111694335938, -11.414395332336426, 0.16258636116981506, -6.652580738067627, -0.011962890625, 0.84326171875, -0.229248046875, 
41, 4015865583, -0.7103917002677917, 0.5107595920562744, -0.3739645481109619, 0.3076120615005493, -2.170276165008545, -9.66596794128418, 1.8009650707244873, -10.440093040466309, 0.36712878942489624, -6.18520975112915, -0.015380859375, 0.84228515625, -0.223876953125, 
42, 4015873916, -0.709848165512085, 0.5114554762840271, -0.37397530674934387, 0.3076976239681244, -2.36478328704834, -9.68072509765625, 1.8303391933441162, -10.335766792297363, 0.0182629507035017, -6.791781425476074, -0.017333984375, 0.84326171875, -0.22412109375, 
43, 4015882249, -0.7092553377151489, 0.512255847454071, -0.37391912937164307, 0.3078015446662903, -2.457036018371582, -9.536239624023438, 1.9010355472564697, -11.346712112426758, -0.6693898439407349, -8.200309753417969, -0.017333984375, 0.8447265625, -0.2236328125, 
44, 4015890582, -0.7085983753204346, 0.5131011009216309, -0.37385106086730957, 0.30798929929733276, -2.3694329261779785, -9.460942268371582, 1.9343353509902954, -11.733357429504395, -0.07928887754678726, -9.59213638305664, -0.015380859375, 0.84423828125, -0.223388671875, 
45, 4015898915, -0.707842230796814, 0.5139841437339783, -0.37382933497428894, 0.30828163027763367, -2.293269395828247, -9.34945011138916, 1.9827406406402588, -12.481550216674805, 1.4859334230422974, -10.911064147949219, -0.020751953125, 0.84228515625, -0.22265625, 
46, 4015907248, -0.7070074081420898, 0.5148215889930725, -0.3738895654678345, 0.30872660875320435, -2.2615814208984375, -9.469313621520996, 1.8900295495986938, -12.13306999206543, 3.9345271587371826, -11.902874946594238, -0.02197265625, 0.84375, -0.2197265625, 
47, 4015915581, -0.706063985824585, 0.5156779885292053, -0.3739489018917084, 0.30938437581062317, -2.4098756313323975, -9.562899589538574, 1.8943578004837036, -12.014758110046387, 5.9344611167907715, -14.552231788635254, -0.02197265625, 0.845703125, -0.219482421875, 
48, 4015923914, -0.7049203515052795, 0.5167450904846191, -0.37396523356437683, 0.31019094586372375, -2.619080066680908, -9.558558464050293, 2.063854217529297, -14.505720138549805, 6.680015563964844, -18.222551345825195, -0.02294921875, 0.8447265625, -0.218505859375, 
49, 4015932247, -0.7035304307937622, 0.5181595683097839, -0.37397056818008423, 0.310979425907135, -2.8073089122772217, -9.472932815551758, 2.2499771118164062, -19.69381332397461, 6.253694534301758, -20.97598648071289, -0.0224609375, 0.8427734375, -0.21630859375, 
50, 4015940580, -0.7018772959709167, 0.5199219584465027, -0.3740202486515045, 0.3117128908634186, -2.7965738773345947, -9.385119438171387, 2.3399453163146973, -25.383821487426758, 6.132284164428711, -23.029895782470703, -0.02880859375, 0.845458984375, -0.212646484375, 
51, 4015948913, -0.7000606656074524, 0.5219370722770691, -0.3740483820438385, 0.3123955726623535, -3.0499017238616943, -9.434579849243164, 2.328275442123413, -29.18537139892578, 5.34649133682251, -24.711837768554688, -0.033447265625, 0.845458984375, -0.20751953125, 
52, 4015957246, -0.698087215423584, 0.5241788625717163, -0.37395143508911133, 0.31317323446273804, -3.2082417011260986, -9.303360939025879, 2.281592845916748, -31.44371223449707, 4.6291656494140625, -28.34541130065918, -0.037841796875, 0.843994140625, -0.203857421875, 
53, 4015965579, -0.695919394493103, 0.5266283750534058, -0.373729944229126, 0.3141516447067261, -3.044912338256836, -9.131635665893555, 2.1583497524261475, -33.29658126831055, 5.01371431350708, -33.097740173339844, -0.040283203125, 0.845458984375, -0.204345703125, 
54, 4015973912, -0.6935211420059204, 0.5293017029762268, -0.3734018802642822, 0.315350204706192, -2.9735493659973145, -9.187026023864746, 2.076082468032837, -35.48922348022461, 5.778623580932617, -38.100341796875, -0.04541015625, 0.845947265625, -0.1962890625, 
55, 4015982245, -0.6908776164054871, 0.532278835773468, -0.3729022145271301, 0.3167297840118408, -3.233802080154419, -9.333508491516113, 2.0050477981567383, -38.52631759643555, 5.429901123046875, -43.724796295166016, -0.05078125, 0.845703125, -0.190185546875, 
56, 4015990578, -0.6879662275314331, 0.5356353521347046, -0.37228548526763916, 0.31813085079193115, -3.3761889934539795, -9.368226051330566, 1.9484816789627075, -43.44406509399414, 4.16780948638916, -47.87316131591797, -0.05517578125, 0.842529296875, -0.187255859375, 
57, 4015998911, -0.6848288178443909, 0.5393381118774414, -0.3716241717338562, 0.3194151222705841, -3.185359477996826, -9.227882385253906, 1.8536014556884766, -48.81736755371094, 2.5584630966186523, -49.8885612487793, -0.064697265625, 0.84521484375, -0.182373046875, 
58, 4016007244, -0.6816703677177429, 0.5430601835250854, -0.37111857533454895, 0.3204508125782013, -2.9788427352905273, -9.438020706176758, 1.7758162021636963, -51.077880859375, 2.1729159355163574, -46.552490234375, -0.06982421875, 0.8447265625, -0.1787109375, 
59, 4016015577, -0.6792816519737244, 0.5455390214920044, -0.3711775839328766, 0.3212433457374573, -2.996278762817383, -10.8717622756958, 1.311354160308838, -37.436317443847656, 7.231400489807129, -30.356861114501953, -0.07568359375, 0.8466796875, -0.171875, 
60, 4016023910, -0.6781721115112305, 0.5463356971740723, -0.37213778495788574, 0.3211226761341095, -5.388322353363037, -10.434197425842285, 2.5192832946777344, -20.736663818359375, 9.668404579162598, -0.7918259501457214, -0.07861328125, 0.84619140625, -0.170166015625, 
61, 4016032243, -0.6776579022407532, 0.5465987920761108, -0.3723413944244385, 0.3215245008468628, -0.9618405699729919, -10.551566123962402, 1.8102458715438843, -5.308999061584473, 5.879440784454346, -6.035239219665527, -0.08056640625, 0.84619140625, -0.169677734375, 
62, 4016040576, -0.6783164739608765, 0.5453275442123413, -0.37252840399742126, 0.3220773935317993, -2.5227692127227783, -11.021474838256836, 1.6840026378631592, 18.687334060668945, 7.608635425567627, 5.519793510437012, -0.0810546875, 0.8486328125, -0.173828125, 
63, 4016048909, -0.679709255695343, 0.5431104898452759, -0.37253761291503906, 0.32287561893463135, -3.2136497497558594, -10.369304656982422, 1.8071420192718506, 35.025230407714844, 8.249176979064941, 9.948068618774414, -0.08154296875, 0.848388671875, -0.17919921875, 
64, 4016057242, -0.6816406846046448, 0.5402159690856934, -0.37259072065353394, 0.32359814643859863, -2.9277215003967285, -9.494223594665527, 1.9277955293655396, 44.83010482788086, 8.312374114990234, 16.89257049560547, -0.08203125, 0.847900390625, -0.185546875, 
65, 4016065575, -0.683939516544342, 0.5369371771812439, -0.37264275550842285, 0.3241434693336487, -2.983961343765259, -9.092249870300293, 1.8926292657852173, 50.224830627441406, 6.847676753997803, 22.097509384155273, -0.08154296875, 0.84716796875, -0.19287109375, 
66, 4016073908, -0.6864040493965149, 0.5335908532142639, -0.37259626388549805, 0.32451286911964417, -3.232983350753784, -8.549408912658691, 1.8829742670059204, 51.656524658203125, 4.037428855895996, 24.161640167236328, -0.075439453125, 0.845458984375, -0.2021484375, 
67, 4016082241, -0.6887602210044861, 0.5305860042572021, -0.37231817841529846, 0.32476675510406494, -3.278970956802368, -7.860828399658203, 1.95645272731781, 48.042274475097656, 0.07054176926612854, 21.259864807128906, -0.077880859375, 0.849365234375, -0.209716796875, 
68, 4016090574, -0.6907723546028137, 0.5281931161880493, -0.3718325197696686, 0.3249504864215851, -3.162766456604004, -7.381886959075928, 2.036367893218994, 40.34220504760742, -3.4125263690948486, 15.799527168273926, -0.0751953125, 0.845458984375, -0.220703125, 
69, 4016098907, -0.6922605037689209, 0.5265867710113525, -0.3712925314903259, 0.3250078558921814, -2.9846343994140625, -7.0092668533325195, 2.1145594120025635, 28.620088577270508, -5.645804405212402, 10.175878524780273, -0.078125, 0.846435546875, -0.225830078125, 
70, 4016107240, -0.6930947303771973, 0.5258498191833496, -0.37086021900177, 0.3249165117740631, -2.6314239501953125, -7.054890155792236, 2.137967109680176, 14.408087730407715, -6.2827253341674805, 5.075563907623291, -0.0751953125, 0.845947265625, -0.227294921875, 
71, 4016115573, -0.6932415962219238, 0.5259405374526978, -0.37057363986968994, 0.3247833251953125, -2.3292346000671387, -7.451923847198486, 2.083268165588379, 0.6433271169662476, -5.348162651062012, -0.8356772065162659, -0.078125, 0.84619140625, -0.235595703125, 
72, 4016123906, -0.6927112936973572, 0.5267508625984192, -0.37034186720848083, 0.32486632466316223, -2.0769126415252686, -8.310790061950684, 1.9973562955856323, -10.214998245239258, -3.0645008087158203, -9.120118141174316, -0.080078125, 0.8486328125, -0.23779296875, 
73, 4016132239, -0.6916516423225403, 0.5279842615127563, -0.37007442116737366, 0.3254261612892151, -1.8026237487792969, -9.590191841125488, 1.8496341705322266, -15.537845611572266, 0.8970364928245544, -18.51557731628418, -0.0859375, 0.850830078125, -0.240966796875, 
74, 4016140572, -0.6903800964355469, 0.5292119979858398, -0.36978334188461304, 0.32646098732948303, -1.7594704627990723, -10.830531120300293, 1.7391269207000732, -14.453750610351562, 5.18463134765625, -24.047697067260742, -0.09130859375, 0.850341796875, -0.24267578125, 
75, 4016148905, -0.6892843842506409, 0.5299432277679443, -0.36956652998924255, 0.32783257961273193, -1.7598165273666382, -11.941255569458008, 1.5587122440338135, -7.1260762214660645, 9.713205337524414, -23.468017578125, -0.0986328125, 0.850341796875, -0.24169921875, 
76, 4016157238, -0.6886304616928101, 0.5299333333969116, -0.36952483654022217, 0.3292670249938965, -2.018602132797241, -12.428208351135254, 1.5160998106002808, 2.6917500495910645, 12.886502265930176, -16.952211380004883, -0.1025390625, 0.85205078125, -0.246337890625, 
77, 4016165571, -0.6885731816291809, 0.5291306972503662, -0.3696211278438568, 0.33056673407554626, -2.243903398513794, -12.091206550598145, 1.4798405170440674, 13.19784164428711, 13.808049201965332, -8.016067504882812, -0.10498046875, 0.85107421875, -0.250732421875, 
78, 4016173904, -0.6891456842422485, 0.527593731880188, -0.36984047293663025, 0.3315839171409607, -2.2197425365448, -11.62889575958252, 1.5381243228912354, 22.77678108215332, 13.018007278442383, 2.224315881729126, -0.1103515625, 0.851806640625, -0.25439453125, 
79, 4016182237, -0.6902621984481812, 0.5255076289176941, -0.3701057434082031, 0.3322767913341522, -2.3344719409942627, -10.974379539489746, 1.5799219608306885, 30.032209396362305, 10.872408866882324, 10.828248977661133, -0.10791015625, 0.855224609375, -0.263427734375, 
80, 4016190570, -0.6917634010314941, 0.5230756402015686, -0.3704039752483368, 0.33265992999076843, -2.400358200073242, -10.342126846313477, 1.6643052101135254, 34.40618896484375, 8.533625602722168, 17.602100372314453, -0.109375, 0.85546875, -0.269287109375, 
81, 4016198903, -0.693491518497467, 0.5204573273658752, -0.37070295214653015, 0.33283549547195435, -2.275944709777832, -9.719754219055176, 1.6618129014968872, 36.712711334228516, 6.777589321136475, 21.490379333496094, -0.1083984375, 0.855224609375, -0.276611328125, 
82, 4016207236, -0.6952945590019226, 0.517769992351532, -0.3709527254104614, 0.3329872190952301, -2.1818737983703613, -9.193527221679688, 1.6848162412643433, 38.04917526245117, 6.03887414932251, 22.138578414916992, -0.109375, 0.861572265625, -0.2841796875, 
83, 4016215569, -0.697033166885376, 0.5151404142379761, -0.3710918724536896, 0.3332751393318176, -2.136707067489624, -8.787004470825195, 1.7171266078948975, 38.20146942138672, 6.047915935516357, 19.378406524658203, -0.105712890625, 0.85888671875, -0.2919921875, 
84, 4016223902, -0.6986150741577148, 0.5126106142997742, -0.3710845708847046, 0.33387118577957153, -1.855332612991333, -8.69197940826416, 1.6760661602020264, 38.41595458984375, 7.1342926025390625, 14.239794731140137, -0.108154296875, 0.86279296875, -0.302490234375, 
85, 4016232235, -0.6999423503875732, 0.5101956725120544, -0.37086617946624756, 0.33503076434135437, -1.4273189306259155, -9.0494966506958, 1.614418387413025, 39.32553482055664, 9.882599830627441, 5.5021748542785645, -0.106201171875, 0.864501953125, -0.308837890625, 
86, 4016240568, -0.7009504437446594, 0.5079313516616821, -0.3704027533531189, 0.336871474981308, -1.1686666011810303, -9.203926086425781, 1.5023874044418335, 40.27680206298828, 13.206462860107422, -4.931400775909424, -0.10302734375, 0.866943359375, -0.314208984375, 
87, 4016248901, -0.7016777992248535, 0.5058398246765137, -0.3697907328605652, 0.33916908502578735, -1.0882010459899902, -9.115997314453125, 1.4805101156234741, 39.63138961791992, 15.624532699584961, -12.631362915039062, -0.10693359375, 0.86572265625, -0.326171875, 
88, 4016257234, -0.7021986246109009, 0.503955066204071, -0.36922788619995117, 0.34150201082229614, -1.031037449836731, -9.139100074768066, 1.5005948543548584, 36.182674407958984, 16.399898529052734, -14.567902565002441, -0.10791015625, 0.866943359375, -0.33349609375, 
89, 4016265567, -0.7026371359825134, 0.5022500157356262, -0.36890965700149536, 0.3434504270553589, -0.9682744741439819, -9.147635459899902, 1.5271166563034058, 30.74390411376953, 15.700955390930176, -10.535825729370117, -0.11328125, 0.868408203125, -0.33935546875, 
90, 4016273900, -0.7030967473983765, 0.5006939172744751, -0.3689233064651489, 0.3447647988796234, -0.9908276796340942, -9.088078498840332, 1.5353987216949463, 24.698850631713867, 13.68979263305664, -2.695246696472168, -0.11279296875, 0.8720703125, -0.3486328125, 
91, 4016282233, -0.7036375999450684, 0.49928292632102966, -0.3691257834434509, 0.345489501953125, -1.1293803453445435, -9.18814468383789, 1.4843710660934448, 19.93830680847168, 10.377713203430176, 3.880173683166504, -0.11376953125, 0.8740234375, -0.353759765625, 
92, 4016290566, -0.7042365670204163, 0.4981559216976166, -0.36925575137138367, 0.3457574248313904, -1.2451536655426025, -8.977301597595215, 1.461378574371338, 15.646021842956543, 4.8742356300354, 6.711442947387695, -0.11279296875, 0.8779296875, -0.358154296875, 
93, 4016298899, -0.7048699855804443, 0.4973686933517456, -0.36923110485076904, 0.34562626481056213, -1.1975065469741821, -8.379949569702148, 1.5473880767822266, 11.273211479187012, -1.1294214725494385, 7.884524345397949, -0.1123046875, 0.882568359375, -0.3662109375, 
94, 4016307232, -0.7054006457328796, 0.4971655011177063, -0.3690977096557617, 0.34497788548469543, -1.2847464084625244, -7.754312038421631, 1.6069645881652832, 2.825352191925049, -7.994239807128906, 8.770723342895508, -0.109375, 0.88623046875, -0.366943359375, 
95, 4016315565, -0.7057238817214966, 0.49769818782806396, -0.3689141869544983, 0.34374240040779114, -1.240238904953003, -7.447110652923584, 1.6105661392211914, -8.498435020446777, -14.91178035736084, 9.333907127380371, -0.11181640625, 0.8896484375, -0.37060546875, 
96, 4016323898, -0.7058066129684448, 0.49892789125442505, -0.36864298582077026, 0.34207725524902344, -0.9243884682655334, -7.4849443435668945, 1.628085970878601, -18.64716148376465, -20.798784255981445, 8.301347732543945, -0.109375, 0.89501953125, -0.3720703125, 
97, 4016332231, -0.7056776285171509, 0.5006052255630493, -0.36830204725265503, 0.34025490283966064, -0.2764779031276703, -7.666073799133301, 1.6215330362319946, -24.939720153808594, -23.565439224243164, 6.014407157897949, -0.113037109375, 0.903076171875, -0.3740234375, 
98, 4016340564, -0.7052750587463379, 0.5025255084037781, -0.3678344190120697, 0.3387615382671356, 0.6298912167549133, -8.091148376464844, 1.6015576124191284, -26.895444869995117, -22.30260467529297, -0.49024415016174316, -0.113037109375, 0.906005859375, -0.37158203125, 
99, 4016348897, -0.704517126083374, 0.5044876933097839, -0.3673172891139984, 0.33798256516456604, 1.550094723701477, -8.584014892578125, 1.577277660369873, -25.938440322875977, -16.224773406982422, -9.691908836364746, -0.11376953125, 0.9140625, -0.37060546875, 
100, 4016357230, -0.703313410282135, 0.5064745545387268, -0.36676228046417236, 0.33812081813812256, 2.1838274002075195, -9.039467811584473, 1.616515874862671, -24.4381160736084, -8.110153198242188, -20.97616958618164, -0.11572265625, 0.919921875, -0.373291015625, 
101, 4016365563, -0.7015306949615479, 0.5087426900863647, -0.36593925952911377, 0.3393086791038513, 2.675997257232666, -9.9350004196167, 1.8432387113571167, -24.67286491394043, -1.7577670812606812, -37.151527404785156, -0.120361328125, 0.926513671875, -0.370849609375, 
102, 4016373896, -0.7000141143798828, 0.5098806619644165, -0.36575621366500854, 0.3409264385700226, 2.699281930923462, -13.713533401489258, 2.490980386734009, -12.708965301513672, 11.33515739440918, -29.845550537109375, -0.126708984375, 0.92822265625, -0.37158203125, 
103, 4016382229, -0.6988632678985596, 0.5099716782569885, -0.3665258586406708, 0.34232184290885925, 1.0455212593078613, -17.29637908935547, 2.3887481689453125, -5.672852039337158, 22.036684036254883, -14.075043678283691, -0.131591796875, 0.9326171875, -0.371826171875, 
104, 4016390562, -0.6977523565292358, 0.5098647475242615, -0.3675295114517212, 0.3436688780784607, 1.5277694463729858, -15.041363716125488, 1.7724698781967163, -4.812572479248047, 24.65748405456543, -10.753107070922852, -0.129150390625, 0.934814453125, -0.375244140625, 
105, 4016398895, -0.696940004825592, 0.5095870494842529, -0.3691574037075043, 0.3439837694168091, 1.4088259935379028, -11.328115463256836, 1.2117844820022583, -9.267760276794434, 22.724063873291016, 5.7868218421936035, -0.128662109375, 0.935302734375, -0.374755859375, 
106, 4016407228, -0.6960906982421875, 0.5102190375328064, -0.37135815620422363, 0.34239423274993896, -1.2318181991577148, -8.031235694885254, 2.1120996475219727, -30.6020450592041, 10.736912727355957, 23.274688720703125, -0.125244140625, 0.937744140625, -0.3720703125, 
107, 4016415561, -0.6950950622558594, 0.5119775533676147, -0.3730561435222626, 0.3399374485015869, 0.3174876570701599, -9.044398307800293, 2.0016796588897705, -44.49123764038086, -4.698262691497803, 21.59940528869629, -0.1220703125, 0.9404296875, -0.36865234375, 
108, 4016423894, -0.6947183012962341, 0.5131842494010925, -0.37421736121177673, 0.33760374784469604, 0.20572713017463684, -10.761042594909668, 2.204580068588257, -31.701541900634766, -9.57765007019043, 22.376474380493164, -0.119140625, 0.944580078125, -0.359619140625, 
109, 4016432227, -0.6948266625404358, 0.5136171579360962, -0.37506890296936035, 0.335772305727005, 0.05295584723353386, -8.689919471740723, 2.5003368854522705, -16.8804931640625, -7.877420425415039, 21.624574661254883, -0.115234375, 0.9462890625, -0.358642578125, 
110, 4016440560, -0.695415735244751, 0.5131950974464417, -0.37594088912010193, 0.33421921730041504, 0.9141409993171692, -8.238166809082031, 2.292773485183716, -3.958950996398926, -4.266988277435303, 25.74057960510254, -0.1123046875, 0.94677734375, -0.3544921875, 
111, 4016448893, -0.6966162919998169, 0.5117381811141968, -0.3769374191761017, 0.33282795548439026, 0.5279992818832397, -8.961856842041016, 2.4024152755737305, 10.498772621154785, -0.3160671293735504, 33.23808670043945, -0.11181640625, 0.9482421875, -0.3564453125, 
112, 4016457226, -0.6983323693275452, 0.5093861222267151, -0.37810367345809937, 0.33151447772979736, -0.5479762554168701, -9.795351028442383, 2.648632287979126, 22.34733772277832, 3.2610058784484863, 40.68242645263672, -0.10546875, 0.949462890625, -0.358154296875, 
113, 4016465559, -0.7002984285354614, 0.5066409707069397, -0.3793778419494629, 0.3301146626472473, -1.4385238885879517, -10.393598556518555, 2.6292691230773926, 26.910484313964844, 4.2085065841674805, 45.46135711669922, -0.102294921875, 0.9462890625, -0.3642578125, 
114, 4016473892, -0.7022953629493713, 0.5039394497871399, -0.38067859411239624, 0.3285064101219177, -1.9217698574066162, -10.19754695892334, 2.444424867630005, 25.521034240722656, 2.6297430992126465, 47.55475997924805, -0.094970703125, 0.94482421875, -0.364990234375, 
115, 4016482225, -0.7040989995002747, 0.5016660690307617, -0.38187533617019653, 0.32673126459121704, -2.3462517261505127, -9.805449485778809, 2.4078304767608643, 19.617626190185547, -0.429564505815506, 45.34336471557617, -0.088623046875, 0.9443359375, -0.36669921875, 
116, 4016490558, -0.7055040597915649, 0.500032901763916, -0.38295841217041016, 0.3249317705631256, -2.5970876216888428, -9.513683319091797, 2.4551806449890137, 11.076227188110352, -2.5062413215637207, 39.62991714477539, -0.08349609375, 0.94580078125, -0.371337890625, 
117, 4016498891, -0.7063800096511841, 0.4990556538105011, -0.3841148018836975, 0.3231607675552368, -2.558791399002075, -9.324117660522461, 2.509531259536743, 0.8727803230285645, -1.715066909790039, 34.049827575683594, -0.08203125, 0.9384765625, -0.36962890625, 
118, 4016507224, -0.7067319750785828, 0.49858325719833374, -0.38550707697868347, 0.32145798206329346, -2.4111990928649902, -9.202919006347656, 2.501786231994629, -8.290733337402344, 1.5386996269226074, 30.000646591186523, -0.078125, 0.941650390625, -0.3681640625, 
119, 4016515557, -0.7066966891288757, 0.49837180972099304, -0.387133926153183, 0.319904625415802, -2.3870325088500977, -9.280285835266113, 2.406235694885254, -13.752435684204102, 5.773710250854492, 27.0706844329834, -0.07421875, 0.939208984375, -0.367919921875, 
120, 4016523890, -0.7064903378486633, 0.4981590509414673, -0.38883131742477417, 0.3186306357383728, -2.5087931156158447, -9.331703186035156, 2.323916435241699, -13.709067344665527, 9.259449005126953, 24.083877563476562, -0.070556640625, 0.939208984375, -0.36865234375, 
121, 4016532223, -0.7063137292861938, 0.497738778591156, -0.39043915271759033, 0.31771165132522583, -2.759054660797119, -9.378304481506348, 2.232729911804199, -9.225549697875977, 11.601873397827148, 21.270204544067383, -0.065185546875, 0.939208984375, -0.366455078125, 
122, 4016540556, -0.7062463164329529, 0.4970853328704834, -0.39183908700942993, 0.3171606659889221, -2.954108715057373, -9.286622047424316, 2.1080832481384277, -3.3029696941375732, 12.504080772399902, 17.991985321044922, -0.060791015625, 0.936279296875, -0.36474609375, 
123, 4016548889, -0.706303060054779, 0.4962649643421173, -0.39299190044403076, 0.3168930411338806, -3.1871888637542725, -9.175017356872559, 1.9741579294204712, 1.7450214624404907, 12.132697105407715, 15.000109672546387, -0.059814453125, 0.935791015625, -0.36328125, 
124, 4016557222, -0.7064236402511597, 0.4953998029232025, -0.39394691586494446, 0.3167915344238281, -3.436429977416992, -9.111590385437012, 1.8452733755111694, 4.40216588973999, 11.163429260253906, 12.548672676086426, -0.058837890625, 0.935302734375, -0.36572265625, 
125, 4016565555, -0.7065616846084595, 0.4946083724498749, -0.3946520686149597, 0.3168427348136902, -3.533590793609619, -9.063626289367676, 1.7311474084854126, 5.694045543670654, 9.39156436920166, 9.043183326721191, -0.058349609375, 0.935302734375, -0.3671875, 
126, 4016573888, -0.7066779732704163, 0.4939666986465454, -0.3950842022895813, 0.31704574823379517, -3.578749656677246, -9.073649406433105, 1.6481878757476807, 6.131613254547119, 7.204618453979492, 4.802464962005615, -0.05517578125, 0.933349609375, -0.368896484375, 
127, 4016582221, -0.7067089080810547, 0.49355295300483704, -0.3952488303184509, 0.31741613149642944, -3.6348683834075928, -9.108762741088867, 1.63267183303833, 5.3844709396362305, 5.242491245269775, -0.25530993938446045, -0.0556640625, 0.933349609375, -0.368408203125, 
128, 4016590554, -0.7066208124160767, 0.49340471625328064, -0.39526233077049255, 0.3178253769874573, -3.4529354572296143, -9.109453201293945, 1.6127212047576904, 2.8939218521118164, 3.4957797527313232, -3.6188435554504395, -0.05126953125, 0.930419921875, -0.36865234375, 
129, 4016598887, -0.7064164280891418, 0.49346739053726196, -0.3952576220035553, 0.31818801164627075, -3.253816604614258, -9.218093872070312, 1.6249265670776367, -0.1425304114818573, 2.7412867546081543, -4.951091289520264, -0.05615234375, 0.93017578125, -0.371337890625, 
130, 4016607220, -0.7061117887496948, 0.4936729073524475, -0.3952651619911194, 0.31853580474853516, -3.0492262840270996, -9.350282669067383, 1.60080087184906, -2.3193304538726807, 2.651047706604004, -5.930963039398193, -0.05712890625, 0.932861328125, -0.368408203125, 
131, 4016615553, -0.7057750225067139, 0.49390751123428345, -0.3952478766441345, 0.318939745426178, -2.8597023487091064, -9.58078670501709, 1.6112587451934814, -2.429805040359497, 2.8636717796325684, -6.952409267425537, -0.05859375, 0.9287109375, -0.368408203125, 
132, 4016623886, -0.7054353952407837, 0.4941120147705078, -0.3951619267463684, 0.3194804787635803, -2.686196804046631, -9.69483757019043, 1.5719656944274902, -1.0898730754852295, 3.2492175102233887, -8.588236808776855, -0.0537109375, 0.930908203125, -0.370849609375, 
133, 4016632219, -0.705162763595581, 0.49421921372413635, -0.3949950933456421, 0.3201221823692322, -2.5236620903015137, -9.653127670288086, 1.5916575193405151, 1.1929830312728882, 3.2365381717681885, -9.300747871398926, -0.0556640625, 0.932861328125, -0.369384765625, 
134, 4016640552, -0.7049936652183533, 0.49419930577278137, -0.39476311206817627, 0.3208109438419342, -2.385157346725464, -9.601240158081055, 1.603009819984436, 3.6913442611694336, 2.8983020782470703, -9.047703742980957, -0.06005859375, 0.9296875, -0.37109375, 
135, 4016648885, -0.7049671411514282, 0.4940297603607178, -0.3944508135318756, 0.3215133845806122, -2.284414291381836, -9.586751937866211, 1.6047612428665161, 6.520898342132568, 2.126544952392578, -8.292698860168457, -0.060302734375, 0.931396484375, -0.36767578125, 
136, 4016657218, -0.7051254510879517, 0.4936947226524353, -0.3940238356590271, 0.32220393419265747, -2.214658260345459, -9.658510208129883, 1.6274906396865845, 9.842294692993164, 0.6359246373176575, -7.232217788696289, -0.060546875, 0.93017578125, -0.37158203125, 
137, 4016665551, -0.7054870128631592, 0.4932103157043457, -0.39345479011535645, 0.32284867763519287, -2.193983554840088, -9.699735641479492, 1.675605297088623, 13.035648345947266, -1.4695016145706177, -6.0510687828063965, -0.06005859375, 0.9306640625, -0.375, 
138, 4016673884, -0.7060271501541138, 0.4926079213619232, -0.39278820157051086, 0.3233989477157593, -2.1364946365356445, -9.755491256713867, 1.7129701375961304, 15.330659866333008, -3.5216379165649414, -4.356508255004883, -0.06201171875, 0.93310546875, -0.377197265625, 
139, 4016682217, -0.7067493796348572, 0.49188506603240967, -0.3920440673828125, 0.3238241672515869, -2.104332208633423, -9.719483375549316, 1.8104348182678223, 17.38459014892578, -5.550004482269287, -2.215644598007202, -0.060546875, 0.93212890625, -0.37646484375, 
140, 4016690550, -0.7076062560081482, 0.49108120799064636, -0.391253262758255, 0.3241296708583832, -2.0941145420074463, -9.6415376663208, 1.9180595874786377, 18.664382934570312, -7.197769641876221, -0.3230084180831909, -0.06298828125, 0.927978515625, -0.381591796875, 
141, 4016698883, -0.708573579788208, 0.4902230501174927, -0.3904208838939667, 0.32431888580322266, -2.1022050380706787, -9.575369834899902, 2.068493127822876, 19.48081398010254, -8.721177101135254, 1.3061217069625854, -0.06494140625, 0.928466796875, -0.382080078125, 
142, 4016707216, -0.7096090912818909, 0.4893098473548889, -0.3895936608314514, 0.3244287967681885, -2.0832252502441406, -9.469491004943848, 2.2038614749908447, 20.043195724487305, -9.343908309936523, 2.7187469005584717, -0.0654296875, 0.9287109375, -0.387451171875, 
143, 4016715549, -0.7106726169586182, 0.4883604049682617, -0.38881751894950867, 0.3244627118110657, -2.040816307067871, -9.42563533782959, 2.3127729892730713, 19.934898376464844, -9.327234268188477, 4.117847919464111, -0.063232421875, 0.92431640625, -0.386474609375, 
144, 4016723882, -0.7116847038269043, 0.4874342679977417, -0.38818269968032837, 0.32439690828323364, -2.0286941528320312, -9.347274780273438, 2.4740664958953857, 18.214189529418945, -8.46331787109375, 5.693253040313721, -0.064697265625, 0.923828125, -0.389892578125, 
145, 4016732215, -0.712612509727478, 0.4865162670612335, -0.3877362012863159, 0.3242720663547516, -2.0506985187530518, -9.262238502502441, 2.5573337078094482, 16.398544311523438, -6.585409164428711, 7.109105110168457, -0.062255859375, 0.9267578125, -0.389404296875, 
146, 4016740548, -0.713422954082489, 0.4856826066970825, -0.3874240815639496, 0.32411277294158936, -2.216165542602539, -9.194287300109863, 2.5790743827819824, 14.018497467041016, -5.266506671905518, 7.377004623413086, -0.056884765625, 0.927734375, -0.392578125, 
147, 4016748881, -0.7141017913818359, 0.48498666286468506, -0.3871850371360779, 0.3239452838897705, -2.344648838043213, -9.10566234588623, 2.59674072265625, 11.402641296386719, -4.494262218475342, 6.622485637664795, -0.058837890625, 0.924072265625, -0.39501953125, 
148, 4016757214, -0.7146146893501282, 0.4844518303871155, -0.3870270550251007, 0.3238033652305603, -2.3795957565307617, -9.048603057861328, 2.6221554279327393, 8.506385803222656, -3.385472536087036, 5.3173112869262695, -0.061279296875, 0.924072265625, -0.395263671875, 
149, 4016765547, -0.714968740940094, 0.48408928513526917, -0.38694146275520325, 0.3236664831638336, -2.403900146484375, -9.024131774902344, 2.6128604412078857, 5.441282749176025, -2.539484739303589, 4.121227741241455, -0.056396484375, 0.92529296875, -0.39501953125, 
150, 4016773880, -0.7151974439620972, 0.48384830355644226, -0.3869308829307556, 0.3235343098640442, -2.410970449447632, -9.067007064819336, 2.6200056076049805, 3.1214277744293213, -1.6656808853149414, 3.3762125968933105, -0.059326171875, 0.923583984375, -0.396484375, 
151, 4016782213, -0.7153297662734985, 0.4836946725845337, -0.38696354627609253, 0.3234325647354126, -2.4474048614501953, -9.10698127746582, 2.581692934036255, 1.5704598426818848, -0.8915930390357971, 2.463679790496826, -0.059814453125, 0.924072265625, -0.3984375, 
152, 4016790546, -0.7153766751289368, 0.48362991213798523, -0.3870198726654053, 0.32335808873176575, -2.4944677352905273, -9.102177619934082, 2.54184889793396, 0.18724004924297333, -0.44188395142555237, 1.5061168670654297, -0.05615234375, 0.922607421875, -0.3974609375, 
153, 4016798879, -0.7153321504592896, 0.48365965485572815, -0.3871040642261505, 0.32331129908561707, -2.4830164909362793, -9.127235412597656, 2.512057065963745, -1.3464250564575195, 0.10939839482307434, 0.5033453106880188, -0.057373046875, 0.924560546875, -0.39697265625, 
154, 4016807212, -0.7152136564254761, 0.48375189304351807, -0.3872241675853729, 0.32329192757606506, -2.46783709526062, -9.183971405029297, 2.43151593208313, -2.447734832763672, 0.7354103326797485, -0.183641254901886, -0.058837890625, 0.924072265625, -0.3955078125, 
155, 4016815545, -0.7150421142578125, 0.48388803005218506, -0.3873645067214966, 0.32329946756362915, -2.4544107913970947, -9.282597541809082, 2.3394927978515625, -3.198436737060547, 1.2266913652420044, -0.7878555059432983, -0.057861328125, 0.924560546875, -0.39794921875, 
156, 4016823878, -0.7148438692092896, 0.484011709690094, -0.3875083327293396, 0.32338035106658936, -2.4078307151794434, -9.367539405822754, 2.2548205852508545, -2.8585355281829834, 1.9206575155258179, -1.533306360244751, -0.057373046875, 0.922607421875, -0.396484375, 
157, 4016832211, -0.714640736579895, 0.48411422967910767, -0.3876284956932068, 0.3235313296318054, -2.4062612056732178, -9.396790504455566, 2.175143241882324, -2.2249419689178467, 2.298314094543457, -2.2957396507263184, -0.058837890625, 0.923095703125, -0.39453125, 
158, 4016840544, -0.7144685983657837, 0.4841679334640503, -0.38772422075271606, 0.32371625304222107, -2.416934013366699, -9.451295852661133, 2.1006476879119873, -1.2269091606140137, 2.313016653060913, -2.3863117694854736, -0.058837890625, 0.924072265625, -0.39453125, 
159, 4016848877, -0.7143796682357788, 0.48415407538414, -0.387747585773468, 0.3239055573940277, -2.4265670776367188, -9.471059799194336, 2.0443928241729736, 0.31377434730529785, 1.5112911462783813, -2.1875710487365723, -0.056884765625, 0.921630859375, -0.39599609375, 
160, 4016857210, -0.7143726944923401, 0.4840877652168274, -0.38768821954727173, 0.3240910470485687, -2.465404748916626, -9.454401969909668, 2.0407395362854004, 1.7445857524871826, 0.44494491815567017, -2.047743082046509, -0.058837890625, 0.922119140625, -0.39794921875, 
161, 4016865543, -0.7144575119018555, 0.4839749038219452, -0.3875233829021454, 0.32426974177360535, -2.4729080200195312, -9.421345710754395, 2.0613298416137695, 3.226701498031616, -0.8944873213768005, -2.033475160598755, -0.058349609375, 0.922119140625, -0.39404296875, 
162, 4016873876, -0.7146092653274536, 0.48383039236068726, -0.38728761672973633, 0.32443302869796753, -2.444899082183838, -9.461955070495605, 2.1216204166412354, 4.236236095428467, -1.9329142570495605, -1.8825567960739136, -0.061279296875, 0.925048828125, -0.397705078125, 
163, 4016882209, -0.7148274183273315, 0.4836443066596985, -0.3870067000389099, 0.3245649039745331, -2.4012527465820312, -9.447728157043457, 2.1882593631744385, 5.10483980178833, -2.7303109169006348, -1.3603334426879883, -0.060302734375, 0.923583984375, -0.399169921875, 
164, 4016890542, -0.7150880694389343, 0.48341670632362366, -0.38672471046447754, 0.3246658146381378, -2.3371713161468506, -9.421913146972656, 2.2203052043914795, 5.651524543762207, -3.0100185871124268, -0.6485139727592468, -0.056640625, 0.920166015625, -0.3984375, 
165, 4016898875, -0.7153660655021667, 0.48318129777908325, -0.3864506185054779, 0.3247299790382385, -2.3266384601593018, -9.3677978515625, 2.247400999069214, 5.595326900482178, -3.212806224822998, -0.12070707976818085, -0.059814453125, 0.921142578125, -0.39697265625, 
166, 4016907208, -0.7156720161437988, 0.4828912317752838, -0.38620707392692566, 0.32477718591690063, -2.2973296642303467, -9.421823501586914, 2.309084415435791, 6.108943462371826, -2.951592206954956, 0.6705037951469421, -0.0595703125, 0.921630859375, -0.400390625, 
167, 4016915541, -0.7159908413887024, 0.48256003856658936, -0.38601112365722656, 0.32479965686798096, -2.284742832183838, -9.419726371765137, 2.3480329513549805, 6.239396572113037, -2.5124106407165527, 1.4992268085479736, -0.06005859375, 0.919921875, -0.40087890625, 
168, 4016923874, -0.7162782549858093, 0.48224586248397827, -0.3858448565006256, 0.3248301148414612, -2.297416925430298, -9.354655265808105, 2.374661445617676, 5.790213584899902, -2.094630002975464, 1.3947080373764038, -0.0625, 0.91845703125, -0.400146484375, 
169, 4016932207, -0.716541051864624, 0.4819161593914032, -0.3857176899909973, 0.32489073276519775, -2.226675033569336, -9.36481761932373, 2.349473237991333, 5.744735240936279, -1.2910215854644775, 1.32248854637146, -0.061279296875, 0.921142578125, -0.399169921875, 
170, 4016940540, -0.7167972326278687, 0.48152998089790344, -0.38563159108161926, 0.3250006437301636, -2.197938919067383, -9.38123607635498, 2.3856048583984375, 6.3579912185668945, -0.29245051741600037, 1.3850897550582886, -0.06103515625, 0.92138671875, -0.402099609375, 
171, 4016948873, -0.7170668244361877, 0.48109495639801025, -0.3855496644973755, 0.32514747977256775, -2.273037910461426, -9.363455772399902, 2.3808767795562744, 7.084231376647949, 0.16239424049854279, 1.3610891103744507, -0.05908203125, 0.922119140625, -0.40234375, 
172, 4016957206, -0.7173270583152771, 0.48067018389701843, -0.38544756174087524, 0.3253224194049835, -2.3005788326263428, -9.347450256347656, 2.4273152351379395, 7.180105686187744, 0.1319645494222641, 0.8598698973655701, -0.0576171875, 0.92138671875, -0.40478515625, 
173, 4016965539, -0.7175343632698059, 0.48033711314201355, -0.3853285014629364, 0.325498104095459, -2.273480176925659, -9.274405479431152, 2.5560848712921143, 5.986841678619385, -0.13899566233158112, 0.014420815743505955, -0.05908203125, 0.92138671875, -0.40380859375, 
174, 4016973872, -0.7176708579063416, 0.4801241159439087, -0.3852405250072479, 0.32561543583869934, -2.2122557163238525, -9.196096420288086, 2.6411995887756348, 3.9063498973846436, -0.402566134929657, -0.15374945104122162, -0.05908203125, 0.9189453125, -0.4052734375, 
175, 4016982205, -0.7177179455757141, 0.4800499677658081, -0.38523244857788086, 0.325630784034729, -2.1054751873016357, -9.203742027282715, 2.7540018558502197, 1.027489423751831, -0.4111212491989136, 0.24028712511062622, -0.05810546875, 0.9189453125, -0.40576171875, 
176, 4016990538, -0.7176952958106995, 0.48004278540611267, -0.3853500783443451, 0.3255520462989807, -1.797782301902771, -9.35174560546875, 2.9055683612823486, -1.138027548789978, 0.25598862767219543, 1.3353724479675293, -0.05908203125, 0.91943359375, -0.40576171875, 
177, 4016998871, -0.7176636457443237, 0.4799361526966095, -0.38561126589775085, 0.3254694938659668, -1.5301263332366943, -9.386218070983887, 3.0964255332946777, -0.896049976348877, 2.1613035202026367, 2.8047072887420654, -0.05859375, 0.919921875, -0.40625, 
178, 4017007204, -0.7176113128662109, 0.47970065474510193, -0.3860492408275604, 0.32541292905807495, -1.585116982460022, -9.360584259033203, 3.231346845626831, -0.3959832489490509, 4.743577003479004, 4.309237003326416, -0.05712890625, 0.91796875, -0.40625, 
179, 4017015537, -0.7172597646713257, 0.4797686040401459, -0.3863343298435211, 0.32574957609176636, -1.2629904747009277, -9.185479164123535, 3.274489164352417, -2.615354299545288, 6.083662986755371, -3.5312938690185547, -0.05712890625, 0.9150390625, -0.4052734375, 
180, 4017023870, -0.7166719436645508, 0.4802491366863251, -0.3865799307823181, 0.32604339718818665, -0.5875800848007202, -8.383679389953613, 3.6411125659942627, -8.271310806274414, 4.791962623596191, -6.618372917175293, -0.0576171875, 0.91357421875, -0.402099609375, 
181, 4017032203, -0.7158815860748291, 0.48091331124305725, -0.386960506439209, 0.3263489603996277, -0.729912281036377, -9.44857120513916, 3.843902826309204, -11.989603042602539, 6.484706401824951, -7.723783016204834, -0.05859375, 0.91162109375, -0.403076171875, 
182, 4017040536, -0.7146754860877991, 0.4820072650909424, -0.3869640827178955, 0.3273729681968689, 0.23304764926433563, -9.318028450012207, 3.8700637817382812, -13.426466941833496, 7.776743412017822, -21.44569969177246, -0.0546875, 0.91064453125, -0.399169921875, 
183, 4017048869, -0.7135928869247437, 0.4827271103858948, -0.3874224126338959, 0.32813090085983276, -0.4226507246494293, -8.996597290039062, 3.893031120300293, -12.424792289733887, 11.546670913696289, -13.260661125183105, -0.0615234375, 0.9130859375, -0.39794921875, 
184, 4017057202, -0.7121908068656921, 0.48368319869041443, -0.3878740668296814, 0.3292335867881775, -0.2768573760986328, -9.513863563537598, 3.8199753761291504, -14.968496322631836, 14.368877410888672, -19.397146224975586, -0.06298828125, 0.90966796875, -0.39697265625, 
185, 4017065535, -0.7107720375061035, 0.4845210313796997, -0.38851794600486755, 0.3303069472312927, -0.2314385622739792, -9.137731552124023, 3.697953462600708, -14.981096267700195, 16.724720001220703, -17.258995056152344, -0.06689453125, 0.906005859375, -0.39501953125, 
186, 4017073868, -0.7093725800514221, 0.48535117506980896, -0.3892285227775574, 0.3312585651874542, -0.5562860369682312, -9.357597351074219, 3.704693078994751, -15.694375038146973, 16.452312469482422, -15.514434814453125, -0.06640625, 0.900634765625, -0.390625, 
187, 4017082201, -0.7080730199813843, 0.48618221282958984, -0.389967679977417, 0.33195000886917114, -1.0026394128799438, -9.220974922180176, 3.6782281398773193, -16.602298736572266, 14.504579544067383, -12.312524795532227, -0.06982421875, 0.898681640625, -0.390625, 
188, 4017090534, -0.7069088220596313, 0.4870285987854004, -0.3906480669975281, 0.33239054679870605, -1.368327260017395, -9.251419067382812, 3.6839210987091064, -16.88210678100586, 11.412120819091797, -9.748103141784668, -0.065185546875, 0.892822265625, -0.389404296875, 
189, 4017098867, -0.7059488892555237, 0.4877545237541199, -0.39116713404655457, 0.33275556564331055, -1.6564719676971436, -9.37523365020752, 3.646211624145508, -14.056161880493164, 8.842856407165527, -8.49046802520752, -0.066162109375, 0.8876953125, -0.390869140625, 
190, 4017107200, -0.7051228284835815, 0.48838749527931213, -0.39151209592819214, 0.3331727087497711, -1.9223856925964355, -9.45035171508789, 3.717407464981079, -11.13418960571289, 7.156516075134277, -9.074625015258789, -0.068603515625, 0.88134765625, -0.38671875, 
191, 4017115533, -0.7044069170951843, 0.48892125487327576, -0.39160966873168945, 0.33378928899765015, -2.285101890563965, -9.476314544677734, 3.902400016784668, -7.274355411529541, 6.015146255493164, -11.606619834899902, -0.070068359375, 0.872314453125, -0.38232421875, 
192, 4017123866, -0.7037709951400757, 0.48935455083847046, -0.3915034532546997, 0.33461931347846985, -2.6615750789642334, -9.312044143676758, 4.109922885894775, -3.628807306289673, 5.448379039764404, -14.161382675170898, -0.0673828125, 0.869873046875, -0.382568359375, 
193, 4017132199, -0.7031325101852417, 0.489706426858902, -0.39126935601234436, 0.33571845293045044, -2.763458490371704, -9.12671947479248, 4.340602397918701, -0.8773517608642578, 6.476765155792236, -17.176616668701172, -0.07080078125, 0.86083984375, -0.384521484375, 
194, 4017140532, -0.7025364637374878, 0.48986920714378357, -0.39091601967811584, 0.3371374011039734, -3.0419161319732666, -9.251070022583008, 4.614058017730713, 3.562685012817383, 8.055474281311035, -19.882095336914062, -0.072021484375, 0.855224609375, -0.384033203125, 
195, 4017148865, -0.7019931674003601, 0.48989853262901306, -0.3903437852859497, 0.3388851583003998, -3.5881712436676025, -8.989992141723633, 5.012153625488281, 7.930631637573242, 8.565046310424805, -23.55162239074707, -0.070068359375, 0.84814453125, -0.38671875, 
196, 4017157198, -0.7014989852905273, 0.4897024631500244, -0.38964924216270447, 0.3409848213195801, -4.129892826080322, -9.318036079406738, 5.318971633911133, 12.955050468444824, 10.468341827392578, -26.353546142578125, -0.07470703125, 0.838134765625, -0.38916015625, 
197, 4017165531, -0.7010109424591064, 0.4891285300254822, -0.3888895809650421, 0.34366849064826965, -4.089240550994873, -9.022634506225586, 5.575508117675781, 20.00779151916504, 15.594222068786621, -30.36372947692871, -0.07666015625, 0.82763671875, -0.39208984375, 
198, 4017173864, -0.700452446937561, 0.48803117871284485, -0.38834506273269653, 0.34696775674819946, -3.698791027069092, -8.688746452331543, 5.797307014465332, 26.923383712768555, 24.57714080810547, -32.3932991027832, -0.072509765625, 0.816650390625, -0.39404296875, 
199, 4017182197, -0.6998018622398376, 0.48621341586112976, -0.3881714940071106, 0.3510030508041382, -3.5302138328552246, -8.432847023010254, 5.76462459564209, 35.3217887878418, 37.11115264892578, -33.58625030517578, -0.07373046875, 0.807373046875, -0.404296875, 
200, 4017190530, -0.698976993560791, 0.483652263879776, -0.38848966360092163, 0.3558003008365631, -3.4166781902313232, -7.864353656768799, 5.70684289932251, 43.08955383300781, 51.36358642578125, -34.503326416015625, -0.070068359375, 0.794921875, -0.408447265625, 
201, 4017198863, -0.6977375745773315, 0.4807705581188202, -0.38938450813293457, 0.3611206114292145, -3.787048816680908, -7.0662031173706055, 5.55249547958374, 43.29263687133789, 64.27118682861328, -36.02264404296875, -0.072509765625, 0.781494140625, -0.419189453125, 
202, 4017207196, -0.6957853436470032, 0.4781838655471802, -0.3908408284187317, 0.36670541763305664, -4.2993693351745605, -6.316390514373779, 5.31575870513916, 34.471195220947266, 73.65646362304688, -39.956153869628906, -0.06689453125, 0.76708984375, -0.425048828125, 
203, 4017215529, -0.6929199695587158, 0.4763854444026947, -0.39279621839523315, 0.3723390996456146, -4.811056137084961, -6.1417341232299805, 4.950966835021973, 18.562421798706055, 79.79998016357422, -46.010738372802734, -0.0654296875, 0.752197265625, -0.4375, 
204, 4017223862, -0.6890273690223694, 0.4756522476673126, -0.3951556086540222, 0.3779611885547638, -5.0485029220581055, -6.563065052032471, 4.482680320739746, -0.34196579456329346, 83.55453491210938, -54.239830017089844, -0.063232421875, 0.7412109375, -0.440673828125, 
205, 4017232195, -0.6841991543769836, 0.4759066104888916, -0.3978300094604492, 0.3835649788379669, -5.119121074676514, -7.378503799438477, 3.8540124893188477, -17.66953468322754, 86.4936752319336, -62.281490325927734, -0.0634765625, 0.7265625, -0.4453125, 
206, 4017240528, -0.6785558462142944, 0.4769245982170105, -0.4006832540035248, 0.3893125653266907, -4.983947277069092, -8.310114860534668, 3.1708340644836426, -30.231407165527344, 89.42529296875, -70.89665222167969, -0.062255859375, 0.71044921875, -0.449951171875, 
207, 4017248861, -0.6723830103874207, 0.4782388508319855, -0.40359655022621155, 0.3953542113304138, -4.804058074951172, -9.414703369140625, 2.6083216667175293, -35.28908920288086, 93.37149810791016, -77.77433013916016, -0.0615234375, 0.697998046875, -0.4521484375, 
208, 4017257194, -0.6659560203552246, 0.47947922348976135, -0.40641820430755615, 0.40178725123405457, -4.791775703430176, -10.136741638183594, 2.085500717163086, -33.48757553100586, 96.78514862060547, -82.90592956542969, -0.064208984375, 0.683837890625, -0.455322265625, 
209, 4017265527, -0.6596022844314575, 0.4803272485733032, -0.4090357720851898, 0.40854236483573914, -4.830782890319824, -10.47481918334961, 1.6781492233276367, -26.605751037597656, 98.9205322265625, -84.67919921875, -0.06396484375, 0.6708984375, -0.458984375, 
210, 4017273860, -0.6535053253173828, 0.48062998056411743, -0.41145607829093933, 0.4154949188232422, -4.805664539337158, -10.468439102172852, 1.3179142475128174, -17.62246322631836, 99.93366241455078, -83.18798065185547, -0.062744140625, 0.6552734375, -0.466064453125, 
211, 4017282193, -0.6477625370025635, 0.4803813695907593, -0.4136790335178375, 0.4225086569786072, -4.656679630279541, -10.265225410461426, 0.9426760673522949, -8.970706939697266, 99.8277359008789, -79.98827362060547, -0.06201171875, 0.63720703125, -0.4697265625, 
212, 4017290526, -0.6423496603965759, 0.47962823510169983, -0.4157060384750366, 0.4295796751976013, -4.37101936340332, -10.113119125366211, 0.6040090322494507, -0.7157869935035706, 99.39727020263672, -76.91725158691406, -0.0634765625, 0.61865234375, -0.470947265625, 
213, 4017298859, -0.6371203660964966, 0.47860199213027954, -0.4175162613391876, 0.43669724464416504, -4.186633586883545, -9.679906845092773, 0.3417629897594452, 4.3429789543151855, 98.4627914428711, -76.21398162841797, -0.064208984375, 0.60205078125, -0.4775390625, 
214, 4017307192, -0.631793200969696, 0.47766831517219543, -0.41914090514183044, 0.44384440779685974, -3.9287898540496826, -9.17250919342041, 0.14769247174263, 4.283860206604004, 96.92741394042969, -78.71318054199219, -0.06787109375, 0.585205078125, -0.480712890625, 
215, 4017315525, -0.6260374784469604, 0.47729361057281494, -0.4205935597419739, 0.45097166299819946, -3.599580764770508, -8.640183448791504, -0.06781324744224548, -2.559654712677002, 94.46619415283203, -85.62289428710938, -0.068359375, 0.566162109375, -0.48828125, 
216, 4017323858, -0.6195216774940491, 0.4779144525527954, -0.4219142496585846, 0.45802339911460876, -3.3716530799865723, -8.35714054107666, -0.2882116436958313, -15.629602432250977, 90.95143127441406, -96.19355010986328, -0.0703125, 0.552490234375, -0.49169921875, 
217, 4017332191, -0.6120717525482178, 0.47975945472717285, -0.4230625331401825, 0.46499842405319214, -3.0233657360076904, -8.542224884033203, -0.4999101459980011, -31.655912399291992, 86.78694915771484, -109.78780364990234, -0.07470703125, 0.53173828125, -0.499267578125, 
218, 4017340524, -0.6036028265953064, 0.482948899269104, -0.42394256591796875, 0.4719144105911255, -2.676931619644165, -8.821028709411621, -0.7953828573226929, -48.22575378417969, 81.37228393554688, -125.27078247070312, -0.0849609375, 0.51708984375, -0.4990234375, 
219, 4017348857, -0.594173789024353, 0.4874287545681, -0.42448440194129944, 0.47873803973197937, -2.2919764518737793, -9.144615173339844, -1.012734293937683, -63.74686813354492, 75.26879119873047, -140.63905334472656, -0.097412109375, 0.49560546875, -0.499267578125, 
220, 4017357190, -0.5839835405349731, 0.49294352531433105, -0.42481258511543274, 0.48529455065727234, -1.8556783199310303, -9.844182968139648, -1.325722336769104, -77.37083435058594, 69.2693862915039, -150.8092041015625, -0.108154296875, 0.486083984375, -0.4970703125, 
221, 4017365523, -0.5732976794242859, 0.4990500211715698, -0.4251168966293335, 0.491488516330719, -0.85584557056427, -10.709062576293945, -1.6541558504104614, -87.51948547363281, 65.65338897705078, -154.95993041992188, -0.12158203125, 0.471435546875, -0.495849609375, 
222, 4017373856, -0.5628102421760559, 0.5046332478523254, -0.42586082220077515, 0.49723145365715027, 0.5358638167381287, -11.733657836914062, -2.22054386138916, -87.5616683959961, 68.31471252441406, -143.851806640625, -0.1376953125, 0.461181640625, -0.493896484375, 
223, 4017382189, -0.5534144639968872, 0.5085096955299377, -0.4272209107875824, 0.5026321411132812, 1.7423981428146362, -12.730712890625, -2.805544137954712, -73.05879211425781, 76.06370544433594, -119.59933471679688, -0.151611328125, 0.451171875, -0.488525390625, 
224, 4017390522, -0.5456271171569824, 0.51008540391922, -0.4290792942047119, 0.5079383850097656, 2.255202054977417, -12.963116645812988, -3.205488681793213, -48.23219680786133, 85.56824493408203, -90.62511444091797, -0.16455078125, 0.439453125, -0.4912109375, 
225, 4017398855, -0.539705753326416, 0.5092076063156128, -0.4312456250190735, 0.5132827758789062, 2.191591262817383, -12.486760139465332, -3.4361166954040527, -18.70948028564453, 94.33808135986328, -61.37053298950195, -0.17578125, 0.432373046875, -0.4892578125, 
226, 4017407188, -0.5354382991790771, 0.5063002705574036, -0.4334796369075775, 0.5187174677848816, 2.00150728225708, -11.661866188049316, -3.5926311016082764, 8.041003227233887, 99.92603302001953, -37.72685623168945, -0.18505859375, 0.428955078125, -0.494384765625, 
227, 4017415521, -0.5324441194534302, 0.5020233988761902, -0.43557485938072205, 0.5241725444793701, 1.7458727359771729, -10.656854629516602, -3.6933507919311523, 28.07402229309082, 101.28303527832031, -21.719900131225586, -0.18994140625, 0.426025390625, -0.4951171875, 
228, 4017423854, -0.5302269458770752, 0.4971143305301666, -0.43738675117492676, 0.5295622944831848, 1.630662202835083, -9.910286903381348, -3.6441967487335205, 39.746910095214844, 98.60203552246094, -13.686991691589355, -0.19482421875, 0.425048828125, -0.495361328125, 
229, 4017432187, -0.5283331871032715, 0.49226388335227966, -0.43888723850250244, 0.5347195863723755, 1.3983489274978638, -9.223702430725098, -3.533424139022827, 42.393592834472656, 92.40806579589844, -12.234944343566895, -0.20166015625, 0.42578125, -0.501708984375, 
230, 4017440520, -0.5263398885726929, 0.4880252182483673, -0.44018036127090454, 0.5394863486289978, 1.4182099103927612, -8.66953182220459, -3.424393653869629, 36.4471321105957, 84.322998046875, -15.111503601074219, -0.205810546875, 0.427490234375, -0.5068359375, 
231, 4017448853, -0.5240766406059265, 0.48469722270965576, -0.44131749868392944, 0.5437443256378174, 1.4722468852996826, -8.605595588684082, -3.2205822467803955, 26.13888931274414, 74.68464660644531, -20.098388671875, -0.210693359375, 0.43408203125, -0.506103515625, 
232, 4017457186, -0.5216200947761536, 0.4821853041648865, -0.4422970116138458, 0.5475305914878845, 1.736270546913147, -9.20030403137207, -2.993253469467163, 17.268606185913086, 65.44697570800781, -24.03826332092285, -0.215087890625, 0.437744140625, -0.5126953125, 
233, 4017465519, -0.5192235112190247, 0.4800651967525482, -0.44319501519203186, 0.5509347319602966, 2.3869807720184326, -10.023003578186035, -2.7635300159454346, 13.179802894592285, 59.03232192993164, -23.873083114624023, -0.22119140625, 0.4482421875, -0.5107421875, 
234, 4017473852, -0.5172892808914185, 0.4777960181236267, -0.44422435760498047, 0.5538898706436157, 2.956766366958618, -10.580217361450195, -2.4986467361450195, 13.529708862304688, 55.29975128173828, -15.28402042388916, -0.226318359375, 0.4541015625, -0.51171875, 
235, 4017482185, -0.5160468220710754, 0.4749910533428192, -0.44558748602867126, 0.5563609600067139, 3.416139841079712, -10.856131553649902, -2.2470619678497314, 16.438623428344727, 54.35340881347656, -1.1993004083633423, -0.229736328125, 0.46533203125, -0.517333984375, 
236, 4017490518, -0.5155743956565857, 0.4714698791503906, -0.44740644097328186, 0.5583307147026062, 3.7214465141296387, -10.728453636169434, -1.994755506515503, 19.940311431884766, 55.070011138916016, 15.707469940185547, -0.2294921875, 0.478515625, -0.5126953125, 
237, 4017498851, -0.515691339969635, 0.4673400819301605, -0.4496218264102936, 0.559912919998169, 3.748795509338379, -10.453691482543945, -1.8477874994277954, 22.71730613708496, 56.41289138793945, 29.215225219726562, -0.230712890625, 0.488525390625, -0.512451171875, 
238, 4017507184, -0.516150951385498, 0.46280238032341003, -0.4520478844642639, 0.5613033175468445, 3.5795624256134033, -10.146815299987793, -1.6396338939666748, 24.933574676513672, 57.697967529296875, 37.17206573486328, -0.22607421875, 0.50244140625, -0.511962890625, 
239, 4017515517, -0.5167638063430786, 0.45808759331703186, -0.4545214772224426, 0.5626077055931091, 3.1998114585876465, -9.989530563354492, -1.4421038627624512, 26.348777770996094, 57.881446838378906, 40.303489685058594, -0.218994140625, 0.5185546875, -0.513427734375, 
240, 4017523850, -0.5174366235733032, 0.45344433188438416, -0.4567685127258301, 0.563929557800293, 2.7342369556427, -10.215153694152832, -1.2216981649398804, 27.99692153930664, 55.474491119384766, 38.83320236206055, -0.214111328125, 0.53076171875, -0.510009765625, 
241, 4017532183, -0.5181624293327332, 0.44896644353866577, -0.4586006999015808, 0.5653572082519531, 2.5358951091766357, -10.425943374633789, -0.9600074291229248, 31.126163482666016, 51.539283752441406, 34.812889099121094, -0.203857421875, 0.542724609375, -0.515625, 
242, 4017540516, -0.518998384475708, 0.44474223256111145, -0.45999377965927124, 0.5667956471443176, 2.197148084640503, -10.56697940826416, -0.617047131061554, 33.388404846191406, 45.83845138549805, 31.335723876953125, -0.202880859375, 0.559814453125, -0.511962890625, 
243, 4017548849, -0.5200086832046509, 0.4406891465187073, -0.4610257148742676, 0.5681950449943542, 2.0860509872436523, -10.654706001281738, -0.2912592589855194, 35.90326690673828, 40.54650115966797, 29.63848876953125, -0.191650390625, 0.570068359375, -0.50927734375, 
244, 4017557182, -0.5212114453315735, 0.43685370683670044, -0.4618251621723175, 0.5694044828414917, 1.965567946434021, -10.302558898925781, -0.05454285815358162, 36.020965576171875, 34.85101318359375, 29.754302978515625, -0.18505859375, 0.584228515625, -0.50830078125, 
245, 4017565515, -0.5225005745887756, 0.4333338141441345, -0.4624723792076111, 0.570386528968811, 1.9472882747650146, -9.943807601928711, 0.22723092138767242, 34.13932418823242, 29.330215454101562, 29.1099796295166, -0.17822265625, 0.5927734375, -0.507080078125, 
246, 4017573848, -0.5238553285598755, 0.43016865849494934, -0.4630460739135742, 0.5710738897323608, 2.086458683013916, -9.656298637390137, 0.6075945496559143, 30.572141647338867, 23.888652801513672, 29.081283569335938, -0.174560546875, 0.60693359375, -0.5048828125, 
247, 4017582181, -0.5252170562744141, 0.4273315668106079, -0.46364274621009827, 0.5714690089225769, 2.120809316635132, -9.643919944763184, 0.9286269545555115, 26.325889587402344, 19.65273094177246, 29.263492584228516, -0.166748046875, 0.619384765625, -0.501220703125, 
248, 4017590514, -0.5265479683876038, 0.4247641861438751, -0.46430084109306335, 0.5716238021850586, 2.2783682346343994, -9.663423538208008, 1.2023133039474487, 22.063697814941406, 16.81574249267578, 29.421497344970703, -0.1611328125, 0.628662109375, -0.49853515625, 
249, 4017598847, -0.527858316898346, 0.42243292927742004, -0.4651029706001282, 0.5714907050132751, 2.3076484203338623, -9.600066184997559, 1.3386701345443726, 17.385578155517578, 14.397982597351074, 30.666627883911133, -0.155029296875, 0.641845703125, -0.4921875, 
250, 4017607180, -0.5291427373886108, 0.42026591300964355, -0.46598124504089355, 0.5711851119995117, 2.363515615463257, -9.683631896972656, 1.4567416906356812, 14.219863891601562, 12.876215934753418, 31.11798095703125, -0.147705078125, 0.654541015625, -0.48828125, 
251, 4017615513, -0.5304668545722961, 0.4181331694126129, -0.46685415506362915, 0.5708093643188477, 2.4162065982818604, -9.885135650634766, 1.5322872400283813, 13.91246509552002, 11.846059799194336, 31.688276290893555, -0.138671875, 0.6630859375, -0.487548828125, 
252, 4017623846, -0.5319035649299622, 0.4160202145576477, -0.4676002860069275, 0.5704054236412048, 2.1218440532684326, -9.868127822875977, 1.6405720710754395, 15.110441207885742, 9.944456100463867, 31.92446517944336, -0.12744140625, 0.676025390625, -0.481201171875, 
253, 4017632179, -0.5335606336593628, 0.41383200883865356, -0.46807628870010376, 0.5700588226318359, 1.8994237184524536, -9.940145492553711, 1.6480114459991455, 19.530675888061523, 7.400398254394531, 32.17844009399414, -0.121826171875, 0.68310546875, -0.477294921875, 
254, 4017640512, -0.535420835018158, 0.41162681579589844, -0.4681888818740845, 0.569818913936615, 1.9681085348129272, -10.014166831970215, 1.762064814567566, 24.22446632385254, 4.235191345214844, 31.02412986755371, -0.112548828125, 0.69287109375, -0.473388671875, 
255, 4017648845, -0.5375009179115295, 0.4094187319278717, -0.46795743703842163, 0.5696415305137634, 1.899771809577942, -9.888985633850098, 1.8528434038162231, 28.71306037902832, 0.5944816470146179, 30.371662139892578, -0.10791015625, 0.702392578125, -0.467041015625, 
256, 4017657178, -0.5397763848304749, 0.40727195143699646, -0.46742650866508484, 0.5694648027420044, 1.8254449367523193, -9.868069648742676, 1.9841824769973755, 31.583967208862305, -3.2844293117523193, 29.80303192138672, -0.09814453125, 0.711181640625, -0.46630859375, 
257, 4017665511, -0.5421711206436157, 0.40518924593925476, -0.4668472409248352, 0.569150447845459, 2.1528663635253906, -9.794042587280273, 2.299816131591797, 31.39670753479004, -5.758563995361328, 31.101451873779297, -0.091796875, 0.7158203125, -0.463623046875, 
258, 4017673844, -0.5446127653121948, 0.4031771123409271, -0.4666624367237091, 0.5683993697166443, 2.507964849472046, -9.534812927246094, 2.6815316677093506, 25.115978240966797, -6.0286407470703125, 36.444278717041016, -0.0830078125, 0.726806640625, -0.46484375, 
259, 4017682177, -0.5470248460769653, 0.40131810307502747, -0.46707358956336975, 0.5670593976974487, 2.549692153930664, -9.422675132751465, 2.7639408111572266, 15.49149227142334, -5.916579246520996, 42.980281829833984, -0.075927734375, 0.735595703125, -0.462890625, 
260, 4017690510, -0.5493547320365906, 0.3997483253479004, -0.46792152523994446, 0.5652138590812683, 2.4123387336730957, -9.361227989196777, 2.772909164428711, 6.08546781539917, -7.070246696472168, 46.658164978027344, -0.063720703125, 0.73974609375, -0.456298828125, 
261, 4017698843, -0.5515455007553101, 0.3986239731311798, -0.46893373131752014, 0.5630310773849487, 2.2619447708129883, -9.31041431427002, 2.719787836074829, -1.3727847337722778, -10.330456733703613, 46.2117805480957, -0.054931640625, 0.7470703125, -0.4541015625, 
262, 4017707176, -0.5537424683570862, 0.3979128897190094, -0.46983954310417175, 0.5606174468994141, 2.322669744491577, -9.479825973510742, 2.6404480934143066, -5.254706859588623, -15.560792922973633, 44.71165084838867, -0.04541015625, 0.759765625, -0.446533203125, 
263, 4017715509, -0.556067943572998, 0.39745980501174927, -0.4704322814941406, 0.5581344962120056, 2.4124135971069336, -9.602221488952637, 2.5847671031951904, -4.436816692352295, -21.2330265045166, 42.91299819946289, -0.0341796875, 0.767578125, -0.4423828125, 
264, 4017723842, -0.558696448802948, 0.39710038900375366, -0.4705745279788971, 0.5556399822235107, 2.610628604888916, -9.712990760803223, 2.5483264923095703, -0.229081392288208, -27.331588745117188, 42.19844436645508, -0.02587890625, 0.7763671875, -0.436279296875, 
265, 4017732175, -0.5619611740112305, 0.3962814509868622, -0.4702264368534088, 0.5532217025756836, 2.8593931198120117, -10.059911727905273, 2.522639751434326, 11.129008293151855, -31.37782859802246, 46.83999252319336, -0.01806640625, 0.781982421875, -0.433837890625, 
266, 4017740508, -0.565640389919281, 0.39542946219444275, -0.46958860754966736, 0.5506172776222229, 2.813419818878174, -9.70051097869873, 2.745330333709717, 14.530853271484375, -36.970096588134766, 49.99488830566406, -0.004638671875, 0.79052734375, -0.431640625, 
267, 4017748841, -0.5699232816696167, 0.3943788707256317, -0.46871137619018555, 0.5476940870285034, 2.5794143676757812, -9.512700080871582, 2.6056137084960938, 19.22380828857422, -43.058467864990234, 57.1129035949707, 0.003662109375, 0.79638671875, -0.4267578125, 
268, 4017757174, -0.5749034285545349, 0.39328157901763916, -0.46745750308036804, 0.5443397760391235, 1.8180761337280273, -10.157526969909668, 2.90305233001709, 23.318737030029297, -52.39065933227539, 63.91495132446289, 0.015380859375, 0.803955078125, -0.428955078125, 
269, 4017765507, -0.5804674625396729, 0.39249083399772644, -0.46582671999931335, 0.540389358997345, 0.9523401260375977, -10.191690444946289, 3.3642678260803223, 23.15113067626953, -64.74298095703125, 69.08599853515625, 0.025634765625, 0.8095703125, -0.430419921875, 
270, 4017773840, -0.5864338278770447, 0.3922858238220215, -0.46385475993156433, 0.5357728004455566, 0.729362428188324, -9.774054527282715, 3.6778392791748047, 18.806114196777344, -77.8934097290039, 71.70448303222656, 0.0390625, 0.816162109375, -0.429931640625, 
271, 4017782173, -0.5924992561340332, 0.3930011987686157, -0.46177804470062256, 0.5303416848182678, 0.7038086652755737, -9.080148696899414, 4.168393611907959, 7.60011625289917, -90.64393615722656, 72.66912078857422, 0.05224609375, 0.823486328125, -0.4267578125, 
272, 4017790506, -0.598408579826355, 0.3947971761226654, -0.4597972631454468, 0.5240569114685059, 0.6257449984550476, -8.725398063659668, 4.467045307159424, -8.275163650512695, -101.2665786743164, 72.03917694091797, 0.060791015625, 0.83349609375, -0.427490234375, 
273, 4017798839, -0.6040327548980713, 0.3975134789943695, -0.4578098654747009, 0.5172467231750488, 1.0441192388534546, -8.833883285522461, 4.6964030265808105, -20.569215774536133, -109.10275268554688, 68.55915069580078, 0.068115234375, 0.84033203125, -0.4248046875, 
274, 4017807172, -0.6092675924301147, 0.40124017000198364, -0.45571058988571167, 0.510033130645752, 1.2427500486373901, -8.106849670410156, 4.428152084350586, -32.93634796142578, -116.87366485595703, 62.061859130859375, 0.081787109375, 0.8505859375, -0.419921875, 
275, 4017815505, -0.6146013140678406, 0.40501341223716736, -0.4534664452075958, 0.5025975704193115, 1.3526803255081177, -9.198963165283203, 4.591198444366455, -33.061744689941406, -120.35699462890625, 63.63348388671875, 0.08837890625, 0.858642578125, -0.417236328125, 
276, 4017823838, -0.6201972961425781, 0.40856051445007324, -0.4509729743003845, 0.495039165019989, 1.70491623878479, -9.88521671295166, 4.453586578369141, -28.825407028198242, -123.12309265136719, 66.39718627929688, 0.0966796875, 0.868408203125, -0.41015625, 
277, 4017832171, -0.6263636946678162, 0.41126367449760437, -0.4482034742832184, 0.4874945282936096, 1.9788470268249512, -10.162343978881836, 4.682457447052002, -16.370473861694336, -123.28677368164062, 73.96080780029297, 0.11083984375, 0.8759765625, -0.4111328125, 
278, 4017840504, -0.6331355571746826, 0.4131700396537781, -0.4454489052295685, 0.4795953631401062, 1.4521292448043823, -10.269719123840332, 5.204935550689697, -8.455979347229004, -123.45945739746094, 85.95346069335938, 0.119384765625, 0.88916015625, -0.412109375, 
279, 4017848837, -0.6401154398918152, 0.41494569182395935, -0.4428676962852478, 0.4711126685142517, 0.8036137223243713, -9.404682159423828, 4.973285675048828, -10.770854949951172, -125.77162170410156, 94.31517791748047, 0.1337890625, 0.896240234375, -0.41650390625, 
280, 4017857170, -0.6473103165626526, 0.4168615937232971, -0.4402298927307129, 0.4619740843772888, 0.26644062995910645, -8.783814430236816, 5.193873405456543, -14.491337776184082, -132.13589477539062, 100.18187713623047, 0.1494140625, 0.9072265625, -0.4208984375, 
281, 4017865503, -0.6545180678367615, 0.41909563541412354, -0.43745627999305725, 0.45233115553855896, -0.163290336728096, -8.693010330200195, 5.483267784118652, -19.36063575744629, -138.4296112060547, 102.17617797851562, 0.16162109375, 0.913818359375, -0.4228515625, 
282, 4017873836, -0.6615254282951355, 0.42176347970962524, -0.4345698952674866, 0.44232916831970215, 0.05931611359119415, -8.61182689666748, 5.649765968322754, -25.957475662231445, -142.9126739501953, 100.77433776855469, 0.17626953125, 0.927490234375, -0.428955078125, 
283, 4017882169, -0.6681767702102661, 0.42490166425704956, -0.4315027892589569, 0.43221524357795715, 0.3798001706600189, -8.513154983520508, 5.859957218170166, -31.80122184753418, -146.02609252929688, 95.89579010009766, 0.1884765625, 0.942138671875, -0.4306640625, 
284, 4017890502, -0.6743881702423096, 0.4286068379878998, -0.42827820777893066, 0.42199671268463135, 0.22110822796821594, -8.421588897705078, 6.072120189666748, -39.33699417114258, -148.75616455078125, 89.82978820800781, 0.19873046875, 0.95361328125, -0.435302734375, 
285, 4017898835, -0.6801290512084961, 0.4327962100505829, -0.42493483424186707, 0.41176316142082214, 0.14632606506347656, -8.688312530517578, 6.327140808105469, -45.935890197753906, -150.06495666503906, 83.81365203857422, 0.207763671875, 0.966796875, -0.43603515625, 
286, 4017907168, -0.6852856874465942, 0.4375874400138855, -0.421561062335968, 0.4014892578125, 0.2887497544288635, -8.793936729431152, 6.448831081390381, -55.16910171508789, -150.50497436523438, 77.05972290039062, 0.217529296875, 0.985595703125, -0.4404296875, 
287, 4017915501, -0.6897977590560913, 0.4430175721645355, -0.41818559169769287, 0.39120566844940186, 0.4181308150291443, -8.706147193908691, 6.426629543304443, -65.06097412109375, -150.43727111816406, 70.00553894042969, 0.22412109375, 1.004638671875, -0.442138671875, 
288, 4017923834, -0.6936522722244263, 0.4490881860256195, -0.41486477851867676, 0.3808673322200775, 0.26968610286712646, -8.625630378723145, 6.346853256225586, -75.80567169189453, -149.85057067871094, 63.507511138916016, 0.229736328125, 1.02294921875, -0.438720703125, 
289, 4017932167, -0.6969181299209595, 0.45565083622932434, -0.4115227162837982, 0.3705982565879822, -0.07048729062080383, -8.821918487548828, 6.013961315155029, -83.58134460449219, -148.90029907226562, 56.95820999145508, 0.227294921875, 1.0439453125, -0.436767578125, 
290, 4017940500, -0.699537992477417, 0.46274229884147644, -0.40797293186187744, 0.36066722869873047, -0.039510853588581085, -8.78646183013916, 5.660585403442383, -89.77210998535156, -147.75631713867188, 46.00143814086914, 0.2236328125, 1.06689453125, -0.437744140625, 
291, 4017948833, -0.7014298439025879, 0.4703827500343323, -0.4041641354560852, 0.3512750267982483, 0.2051994800567627, -8.621652603149414, 5.272095680236816, -95.33727264404297, -145.50294494628906, 32.60861587524414, 0.217041015625, 1.0908203125, -0.42919921875, 
292, 4017957166, -0.7026482820510864, 0.47852015495300293, -0.4000564217567444, 0.3424399197101593, 0.37844857573509216, -8.606091499328613, 4.991058826446533, -99.98892974853516, -143.39503479003906, 19.155895233154297, 0.206787109375, 1.117919921875, -0.42138671875, 
293, 4017965499, -0.7034419775009155, 0.48692500591278076, -0.39559853076934814, 0.3340386152267456, 0.3886171281337738, -8.957393646240234, 4.846530437469482, -101.29480743408203, -142.88717651367188, 9.324397087097168, 0.189453125, 1.14404296875, -0.40966796875, 
294, 4017973832, -0.7041691541671753, 0.4952079653739929, -0.3908058702945709, 0.32587146759033203, 0.35468560457229614, -9.48253059387207, 4.78314733505249, -97.7870864868164, -143.59400939941406, 5.036661148071289, 0.168701171875, 1.1708984375, -0.393310546875, 
295, 4017982165, -0.7051858305931091, 0.5029904842376709, -0.38571348786354065, 0.31771862506866455, 0.34617918729782104, -9.97717571258545, 4.718521595001221, -89.51201629638672, -145.7476043701172, 6.98725700378418, 0.140625, 1.1943359375, -0.38037109375, 
296, 4017990498, -0.7067015171051025, 0.5100768208503723, -0.38033416867256165, 0.3094303011894226, 0.27373450994491577, -10.202156066894531, 4.724056720733643, -78.80913543701172, -149.03675842285156, 12.048266410827637, 0.115966796875, 1.208984375, -0.360595703125, 
297, 4017998831, -0.7087565660476685, 0.5163750052452087, -0.3747154176235199, 0.30102482438087463, 0.12403693050146103, -10.12757682800293, 4.725349426269531, -66.9314956665039, -151.68515014648438, 18.069828033447266, 0.083740234375, 1.2265625, -0.340087890625, 
298, 4018007164, -0.711281418800354, 0.5218966007232666, -0.36893588304519653, 0.29256701469421387, -0.013999935239553452, -9.820237159729004, 4.760595321655273, -55.65988540649414, -152.79656982421875, 23.239986419677734, 0.053466796875, 1.234619140625, -0.3193359375, 
299, 4018015497, -0.7140511274337769, 0.5268396139144897, -0.36305558681488037, 0.2841971516609192, -0.18084833025932312, -9.574243545532227, 4.878251552581787, -47.360740661621094, -152.08746337890625, 25.72686004638672, 0.025390625, 1.2421875, -0.298583984375, 
300, 4018023830, -0.7169065475463867, 0.5313246846199036, -0.35718467831611633, 0.2759796380996704, -0.2904425859451294, -9.23267650604248, 4.956266403198242, -41.550743103027344, -149.5080108642578, 26.768714904785156, -0.0048828125, 1.24658203125, -0.27099609375, 
301, 4018032163, -0.719755232334137, 0.5353960394859314, -0.3514370620250702, 0.26795893907546997, -0.5939406156539917, -9.268057823181152, 5.069490909576416, -36.99325942993164, -145.26148986816406, 27.890832901000977, -0.027587890625, 1.234619140625, -0.25, 
302, 4018040496, -0.7225454449653625, 0.5391138195991516, -0.3458220958709717, 0.2601889371871948, -1.025287389755249, -9.211321830749512, 5.145995140075684, -33.22981262207031, -140.50662231445312, 27.7255802154541, -0.050048828125, 1.228271484375, -0.229736328125, 
303, 4018048829, -0.7252514362335205, 0.5425688624382019, -0.3402688205242157, 0.25269168615341187, -1.437389612197876, -9.045949935913086, 5.189197063446045, -30.144128799438477, -136.53102111816406, 26.574886322021484, -0.06396484375, 1.2109375, -0.203369140625, 
304, 4018057162, -0.7277858257293701, 0.5459159016609192, -0.33468157052993774, 0.24555763602256775, -1.8477609157562256, -8.947877883911133, 5.243854522705078, -28.553037643432617, -132.9815673828125, 22.455223083496094, -0.080078125, 1.198974609375, -0.185302734375, 
305, 4018065495, -0.7300050854682922, 0.5493529438972473, -0.32900142669677734, 0.23888996243476868, -2.000748634338379, -8.703841209411621, 5.322300434112549, -29.341249465942383, -129.2525177001953, 15.764068603515625, -0.0888671875, 1.179931640625, -0.16357421875, 
306, 4018073828, -0.7318751811981201, 0.5529030561447144, -0.32328760623931885, 0.23269838094711304, -2.0556437969207764, -8.569640159606934, 5.457157135009766, -30.866411209106445, -124.79702758789062, 8.918469429016113, -0.1005859375, 1.163818359375, -0.14599609375, 
307, 4018082161, -0.7334335446357727, 0.556486189365387, -0.31764596700668335, 0.22694924473762512, -2.218679666519165, -8.467860221862793, 5.547097682952881, -31.820775985717773, -119.40306091308594, 4.019619941711426, -0.1083984375, 1.14306640625, -0.128173828125, 
308, 4018090494, -0.7347862124443054, 0.5599368810653687, -0.3122139871120453, 0.22156018018722534, -2.4140262603759766, -8.659014701843262, 5.597641944885254, -31.154258728027344, -113.24353790283203, 1.7785592079162598, -0.109375, 1.12451171875, -0.110595703125, 
309, 4018098827, -0.7359082698822021, 0.5632823705673218, -0.3069874048233032, 0.2166048288345337, -2.3540639877319336, -8.680710792541504, 5.593911170959473, -30.623262405395508, -106.48284912109375, -1.1246691942214966, -0.11328125, 1.109130859375, -0.0986328125, 
310, 4018107160, -0.7367745637893677, 0.5665196180343628, -0.30208972096443176, 0.212055042386055, -2.241183280944824, -8.693288803100586, 5.616785526275635, -30.782669067382812, -98.64521789550781, -3.135403633117676, -0.112060546875, 1.092041015625, -0.0859375, 
311, 4018115493, -0.7373084425926208, 0.5697188377380371, -0.2975981533527374, 0.2079385221004486, -2.221155881881714, -8.558890342712402, 5.536862850189209, -32.37440872192383, -89.61634826660156, -5.026974678039551, -0.11328125, 1.07373046875, -0.074951171875, 
312, 4018123826, -0.7375068664550781, 0.572884738445282, -0.29359737038612366, 0.20419052243232727, -2.3633971214294434, -8.50949764251709, 5.464439868927002, -34.55635452270508, -80.33062744140625, -5.886843204498291, -0.1123046875, 1.060546875, -0.064697265625, 
313, 4018132159, -0.7373324632644653, 0.5761010050773621, -0.2900327146053314, 0.20083831250667572, -2.4890806674957275, -8.526307106018066, 5.304605960845947, -37.64262771606445, -71.36640167236328, -7.573570728302002, -0.107177734375, 1.0458984375, -0.056396484375, 
314, 4018140492, -0.7367551922798157, 0.5794382691383362, -0.2868618965148926, 0.1978890746831894, -2.528653860092163, -8.473998069763184, 5.11112117767334, -41.53114700317383, -62.96834945678711, -10.275982856750488, -0.105712890625, 1.029541015625, -0.045166015625, 
315, 4018148825, -0.7357982397079468, 0.5829180479049683, -0.28400975465774536, 0.19532658159732819, -2.685481548309326, -8.468430519104004, 4.897965908050537, -45.36027145385742, -55.477657318115234, -13.113460540771484, -0.10546875, 1.019287109375, -0.0361328125, 
316, 4018157158, -0.7345160841941833, 0.5864967703819275, -0.2814430594444275, 0.1931426227092743, -2.7730765342712402, -8.537879943847656, 4.658690929412842, -48.23817825317383, -48.62152099609375, -16.051626205444336, -0.103515625, 1.004638671875, -0.02783203125, 
317, 4018165491, -0.7329810857772827, 0.5901176929473877, -0.2791082262992859, 0.19132447242736816, -2.8168880939483643, -8.803802490234375, 4.376769542694092, -49.93171310424805, -42.38447189331055, -18.577529907226562, -0.100830078125, 0.99560546875, -0.025146484375, 
318, 4018173824, -0.7312486171722412, 0.5937190055847168, -0.27697208523750305, 0.1899109184741974, -2.752535581588745, -9.014941215515137, 4.088609218597412, -50.278770446777344, -36.366371154785156, -21.62253189086914, -0.096435546875, 0.98291015625, -0.0126953125, 
319, 4018182157, -0.7293778657913208, 0.5972632169723511, -0.27498888969421387, 0.1888708621263504, -2.623741626739502, -9.165313720703125, 3.864269733428955, -49.84575653076172, -31.019458770751953, -24.1442928314209, -0.09912109375, 0.974609375, -0.0048828125, 
320, 4018190490, -0.7274496555328369, 0.6006529927253723, -0.2733147442340851, 0.18798527121543884, -2.584686517715454, -9.2545747756958, 3.7494089603424072, -48.95345687866211, -26.116086959838867, -22.84813690185547, -0.095703125, 0.962890625, -0.0009765625, 
321, 4018198823, -0.7256860733032227, 0.6036384701728821, -0.27204373478889465, 0.1870802342891693, -2.523364782333374, -9.451863288879395, 3.585435628890991, -44.704078674316406, -21.72833824157715, -17.252111434936523, -0.090576171875, 0.95458984375, 0.00341796875, 
322, 4018207156, -0.7242813110351562, 0.6060002446174622, -0.2713002860546112, 0.18596485257148743, -2.3819072246551514, -9.886479377746582, 3.3739471435546875, -37.603458404541016, -18.036638259887695, -7.6459245681762695, -0.089111328125, 0.946533203125, 0.007080078125, 
323, 4018215489, -0.723379909992218, 0.6075603365898132, -0.2711363732814789, 0.1846170425415039, -2.1252048015594482, -10.046113967895508, 3.2275173664093018, -27.82330894470215, -13.935104370117188, 3.9026010036468506, -0.08642578125, 0.937744140625, 0.009765625, 
324, 4018223822, -0.7230817675590515, 0.6081972122192383, -0.2716485857963562, 0.18292713165283203, -1.9374173879623413, -10.013328552246094, 3.0910589694976807, -16.543411254882812, -10.067540168762207, 17.80436134338379, -0.080078125, 0.928955078125, 0.01220703125, 
325, 4018232155, -0.7233882546424866, 0.6078686118125916, -0.27287811040878296, 0.18096721172332764, -1.6693283319473267, -10.185571670532227, 2.892672061920166, -4.7521233558654785, -4.921945571899414, 31.737422943115234, -0.071044921875, 0.92333984375, 0.009765625, 
326, 4018240488, -0.7243534326553345, 0.6065230369567871, -0.27470535039901733, 0.1788444221019745, -1.758553147315979, -10.085295677185059, 2.6086292266845703, 8.82465648651123, -0.38041046261787415, 43.687686920166016, -0.06494140625, 0.9208984375, 0.006591796875, 
327, 4018248821, -0.7258450984954834, 0.604392409324646, -0.2767851948738098, 0.17679108679294586, -2.4592971801757812, -9.912947654724121, 2.4175329208374023, 20.61977195739746, 2.7657556533813477, 49.48537063598633, -0.048583984375, 0.912109375, 0.00341796875, 
328, 4018257154, -0.7274883389472961, 0.60196453332901, -0.27877694368362427, 0.1751834899187088, -2.768691301345825, -9.371798515319824, 2.3410396575927734, 26.816070556640625, 5.6284356117248535, 45.680877685546875, -0.03857421875, 0.910888671875, -0.00537109375, 
329, 4018265487, -0.7290542721748352, 0.5996207594871521, -0.28039199113845825, 0.17413149774074554, -2.9399001598358154, -8.902424812316895, 2.288508653640747, 28.311376571655273, 6.663773536682129, 36.614707946777344, -0.027099609375, 0.905517578125, -0.01171875, 
330, 4018273820, -0.7303339242935181, 0.597655713558197, -0.2815784215927124, 0.17360898852348328, -3.4672951698303223, -8.48975658416748, 2.2929983139038086, 25.281766891479492, 6.817698001861572, 25.50658416748047, -0.0205078125, 0.8974609375, -0.01953125, 
331, 4018282153, -0.7311297059059143, 0.596356213092804, -0.2823280692100525, 0.17351147532463074, -3.8391246795654297, -8.426371574401855, 2.4421846866607666, 17.245637893676758, 6.3237223625183105, 14.028565406799316, -0.015380859375, 0.889892578125, -0.025146484375, 
332, 4018290486, -0.7313824892044067, 0.5957868099212646, -0.2827886939048767, 0.17365142703056335, -3.8876121044158936, -8.501538276672363, 2.647139310836792, 7.126290321350098, 5.617458820343018, 5.029560565948486, -0.00439453125, 0.885009765625, -0.028076171875, 
333, 4018298819, -0.7311631441116333, 0.5958149433135986, -0.28310659527778625, 0.1739603877067566, -3.758213520050049, -8.851512908935547, 2.8051538467407227, -1.8190076351165771, 6.093447208404541, -1.186669111251831, -0.002197265625, 0.87939453125, -0.0341796875, 
334, 4018307152, -0.7305682897567749, 0.5962859392166138, -0.28339067101478577, 0.17438338696956635, -3.6817679405212402, -9.06296443939209, 3.035327196121216, -8.757519721984863, 6.972809314727783, -5.337507247924805, 0.002197265625, 0.876708984375, -0.037353515625, 
335, 4018315485, -0.7297357320785522, 0.5969775915145874, -0.2837272584438324, 0.17495408654212952, -3.6618354320526123, -9.216044425964355, 3.2493348121643066, -12.545574188232422, 9.230744361877441, -7.724974155426025, 0.0048828125, 0.867919921875, -0.0400390625, 
336, 4018323818, -0.728786289691925, 0.59767746925354, -0.2841723561286926, 0.17579792439937592, -3.5134963989257812, -9.238198280334473, 3.3956074714660645, -12.711544036865234, 12.874847412109375, -9.982985496520996, 0.005126953125, 0.86181640625, -0.04150390625, 
337, 4018332151, -0.7278534770011902, 0.5981606245040894, -0.2847691476345062, 0.1770484298467636, -3.3408379554748535, -9.154715538024902, 3.4670794010162354, -9.259844779968262, 18.323562622070312, -11.835562705993652, 0.009033203125, 0.859375, -0.040771484375, 
338, 4018340484, -0.7270327806472778, 0.5982581973075867, -0.28552067279815674, 0.17887145280838013, -3.3013484477996826, -9.16012954711914, 3.4204862117767334, -2.53167462348938, 24.955299377441406, -14.599855422973633, 0.007568359375, 0.853759765625, -0.042724609375, 
339, 4018348817, -0.7263724207878113, 0.5979043841362, -0.2863805890083313, 0.18134528398513794, -3.279351234436035, -8.9494047164917, 3.363835334777832, 5.500970363616943, 32.006710052490234, -17.964832305908203, 0.01171875, 0.84765625, -0.05078125, 
340, 4018357150, -0.725743293762207, 0.5972068905830383, -0.2873663902282715, 0.18457439541816711, -3.2561793327331543, -8.954976081848145, 3.178161144256592, 11.937103271484375, 40.0753173828125, -23.125869750976562, 0.013916015625, 0.844970703125, -0.056396484375, 
341, 4018365483, -0.7251296043395996, 0.5961930751800537, -0.2884870171546936, 0.18847507238388062, -3.213878870010376, -8.926319122314453, 3.029097080230713, 17.437427520751953, 47.81504821777344, -27.35783576965332, 0.010986328125, 0.83642578125, -0.064453125, 
342, 4018373816, -0.7244393229484558, 0.5950331091880798, -0.2896878123283386, 0.19290146231651306, -3.4907751083374023, -8.898616790771484, 2.8954756259918213, 20.240802764892578, 53.46917724609375, -31.634687423706055, 0.0146484375, 0.828857421875, -0.070556640625, 
343, 4018382149, -0.723642885684967, 0.5938658714294434, -0.2908118963241577, 0.1977357268333435, -3.727949857711792, -8.937946319580078, 2.8625316619873047, 21.168310165405273, 56.62816619873047, -36.51293182373047, 0.010986328125, 0.823486328125, -0.078369140625, 
344, 4018390482, -0.7226558327674866, 0.5928480625152588, -0.29188865423202515, 0.2027493119239807, -3.907106399536133, -8.990099906921387, 2.840743064880371, 19.076587677001953, 57.83374786376953, -39.86546325683594, 0.015380859375, 0.821533203125, -0.085205078125, 
345, 4018398815, -0.7214942574501038, 0.5920150876045227, -0.29287487268447876, 0.20783409476280212, -3.961555004119873, -9.209311485290527, 2.8631200790405273, 16.240192413330078, 57.8457145690918, -42.484214782714844, 0.00830078125, 0.815673828125, -0.09375, 
346, 4018407148, -0.7202147245407104, 0.5913498401641846, -0.2937954068183899, 0.21280689537525177, -4.146286487579346, -9.228446006774902, 2.8997175693511963, 13.465593338012695, 56.13329315185547, -42.97597885131836, 0.0078125, 0.8095703125, -0.09912109375, 
347, 4018415481, -0.7189554572105408, 0.5907260775566101, -0.2946177124977112, 0.21760648488998413, -4.2631754875183105, -9.530644416809082, 2.9515209197998047, 12.689473152160645, 53.69245147705078, -42.12440872192383, 0.005615234375, 0.8037109375, -0.1083984375, 
348, 4018423814, -0.7178942561149597, 0.5899229645729065, -0.29528433084487915, 0.22233383357524872, -4.377939224243164, -9.901956558227539, 3.0111513137817383, 16.3626708984375, 51.157955169677734, -41.39885711669922, 0.0029296875, 0.795166015625, -0.11181640625, 
349, 4018432147, -0.7172399163246155, 0.5886846780776978, -0.29569917917251587, 0.227124884724617, -4.617327690124512, -10.119829177856445, 3.1109108924865723, 24.860380172729492, 49.0117301940918, -41.02647399902344, 0.006591796875, 0.78857421875, -0.121337890625, 
350, 4018440480, -0.7171167731285095, 0.5868324041366577, -0.29579269886016846, 0.23212985694408417, -4.613306999206543, -9.731572151184082, 3.3625576496124268, 37.218421936035156, 47.18696594238281, -41.615631103515625, 0.001708984375, 0.78125, -0.12841796875, 
351, 4018448813, -0.7175350189208984, 0.5842657089233398, -0.2957237958908081, 0.23734137415885925, -4.712787628173828, -9.674551010131836, 3.6027886867523193, 49.8547477722168, 47.48152542114258, -40.312355041503906, 0.0009765625, 0.7724609375, -0.14111328125, 
352, 4018457146, -0.7182988524436951, 0.5811437964439392, -0.2955850660800934, 0.24280598759651184, -4.7617268562316895, -9.019322395324707, 3.710198163986206, 59.50318908691406, 49.08140182495117, -40.00031280517578, -0.001220703125, 0.76416015625, -0.15087890625, 
353, 4018465479, -0.7192603349685669, 0.5776099562644958, -0.2954859137535095, 0.24844719469547272, -4.754073619842529, -8.283610343933105, 3.806750535964966, 65.59101867675781, 51.60681915283203, -39.0951042175293, -0.00537109375, 0.7587890625, -0.169677734375, 
354, 4018473812, -0.7201251983642578, 0.5740002393722534, -0.2955404222011566, 0.2541769742965698, -4.7831525802612305, -7.860170364379883, 3.8141674995422363, 65.55581665039062, 54.33143997192383, -38.77247619628906, -0.005126953125, 0.7509765625, -0.181884765625, 
355, 4018482145, -0.7206135392189026, 0.570713460445404, -0.2957819998264313, 0.259849488735199, -4.906490802764893, -7.2859296798706055, 3.897068738937378, 58.3460578918457, 56.28589630126953, -39.37544631958008, -0.003173828125, 0.7392578125, -0.1962890625, 
356, 4018490478, -0.7205002903938293, 0.5679855346679688, -0.29639050364494324, 0.26538822054862976, -4.790823459625244, -7.6359477043151855, 3.8368961811065674, 46.38252258300781, 59.169029235839844, -39.574073791503906, -0.0009765625, 0.727783203125, -0.209716796875, 
357, 4018498811, -0.7196545004844666, 0.5659215450286865, -0.29747211933135986, 0.27082687616348267, -4.711068630218506, -8.088285446166992, 3.579246759414673, 31.787710189819336, 63.7965202331543, -40.3055305480957, -0.001708984375, 0.714599609375, -0.225341796875, 
358, 4018507144, -0.7181020379066467, 0.5642902255058289, -0.2994081676006317, 0.27616557478904724, -4.168849945068359, -8.627120018005371, 3.2216269969940186, 18.57489013671875, 72.59375, -37.03147888183594, -0.005126953125, 0.700439453125, -0.231689453125, 
359, 4018515477, -0.715996265411377, 0.5626700520515442, -0.30238988995552063, 0.2816357910633087, -3.6225616931915283, -9.450798034667969, 2.8025214672088623, 10.576749801635742, 86.33573913574219, -32.41741943359375, -0.001953125, 0.689208984375, -0.24365234375, 
360, 4018523810, -0.7134723663330078, 0.560684084892273, -0.3064207434654236, 0.28758174180984497, -3.3725733757019043, -10.093168258666992, 2.4502291679382324, 9.023999214172363, 103.3434066772461, -29.02547264099121, 0.00390625, 0.673583984375, -0.25341796875, 
361, 4018532143, -0.7106786370277405, 0.5580371022224426, -0.3113242983818054, 0.29430270195007324, -3.031599521636963, -10.009841918945312, 2.0873968601226807, 13.073263168334961, 121.79051208496094, -28.254247665405273, 0.004638671875, 0.66259765625, -0.265625, 
362, 4018540476, -0.7077029943466187, 0.5546481013298035, -0.3169240951538086, 0.30180731415748596, -3.1836748123168945, -10.025100708007812, 1.7074302434921265, 19.637916564941406, 138.23353576660156, -28.057376861572266, 0.01220703125, 0.647216796875, -0.274169921875, 
363, 4018548809, -0.7045620083808899, 0.5506770014762878, -0.3229452073574066, 0.30993565917015076, -3.427584648132324, -9.439260482788086, 1.4785163402557373, 24.845487594604492, 150.3789825439453, -29.14858055114746, 0.01318359375, 0.6298828125, -0.287109375, 
364, 4018557142, -0.7012838125228882, 0.5463770627975464, -0.3291360139846802, 0.318353533744812, -3.7581658363342285, -9.474855422973633, 1.093592882156372, 27.717693328857422, 156.0765838623047, -29.709339141845703, 0.02294921875, 0.612060546875, -0.3017578125, 
365, 4018565475, -0.6978676915168762, 0.5420783758163452, -0.33502358198165894, 0.32695162296295166, -4.165158271789551, -9.162354469299316, 0.5974799990653992, 28.65502166748047, 155.27386474609375, -34.43691635131836, 0.02880859375, 0.593017578125, -0.310546875, 
366, 4018573808, -0.6942062377929688, 0.5381156206130981, -0.34033313393592834, 0.3356921076774597, -4.411323547363281, -9.079182624816895, 0.21387724578380585, 27.018339157104492, 150.2589111328125, -42.662357330322266, 0.0380859375, 0.571533203125, -0.322021484375, 
367, 4018582141, -0.6901913285255432, 0.5348649621009827, -0.3448294401168823, 0.34446287155151367, -4.417757034301758, -8.986927032470703, -0.09799179434776306, 21.345674514770508, 141.22454833984375, -54.051612854003906, 0.04052734375, 0.552734375, -0.331298828125, 
368, 4018590474, -0.6858711838722229, 0.5324418544769287, -0.34856411814689636, 0.35298165678977966, -4.607022285461426, -9.421051025390625, -0.22257351875305176, 13.813573837280273, 129.52915954589844, -62.513492584228516, 0.0419921875, 0.52587890625, -0.3447265625, 
369, 4018598807, -0.6812119483947754, 0.5310042500495911, -0.3516266644001007, 0.3610399663448334, -3.9873650074005127, -9.579404830932617, -0.3447740077972412, 2.947964668273926, 116.78821563720703, -69.5974349975586, 0.04638671875, 0.50341796875, -0.349853515625, 
370, 4018607140, -0.6763594150543213, 0.5303041338920593, -0.35446685552597046, 0.36834123730659485, -3.0317795276641846, -9.76565170288086, -0.5149177312850952, -7.788055896759033, 106.32349395751953, -68.52033233642578, 0.04638671875, 0.478759765625, -0.357421875, 
371, 4018615473, -0.671525239944458, 0.5298377871513367, -0.35759443044662476, 0.3747778534889221, -2.3124639987945557, -10.250560760498047, -0.6250359416007996, -15.628704071044922, 101.53565979003906, -59.57476043701172, 0.046875, 0.453125, -0.3662109375, 
372, 4018623806, -0.6667938232421875, 0.5290384292602539, -0.3616310954093933, 0.380438894033432, -1.4125186204910278, -10.374563217163086, -0.6965725421905518, -20.1724853515625, 105.37345886230469, -43.474822998046875, 0.04443359375, 0.426025390625, -0.370361328125, 
373, 4018632139, -0.6621593832969666, 0.5276769399642944, -0.36678746342658997, 0.38545459508895874, -0.8411227464675903, -10.253092765808105, -0.7237837910652161, -23.49951934814453, 113.51270294189453, -26.260719299316406, 0.046875, 0.401611328125, -0.37158203125, 
374, 4018640472, -0.6573197245597839, 0.525883674621582, -0.37286967039108276, 0.39032256603240967, -0.8653424382209778, -9.79907512664795, -0.8760298490524292, -26.590713500976562, 124.08455657958984, -16.953834533691406, 0.04638671875, 0.372802734375, -0.379638671875, 
375, 4018648805, -0.6519182920455933, 0.5239200592041016, -0.379629522562027, 0.39547228813171387, -0.7082846760749817, -9.218158721923828, -1.0224097967147827, -31.410709381103516, 136.1427764892578, -16.8985595703125, 0.04345703125, 0.34228515625, -0.382080078125, 
376, 4018657138, -0.6455484628677368, 0.5222139358520508, -0.38689395785331726, 0.4010975956916809, -0.6197133660316467, -8.963391304016113, -1.308540940284729, -40.85212326049805, 147.64964294433594, -23.980619430541992, 0.0439453125, 0.316162109375, -0.386962890625, 
377, 4018665471, -0.6380789875984192, 0.5209061503410339, -0.39448150992393494, 0.4073116183280945, -0.7362475991249084, -9.38911247253418, -1.6951099634170532, -51.026100158691406, 158.48861694335938, -35.22857666015625, 0.043212890625, 0.2861328125, -0.384033203125, 
378, 4018673804, -0.6295514702796936, 0.5199924111366272, -0.40209904313087463, 0.414241224527359, -0.6114395260810852, -9.79738712310791, -2.0752928256988525, -58.25919723510742, 167.32276916503906, -49.20185852050781, 0.033447265625, 0.259033203125, -0.389892578125, 
379, 4018682137, -0.6203388571739197, 0.5191740989685059, -0.4095866084098816, 0.42176222801208496, -0.6485918760299683, -10.359092712402344, -2.3267829418182373, -60.04623031616211, 173.7442626953125, -59.835018157958984, 0.0263671875, 0.236328125, -0.39013671875, 
380, 4018690470, -0.6107571125030518, 0.5181650519371033, -0.41682133078575134, 0.42982247471809387, -0.383750855922699, -10.982439994812012, -2.6548678874969482, -56.477787017822266, 178.5502471923828, -67.15252685546875, 0.01318359375, 0.20751953125, -0.396240234375, 
381, 4018698803, -0.601180374622345, 0.5167604684829712, -0.4236852526664734, 0.4382213354110718, -0.1640339493751526, -11.379907608032227, -2.924603223800659, -49.0394172668457, 180.23532104492188, -70.4981689453125, -0.0029296875, 0.187255859375, -0.3994140625, 
382, 4018707136, -0.5918251276016235, 0.5149515271186829, -0.42992836236953735, 0.4469182789325714, -0.14897607266902924, -11.076991081237793, -3.0084805488586426, -38.59293746948242, 178.29046630859375, -73.52720642089844, -0.014892578125, 0.166748046875, -0.400634765625, 
383, 4018715469, -0.5828603506088257, 0.5126953125, -0.43569424748420715, 0.4556252062320709, 0.0949866771697998, -10.958971977233887, -2.9226388931274414, -29.22405433654785, 174.9676055908203, -72.09518432617188, -0.037841796875, 0.1533203125, -0.408203125, 
384, 4018723802, -0.5742322206497192, 0.510211706161499, -0.4409283697605133, 0.4642520844936371, 0.04527105763554573, -10.852583885192871, -2.9893460273742676, -22.146648406982422, 169.49615478515625, -71.58002471923828, -0.05859375, 0.142822265625, -0.41845703125, 
385, 4018732135, -0.5659295320510864, 0.5076792240142822, -0.445671021938324, 0.4726196527481079, 0.27489998936653137, -10.371153831481934, -2.8867363929748535, -17.920486450195312, 162.1942901611328, -70.7566909790039, -0.081787109375, 0.13671875, -0.4228515625, 
386, 4018740468, -0.5579039454460144, 0.5052194595336914, -0.45000001788139343, 0.48062780499458313, 0.5219817161560059, -10.258596420288086, -2.7645626068115234, -16.05826759338379, 154.23458862304688, -69.34176635742188, -0.104248046875, 0.13134765625, -0.431640625, 
387, 4018748801, -0.5501523613929749, 0.5028156638145447, -0.4539065361022949, 0.4883483946323395, 0.9280027747154236, -10.339792251586914, -2.6784839630126953, -13.558837890625, 146.98214721679688, -68.75016784667969, -0.124755859375, 0.1337890625, -0.43896484375, 
388, 4018757134, -0.5427072644233704, 0.5004241466522217, -0.457459956407547, 0.49576348066329956, 1.3260053396224976, -10.529252052307129, -2.5599210262298584, -11.079558372497559, 140.14956665039062, -66.75421142578125, -0.152587890625, 0.142333984375, -0.44873046875, 
389, 4018765467, -0.5357064604759216, 0.4978557527065277, -0.46077409386634827, 0.5028441548347473, 1.733548879623413, -10.577826499938965, -2.331256628036499, -7.146830081939697, 134.51727294921875, -61.9022102355957, -0.16943359375, 0.150390625, -0.45947265625, 
390, 4018773800, -0.5292184352874756, 0.49502456188201904, -0.46394625306129456, 0.5095479488372803, 2.0016613006591797, -10.60241985321045, -2.1773157119750977, -3.134276866912842, 129.41693115234375, -54.74735641479492, -0.190185546875, 0.165771484375, -0.4697265625, 
391, 4018782133, -0.5233261585235596, 0.49185287952423096, -0.46696001291275024, 0.5159122347831726, 1.959651231765747, -10.529582977294922, -1.9565941095352173, 2.3876426219940186, 124.57073974609375, -47.13767623901367, -0.205078125, 0.179931640625, -0.47705078125, 
392, 4018790466, -0.5179926753044128, 0.4883292019367218, -0.4697111248970032, 0.5221074819564819, 2.0352885723114014, -10.522476196289062, -1.7901015281677246, 9.433602333068848, 120.41201782226562, -41.34426498413086, -0.21826171875, 0.199462890625, -0.48486328125, 
393, 4018798799, -0.5133147835731506, 0.4842109680175781, -0.4722242057323456, 0.5282598733901978, 1.9760618209838867, -10.645208358764648, -1.682481288909912, 19.56437110900879, 118.47860717773438, -34.20683288574219, -0.229736328125, 0.220703125, -0.49462890625, 
394, 4018807132, -0.5090967416763306, 0.4795835316181183, -0.474481463432312, 0.5345036387443542, 2.1644270420074463, -10.25281810760498, -1.7042207717895508, 28.6112117767334, 117.97709655761719, -29.790571212768555, -0.2392578125, 0.240966796875, -0.499755859375, 
395, 4018815465, -0.5051069259643555, 0.47469258308410645, -0.47663629055023193, 0.5407016277313232, 2.3451921939849854, -9.598222732543945, -1.5501620769500732, 32.48762130737305, 117.4149398803711, -26.857803344726562, -0.242431640625, 0.260986328125, -0.5087890625, 
396, 4018823798, -0.5010082721710205, 0.4698288142681122, -0.4785623252391815, 0.5470251441001892, 2.896533966064453, -9.940655708312988, -1.429635763168335, 34.04166793823242, 117.14844512939453, -30.10202407836914, -0.245849609375, 0.283447265625, -0.51611328125, 
397, 4018832131, -0.49678289890289307, 0.4648948311805725, -0.4804384112358093, 0.5534121990203857, 3.3481032848358154, -10.426337242126465, -1.2191191911697388, 34.584346771240234, 118.57723236083984, -31.44805908203125, -0.2470703125, 0.302734375, -0.5224609375, 
398, 4018840464, -0.4924759864807129, 0.4598748981952667, -0.4823686480522156, 0.5597406029701233, 3.352538585662842, -10.363788604736328, -1.1028553247451782, 33.76683807373047, 119.76467895507812, -30.658748626708984, -0.249267578125, 0.325927734375, -0.532470703125, 
399, 4018848797, -0.4881035089492798, 0.45493218302726746, -0.48440560698509216, 0.5658174157142639, 3.4782791137695312, -10.130857467651367, -0.966137707233429, 30.436002731323242, 118.72408294677734, -29.37669563293457, -0.24658203125, 0.344970703125, -0.53271484375, 
400, 4018857130, -0.4837358891963959, 0.45014435052871704, -0.48671388626098633, 0.5713892579078674, 3.4580435752868652, -9.934436798095703, -0.7944498062133789, 23.85394859313965, 116.1618881225586, -25.203672409057617, -0.243896484375, 0.365234375, -0.537353515625, 
401, 4018865463, -0.47940707206726074, 0.4455694854259491, -0.4895291328430176, 0.5761982202529907, 3.3642101287841797, -9.768426895141602, -0.5576046705245972, 13.695064544677734, 112.85629272460938, -18.17467498779297, -0.23681640625, 0.386474609375, -0.5400390625, 
402, 4018873796, -0.475176602602005, 0.441262811422348, -0.4928913414478302, 0.5801370143890381, 3.2392969131469727, -9.564032554626465, -0.5252203345298767, 2.2321243286132812, 108.36421966552734, -10.049272537231445, -0.233154296875, 0.40771484375, -0.547607421875, 
403, 4018882129, -0.4712388813495636, 0.4371423125267029, -0.4965490698814392, 0.5833405256271362, 3.0191612243652344, -9.650696754455566, -0.6641002893447876, -4.434595108032227, 102.33452606201172, -2.4255237579345703, -0.2275390625, 0.427490234375, -0.543701171875, 
404, 4018890462, -0.4676731824874878, 0.43318819999694824, -0.500208854675293, 0.5860269069671631, 3.0665781497955322, -9.91422176361084, -0.657358705997467, -6.941371917724609, 95.39290618896484, 2.8329312801361084, -0.220947265625, 0.445556640625, -0.541748046875, 
405, 4018898795, -0.46464410424232483, 0.42918986082077026, -0.5036547780036926, 0.5884217619895935, 3.008852481842041, -9.971001625061035, -0.6040593981742859, -3.6147704124450684, 88.91116333007812, 8.031091690063477, -0.208984375, 0.468994140625, -0.543212890625, 
406, 4018907128, -0.462282657623291, 0.42506492137908936, -0.506626307964325, 0.590720534324646, 2.8354833126068115, -10.150336265563965, -0.6106845736503601, 4.179884433746338, 81.74920654296875, 12.155744552612305, -0.205810546875, 0.48828125, -0.5390625, 
407, 4018915461, -0.46064314246177673, 0.4207763969898224, -0.5089771747589111, 0.5930461883544922, 2.7402689456939697, -10.200105667114258, -0.5671660304069519, 14.802749633789062, 74.21380615234375, 15.343082427978516, -0.1982421875, 0.50732421875, -0.535888671875, 
408, 4018923794, -0.4598536193370819, 0.41628485918045044, -0.5105389356613159, 0.5954813957214355, 2.576200008392334, -10.4215669631958, -0.3905103802680969, 28.07753562927246, 65.60182189941406, 18.454273223876953, -0.188720703125, 0.52685546875, -0.536865234375, 
409, 4018932127, -0.45994946360588074, 0.4115724563598633, -0.5115061402320862, 0.5978483557701111, 2.4658572673797607, -10.424762725830078, -0.03573840484023094, 39.069549560546875, 56.992401123046875, 24.27789878845215, -0.177978515625, 0.539794921875, -0.533203125, 
410, 4018940460, -0.46094638109207153, 0.4064819812774658, -0.5120217204093933, 0.6001176238059998, 2.814332962036133, -10.417043685913086, 0.37396273016929626, 49.448646545410156, 50.40406036376953, 32.41155242919922, -0.16650390625, 0.556396484375, -0.531005859375, 
411, 4018948793, -0.46258944272994995, 0.4011065661907196, -0.5124180316925049, 0.6021286845207214, 3.3656136989593506, -10.186616897583008, 0.8105972409248352, 54.17686080932617, 45.9448356628418, 40.72953414916992, -0.159912109375, 0.570556640625, -0.528564453125, 
412, 4018957126, -0.4646703600883484, 0.3956384062767029, -0.5129388570785522, 0.6036986708641052, 3.2835216522216797, -9.721529960632324, 1.0928930044174194, 52.89733123779297, 42.04902267456055, 48.49075698852539, -0.149169921875, 0.582275390625, -0.52783203125, 
413, 4018965459, -0.4669714868068695, 0.3903895914554596, -0.5135241746902466, 0.6048412322998047, 2.723111391067505, -9.651458740234375, 1.2115366458892822, 49.288429260253906, 36.68855667114258, 51.880496978759766, -0.140625, 0.595947265625, -0.524658203125, 
414, 4018973792, -0.4694603979587555, 0.3853803277015686, -0.5138869881629944, 0.6058182120323181, 2.7074286937713623, -9.795241355895996, 1.4436801671981812, 49.29552459716797, 31.125123977661133, 51.5963134765625, -0.12744140625, 0.609130859375, -0.52294921875, 
415, 4018982125, -0.47192463278770447, 0.38076725602149963, -0.5140280723571777, 0.6067001819610596, 2.79569149017334, -9.67623519897461, 1.6376044750213623, 47.92844772338867, 25.99042320251465, 48.06459045410156, -0.115478515625, 0.621826171875, -0.521240234375, 
416, 4018990458, -0.474187433719635, 0.3767971098423004, -0.5139427185058594, 0.6074862480163574, 2.57535457611084, -9.26313591003418, 1.637390375137329, 43.764793395996094, 20.153635025024414, 41.23781204223633, -0.103271484375, 0.63330078125, -0.519287109375, 
417, 4018998791, -0.4761315882205963, 0.37364211678504944, -0.5137389302253723, 0.608086347579956, 2.3589208126068115, -9.226484298706055, 1.7223801612854004, 36.618961334228516, 13.775700569152832, 33.46525192260742, -0.096435546875, 0.64501953125, -0.517822265625, 
418, 4019007124, -0.4776163399219513, 0.3714856803417206, -0.5136997699737549, 0.6082762479782104, 2.469581365585327, -9.094120025634766, 1.9219720363616943, 23.30219268798828, 7.724289417266846, 26.051321029663086, -0.087890625, 0.6552734375, -0.51318359375, 
419, 4019015457, -0.47864508628845215, 0.37032169103622437, -0.5140860676765442, 0.6078507900238037, 2.5763823986053467, -9.085265159606934, 2.102278470993042, 6.6916961669921875, 2.2085371017456055, 21.503263473510742, -0.08056640625, 0.66357421875, -0.505615234375, 
420, 4019023790, -0.47931456565856934, 0.3702245056629181, -0.5149130821228027, 0.6066813468933105, 2.2560877799987793, -9.084253311157227, 2.1662979125976562, -11.245511054992676, -4.971916675567627, 18.037321090698242, -0.073974609375, 0.6767578125, -0.4990234375, 
421, 4019032123, -0.4796796441078186, 0.37130141258239746, -0.5159584879875183, 0.6048437356948853, 1.8055108785629272, -9.153271675109863, 2.092407464981079, -26.948976516723633, -14.664737701416016, 12.773675918579102, -0.06787109375, 0.690673828125, -0.4873046875, 
422, 4019040456, -0.4798589050769806, 0.3735341429710388, -0.5169251561164856, 0.602496862411499, 1.6930687427520752, -9.333844184875488, 1.988299012184143, -38.61869812011719, -25.988162994384766, 5.911802768707275, -0.061279296875, 0.702880859375, -0.478271484375, 
423, 4019048789, -0.4800214171409607, 0.37674298882484436, -0.5176652669906616, 0.5997277498245239, 1.8997678756713867, -9.469208717346191, 1.897033929824829, -46.13108444213867, -37.71209716796875, 0.5346988439559937, -0.055908203125, 0.71728515625, -0.462158203125, 
424, 4019057122, -0.48030155897140503, 0.38075098395347595, -0.5180845856666565, 0.5966019630432129, 2.257411003112793, -9.508098602294922, 1.6412858963012695, -50.83091735839844, -49.013065338134766, -3.570268392562866, -0.0537109375, 0.72802734375, -0.451416015625, 
425, 4019065455, -0.4810366630554199, 0.3851202726364136, -0.5180734395980835, 0.5932053923606873, 2.389814853668213, -9.954316139221191, 1.4826595783233643, -49.091331481933594, -59.57972717285156, -2.7899041175842285, -0.051513671875, 0.741455078125, -0.438720703125, 
426, 4019073788, -0.4824273884296417, 0.3897078335285187, -0.5175829529762268, 0.5894964933395386, 2.3520703315734863, -10.30652141571045, 1.4949270486831665, -45.51966094970703, -70.75560760498047, 0.44266799092292786, -0.0517578125, 0.751708984375, -0.421142578125, 
427, 4019082121, -0.4845519959926605, 0.3945366144180298, -0.5166102647781372, 0.585380494594574, 2.2393829822540283, -10.101243019104004, 1.5437591075897217, -42.03150177001953, -83.42317199707031, 4.887899875640869, -0.044189453125, 0.763671875, -0.41162109375, 
428, 4019090454, -0.4874848425388336, 0.39958420395851135, -0.5151945948600769, 0.5807511806488037, 2.2255828380584717, -9.892716407775879, 1.5808683633804321, -39.328365325927734, -96.55585479736328, 10.762002944946289, -0.049072265625, 0.771484375, -0.395751953125, 
429, 4019098787, -0.49110737442970276, 0.404939204454422, -0.5133822560310364, 0.5755717158317566, 2.158475637435913, -9.901951789855957, 1.6904363632202148, -38.184967041015625, -109.6943588256836, 15.69899845123291, -0.0439453125, 0.78369140625, -0.3828125, 
430, 4019107120, -0.49571558833122253, 0.41019392013549805, -0.5110844969749451, 0.5699177384376526, 1.9323673248291016, -10.51054859161377, 1.9177770614624023, -31.670682907104492, -121.66738891601562, 24.610998153686523, -0.040771484375, 0.79443359375, -0.37158203125, 
431, 4019115453, -0.5016046166419983, 0.4148460030555725, -0.5082905292510986, 0.5638640522956848, 1.6753735542297363, -11.167945861816406, 2.3016724586486816, -19.114500045776367, -131.69970703125, 38.9142951965332, -0.03564453125, 0.80322265625, -0.361572265625, 
432, 4019123786, -0.5076926350593567, 0.42036521434783936, -0.5052816867828369, 0.5569903254508972, 1.6887623071670532, -9.524852752685547, 2.4491896629333496, -28.168567657470703, -145.857421875, 38.722511291503906, -0.030029296875, 0.814208984375, -0.347900390625, 
433, 4019132119, -0.5142948031425476, 0.42608416080474854, -0.5020037889480591, 0.549501359462738, 2.181579828262329, -8.145917892456055, 2.111388921737671, -28.6627254486084, -156.5158233642578, 44.11812210083008, -0.02783203125, 0.826416015625, -0.337158203125, 
434, 4019140452, -0.5210656523704529, 0.4323454201221466, -0.49853241443634033, 0.5413315296173096, 1.6656168699264526, -9.109336853027344, 2.385427474975586, -34.89280700683594, -167.0168914794922, 45.22442626953125, -0.020751953125, 0.83544921875, -0.32568359375, 
435, 4019148785, -0.5280495882034302, 0.4387964606285095, -0.4948554039001465, 0.5326783061027527, 2.1606051921844482, -9.393707275390625, 2.7112417221069336, -36.62449645996094, -174.36302185058594, 47.85658645629883, -0.017333984375, 0.84228515625, -0.314208984375, 
436, 4019157118, -0.5353901386260986, 0.445217102766037, -0.49095773696899414, 0.5235514044761658, 2.2603282928466797, -9.82316780090332, 2.859217643737793, -36.004058837890625, -180.90374755859375, 52.680606842041016, -0.0068359375, 0.85400390625, -0.3046875, 
437, 4019165451, -0.5431528091430664, 0.45157521963119507, -0.48668673634529114, 0.5140110850334167, 2.1227359771728516, -9.977490425109863, 2.8676109313964844, -32.92015075683594, -188.7143096923828, 57.005741119384766, -0.003173828125, 0.865234375, -0.291748046875, 
438, 4019173784, -0.5517257452011108, 0.4573684334754944, -0.48192715644836426, 0.5041484236717224, 2.2081050872802734, -10.675309181213379, 3.0777945518493652, -22.51457405090332, -195.66587829589844, 65.781494140625, 0.00732421875, 0.8740234375, -0.2861328125, 
439, 4019182117, -0.5610259175300598, 0.4625534117221832, -0.47673913836479187, 0.4939844012260437, 2.2515933513641357, -10.91283130645752, 3.411644458770752, -12.213606834411621, -201.54405212402344, 74.55459594726562, 0.0166015625, 0.884521484375, -0.277587890625, 
440, 4019190450, -0.570999026298523, 0.46721938252449036, -0.47111132740974426, 0.48345303535461426, 1.8045870065689087, -10.623573303222656, 3.548633098602295, -3.4886205196380615, -208.03204345703125, 82.45708465576172, 0.0302734375, 0.89208984375, -0.272705078125, 
441, 4019198783, -0.5817175507545471, 0.4712025225162506, -0.4649925231933594, 0.47261106967926025, 1.4063054323196411, -10.654863357543945, 3.8132901191711426, 8.048839569091797, -214.30670166015625, 91.232666015625, 0.04345703125, 0.90185546875, -0.276123046875, 
442, 4019207116, -0.5930070281028748, 0.47452718019485474, -0.45844224095344543, 0.4615234136581421, 1.3899941444396973, -10.260855674743652, 4.06834077835083, 18.116125106811523, -218.5883331298828, 98.21347045898438, 0.057373046875, 0.91162109375, -0.271728515625, 
443, 4019215449, -0.604663074016571, 0.4771835207939148, -0.45155346393585205, 0.4503159821033478, 1.3772006034851074, -10.128475189208984, 4.341054439544678, 27.478252410888672, -220.3331756591797, 103.63228607177734, 0.0712890625, 0.923095703125, -0.27685546875, 
444, 4019223782, -0.6164563298225403, 0.4791724383831024, -0.4444282650947571, 0.4391646683216095, 1.47795569896698, -9.94493579864502, 4.667947769165039, 35.615543365478516, -218.5181121826172, 106.49745178222656, 0.08935546875, 0.931396484375, -0.281005859375, 
445, 4019232115, -0.6282008290290833, 0.4804810583591461, -0.4372282028198242, 0.42818182706832886, 1.5227820873260498, -9.894383430480957, 5.0143914222717285, 42.66101837158203, -213.7586212158203, 108.55313110351562, 0.1015625, 0.940185546875, -0.2900390625, 
446, 4019240448, -0.639653742313385, 0.4813007414340973, -0.43001222610473633, 0.41747909784317017, 1.6594929695129395, -9.667654037475586, 5.148989677429199, 46.61724090576172, -207.28810119628906, 107.136962890625, 0.118408203125, 0.951171875, -0.30224609375, 
447, 4019248781, -0.6505221724510193, 0.4818940758705139, -0.42283234000205994, 0.4072079658508301, 1.8100371360778809, -9.32066535949707, 5.356018543243408, 47.19378662109375, -199.47381591796875, 101.679443359375, 0.134765625, 0.95849609375, -0.31591796875, 
448, 4019257114, -0.6605852842330933, 0.4826212227344513, -0.4157333970069885, 0.3973363935947418, 1.5958564281463623, -9.070314407348633, 5.578080177307129, 42.42143249511719, -192.05178833007812, 93.23638153076172, 0.14794921875, 0.973388671875, -0.33154296875, 
