sep=,
PacketCounter,SampleTimeFine,Quat_W,Quat_X,Quat_Y,Quat_Z,Acc_X,Acc_Y,Acc_Z,Gyr_X,Gyr_Y,Gyr_Z,Mag_X,Mag_Y,Mag_Z,
0, 3363833332, -0.25416427850723267, 0.6333313584327698, 0.0819123163819313, 0.7263505458831787, 0, 0, 0, 0, 0, 0, -0.861572265625, -0.09375, 0.0263671875, 
1, 3363841665, -0.25418299436569214, 0.6332401037216187, 0.08186696469783783, 0.7264285087585449, 9.50887393951416, -2.0363645553588867, 1.9168829917907715, -0.3155161440372467, 1.1025519371032715, 0.08889419585466385, -0.86328125, -0.0947265625, 0.028564453125, 
2, 3363849998, -0.25423070788383484, 0.6331452131271362, 0.08188661187887192, 0.7264924645423889, 9.507580757141113, -2.0128672122955322, 1.9210461378097534, 0.7766876220703125, 0.9389025568962097, -0.17322905361652374, -0.8671875, -0.095458984375, 0.027587890625, 
3, 3363858331, -0.25429677963256836, 0.6330311298370361, 0.0819634199142456, 0.726560115814209, 9.52780818939209, -1.998511552810669, 1.9019498825073242, 1.377443790435791, 0.8744827508926392, -0.498094379901886, -0.862060546875, -0.09326171875, 0.025146484375, 
4, 3363866664, -0.2543502151966095, 0.6329269409179688, 0.08204641938209534, 0.7266227602958679, 9.532179832458496, -1.9680546522140503, 1.927093267440796, 1.493373990058899, 0.80447918176651, -0.6733470559120178, -0.864013671875, -0.093994140625, 0.024169921875, 
5, 3363874997, -0.2543940544128418, 0.6328139305114746, 0.08212032169103622, 0.7266975045204163, 9.502037048339844, -1.9430131912231445, 1.906118631362915, 1.215075135231018, 0.894589900970459, -0.7043402791023254, -0.86474609375, -0.09326171875, 0.027587890625, 
6, 3363883330, -0.2544012665748596, 0.6327180862426758, 0.08212767541408539, 0.7267776727676392, 9.504203796386719, -1.9430984258651733, 1.9059178829193115, 0.28655925393104553, 1.0874651670455933, -0.5297536253929138, -0.865966796875, -0.094970703125, 0.026123046875, 
7, 3363891663, -0.25436002016067505, 0.6326456665992737, 0.08205495774745941, 0.726863443851471, 9.490628242492676, -1.9469752311706543, 1.8795095682144165, -1.0235447883605957, 1.1277050971984863, -0.31021398305892944, -0.865966796875, -0.093505859375, 0.022705078125, 
8, 3363899996, -0.25428125262260437, 0.6325691938400269, 0.08191503584384918, 0.7269733548164368, 9.511832237243652, -1.9541287422180176, 1.876150131225586, -2.2177059650421143, 1.4593580961227417, -0.16349565982818604, -0.864013671875, -0.093994140625, 0.024658203125, 
9, 3363908329, -0.2541666328907013, 0.6325163841247559, 0.0817193016409874, 0.727081298828125, 9.467428207397461, -1.9639614820480347, 1.8544358015060425, -3.1577742099761963, 1.358540654182434, -0.000640355923678726, -0.864501953125, -0.09375, 0.025634765625, 
10, 3363916662, -0.2540181577205658, 0.632493793964386, 0.08147885650396347, 0.7271798849105835, 9.489986419677734, -1.9764295816421509, 1.8532345294952393, -3.822232484817505, 1.206007719039917, 0.08940647542476654, -0.863525390625, -0.094970703125, 0.025146484375, 
11, 3363924995, -0.2538841962814331, 0.6324740052223206, 0.08124016225337982, 0.7272704839706421, 9.495184898376465, -2.0250532627105713, 1.8487880229949951, -3.862037420272827, 1.009572148323059, 0.2744949162006378, -0.86376953125, -0.091796875, 0.026611328125, 
12, 3363933328, -0.2537691295146942, 0.6324560046195984, 0.0810297280550003, 0.7273499965667725, 9.520484924316406, -2.019392490386963, 1.830401062965393, -3.224832057952881, 0.9267101287841797, 0.2327437400817871, -0.861083984375, -0.094970703125, 0.0244140625, 
13, 3363941661, -0.2536933720111847, 0.6324159502983093, 0.08087500929832458, 0.7274282574653625, 9.516340255737305, -2.035886287689209, 1.8231121301651, -2.4216465950012207, 0.8763526082038879, 0.14847290515899658, -0.861572265625, -0.093505859375, 0.023681640625, 
14, 3363949994, -0.2536400854587555, 0.6323751211166382, 0.08076310902833939, 0.7274947166442871, 9.515558242797852, -2.006624460220337, 1.812953233718872, -1.6092654466629028, 0.7653149366378784, 0.014792220667004585, -0.862548828125, -0.093994140625, 0.023193359375, 
15, 3363958327, -0.2536384165287018, 0.6323076486587524, 0.08071799576282501, 0.7275589108467102, 9.497673988342285, -1.9973241090774536, 1.8079311847686768, -0.570915699005127, 0.7293269634246826, -0.04587509110569954, -0.863525390625, -0.093505859375, 0.024169921875, 
16, 3363966660, -0.2536470592021942, 0.6322432160377502, 0.08069664984941483, 0.7276142239570618, 9.47793197631836, -1.9880754947662354, 1.8128665685653687, -0.07087458670139313, 0.6591182947158813, -0.1413905769586563, -0.864501953125, -0.093994140625, 0.021728515625, 
17, 3363974993, -0.2536680996417999, 0.6321696639060974, 0.08069725334644318, 0.7276707291603088, 9.455178260803223, -1.9495431184768677, 1.82137131690979, 0.15702806413173676, 0.5795604586601257, -0.18754741549491882, -0.865478515625, -0.094970703125, 0.023193359375, 
18, 3363983326, -0.25366106629371643, 0.6321201324462891, 0.08068620413541794, 0.727717399597168, 9.436138153076172, -1.934936761856079, 1.781894564628601, -0.1456681489944458, 0.3812294602394104, -0.3414889872074127, -0.869140625, -0.094482421875, 0.02392578125, 
19, 3363991659, -0.25365373492240906, 0.6320738792419434, 0.08067189157009125, 0.7277618050575256, 9.407333374023438, -1.9371901750564575, 1.7975093126296997, -0.3893876075744629, 0.23717501759529114, -0.2831909954547882, -0.864013671875, -0.096435546875, 0.022216796875, 
20, 3363999992, -0.253604531288147, 0.6320611238479614, 0.08063741773366928, 0.72779381275177, 9.424571990966797, -1.9448436498641968, 1.785900354385376, -0.8582817316055298, -0.07735498249530792, -0.467562198638916, -0.867431640625, -0.095947265625, 0.021728515625, 
21, 3364008325, -0.2535400092601776, 0.6320534944534302, 0.08060257881879807, 0.7278268933296204, 9.417454719543457, -1.967553973197937, 1.7870877981185913, -1.131278395652771, -0.25550204515457153, -0.5779083967208862, -0.865478515625, -0.096435546875, 0.022705078125, 
22, 3364016658, -0.25345808267593384, 0.6320774555206299, 0.08056553453207016, 0.7278386354446411, 9.465070724487305, -1.9865871667861938, 1.8041973114013672, -1.274743676185608, -0.6496794819831848, -0.6609752774238586, -0.863037109375, -0.091064453125, 0.021240234375, 
23, 3364024991, -0.2534031569957733, 0.6321028470993042, 0.08057190477848053, 0.7278349995613098, 9.448512077331543, -2.0197482109069824, 1.8176161050796509, -0.8011875748634338, -1.0175254344940186, -0.694222629070282, -0.863037109375, -0.093017578125, 0.019287109375, 
24, 3364033324, -0.25336727499961853, 0.6321393251419067, 0.08059738576412201, 0.7278130650520325, 9.475929260253906, -2.0719854831695557, 1.826986312866211, -0.25455427169799805, -1.2346060276031494, -0.6129997968673706, -0.865234375, -0.091552734375, 0.022216796875, 
25, 3364041657, -0.2533687353134155, 0.6321681141853333, 0.0806695744395256, 0.7277795076370239, 9.48931884765625, -2.0917773246765137, 1.8384523391723633, 0.3718802332878113, -1.4761738777160645, -0.5939684510231018, -0.859619140625, -0.093994140625, 0.02294921875, 
26, 3364049990, -0.25339600443840027, 0.6321972012519836, 0.08075530081987381, 0.7277353405952454, 9.48072624206543, -2.066587448120117, 1.8647348880767822, 0.9478675127029419, -1.4952821731567383, -0.43577495217323303, -0.865966796875, -0.094482421875, 0.023193359375, 
27, 3364058323, -0.25345855951309204, 0.6322094202041626, 0.0808437168598175, 0.7276930212974548, 9.487062454223633, -2.0749261379241943, 1.8623368740081787, 1.1533704996109009, -1.3791216611862183, -0.10724680125713348, -0.863525390625, -0.094482421875, 0.021240234375, 
28, 3364066656, -0.25352340936660767, 0.6322236061096191, 0.08089713007211685, 0.7276521921157837, 9.444549560546875, -2.048753023147583, 1.8883790969848633, 1.0001462697982788, -1.1617591381072998, 0.1938869208097458, -0.862060546875, -0.09375, 0.025634765625, 
29, 3364074989, -0.25357991456985474, 0.6322364211082458, 0.08091582357883453, 0.7276194095611572, 9.467939376831055, -2.023510694503784, 1.8698318004608154, 0.5747706294059753, -0.9664762616157532, 0.3823821246623993, -0.862060546875, -0.098388671875, 0.02490234375, 
30, 3364083322, -0.2536354660987854, 0.632228434085846, 0.08089639246463776, 0.7276090979576111, 9.465922355651855, -2.009190559387207, 1.8788944482803345, -0.014856255613267422, -0.5173307061195374, 0.6126539707183838, -0.864501953125, -0.093505859375, 0.024658203125, 
31, 3364091655, -0.25365981459617615, 0.632221519947052, 0.08082420378923416, 0.7276145219802856, 9.4922513961792, -2.002345323562622, 1.8654972314834595, -0.8072582483291626, -0.2470492720603943, 0.7078878283500671, -0.862548828125, -0.095947265625, 0.0244140625, 
32, 3364099988, -0.2536495327949524, 0.6322364211082458, 0.08071178197860718, 0.727617621421814, 9.499354362487793, -1.9958434104919434, 1.8753681182861328, -1.3662890195846558, -0.29325738549232483, 0.7324775457382202, -0.864013671875, -0.096923828125, 0.026611328125, 
33, 3364108321, -0.253631591796875, 0.6322483420372009, 0.08060205727815628, 0.7276256084442139, 9.539505958557129, -1.992956519126892, 1.8763569593429565, -1.6109305620193481, -0.3300906717777252, 0.6258198022842407, -0.863525390625, -0.09326171875, 0.024658203125, 
34, 3364116654, -0.2535935342311859, 0.6322817802429199, 0.08052243292331696, 0.7276186943054199, 9.559453010559082, -2.023209810256958, 1.8926061391830444, -1.330121397972107, -0.7105644941329956, 0.22377875447273254, -0.864501953125, -0.095947265625, 0.023681640625, 
35, 3364124987, -0.2535719871520996, 0.6323091983795166, 0.0804898738861084, 0.7276059985160828, 9.557720184326172, -2.0469143390655518, 1.8937220573425293, -0.8335896730422974, -0.9499038457870483, 0.02186174876987934, -0.865478515625, -0.093505859375, 0.021728515625, 
36, 3364133320, -0.25357264280319214, 0.6323456168174744, 0.08051280677318573, 0.7275714874267578, 9.580096244812012, -2.0862624645233154, 1.8975205421447754, 0.05136934667825699, -1.2965669631958008, -0.17973507940769196, -0.863525390625, -0.093994140625, 0.020751953125, 
37, 3364141653, -0.25361719727516174, 0.6323666572570801, 0.08059043437242508, 0.7275291681289673, 9.58012866973877, -2.107450008392334, 1.900846242904663, 0.9493532180786133, -1.4669270515441895, -0.17051395773887634, -0.863525390625, -0.094482421875, 0.020751953125, 
38, 3364149986, -0.2536911368370056, 0.6323935389518738, 0.08067800104618073, 0.727470338344574, 9.544573783874512, -2.123009443283081, 1.893760085105896, 1.3955532312393188, -1.5541949272155762, 0.06466313451528549, -0.866943359375, -0.097412109375, 0.027099609375, 
39, 3364158319, -0.2537905275821686, 0.6324129700660706, 0.08074718713760376, 0.7274112105369568, 9.533409118652344, -2.1089162826538086, 1.9025410413742065, 1.45912766456604, -1.3913651704788208, 0.47231367230415344, -0.86669921875, -0.092529296875, 0.0234375, 
40, 3364166652, -0.25391143560409546, 0.6324294209480286, 0.0807752013206482, 0.7273516058921814, 9.506675720214844, -2.108572483062744, 1.9154396057128906, 1.035596489906311, -1.2877556085586548, 1.0562158823013306, -0.865966796875, -0.093994140625, 0.024169921875, 
41, 3364174985, -0.2540157735347748, 0.6324607729911804, 0.08072938024997711, 0.7272928953170776, 9.479299545288086, -2.092604398727417, 1.9392644166946411, 0.11886284500360489, -1.1944942474365234, 1.550365686416626, -0.861572265625, -0.09521484375, 0.02587890625, 
42, 3364183318, -0.2540755867958069, 0.6325152516365051, 0.08059415221214294, 0.727239727973938, 9.491703033447266, -2.0448083877563477, 1.9352680444717407, -1.0593791007995605, -1.0182939767837524, 1.8717730045318604, -0.8662109375, -0.09130859375, 0.025634765625, 
43, 3364191651, -0.2541026771068573, 0.6325872540473938, 0.08039407432079315, 0.7271897792816162, 9.476470947265625, -2.038145065307617, 1.9630801677703857, -2.055619239807129, -0.9759792685508728, 2.1155178546905518, -0.864013671875, -0.09326171875, 0.024658203125, 
44, 3364199984, -0.25410935282707214, 0.6326630115509033, 0.08015617728233337, 0.7271476984024048, 9.484613418579102, -2.0231010913848877, 1.95309579372406, -2.8831634521484375, -0.9187824130058289, 2.223405122756958, -0.863037109375, -0.093994140625, 0.022705078125, 
45, 3364208317, -0.25408709049224854, 0.6327333450317383, 0.07988269627094269, 0.7271243333816528, 9.487893104553223, -2.0190978050231934, 1.9611026048660278, -3.3439383506774902, -0.6376663446426392, 2.1996095180511475, -0.86572265625, -0.091064453125, 0.021484375, 
46, 3364216650, -0.2540549337863922, 0.6327948570251465, 0.07959267497062683, 0.7271137833595276, 9.522186279296875, -1.9893649816513062, 1.9593223333358765, -3.4797956943511963, -0.27955371141433716, 2.1580116748809814, -0.86572265625, -0.091796875, 0.024658203125, 
47, 3364224983, -0.2540509104728699, 0.6328245997428894, 0.0793197825551033, 0.7271192669868469, 9.531496047973633, -1.9826164245605469, 1.9432092905044556, -3.1836185455322266, 0.0607953816652298, 2.2093429565429688, -0.86328125, -0.0908203125, 0.022705078125, 
48, 3364233316, -0.25403958559036255, 0.6328439116477966, 0.07905204594135284, 0.7271355986595154, 9.526251792907715, -1.9622936248779297, 1.9353713989257812, -2.956113576889038, 0.32049810886383057, 2.0319645404815674, -0.86669921875, -0.093505859375, 0.024169921875, 
49, 3364241649, -0.25403687357902527, 0.6328426003456116, 0.0788189172744751, 0.7271628975868225, 9.518735885620117, -1.9535709619522095, 1.8889957666397095, -2.6280457973480225, 0.4089440405368805, 1.7781270742416382, -0.86474609375, -0.091552734375, 0.023193359375, 
50, 3364249982, -0.2540217638015747, 0.6328482627868652, 0.07859936356544495, 0.7271870374679565, 9.490254402160645, -1.9220967292785645, 1.8854001760482788, -2.467803478240967, 0.3542320728302002, 1.5323842763900757, -0.8642578125, -0.09033203125, 0.026611328125, 
51, 3364258315, -0.25400760769844055, 0.6328520774841309, 0.07840709388256073, 0.7272093892097473, 9.490812301635742, -1.92462158203125, 1.87000572681427, -2.4479269981384277, 0.18758586049079895, 1.3095407485961914, -0.86474609375, -0.09033203125, 0.023193359375, 
52, 3364266648, -0.2539529800415039, 0.6328797936439514, 0.07821208238601685, 0.7272254228591919, 9.4833984375, -1.9456782341003418, 1.8585678339004517, -2.6343729496002197, -0.06657139956951141, 0.9758639335632324, -0.865234375, -0.08984375, 0.02294921875, 
53, 3364274981, -0.253890722990036, 0.6329228281974792, 0.07802695035934448, 0.7272295951843262, 9.479721069335938, -1.9385923147201538, 1.854749321937561, -2.8384928703308105, -0.45800817012786865, 0.8864703178405762, -0.86328125, -0.08935546875, 0.023193359375, 
54, 3364283314, -0.2538069188594818, 0.6329948902130127, 0.07782168686389923, 0.7272180914878845, 9.47643756866455, -1.9325945377349854, 1.8600189685821533, -3.1167402267456055, -0.7444521188735962, 0.9180270433425903, -0.8642578125, -0.08984375, 0.024169921875, 
55, 3364291647, -0.2537353038787842, 0.6330746412277222, 0.07762014120817184, 0.7271952033042908, 9.487410545349121, -1.9514050483703613, 1.8602633476257324, -3.1902272701263428, -1.0087653398513794, 1.0684592723846436, -0.865234375, -0.08935546875, 0.02197265625, 
56, 3364299980, -0.2536696493625641, 0.6331596374511719, 0.07741111516952515, 0.727166473865509, 9.491703033447266, -1.9265540838241577, 1.862572431564331, -3.0226848125457764, -0.9922187328338623, 1.2053419351577759, -0.86767578125, -0.089111328125, 0.0224609375, 
57, 3364308313, -0.2536332309246063, 0.6332380771636963, 0.07722382992506027, 0.727130651473999, 9.503144264221191, -1.9305962324142456, 1.879011869430542, -2.6909804344177246, -1.1290242671966553, 1.34775710105896, -0.86669921875, -0.0908203125, 0.025390625, 
58, 3364316646, -0.2536006271839142, 0.6333153247833252, 0.07705355435609818, 0.7270927429199219, 9.493796348571777, -1.914042592048645, 1.8756927251815796, -2.309558629989624, -1.0928056240081787, 1.2218886613845825, -0.86376953125, -0.0908203125, 0.022705078125, 
59, 3364324979, -0.25359171628952026, 0.6333664655685425, 0.07693183422088623, 0.727064311504364, 9.529607772827148, -1.9090064764022827, 1.8906601667404175, -1.688746452331543, -0.9933711886405945, 1.0014013051986694, -0.8662109375, -0.09033203125, 0.02587890625, 
60, 3364333312, -0.25358274579048157, 0.633389949798584, 0.0768437460064888, 0.7270563244819641, 9.588987350463867, -1.897877812385559, 1.9105099439620972, -1.1269495487213135, -0.558415949344635, 0.5818145871162415, -0.865234375, -0.0888671875, 0.025146484375, 
61, 3364341645, -0.25357291102409363, 0.6333911418914795, 0.07679340243339539, 0.7270641326904297, 9.57935905456543, -1.877306580543518, 1.919923186302185, -0.6958362460136414, -0.3291172981262207, 0.16448178887367249, -0.86181640625, -0.08984375, 0.023193359375, 
62, 3364349978, -0.2535952627658844, 0.6333658695220947, 0.07682599127292633, 0.7270748019218445, 9.532135963439941, -1.9128204584121704, 1.90537428855896, 0.26135483384132385, -0.3735067844390869, -0.2629557251930237, -0.86328125, -0.08984375, 0.021728515625, 
63, 3364358311, -0.25360608100891113, 0.6333271861076355, 0.0768759548664093, 0.7270993590354919, 9.51806640625, -1.9121479988098145, 1.8910757303237915, 0.4751056730747223, -0.2155693918466568, -0.5715304613113403, -0.86376953125, -0.09033203125, 0.024658203125, 
64, 3364366644, -0.25360625982284546, 0.6332983374595642, 0.07695166766643524, 0.7271164059638977, 9.485220909118652, -1.9124270677566528, 1.8886080980300903, 0.7459248900413513, -0.37658044695854187, -0.8971129059791565, -0.862548828125, -0.09130859375, 0.022216796875, 
65, 3364374977, -0.25360897183418274, 0.6332661509513855, 0.07704097032546997, 0.727134108543396, 9.455228805541992, -1.90751314163208, 1.8912829160690308, 0.7981266975402832, -0.48833543062210083, -0.9601240754127502, -0.86572265625, -0.0908203125, 0.0234375, 
66, 3364383310, -0.2535836100578308, 0.6332533359527588, 0.07712268829345703, 0.7271454334259033, 9.43521499633789, -1.9012471437454224, 1.8901387453079224, 0.5339415073394775, -0.6352586150169373, -1.1675223112106323, -0.86572265625, -0.08984375, 0.026123046875, 
67, 3364391643, -0.2535339891910553, 0.6332535147666931, 0.0771874338388443, 0.7271556258201599, 9.444212913513184, -1.9280273914337158, 1.8753752708435059, -0.17596979439258575, -0.811023473739624, -1.241112232208252, -0.86572265625, -0.0908203125, 0.024169921875, 
68, 3364399976, -0.2534387409687042, 0.63329017162323, 0.07721032202243805, 0.7271544337272644, 9.427145004272461, -1.9360957145690918, 1.9128575325012207, -0.8222936987876892, -1.1082254648208618, -1.2581199407577515, -0.8642578125, -0.09033203125, 0.026611328125, 
69, 3364408309, -0.2533382177352905, 0.6333471536636353, 0.07722632586956024, 0.727138102054596, 9.429004669189453, -1.954945683479309, 1.9262362718582153, -1.264497995376587, -1.4960250854492188, -1.1706217527389526, -0.86474609375, -0.0908203125, 0.027099609375, 
70, 3364416642, -0.25321629643440247, 0.6334254741668701, 0.07722340524196625, 0.7271128296852112, 9.43133544921875, -2.0113863945007324, 1.9404454231262207, -1.4321175813674927, -1.6723021268844604, -1.170365571975708, -0.865478515625, -0.093017578125, 0.023193359375, 
71, 3364424975, -0.2531087100505829, 0.6334869861602783, 0.07722777128219604, 0.7270963191986084, 9.44498062133789, -2.013495445251465, 1.9391615390777588, -1.3099377155303955, -1.5420281887054443, -1.1055617332458496, -0.869140625, -0.093505859375, 0.0234375, 
72, 3364433308, -0.2530146539211273, 0.6335270404815674, 0.07724031805992126, 0.7270928621292114, 9.479405403137207, -2.0356287956237793, 1.9695868492126465, -0.923598051071167, -1.1249771118164062, -1.143265724182129, -0.86572265625, -0.093017578125, 0.023681640625, 
73, 3364441641, -0.2529659867286682, 0.6335214972496033, 0.07727771252393723, 0.7271105647087097, 9.487595558166504, -2.064703941345215, 1.9682191610336304, -0.2779400646686554, -0.6249104142189026, -0.9953691363334656, -0.861328125, -0.09033203125, 0.024658203125, 
74, 3364449974, -0.25294074416160583, 0.6334801316261292, 0.0773194432258606, 0.7271508574485779, 9.492094039916992, -2.036450147628784, 1.9737197160720825, 0.20367158949375153, 0.04417174682021141, -0.9498270153999329, -0.867919921875, -0.095458984375, 0.0234375, 
75, 3364458307, -0.25293928384780884, 0.6333969831466675, 0.07737153768539429, 0.7272183299064636, 9.481400489807129, -1.9975887537002563, 1.9799140691757202, 0.5437005162239075, 0.5748218297958374, -0.8992389440536499, -0.863525390625, -0.092529296875, 0.023681640625, 
76, 3364466640, -0.25292494893074036, 0.6333041191101074, 0.07739806175231934, 0.727301299571991, 9.490814208984375, -1.9703865051269531, 1.9576115608215332, 0.279284805059433, 0.9918727278709412, -0.9090747237205505, -0.865478515625, -0.091552734375, 0.021728515625, 
77, 3364474973, -0.252905011177063, 0.6331940293312073, 0.0774102658033371, 0.7274028658866882, 9.485713958740234, -1.9469895362854004, 1.9229846000671387, 0.003393885912373662, 1.2678405046463013, -0.8917596340179443, -0.864501953125, -0.093505859375, 0.021240234375, 
78, 3364483306, -0.2528371512889862, 0.6331048011779785, 0.0773780345916748, 0.7275075912475586, 9.487493515014648, -1.9195142984390259, 1.9127849340438843, -0.8085389137268066, 1.2934547662734985, -1.0056405067443848, -0.864990234375, -0.091552734375, 0.020751953125, 
79, 3364491639, -0.25271299481391907, 0.6330260634422302, 0.07732991874217987, 0.7276242971420288, 9.463395118713379, -1.9117108583450317, 1.8918222188949585, -1.62611985206604, 1.1845943927764893, -1.4253554344177246, -0.866455078125, -0.092041015625, 0.021484375, 
80, 3364499972, -0.25256210565567017, 0.6329800486564636, 0.0772649347782135, 0.7277236580848694, 9.476653099060059, -1.9601540565490723, 1.8653572797775269, -2.0043652057647705, 0.8413379788398743, -1.4882128238677979, -0.864501953125, -0.091552734375, 0.022216796875, 
81, 3364508305, -0.25238850712776184, 0.6329480409622192, 0.07721082866191864, 0.7278173565864563, 9.501727104187012, -1.9539397954940796, 1.8519402742385864, -2.2935755252838135, 0.49211347103118896, -1.745200276374817, -0.86474609375, -0.09130859375, 0.024658203125, 
82, 3364516638, -0.2522152364253998, 0.6329419016838074, 0.07718618214130402, 0.7278854250907898, 9.489404678344727, -1.9982876777648926, 1.843506097793579, -1.901856780052185, 0.006493208929896355, -1.9119234085083008, -0.864990234375, -0.092529296875, 0.021240234375, 
83, 3364524971, -0.2520645260810852, 0.6329383850097656, 0.07723607122898102, 0.7279353737831116, 9.526679992675781, -2.066484212875366, 1.8320561647415161, -1.0949060916900635, -0.5114138126373291, -2.2373523712158203, -0.864990234375, -0.094482421875, 0.022216796875, 
84, 3364533304, -0.25194457173347473, 0.6329420804977417, 0.07733721286058426, 0.7279630303382874, 9.529653549194336, -2.0905914306640625, 1.863458275794983, -0.1690027415752411, -0.8244454264640808, -2.3232879638671875, -0.864990234375, -0.095458984375, 0.024658203125, 
85, 3364541637, -0.25187960267066956, 0.6329285502433777, 0.07751147449016571, 0.7279787063598633, 9.544754981994629, -2.1200380325317383, 1.8692805767059326, 0.8966134786605835, -1.0331244468688965, -2.3663196563720703, -0.86376953125, -0.09228515625, 0.024658203125, 
86, 3364549970, -0.2518499195575714, 0.6329077482223511, 0.07772982865571976, 0.7279838919639587, 9.531181335449219, -2.122159481048584, 1.8679150342941284, 1.8991291522979736, -1.0852495431900024, -2.387784719467163, -0.86865234375, -0.09033203125, 0.02490234375, 
87, 3364558303, -0.25187060236930847, 0.6328659057617188, 0.07799357175827026, 0.7279847264289856, 9.541509628295898, -2.1319992542266846, 1.8887780904769897, 2.585949182510376, -1.0824320316314697, -2.2813830375671387, -0.866455078125, -0.094482421875, 0.022216796875, 
88, 3364566636, -0.2518758177757263, 0.6328349113464355, 0.07822813093662262, 0.727984607219696, 9.524408340454102, -2.1292953491210938, 1.916896939277649, 2.4060091972351074, -1.0482372045516968, -2.1720619201660156, -0.863525390625, -0.096923828125, 0.022705078125, 
89, 3364574969, -0.25187554955482483, 0.6327916383743286, 0.07843498885631561, 0.7280001640319824, 9.476012229919434, -2.0737881660461426, 1.9167137145996094, 1.9906744956970215, -0.8004960417747498, -2.01724910736084, -0.866943359375, -0.095458984375, 0.021728515625, 
90, 3364583302, -0.2518536150455475, 0.6327594518661499, 0.07858923077583313, 0.728019118309021, 9.442062377929688, -2.0974299907684326, 1.925567865371704, 1.3485254049301147, -0.6223747134208679, -1.8103374242782593, -0.864013671875, -0.094482421875, 0.023193359375, 
91, 3364591635, -0.25181135535240173, 0.6327418684959412, 0.07867737859487534, 0.7280394434928894, 9.391782760620117, -2.058924436569214, 1.9130994081497192, 0.2668618857860565, -0.6323642134666443, -1.4107040166854858, -0.864501953125, -0.095458984375, 0.021728515625, 
92, 3364599968, -0.25174447894096375, 0.632750391960144, 0.07870492339134216, 0.7280521988868713, 9.4129056930542, -2.0748250484466553, 1.9139434099197388, -0.4451753795146942, -0.6940944790840149, -1.0925238132476807, -0.864501953125, -0.095458984375, 0.022216796875, 
93, 3364608301, -0.2516641914844513, 0.632768988609314, 0.07870274782180786, 0.7280639410018921, 9.413620948791504, -2.0828006267547607, 1.9127990007400513, -1.0417566299438477, -0.8069508671760559, -0.9280293583869934, -0.864990234375, -0.094482421875, 0.022216796875, 
94, 3364616634, -0.25158798694610596, 0.6327881813049316, 0.07867752015590668, 0.7280764579772949, 9.439299583435059, -2.091519594192505, 1.9383563995361328, -1.089706301689148, -0.6296234726905823, -0.7151238322257996, -0.865478515625, -0.098388671875, 0.021728515625, 
95, 3364624967, -0.25151562690734863, 0.6327909231185913, 0.07866416871547699, 0.7281005382537842, 9.475192070007324, -2.100653886795044, 1.9583055973052979, -0.9740837216377258, -0.5093902945518494, -0.7985493540763855, -0.864013671875, -0.096435546875, 0.022705078125, 
96, 3364633300, -0.25145459175109863, 0.6327788829803467, 0.07865940779447556, 0.728132426738739, 9.533209800720215, -2.07737135887146, 1.9549869298934937, -0.6672251224517822, -0.20337702333927155, -0.841555655002594, -0.867431640625, -0.096435546875, 0.021728515625, 
97, 3364641633, -0.25142142176628113, 0.6327388286590576, 0.07869169116020203, 0.7281752824783325, 9.55317211151123, -2.070183038711548, 1.947840690612793, 0.031902529299259186, 0.07626637816429138, -0.9538484215736389, -0.864990234375, -0.095947265625, 0.023193359375, 
98, 3364649966, -0.25140753388404846, 0.6326636075973511, 0.07874758541584015, 0.7282393574714661, 9.563021659851074, -2.078902244567871, 1.9265681505203247, 0.40305277705192566, 0.45358970761299133, -1.048313856124878, -0.864013671875, -0.096435546875, 0.021240234375, 
99, 3364658299, -0.2513960599899292, 0.6325743794441223, 0.07880474627017975, 0.7283146977424622, 9.581597328186035, -2.037601947784424, 1.9029279947280884, 0.48522326350212097, 0.6882416009902954, -1.0891683101654053, -0.867431640625, -0.096435546875, 0.020263671875, 
100, 3364666632, -0.2513730823993683, 0.6324955224990845, 0.07883062213659286, 0.7283883094787598, 9.582162857055664, -2.0293831825256348, 1.8903175592422485, 0.15625962615013123, 0.7637524604797363, -0.9434235095977783, -0.864990234375, -0.096435546875, 0.020751953125, 
101, 3364674965, -0.25133317708969116, 0.6324222683906555, 0.07883273810148239, 0.7284653782844543, 9.534310340881348, -2.022094488143921, 1.8673068284988403, -0.3772720694541931, 0.7059411406517029, -0.8850741982460022, -0.865478515625, -0.095458984375, 0.020751953125, 
102, 3364683298, -0.25124892592430115, 0.6323866844177246, 0.07878567278385162, 0.7285304665565491, 9.521736145019531, -2.043745994567871, 1.8478082418441772, -1.2456715106964111, 0.4418327212333679, -0.8473957180976868, -0.864013671875, -0.094482421875, 0.025146484375, 
103, 3364691631, -0.2511434555053711, 0.6323747634887695, 0.07870479673147202, 0.7285858988761902, 9.502107620239258, -2.0453174114227295, 1.8551874160766602, -2.0762128829956055, 0.14268408715724945, -0.7005493640899658, -0.865966796875, -0.096435546875, 0.025146484375, 
104, 3364699964, -0.25101175904273987, 0.6324105858802795, 0.0785878598690033, 0.7286128997802734, 9.511247634887695, -2.0784361362457275, 1.8184833526611328, -2.5661110877990723, -0.4140028655529022, -0.5054969191551208, -0.864990234375, -0.095458984375, 0.022216796875, 
105, 3364708297, -0.25089189410209656, 0.6324620842933655, 0.07847481966018677, 0.7286216616630554, 9.508782386779785, -2.099193572998047, 1.8348419666290283, -2.6478207111358643, -0.8106905221939087, -0.3283745348453522, -0.865478515625, -0.097900390625, 0.021240234375, 
106, 3364716630, -0.25080081820487976, 0.6325267553329468, 0.07836669683456421, 0.7286084890365601, 9.512871742248535, -2.1221089363098145, 1.8245997428894043, -2.179105520248413, -1.0394256114959717, -0.006147416774183512, -0.867919921875, -0.096923828125, 0.0205078125, 
107, 3364724963, -0.25077390670776367, 0.6325788497924805, 0.07831056416034698, 0.7285784482955933, 9.525426864624023, -2.106346845626831, 1.834853172302246, -1.1635266542434692, -1.263755202293396, 0.255437970161438, -0.867431640625, -0.096923828125, 0.023193359375, 
108, 3364733296, -0.25080227851867676, 0.6326249241828918, 0.07830378413200378, 0.7285295724868774, 9.518961906433105, -2.073587656021118, 1.8463778495788574, -0.02202824130654335, -1.3838858604431152, 0.41278618574142456, -0.866943359375, -0.097412109375, 0.022216796875, 
109, 3364741629, -0.2509000897407532, 0.6326273083686829, 0.07835478335618973, 0.7284882068634033, 9.516392707824707, -2.053330659866333, 1.8788729906082153, 1.1422539949417114, -1.0920884609222412, 0.5496430397033691, -0.867431640625, -0.097412109375, 0.025146484375, 
110, 3364749962, -0.25103890895843506, 0.632609486579895, 0.07844839990139008, 0.7284457683563232, 9.486307144165039, -1.9983853101730347, 1.8632571697235107, 2.1576790809631348, -0.9152735471725464, 0.5554831027984619, -0.869873046875, -0.09716796875, 0.02001953125, 
111, 3364758295, -0.25120875239372253, 0.6325611472129822, 0.07858079671859741, 0.7284150123596191, 9.496750831604004, -1.9450126886367798, 1.860916018486023, 2.816758871078491, -0.7080798745155334, 0.48532572388648987, -0.8671875, -0.094970703125, 0.025146484375, 
112, 3364766628, -0.2513701915740967, 0.6325170993804932, 0.07873103022575378, 0.7283812761306763, 9.473099708557129, -1.9167951345443726, 1.8550411462783813, 3.002795457839966, -0.7477051615715027, 0.23048967123031616, -0.868408203125, -0.096435546875, 0.0224609375, 
113, 3364774961, -0.25150975584983826, 0.6324686408042908, 0.07888194918632507, 0.7283589243888855, 9.464187622070312, -1.8467098474502563, 1.8872486352920532, 2.6567983627319336, -0.7147140502929688, -0.022566139698028564, -0.867431640625, -0.097412109375, 0.022216796875, 
114, 3364783294, -0.25159594416618347, 0.6324386596679688, 0.07901177555322647, 0.7283411026000977, 9.405167579650879, -1.8354294300079346, 1.884480595588684, 2.077096700668335, -0.7612037658691406, -0.38503313064575195, -0.866943359375, -0.092529296875, 0.0205078125, 
115, 3364791627, -0.2516307830810547, 0.6324253678321838, 0.0791211798787117, 0.7283287048339844, 9.418305397033691, -1.8210564851760864, 1.8932794332504272, 1.1823146343231201, -0.9467277526855469, -0.7079005837440491, -0.865966796875, -0.095947265625, 0.024658203125, 
116, 3364799960, -0.2516096234321594, 0.6324400305747986, 0.0791970044374466, 0.7283150553703308, 9.44258975982666, -1.8264355659484863, 1.894959807395935, 0.44457340240478516, -1.1021803617477417, -0.9577417373657227, -0.864990234375, -0.100341796875, 0.024658203125, 
117, 3364808293, -0.25155961513519287, 0.6324612498283386, 0.07926953583955765, 0.728305995464325, 9.464249610900879, -1.8510053157806396, 1.8952627182006836, -0.030532166361808777, -1.2309175729751587, -1.206737756729126, -0.862548828125, -0.095458984375, 0.021240234375, 
118, 3364816626, -0.2514840364456177, 0.6324930787086487, 0.0793137475848198, 0.7282997369766235, 9.495535850524902, -1.8863368034362793, 1.8719526529312134, -0.4128246307373047, -1.1588135957717896, -1.2331973314285278, -0.866455078125, -0.095947265625, 0.020263671875, 
119, 3364824959, -0.25141045451164246, 0.6325253248214722, 0.0793415755033493, 0.7282941341400146, 9.511672019958496, -1.8827717304229736, 1.8962113857269287, -0.5612847208976746, -1.1001570224761963, -1.0740816593170166, -0.863037109375, -0.097412109375, 0.02392578125, 
120, 3364833292, -0.25133970379829407, 0.6325442790985107, 0.07936156541109085, 0.7282997965812683, 9.535941123962402, -1.8937795162200928, 1.888343334197998, -0.7057233452796936, -0.9291818141937256, -1.0036424398422241, -0.864501953125, -0.096923828125, 0.022705078125, 
121, 3364841625, -0.2512601613998413, 0.6325545310974121, 0.07937198877334595, 0.7283172011375427, 9.544346809387207, -1.8624649047851562, 1.8699674606323242, -0.8886091113090515, -0.7098217606544495, -1.0626834630966187, -0.866943359375, -0.097900390625, 0.022705078125, 
122, 3364849958, -0.2511729300022125, 0.6325773596763611, 0.07936106622219086, 0.7283287048339844, 9.539496421813965, -1.8458917140960693, 1.865425705909729, -1.0554600954055786, -0.7372545003890991, -0.9424757361412048, -0.866455078125, -0.096435546875, 0.024169921875, 
123, 3364858291, -0.2510766386985779, 0.6325976252555847, 0.07934191077947617, 0.7283464074134827, 9.55438232421875, -1.8153756856918335, 1.8639634847640991, -1.4157756567001343, -0.7131003737449646, -0.9725725054740906, -0.866943359375, -0.098388671875, 0.024658203125, 
124, 3364866624, -0.2509590983390808, 0.6326340436935425, 0.07930663228034973, 0.728359043598175, 9.516634941101074, -1.821536660194397, 1.858501672744751, -1.6105973720550537, -0.8120224475860596, -1.0236985683441162, -0.866455078125, -0.093505859375, 0.023193359375, 
125, 3364874957, -0.2508493959903717, 0.6326721906661987, 0.0793076902627945, 0.7283636927604675, 9.459628105163574, -1.7660506963729858, 1.849243402481079, -1.4130347967147827, -1.0821244716644287, -1.2238224744796753, -0.861572265625, -0.100830078125, 0.02490234375, 
126, 3364883290, -0.25070828199386597, 0.6327242255210876, 0.07931841164827347, 0.7283658385276794, 9.458266258239746, -1.7447048425674438, 1.8135545253753662, -1.3970004320144653, -1.2437504529953003, -1.6066018342971802, -0.864013671875, -0.096923828125, 0.022705078125, 
127, 3364891623, -0.25056836009025574, 0.6327666640281677, 0.07936213910579681, 0.7283724546432495, 9.44512939453125, -1.7250630855560303, 1.8035216331481934, -1.1932392120361328, -1.303175449371338, -1.8829026222229004, -0.864990234375, -0.095458984375, 0.021240234375, 
128, 3364899956, -0.25041455030441284, 0.6328042149543762, 0.07942470163106918, 0.7283859848976135, 9.441136360168457, -1.6610652208328247, 1.8102692365646362, -0.9519274234771729, -1.1920608282089233, -2.2399394512176514, -0.868408203125, -0.097412109375, 0.024658203125, 
129, 3364908289, -0.2502574920654297, 0.6328263878822327, 0.0795522928237915, 0.7284067273139954, 9.414445877075195, -1.6770461797714233, 1.778206467628479, -0.5031147003173828, -1.272540807723999, -2.8667194843292236, -0.864501953125, -0.097412109375, 0.022216796875, 
130, 3364916622, -0.2500612735748291, 0.6328622102737427, 0.07975305616855621, 0.7284209132194519, 9.395820617675781, -1.6504017114639282, 1.7797212600708008, 0.06840281933546066, -1.6912825107574463, -3.871925115585327, -0.867431640625, -0.100341796875, 0.025634765625, 
131, 3364924955, -0.24984852969646454, 0.6329013109207153, 0.08006000518798828, 0.7284262776374817, 9.372115135192871, -1.6839019060134888, 1.7890219688415527, 0.7769438028335571, -2.254513740539551, -4.90958309173584, -0.862548828125, -0.099853515625, 0.02197265625, 
132, 3364933288, -0.24960659444332123, 0.6329584717750549, 0.08048305660486221, 0.7284129858016968, 9.373746871948242, -1.7516895532608032, 1.7995858192443848, 1.8550726175308228, -2.960365056991577, -6.145341396331787, -0.864990234375, -0.100341796875, 0.025634765625, 
133, 3364941621, -0.24938075244426727, 0.6330157518386841, 0.08106452226638794, 0.728376030921936, 9.404232025146484, -1.832000494003296, 1.8416345119476318, 3.3861379623413086, -3.7592222690582275, -7.265631675720215, -0.865478515625, -0.099853515625, 0.027099609375, 
134, 3364949954, -0.2491520494222641, 0.6330902576446533, 0.08178085088729858, 0.7283093333244324, 9.45622730255127, -1.9551172256469727, 1.8883205652236938, 4.907726764678955, -4.587996959686279, -8.363612174987793, -0.867431640625, -0.10205078125, 0.024658203125, 
135, 3364958287, -0.24897931516170502, 0.6331583261489868, 0.08261864632368088, 0.728214681148529, 9.501314163208008, -2.027803897857666, 1.9606250524520874, 6.506157398223877, -5.202661991119385, -8.743598937988281, -0.864990234375, -0.10498046875, 0.0263671875, 
136, 3364966620, -0.24886582791805267, 0.6332116723060608, 0.08351223170757294, 0.7281053066253662, 9.514172554016113, -2.1153171062469482, 2.0528411865234375, 7.806643486022949, -5.224946022033691, -8.630589485168457, -0.864990234375, -0.1064453125, 0.0244140625, 
137, 3364974953, -0.248801589012146, 0.633226752281189, 0.08440650999546051, 0.7280109524726868, 9.567872047424316, -2.1700170040130615, 2.1082630157470703, 8.287294387817383, -4.756025791168213, -8.193816184997559, -0.866455078125, -0.1064453125, 0.0263671875, 
138, 3364983286, -0.2487655133008957, 0.6332136988639832, 0.08521224558353424, 0.7279408574104309, 9.58796501159668, -2.144473075866699, 2.1706600189208984, 7.782744407653809, -3.8285858631134033, -7.3024139404296875, -0.865966796875, -0.10693359375, 0.02587890625, 
139, 3364991619, -0.2487056851387024, 0.6331617832183838, 0.08586260676383972, 0.7279301881790161, 9.62633228302002, -2.1533920764923096, 2.1621270179748535, 5.985368728637695, -2.513909339904785, -6.397233009338379, -0.864013671875, -0.107177734375, 0.0283203125, 
140, 3364999952, -0.24860607087612152, 0.633078932762146, 0.08630926162004471, 0.7279833555221558, 9.665173530578613, -2.106295108795166, 2.146544933319092, 3.7287790775299072, -0.9031323194503784, -5.31508207321167, -0.864990234375, -0.10791015625, 0.02685546875, 
141, 3365008285, -0.2484670877456665, 0.6329559683799744, 0.08654049038887024, 0.7281101942062378, 9.685969352722168, -2.1008567810058594, 2.1423559188842773, 1.1584166288375854, 0.7388298511505127, -4.102734565734863, -0.866943359375, -0.10986328125, 0.0302734375, 
142, 3365016618, -0.24826399981975555, 0.6328166723251343, 0.08655677735805511, 0.728298544883728, 9.703207969665527, -2.115644693374634, 2.0727996826171875, -1.4484081268310547, 2.1854703426361084, -3.133056163787842, -0.866455078125, -0.1083984375, 0.02587890625, 
143, 3365024951, -0.24803078174591064, 0.6326557993888855, 0.08643035590648651, 0.7285327315330505, 9.699753761291504, -2.0934386253356934, 2.02636456489563, -3.2520854473114014, 3.1607580184936523, -2.3469042778015137, -0.864990234375, -0.109375, 0.0263671875, 
144, 3365033284, -0.24777059257030487, 0.6325008869171143, 0.08621875941753387, 0.7287808656692505, 9.691588401794434, -2.123037815093994, 1.940428376197815, -4.244919300079346, 3.574171781539917, -1.9456828832626343, -0.866455078125, -0.1103515625, 0.025390625, 
145, 3365041617, -0.24754010140895844, 0.6323434114456177, 0.08601769804954529, 0.7290194630622864, 9.653282165527344, -2.124699831008911, 1.8614164590835571, -3.9823477268218994, 3.4214088916778564, -1.682547926902771, -0.865966796875, -0.11083984375, 0.02880859375, 
146, 3365049950, -0.24734336137771606, 0.6322178244590759, 0.08589431643486023, 0.7292097806930542, 9.603745460510254, -2.204730987548828, 1.833605170249939, -2.8407723903656006, 2.551088333129883, -1.8443018198013306, -0.8701171875, -0.113037109375, 0.025146484375, 
147, 3365058283, -0.24722346663475037, 0.6321187019348145, 0.08590792119503021, 0.7293347716331482, 9.566522598266602, -2.218364715576172, 1.8072882890701294, -0.9061548113822937, 1.2456074953079224, -1.9810304641723633, -0.8662109375, -0.11181640625, 0.02490234375, 
148, 3365066616, -0.2472010850906372, 0.6320555210113525, 0.08607260882854462, 0.7293776273727417, 9.506272315979004, -2.2207190990448, 1.7839621305465698, 1.5247514247894287, -0.13096559047698975, -2.0254709720611572, -0.86572265625, -0.10986328125, 0.02490234375, 
149, 3365074949, -0.24729087948799133, 0.6320220828056335, 0.0863756388425827, 0.7293404340744019, 9.484713554382324, -2.2678956985473633, 1.7845571041107178, 3.728882074356079, -1.5467156171798706, -1.780548095703125, -0.86474609375, -0.11083984375, 0.0263671875, 
150, 3365083282, -0.24744723737239838, 0.6320337653160095, 0.08675343543291092, 0.7292323708534241, 9.439599990844727, -2.2741494178771973, 1.8057247400283813, 5.140815258026123, -2.706784248352051, -1.4825263023376465, -0.867431640625, -0.1103515625, 0.0263671875, 
151, 3365091615, -0.24767854809761047, 0.6320568323135376, 0.08714867383241653, 0.729086697101593, 9.461592674255371, -2.273900270462036, 1.8347209692001343, 5.973995685577393, -3.1176369190216064, -0.7412247657775879, -0.8681640625, -0.11181640625, 0.0244140625, 
152, 3365099948, -0.24795593321323395, 0.6320887207984924, 0.08751203119754791, 0.7289213538169861, 9.481131553649902, -2.266458511352539, 1.896988868713379, 5.866441249847412, -3.2905585765838623, 0.08295170962810516, -0.86376953125, -0.111328125, 0.026123046875, 
153, 3365108281, -0.24824979901313782, 0.6321200132369995, 0.08778250217437744, 0.7287617921829224, 9.508072853088379, -2.2316060066223145, 1.940033197402954, 5.126138687133789, -2.90765118598938, 1.0421792268753052, -0.8642578125, -0.11328125, 0.025146484375, 
154, 3365116614, -0.2485472559928894, 0.6321448683738708, 0.0879124328494072, 0.7286229729652405, 9.541857719421387, -2.2296881675720215, 2.0026955604553223, 3.874729633331299, -2.092555046081543, 2.206730365753174, -0.864501953125, -0.1083984375, 0.025390625, 
155, 3365124947, -0.24883587658405304, 0.6321353912353516, 0.0878882110118866, 0.7285355925559998, 9.582932472229004, -2.1765339374542236, 2.0066258907318115, 2.170025110244751, -0.8678614497184753, 3.2505362033843994, -0.86376953125, -0.1123046875, 0.026123046875, 
156, 3365133280, -0.2490924596786499, 0.6321133375167847, 0.08768801391124725, 0.7284911870956421, 9.592818260192871, -2.140021562576294, 2.0206501483917236, 0.25782009959220886, 0.28028377890586853, 4.287067890167236, -0.864990234375, -0.11083984375, 0.02734375, 
157, 3365141613, -0.2493486851453781, 0.6320545673370361, 0.08737201988697052, 0.7284923195838928, 9.592303276062012, -2.1123111248016357, 2.0176732540130615, -0.9586896300315857, 1.3504977226257324, 5.10014009475708, -0.865478515625, -0.107421875, 0.02587890625, 
158, 3365149946, -0.24958927929401398, 0.6319820880889893, 0.08697894215583801, 0.728519856929779, 9.601399421691895, -2.0995240211486816, 2.0031559467315674, -1.7272448539733887, 2.0512008666992188, 5.496187686920166, -0.864013671875, -0.107421875, 0.02392578125, 
159, 3365158279, -0.24982689321041107, 0.6318879723548889, 0.08655495196580887, 0.7285706400871277, 9.613458633422852, -2.0941412448883057, 1.9503575563430786, -2.1059768199920654, 2.4786765575408936, 5.643929958343506, -0.864990234375, -0.109375, 0.02685546875, 
160, 3365166612, -0.2500618100166321, 0.6317957639694214, 0.08613233268260956, 0.7286200523376465, 9.562212944030762, -2.0564043521881104, 1.9034793376922607, -2.0312087535858154, 2.533721685409546, 5.597747802734375, -0.863037109375, -0.10693359375, 0.0263671875, 
161, 3365174945, -0.25031426548957825, 0.6317042708396912, 0.08573383837938309, 0.7286596894264221, 9.546064376831055, -2.0402677059173584, 1.8618940114974976, -1.7962751388549805, 2.2992491722106934, 5.595903396606445, -0.866455078125, -0.10546875, 0.023681640625, 
162, 3365183278, -0.2505621314048767, 0.6316445469856262, 0.08536024391651154, 0.7286702394485474, 9.534090995788574, -2.0392796993255615, 1.8436148166656494, -1.4912097454071045, 1.7190096378326416, 5.473109245300293, -0.864501953125, -0.1064453125, 0.02685546875, 
163, 3365191611, -0.2508279085159302, 0.6315978765487671, 0.08501966297626495, 0.7286590337753296, 9.532252311706543, -1.9982678890228271, 1.8234089612960815, -1.1934185028076172, 1.2253210544586182, 5.454410552978516, -0.863037109375, -0.1044921875, 0.02197265625, 
164, 3365199944, -0.2510957419872284, 0.6315796375274658, 0.08468782156705856, 0.7286213040351868, 9.525315284729004, -2.02508544921875, 1.8140218257904053, -0.9857894778251648, 0.7628047466278076, 5.524977684020996, -0.863037109375, -0.104248046875, 0.025390625, 
165, 3365208277, -0.2513713538646698, 0.63158118724823, 0.08438609540462494, 0.7285599112510681, 9.519140243530273, -2.0606071949005127, 1.81345796585083, -0.8210130929946899, 0.18525497615337372, 5.444830894470215, -0.862548828125, -0.1044921875, 0.02294921875, 
166, 3365216610, -0.2516624331474304, 0.6315935254096985, 0.08409743010997772, 0.7284821271896362, 9.536885261535645, -2.059068202972412, 1.8167804479599, -0.4116976261138916, -0.013882914558053017, 5.556995391845703, -0.865966796875, -0.099853515625, 0.021728515625, 
167, 3365224943, -0.25198107957839966, 0.6316046118736267, 0.08383266627788544, 0.7283926606178284, 9.523642539978027, -2.0642409324645996, 1.8189364671707153, -0.06690438836812973, -0.2348313182592392, 5.664140224456787, -0.867919921875, -0.100341796875, 0.023681640625, 
168, 3365233276, -0.2523413896560669, 0.6316217184066772, 0.08358283340930939, 0.7282818555831909, 9.537635803222656, -2.109623908996582, 1.8418209552764893, 0.5992834568023682, -0.40306562185287476, 6.033804893493652, -0.863037109375, -0.100341796875, 0.025390625, 
169, 3365241609, -0.2527603209018707, 0.6316269040107727, 0.08334818482398987, 0.7281590700149536, 9.550012588500977, -2.12040638923645, 1.8679338693618774, 1.1656911373138428, -0.4530133605003357, 6.51427698135376, -0.865478515625, -0.099365234375, 0.022705078125, 
170, 3365249942, -0.2532299757003784, 0.6316255927085876, 0.0831194519996643, 0.7280231714248657, 9.574491500854492, -2.0964226722717285, 1.8713701963424683, 1.854278564453125, -0.38362443447113037, 7.0110650062561035, -0.865966796875, -0.099853515625, 0.024169921875, 
171, 3365258275, -0.2537623345851898, 0.6315969824790955, 0.0828910768032074, 0.7278885841369629, 9.587239265441895, -2.036007881164551, 1.8715717792510986, 2.3713788986206055, -0.11216475069522858, 7.602190971374512, -0.863037109375, -0.099853515625, 0.0244140625, 
172, 3365266608, -0.2543071508407593, 0.6315575838088989, 0.08261048793792725, 0.7277644872665405, 9.60562515258789, -1.9509719610214233, 1.8672157526016235, 2.1066043376922607, 0.36560478806495667, 8.130175590515137, -0.862548828125, -0.096435546875, 0.022216796875, 
173, 3365274941, -0.2548586428165436, 0.6315057277679443, 0.08227702975273132, 0.7276543378829956, 9.619014739990234, -1.8565083742141724, 1.8587604761123657, 1.5525940656661987, 0.7183127999305725, 8.596943855285645, -0.864990234375, -0.097412109375, 0.021240234375, 
174, 3365283274, -0.2553776800632477, 0.6314502954483032, 0.08190120756626129, 0.7275629043579102, 9.616633415222168, -1.7884995937347412, 1.8274109363555908, 0.9500704407691956, 1.1137709617614746, 8.566361427307129, -0.868408203125, -0.093994140625, 0.02197265625, 
175, 3365291607, -0.25584161281585693, 0.6314124464988708, 0.08149798959493637, 0.7274779677391052, 9.599747657775879, -1.7175548076629639, 1.7942875623703003, 0.017123116180300713, 0.9441022872924805, 8.255377769470215, -0.865478515625, -0.095458984375, 0.023193359375, 
176, 3365299940, -0.25624775886535645, 0.6314030289649963, 0.08109881728887558, 0.7273878455162048, 9.570475578308105, -1.7087671756744385, 1.7988120317459106, -0.4274247884750366, 0.6207994818687439, 7.686768531799316, -0.862548828125, -0.0927734375, 0.025146484375, 
177, 3365308273, -0.25663381814956665, 0.6314354538917542, 0.08073973655700684, 0.7272636890411377, 9.47149658203125, -1.699979543685913, 1.7885347604751587, -0.44051364064216614, -0.33411213755607605, 7.307549476623535, -0.86474609375, -0.091064453125, 0.021728515625, 
178, 3365316606, -0.25700098276138306, 0.631515383720398, 0.08046276122331619, 0.7270952463150024, 9.4496431350708, -1.6956037282943726, 1.8075573444366455, 0.22805637121200562, -1.4289158582687378, 6.611354351043701, -0.86669921875, -0.091064453125, 0.0234375, 
179, 3365324939, -0.2573780417442322, 0.6316207051277161, 0.0803147554397583, 0.7268866896629333, 9.459680557250977, -1.7014034986495972, 1.8055239915847778, 1.4235236644744873, -2.5513312816619873, 5.764982223510742, -0.8671875, -0.090576171875, 0.02294921875, 
180, 3365333272, -0.25778284668922424, 0.6317415833473206, 0.08029066026210785, 0.7266408205032349, 9.437004089355469, -1.7345973253250122, 1.8251641988754272, 3.0227744579315186, -3.3602547645568848, 5.109771251678467, -0.86669921875, -0.0888671875, 0.025390625, 
181, 3365341605, -0.25821101665496826, 0.6318475604057312, 0.08040671795606613, 0.7263836860656738, 9.460610389709473, -1.7459689378738403, 1.8674561977386475, 4.525176525115967, -3.8494608402252197, 4.14977502822876, -0.8662109375, -0.08642578125, 0.0263671875, 
182, 3365349938, -0.2586672604084015, 0.6319384574890137, 0.08063113689422607, 0.7261174321174622, 9.452073097229004, -1.7455562353134155, 1.9251405000686646, 6.08242130279541, -4.065466403961182, 3.5054237842559814, -0.86376953125, -0.087890625, 0.023193359375, 
183, 3365358271, -0.2591339349746704, 0.6319909691810608, 0.08091899007558823, 0.7258731722831726, 9.46075439453125, -1.7194385528564453, 1.9683860540390015, 6.8501811027526855, -3.7944154739379883, 2.959148406982422, -0.86767578125, -0.087890625, 0.02734375, 
184, 3365366604, -0.25959184765815735, 0.6320041418075562, 0.08123824000358582, 0.7256624102592468, 9.488304138183594, -1.689921259880066, 2.032805919647217, 7.25888204574585, -3.1423799991607666, 2.4122073650360107, -0.86328125, -0.08642578125, 0.025146484375, 
185, 3365374937, -0.2600267827510834, 0.631967306137085, 0.08152563869953156, 0.7255065441131592, 9.515945434570312, -1.6661503314971924, 2.0535390377044678, 6.730102062225342, -2.1532351970672607, 2.22143292427063, -0.86767578125, -0.0859375, 0.02490234375, 
186, 3365383270, -0.2604040801525116, 0.6318963766098022, 0.08175806701183319, 0.7254067659378052, 9.520780563354492, -1.643795132637024, 2.0884788036346436, 5.867338180541992, -1.1173187494277954, 1.8722598552703857, -0.8671875, -0.0859375, 0.02392578125, 
187, 3365391603, -0.26070088148117065, 0.631786584854126, 0.08193487673997879, 0.7253758311271667, 9.503937721252441, -1.6910656690597534, 2.114795446395874, 4.676019668579102, -0.02392369695007801, 1.2628202438354492, -0.8642578125, -0.08544921875, 0.025390625, 
188, 3365399936, -0.26091834902763367, 0.6316370964050293, 0.08207119256258011, 0.7254125475883484, 9.509223937988281, -1.667777419090271, 2.102872371673584, 3.5319595336914062, 0.9359314441680908, 0.5536389350891113, -0.86572265625, -0.0849609375, 0.02734375, 
189, 3365408269, -0.261064350605011, 0.6314748525619507, 0.082176573574543, 0.7254891991615295, 9.472122192382812, -1.705500602722168, 2.0612807273864746, 2.45920991897583, 1.4713455438613892, -0.07425566017627716, -0.86328125, -0.0859375, 0.027099609375, 
190, 3365416602, -0.26115018129348755, 0.6313199400901794, 0.08224658668041229, 0.7255851626396179, 9.454357147216797, -1.7471777200698853, 2.049269199371338, 1.796006202697754, 1.674902081489563, -0.4196380376815796, -0.8671875, -0.08349609375, 0.0263671875, 
191, 3365424935, -0.2612036466598511, 0.6311752200126648, 0.08231539279222488, 0.7256841659545898, 9.444639205932617, -1.7967102527618408, 2.02377986907959, 1.2964004278182983, 1.4945521354675293, -0.7189659476280212, -0.86474609375, -0.08837890625, 0.0234375, 
192, 3365433268, -0.26121726632118225, 0.6310575008392334, 0.08237044513225555, 0.7257754802703857, 9.445463180541992, -1.829448938369751, 2.01218843460083, 0.8922078013420105, 1.2336456775665283, -0.951517641544342, -0.8662109375, -0.0869140625, 0.025390625, 
193, 3365441601, -0.26120737195014954, 0.6309463977813721, 0.08245140314102173, 0.7258663177490234, 9.425467491149902, -1.8351870775222778, 1.9899773597717285, 0.77799391746521, 0.9702287912368774, -1.3844751119613647, -0.8671875, -0.08544921875, 0.02490234375, 
194, 3365449934, -0.2611747682094574, 0.6308676600456238, 0.08253563195466995, 0.7259368896484375, 9.426265716552734, -1.86978018283844, 1.980124831199646, 0.6659316420555115, 0.507840633392334, -1.548738956451416, -0.865234375, -0.0849609375, 0.0244140625, 
195, 3365458267, -0.2611336410045624, 0.6307889223098755, 0.08263152092695236, 0.7260092496871948, 9.409632682800293, -1.8668912649154663, 1.9932326078414917, 0.5428040623664856, 0.4014391005039215, -1.7249137163162231, -0.86279296875, -0.087890625, 0.025146484375, 
196, 3365466600, -0.26108261942863464, 0.6307202577590942, 0.08271512389183044, 0.7260777354240417, 9.454150199890137, -1.8715282678604126, 1.9638676643371582, 0.4657053053379059, 0.37052273750305176, -1.7078548669815063, -0.865234375, -0.08740234375, 0.02392578125, 
197, 3365474933, -0.26104971766471863, 0.6306322813034058, 0.08283574879169464, 0.7261521220207214, 9.448381423950195, -1.908234715461731, 1.9710254669189453, 0.9126737117767334, 0.4272325932979584, -1.8707098960876465, -0.86962890625, -0.0888671875, 0.02392578125, 
198, 3365483266, -0.26104500889778137, 0.6305294036865234, 0.0829772874712944, 0.7262269258499146, 9.408175468444824, -1.949353575706482, 1.9851057529449463, 1.5611748695373535, 0.6109635829925537, -1.8089030981063843, -0.8662109375, -0.0869140625, 0.02490234375, 
199, 3365491599, -0.26108744740486145, 0.6303882598876953, 0.08318378031253815, 0.7263107299804688, 9.388378143310547, -1.9813036918640137, 2.0105533599853516, 2.58185076713562, 0.8219735622406006, -1.9603855609893799, -0.8642578125, -0.0859375, 0.025390625, 
200, 3365499932, -0.2611808478832245, 0.6302187442779541, 0.08345121145248413, 0.7263935804367065, 9.383477210998535, -1.9786241054534912, 1.9777591228485107, 3.898320198059082, 1.0070620775222778, -2.025010347366333, -0.8671875, -0.08349609375, 0.025390625, 
201, 3365508265, -0.2613493800163269, 0.6300058364868164, 0.08379731327295303, 0.7264778017997742, 9.398050308227539, -1.9806855916976929, 2.0062496662139893, 5.296396255493164, 1.1915102005004883, -2.0006000995635986, -0.865234375, -0.08837890625, 0.026123046875, 
202, 3365516598, -0.2615482807159424, 0.629772424697876, 0.08418045938014984, 0.7265644669532776, 9.37806510925293, -1.9558799266815186, 1.9951366186141968, 6.196019172668457, 1.3834631443023682, -2.0626118183135986, -0.865234375, -0.08740234375, 0.02490234375, 
203, 3365524931, -0.2617739737033844, 0.6295076608657837, 0.08459067344665527, 0.7266648411750793, 9.446126937866211, -1.9389063119888306, 1.9804898500442505, 6.626722812652588, 1.676592469215393, -2.0970373153686523, -0.8662109375, -0.08740234375, 0.025390625, 
204, 3365533264, -0.26197880506515503, 0.6292253732681274, 0.08499453961849213, 0.7267884016036987, 9.453326225280762, -1.9144436120986938, 1.9406814575195312, 6.585996627807617, 2.1239964962005615, -2.3703927993774414, -0.8671875, -0.087890625, 0.0224609375, 
205, 3365541597, -0.26216402649879456, 0.628933310508728, 0.08538181334733963, 0.7269289493560791, 9.467205047607422, -1.9391446113586426, 1.8894332647323608, 6.087824821472168, 2.33605694770813, -2.4829928874969482, -0.8662109375, -0.0849609375, 0.02197265625, 
206, 3365549930, -0.26234132051467896, 0.6286576390266418, 0.0857851505279541, 0.7270560264587402, 9.460053443908691, -2.0495994091033936, 1.8408076763153076, 6.314101219177246, 2.059756278991699, -2.646411895751953, -0.8681640625, -0.090087890625, 0.02294921875, 
207, 3365558263, -0.2625559866428375, 0.6284170150756836, 0.08631406724452972, 0.7271238565444946, 9.486745834350586, -2.255095958709717, 1.8358123302459717, 7.686844348907471, 0.7126520276069641, -3.0835955142974854, -0.86474609375, -0.08837890625, 0.02392578125, 
208, 3365566596, -0.2628779709339142, 0.6282429099082947, 0.08708000928163528, 0.7270666360855103, 9.571084976196289, -2.491364002227783, 1.8273152112960815, 11.041823387145996, -1.6874146461486816, -3.5491342544555664, -0.8662109375, -0.0908203125, 0.02392578125, 
209, 3365574929, -0.2634372115135193, 0.6280769109725952, 0.08821041882038116, 0.7268712520599365, 9.74505615234375, -2.6949915885925293, 1.8061836957931519, 16.694629669189453, -4.061265468597412, -3.8028693199157715, -0.86572265625, -0.091552734375, 0.022705078125, 
210, 3365583262, -0.264341801404953, 0.6278762817382812, 0.08980894088745117, 0.726520299911499, 9.923521041870117, -2.9094746112823486, 1.7213619947433472, 24.848243713378906, -6.2710089683532715, -3.88606595993042, -0.8662109375, -0.091552734375, 0.02392578125, 
211, 3365591595, -0.26571059226989746, 0.6275871396064758, 0.09198375791311264, 0.7259986996650696, 9.890588760375977, -3.063377857208252, 1.6652419567108154, 35.040531158447266, -8.459417343139648, -3.689222574234009, -0.8671875, -0.090087890625, 0.0234375, 
212, 3365599928, -0.26761189103126526, 0.6271839737892151, 0.0948415994644165, 0.7252807021141052, 9.79934310913086, -3.3171145915985107, 1.6026289463043213, 47.22542953491211, -10.759563446044922, -3.7176318168640137, -0.865234375, -0.08984375, 0.0224609375, 
213, 3365608261, -0.2701767385005951, 0.6266397833824158, 0.09849106520414352, 0.724312961101532, 9.665189743041992, -3.5394959449768066, 1.580237865447998, 61.686763763427734, -13.6510009765625, -3.1550190448760986, -0.86572265625, -0.08984375, 0.029052734375, 
214, 3365616594, -0.2735030949115753, 0.6259557008743286, 0.10302017629146576, 0.7230250835418701, 9.39299488067627, -3.7252001762390137, 1.5439800024032593, 77.96661376953125, -17.157304763793945, -2.187519073486328, -0.86474609375, -0.0908203125, 0.031005859375, 
215, 3365624927, -0.2776143252849579, 0.6251363754272461, 0.10843535512685776, 0.7213732004165649, 9.11129093170166, -3.781641721725464, 1.6346834897994995, 94.48059844970703, -21.245849609375, -0.8187144994735718, -0.865234375, -0.092529296875, 0.036865234375, 
216, 3365633260, -0.2824898958206177, 0.6241669058799744, 0.11464995890855789, 0.7193564176559448, 9.029534339904785, -3.8147780895233154, 1.7818602323532104, 110.17613220214844, -24.725847244262695, 1.0443167686462402, -0.8662109375, -0.086669921875, 0.035888671875, 
217, 3365641593, -0.2881077527999878, 0.6229378581047058, 0.12157250195741653, 0.7170531749725342, 9.103073120117188, -3.633174180984497, 1.9160150289535522, 124.88400268554688, -26.26229476928711, 3.010112762451172, -0.86279296875, -0.08740234375, 0.039794921875, 
218, 3365649926, -0.2943188548088074, 0.6213642954826355, 0.12901633977890015, 0.7145910859107971, 9.185369491577148, -3.2637622356414795, 2.0321874618530273, 136.8637237548828, -25.23518943786621, 4.453097343444824, -0.863525390625, -0.08544921875, 0.044677734375, 
219, 3365658259, -0.3009020984172821, 0.6193639636039734, 0.13677506148815155, 0.7121386528015137, 9.345691680908203, -2.85237979888916, 2.0899457931518555, 144.80836486816406, -21.65296745300293, 4.626415252685547, -0.864501953125, -0.084716796875, 0.050048828125, 
220, 3365666592, -0.3075954020023346, 0.6169125437736511, 0.1446075588464737, 0.7098559737205505, 9.554106712341309, -2.477203607559204, 2.0937981605529785, 148.05545043945312, -15.808465957641602, 3.5229861736297607, -0.862548828125, -0.081787109375, 0.05224609375, 
221, 3365674925, -0.31423258781433105, 0.6140828728675842, 0.1524193286895752, 0.7077649831771851, 9.498929023742676, -2.2797906398773193, 2.0966925621032715, 148.60806274414062, -10.603629112243652, 1.5987564325332642, -0.865234375, -0.07958984375, 0.055908203125, 
222, 3365683258, -0.32071903347969055, 0.611050009727478, 0.16023406386375427, 0.705751359462738, 9.145356178283691, -2.285240650177002, 2.04842472076416, 148.068603515625, -8.211109161376953, -0.6647534370422363, -0.86279296875, -0.0751953125, 0.055419921875, 
223, 3365691591, -0.32701194286346436, 0.6079590320587158, 0.1681743860244751, 0.7036824822425842, 8.811223030090332, -2.437955141067505, 2.00103759765625, 148.0382080078125, -9.178757667541504, -3.475842237472534, -0.8662109375, -0.07421875, 0.057373046875, 
224, 3365699924, -0.3331632614135742, 0.6049302816390991, 0.17638042569160461, 0.7013945579528809, 8.618911743164062, -2.624236822128296, 1.94745934009552, 149.65249633789062, -13.047126770019531, -5.945335865020752, -0.86181640625, -0.074951171875, 0.060791015625, 
225, 3365708257, -0.3392098546028137, 0.6019818782806396, 0.1848977953195572, 0.6988349556922913, 8.625638008117676, -2.7717127799987793, 1.9180009365081787, 152.08836364746094, -17.854158401489258, -8.097262382507324, -0.8623046875, -0.070068359375, 0.060791015625, 
226, 3365716590, -0.34517794847488403, 0.5990705490112305, 0.19365766644477844, 0.6960361003875732, 8.789726257324219, -2.788268804550171, 1.9778821468353271, 154.19126892089844, -21.429351806640625, -9.658103942871094, -0.860107421875, -0.06982421875, 0.064453125, 
227, 3365724923, -0.3510969877243042, 0.5960975289344788, 0.2025240659713745, 0.6930984854698181, 9.005027770996094, -2.777019500732422, 2.0082619190216064, 155.46551513671875, -22.70589828491211, -10.512079238891602, -0.861083984375, -0.0712890625, 0.068359375, 
228, 3365733256, -0.35695594549179077, 0.5929737687110901, 0.21135875582695007, 0.6901411414146423, 9.128172874450684, -2.71475887298584, 2.093571901321411, 155.45855712890625, -21.35810089111328, -11.148096084594727, -0.860595703125, -0.06982421875, 0.0712890625, 
229, 3365741589, -0.3627564013004303, 0.5896085500717163, 0.2200482338666916, 0.6872780323028564, 9.330714225769043, -2.68129301071167, 2.130610704421997, 154.51780700683594, -17.845996856689453, -11.686102867126465, -0.860595703125, -0.0693359375, 0.072265625, 
230, 3365749922, -0.36851248145103455, 0.5859795212745667, 0.2285059541463852, 0.6845541000366211, 9.564770698547363, -2.6632964611053467, 2.118459939956665, 152.8582000732422, -13.110844612121582, -11.716939926147461, -0.861572265625, -0.068115234375, 0.07958984375, 
231, 3365758255, -0.37429162859916687, 0.5820619463920593, 0.23673683404922485, 0.6819590926170349, 9.754683494567871, -2.718410015106201, 2.0033178329467773, 151.9239959716797, -8.217984199523926, -11.25074577331543, -0.858642578125, -0.065673828125, 0.07763671875, 
232, 3365766588, -0.3801635503768921, 0.5779022574424744, 0.24481363594532013, 0.6793921589851379, 9.8143892288208, -2.869572877883911, 1.8555771112442017, 152.41860961914062, -4.54410982131958, -10.060582160949707, -0.859130859375, -0.067626953125, 0.080078125, 
233, 3365774921, -0.3861871361732483, 0.5735430121421814, 0.25284209847450256, 0.67674320936203, 9.945984840393066, -2.9904065132141113, 1.812069296836853, 154.53578186035156, -2.659428358078003, -8.5100736618042, -0.859130859375, -0.0654296875, 0.08056640625, 
234, 3365783254, -0.3924340605735779, 0.5690277814865112, 0.26089271903038025, 0.6738996505737305, 10.183489799499512, -2.9797520637512207, 1.7634249925613403, 157.96551513671875, -1.9908586740493774, -6.106823444366455, -0.85791015625, -0.0634765625, 0.0830078125, 
235, 3365791587, -0.3989226222038269, 0.5643744468688965, 0.2690287232398987, 0.6707969903945923, 10.268304824829102, -3.0390446186065674, 1.768505573272705, 162.31698608398438, -2.419320821762085, -3.6609742641448975, -0.8564453125, -0.0625, 0.08203125, 
236, 3365799920, -0.4056178033351898, 0.5596215128898621, 0.2772656977176666, 0.6674013137817383, 10.140538215637207, -3.081658363342285, 1.7917038202285767, 166.48712158203125, -3.4775753021240234, -1.2723923921585083, -0.8564453125, -0.060546875, 0.08056640625, 
237, 3365808253, -0.41247060894966125, 0.5548110008239746, 0.28565290570259094, 0.6636700630187988, 10.037579536437988, -2.9565703868865967, 1.886300802230835, 170.7797393798828, -5.861968994140625, 0.6590328216552734, -0.85791015625, -0.055908203125, 0.0859375, 
238, 3365816586, -0.4193764626979828, 0.5499127507209778, 0.2942315936088562, 0.6596589684486389, 10.050811767578125, -2.84234356880188, 2.0204029083251953, 174.4299774169922, -7.979841709136963, 0.9348037242889404, -0.85986328125, -0.052978515625, 0.081298828125, 
239, 3365824919, -0.426211416721344, 0.5449206233024597, 0.30280113220214844, 0.6555300354957581, 10.393048286437988, -2.628474473953247, 2.1688923835754395, 174.87908935546875, -8.341499328613281, 0.6308826804161072, -0.85791015625, -0.053955078125, 0.08642578125, 
240, 3365833252, -0.43290939927101135, 0.5398436188697815, 0.3111906349658966, 0.6513996124267578, 10.63305950164795, -2.447157859802246, 2.273988962173462, 172.68374633789062, -7.014669418334961, 0.4297797977924347, -0.856689453125, -0.04541015625, 0.086181640625, 
241, 3365841585, -0.43946972489356995, 0.5347355008125305, 0.3192940354347229, 0.6472854018211365, 10.67121696472168, -2.362062931060791, 2.3415706157684326, 169.21397399902344, -5.5043559074401855, 1.0946903228759766, -0.860595703125, -0.04296875, 0.08349609375, 
242, 3365849918, -0.4458746016025543, 0.5296322703361511, 0.32696533203125, 0.6432590484619141, 10.866670608520508, -2.20477032661438, 2.3779585361480713, 163.76715087890625, -3.0550310611724854, 2.319103717803955, -0.857177734375, -0.0419921875, 0.086181640625, 
243, 3365858251, -0.45207804441452026, 0.5245859622955322, 0.33410006761550903, 0.6393864750862122, 11.015901565551758, -2.158592462539673, 2.371729850769043, 156.57894897460938, -0.05576338991522789, 3.7645411491394043, -0.85986328125, -0.036376953125, 0.087890625, 
244, 3365866584, -0.45806559920310974, 0.5196712017059326, 0.340678334236145, 0.6356564164161682, 10.83399772644043, -2.1939289569854736, 2.339010715484619, 148.6318817138672, 2.366737127304077, 5.651032447814941, -0.85595703125, -0.033935546875, 0.088623046875, 
245, 3365874917, -0.463861882686615, 0.5149587988853455, 0.3466709852218628, 0.6320376992225647, 10.666495323181152, -2.159402847290039, 2.331923246383667, 140.2713165283203, 4.104098796844482, 8.330214500427246, -0.85595703125, -0.032470703125, 0.083984375, 
246, 3365883250, -0.46944424510002136, 0.5105302333831787, 0.352019727230072, 0.6285427212715149, 10.746481895446777, -1.9413349628448486, 2.377678155899048, 130.83616638183594, 5.686637878417969, 11.673389434814453, -0.8564453125, -0.028076171875, 0.08349609375, 
247, 3365891583, -0.4748472273349762, 0.506435751914978, 0.3567133843898773, 0.625140905380249, 10.676806449890137, -1.705396294593811, 2.419464111328125, 121.27424621582031, 6.725222110748291, 15.662507057189941, -0.85791015625, -0.023193359375, 0.079833984375, 
248, 3365899916, -0.480014443397522, 0.5027266144752502, 0.3608003258705139, 0.621834397315979, 10.360095977783203, -1.5370532274246216, 2.462418556213379, 111.4668197631836, 6.967906475067139, 19.20522117614746, -0.85595703125, -0.0205078125, 0.080810546875, 
249, 3365908249, -0.484900563955307, 0.49935901165008545, 0.3642539381980896, 0.6187357902526855, 10.419851303100586, -1.2726207971572876, 2.4271061420440674, 100.78463745117188, 8.182839393615723, 21.4191951751709, -0.8544921875, -0.01708984375, 0.078857421875, 
250, 3365916582, -0.48952335119247437, 0.49625009298324585, 0.3670754134654999, 0.6159231662750244, 10.750821113586426, -0.9161888957023621, 2.3374149799346924, 90.4748764038086, 10.928642272949219, 22.99199104309082, -0.858154296875, -0.01123046875, 0.0791015625, 
251, 3365924915, -0.49391576647758484, 0.49333131313323975, 0.3692346513271332, 0.6134655475616455, 10.761594772338867, -0.675828754901886, 2.181614637374878, 80.14813995361328, 14.951496124267578, 24.03374671936035, -0.856201171875, -0.00927734375, 0.07421875, 
252, 3365933248, -0.4980408251285553, 0.4905778765678406, 0.3708402216434479, 0.6113663911819458, 10.424792289733887, -0.6406495571136475, 1.9801443815231323, 70.7934341430664, 18.4774227142334, 24.035306930541992, -0.858154296875, -0.00390625, 0.071044921875, 
253, 3365941581, -0.5019361972808838, 0.4879794716835022, 0.37207767367362976, 0.6095056533813477, 9.917411804199219, -0.7857438325881958, 1.8438572883605957, 63.826541900634766, 20.046775817871094, 23.65642547607422, -0.856689453125, 0.003662109375, 0.067138671875, 
254, 3365949914, -0.5057043433189392, 0.4854959547519684, 0.37322577834129333, 0.6076697111129761, 9.469852447509766, -0.961722195148468, 1.6734577417373657, 61.35053634643555, 19.299598693847656, 23.6954288482666, -0.854248046875, 0.007568359375, 0.065673828125, 
255, 3365958247, -0.5095120668411255, 0.4830206632614136, 0.37450045347213745, 0.6056737899780273, 9.485588073730469, -1.1408483982086182, 1.5518070459365845, 63.27248764038086, 17.409954071044922, 24.215608596801758, -0.861572265625, 0.008056640625, 0.062744140625, 
256, 3365966580, -0.5134807825088501, 0.48043736815452576, 0.37604570388793945, 0.6034151911735535, 9.628494262695312, -1.2750142812728882, 1.5087796449661255, 68.86650085449219, 15.575515747070312, 25.16435432434082, -0.85693359375, 0.014404296875, 0.06201171875, 
257, 3365974913, -0.5177440047264099, 0.47762343287467957, 0.3779129385948181, 0.6008342504501343, 9.71706771850586, -1.3497217893600464, 1.4819337129592896, 76.62017059326172, 14.536894798278809, 26.438722610473633, -0.85791015625, 0.017822265625, 0.056396484375, 
258, 3365983246, -0.5223148465156555, 0.474519819021225, 0.3801060914993286, 0.5979467630386353, 9.723608016967773, -1.2835973501205444, 1.464383602142334, 85.15081024169922, 14.267142295837402, 27.64215087890625, -0.85888671875, 0.023681640625, 0.05322265625, 
259, 3365991579, -0.5271843075752258, 0.4711361229419708, 0.38256314396858215, 0.5947737097740173, 9.79173755645752, -1.2524830102920532, 1.4811944961547852, 92.5980224609375, 14.307145118713379, 28.829748153686523, -0.85791015625, 0.025146484375, 0.05078125, 
260, 3365999912, -0.5322644710540771, 0.46757152676582336, 0.3851998448371887, 0.5913505554199219, 9.619624137878418, -1.01982581615448, 1.5452992916107178, 98.23299407958984, 14.037001609802246, 30.383140563964844, -0.85595703125, 0.03466796875, 0.04833984375, 
261, 3366008245, -0.5374786853790283, 0.46388906240463257, 0.38794630765914917, 0.5877279043197632, 9.462701797485352, -0.845211923122406, 1.6285840272903442, 101.7411117553711, 13.560351371765137, 31.470441818237305, -0.8564453125, 0.0380859375, 0.047119140625, 
262, 3366016578, -0.5426938533782959, 0.46019598841667175, 0.39062538743019104, 0.5840529203414917, 9.693314552307129, -0.5413929224014282, 1.6666975021362305, 101.72850036621094, 13.874155044555664, 32.37063980102539, -0.857177734375, 0.04443359375, 0.04052734375, 
263, 3366024911, -0.5478943586349487, 0.45657286047935486, 0.3931269645690918, 0.5803509950637817, 9.724322319030762, -0.23648874461650848, 1.6664470434188843, 99.83161926269531, 14.388080596923828, 33.95332336425781, -0.855712890625, 0.050048828125, 0.03955078125, 
264, 3366033244, -0.5530175566673279, 0.45313119888305664, 0.39544329047203064, 0.5766029357910156, 9.357880592346191, -0.2537647485733032, 1.7292121648788452, 96.52833557128906, 13.57353687286377, 35.68115997314453, -0.856689453125, 0.05419921875, 0.0341796875, 
265, 3366041577, -0.557976484298706, 0.4498662054538727, 0.39760512113571167, 0.5728835463523865, 9.213242530822754, -0.05389882251620293, 1.7418310642242432, 92.80670166015625, 12.635857582092285, 36.09122848510742, -0.855712890625, 0.061279296875, 0.032958984375, 
266, 3366049910, -0.5627319812774658, 0.44673681259155273, 0.39952877163887024, 0.5693316459655762, 9.459250450134277, 0.1728464514017105, 1.7228869199752808, 87.91065216064453, 13.373133659362793, 35.556575775146484, -0.855712890625, 0.066650390625, 0.026123046875, 
267, 3366058243, -0.567335307598114, 0.4437178671360016, 0.40116384625434875, 0.5659643411636353, 9.648533821105957, 0.3825061023235321, 1.6615328788757324, 82.61425018310547, 14.992080688476562, 35.17368698120117, -0.8544921875, 0.072998046875, 0.02392578125, 
268, 3366066576, -0.5717549324035645, 0.4408082067966461, 0.402482807636261, 0.5628454089164734, 9.42192268371582, 0.5561819672584534, 1.5532221794128418, 77.0436782836914, 17.155385971069336, 34.480613708496094, -0.853271484375, 0.073974609375, 0.0205078125, 
269, 3366074909, -0.5759949088096619, 0.4380178451538086, 0.4035196900367737, 0.5599509477615356, 9.256731986999512, 0.6383456587791443, 1.4530136585235596, 71.38780975341797, 18.777637481689453, 33.56602096557617, -0.8544921875, 0.0810546875, 0.017333984375, 
270, 3366083242, -0.5800157785415649, 0.43539655208587646, 0.4043762683868408, 0.5572199821472168, 9.173816680908203, 0.646137535572052, 1.3790912628173828, 66.6369400024414, 18.71046257019043, 32.73963165283203, -0.85400390625, 0.08642578125, 0.013427734375, 
271, 3366091575, -0.5837977528572083, 0.4330156445503235, 0.40519070625305176, 0.5545276403427124, 8.940235137939453, 0.6639966368675232, 1.4859830141067505, 62.53129959106445, 16.077396392822266, 32.058677673339844, -0.85302734375, 0.09033203125, 0.009033203125, 
272, 3366099908, -0.587310791015625, 0.430931955575943, 0.40608444809913635, 0.5517807006835938, 8.565382957458496, 0.7447218298912048, 1.6173241138458252, 59.67217254638672, 11.381743431091309, 31.761205673217773, -0.849609375, 0.094970703125, 0.00048828125, 
273, 3366108241, -0.5905378460884094, 0.42911988496780396, 0.40710166096687317, 0.5489921569824219, 8.428144454956055, 0.7195212244987488, 1.714565634727478, 56.77342987060547, 6.453568458557129, 30.602191925048828, -0.85205078125, 0.09912109375, 0.00390625, 
274, 3366116574, -0.5934611558914185, 0.4275275468826294, 0.40818434953689575, 0.5462715029716492, 8.5530366897583, 0.8170382976531982, 1.7569422721862793, 53.49139404296875, 2.9893064498901367, 28.710412979125977, -0.84912109375, 0.103515625, 0.0009765625, 
275, 3366124907, -0.5961828827857971, 0.42604026198387146, 0.40925049781799316, 0.5436656475067139, 8.793023109436035, 0.8552424311637878, 1.7207738161087036, 50.47021484375, 1.8606617450714111, 26.837482452392578, -0.850830078125, 0.107177734375, 0.000732421875, 
276, 3366133240, -0.5987622737884521, 0.4245712161064148, 0.4101572334766388, 0.5412919521331787, 9.040008544921875, 1.0398494005203247, 1.6095609664916992, 47.19646453857422, 3.607428550720215, 25.0155029296875, -0.848876953125, 0.110595703125, -0.001220703125, 
277, 3366141573, -0.6012668013572693, 0.4230916202068329, 0.4108109474182129, 0.5391743779182434, 9.293827056884766, 0.8285341262817383, 1.4838145971298218, 43.330657958984375, 6.8297553062438965, 23.67427635192871, -0.848876953125, 0.114501953125, -0.006103515625, 
278, 3366149906, -0.6037312150001526, 0.4217454195022583, 0.4112611413002014, 0.5371281504631042, 9.29272174835205, 0.5704833269119263, 1.6099433898925781, 40.27207946777344, 7.725154876708984, 24.81715965270996, -0.848388671875, 0.120361328125, -0.005615234375, 
279, 3366158239, -0.6061909198760986, 0.4206845462322235, 0.4115877151489258, 0.5349348783493042, 8.908059120178223, 0.7094317674636841, 1.8095983266830444, 37.60111618041992, 5.762970447540283, 28.24901008605957, -0.847412109375, 0.122802734375, -0.0087890625, 
280, 3366166572, -0.6085732579231262, 0.42010045051574707, 0.4117087125778198, 0.5325909852981567, 8.76720905303955, 1.0178158283233643, 1.9793708324432373, 32.710731506347656, 2.659825563430786, 32.90890884399414, -0.847900390625, 0.12890625, -0.00927734375, 
281, 3366174905, -0.610744297504425, 0.4201339781284332, 0.4114530682563782, 0.5302718877792358, 8.949305534362793, 1.3995490074157715, 2.1245551109313965, 23.23974609375, 0.23953193426132202, 36.75276184082031, -0.84814453125, 0.130859375, -0.01025390625, 
282, 3366183238, -0.612581729888916, 0.4208410680294037, 0.4105798304080963, 0.528264582157135, 9.270125389099121, 2.1120738983154297, 2.222747802734375, 9.571349143981934, 0.42651602625846863, 39.15383529663086, -0.84326171875, 0.134765625, -0.01171875, 
283, 3366191571, -0.6140437722206116, 0.42220932245254517, 0.40894389152526855, 0.5267419219017029, 9.477993965148926, 2.6501665115356445, 2.190549850463867, -6.631843090057373, 2.742353677749634, 40.432193756103516, -0.8447265625, 0.137451171875, -0.01220703125, 
284, 3366199904, -0.6149851679801941, 0.4242374300956726, 0.4064875543117523, 0.5259148478507996, 9.652711868286133, 2.94844913482666, 2.1095120906829834, -24.894498825073242, 5.992218494415283, 39.32250213623047, -0.845703125, 0.144287109375, -0.010986328125, 
285, 3366208237, -0.615401029586792, 0.42675793170928955, 0.40336909890174866, 0.525790274143219, 9.761373519897461, 3.0653765201568604, 1.9627524614334106, -41.057735443115234, 9.20976448059082, 36.14812469482422, -0.83935546875, 0.1513671875, -0.01171875, 
286, 3366216570, -0.6153570413589478, 0.42960062623023987, 0.3998502790927887, 0.5262144804000854, 9.720839500427246, 2.9318606853485107, 1.80631422996521, -52.20503234863281, 10.918935775756836, 32.36201858520508, -0.840087890625, 0.15380859375, -0.012939453125, 
287, 3366224903, -0.6150093078613281, 0.4325566589832306, 0.3961900472640991, 0.5269671678543091, 9.796100616455078, 2.7944729328155518, 1.607684850692749, -57.981300354003906, 11.592547416687012, 28.830556869506836, -0.840087890625, 0.158447265625, -0.010009765625, 
288, 3366233236, -0.6145326495170593, 0.43542277812957764, 0.3925286531448364, 0.5279021859169006, 10.012636184692383, 2.7848782539367676, 1.303895354270935, -58.796878814697266, 12.609793663024902, 25.884166717529297, -0.839111328125, 0.162353515625, -0.011962890625, 
289, 3366241569, -0.614077091217041, 0.43806949257850647, 0.3889637291431427, 0.5288804769515991, 10.077069282531738, 2.7656404972076416, 1.0429843664169312, -56.54548263549805, 13.797527313232422, 23.920204162597656, -0.839111328125, 0.166259765625, -0.01416015625, 
290, 3366249902, -0.6136858463287354, 0.4405030608177185, 0.3856123089790344, 0.5297664999961853, 9.92367172241211, 2.60961651802063, 0.9135246872901917, -52.116825103759766, 13.296684265136719, 22.729284286499023, -0.836181640625, 0.16748046875, -0.012939453125, 
291, 3366258235, -0.6133330464363098, 0.44268980622291565, 0.38273870944976807, 0.5304358601570129, 9.46574878692627, 2.2446701526641846, 0.9577601552009583, -45.371238708496094, 10.005877494812012, 20.66864585876465, -0.838134765625, 0.16943359375, -0.01171875, 
292, 3366266568, -0.6129385828971863, 0.4446265697479248, 0.38071614503860474, 0.5307273268699646, 9.013745307922363, 1.7016332149505615, 1.2092336416244507, -35.11811065673828, 2.0787391662597656, 17.021770477294922, -0.835205078125, 0.169921875, -0.011962890625, 
293, 3366274901, -0.6124250888824463, 0.4462728500366211, 0.37986335158348083, 0.5305496454238892, 8.75621223449707, 1.223455548286438, 1.6855759620666504, -22.653785705566406, -9.082123756408691, 11.472331047058105, -0.8359375, 0.175048828125, -0.009765625, 
294, 3366283234, -0.6117040514945984, 0.4476989507675171, 0.38024818897247314, 0.5299038290977478, 8.586909294128418, 0.9216135740280151, 2.1250672340393066, -10.349897384643555, -21.92710304260254, 5.116049289703369, -0.83837890625, 0.177001953125, -0.00830078125, 
295, 3366291567, -0.6107722520828247, 0.4489597678184509, 0.3818737268447876, 0.528741717338562, 8.551876068115234, 0.8048869371414185, 2.616076946258545, 1.4844619035720825, -35.43840789794922, -0.5783188939094543, -0.83642578125, 0.175537109375, -0.003173828125, 
296, 3366299900, -0.6095926761627197, 0.45023733377456665, 0.38432788848876953, 0.5272361636161804, 8.761701583862305, 0.9963539838790894, 3.086529493331909, 7.433738708496094, -45.8736457824707, -4.45593786239624, -0.8349609375, 0.17138671875, 0.004150390625, 
297, 3366308233, -0.6081364750862122, 0.45166733860969543, 0.38705411553382874, 0.525698184967041, 9.058505058288574, 1.5638964176177979, 3.4715256690979004, 6.552404880523682, -50.916629791259766, -7.063294410705566, -0.836181640625, 0.173828125, 0.008056640625, 
298, 3366316566, -0.606327474117279, 0.4534398913383484, 0.38947343826293945, 0.5244736075401306, 9.320652961730957, 1.982366919517517, 3.6667490005493164, -2.1466829776763916, -50.83213424682617, -8.57707405090332, -0.834716796875, 0.172119140625, 0.0146484375, 
299, 3366324899, -0.6040875911712646, 0.4557042419910431, 0.3911266028881073, 0.5238649249076843, 9.68082046508789, 2.3737123012542725, 3.819967031478882, -17.976545333862305, -46.39540100097656, -9.308131217956543, -0.834228515625, 0.170166015625, 0.0224609375, 
300, 3366333232, -0.6013554930686951, 0.45859023928642273, 0.3916258215904236, 0.524117112159729, 9.99587345123291, 2.5783820152282715, 3.9692723751068115, -38.951438903808594, -38.60372543334961, -9.5325927734375, -0.833740234375, 0.1689453125, 0.027099609375, 
301, 3366341565, -0.5981391668319702, 0.46208643913269043, 0.39088720083236694, 0.5252766609191895, 10.320234298706055, 2.5093586444854736, 4.019265174865723, -61.104007720947266, -29.590736389160156, -9.313091278076172, -0.834716796875, 0.16845703125, 0.031494140625, 
302, 3366349898, -0.5945342779159546, 0.4660532772541046, 0.3890199363231659, 0.5272471308708191, 10.531375885009766, 1.9460318088531494, 4.033862113952637, -79.71135711669922, -20.701906204223633, -9.207475662231445, -0.83544921875, 0.168212890625, 0.040283203125, 
303, 3366358231, -0.5906942486763, 0.4702305495738983, 0.3863939642906189, 0.5297794342041016, 10.577960014343262, 1.1920888423919678, 4.015927314758301, -91.7109146118164, -13.632331848144531, -9.378671646118164, -0.834228515625, 0.164794921875, 0.04150390625, 
304, 3366366564, -0.5867564082145691, 0.4744642674922943, 0.38336506485939026, 0.5325736999511719, 10.653861045837402, 0.5205066204071045, 3.9910857677459717, -96.86445617675781, -9.644302368164062, -9.452116966247559, -0.83837890625, 0.163330078125, 0.051025390625, 
305, 3366374897, -0.5828886032104492, 0.4785641133785248, 0.3802769184112549, 0.535359263420105, 10.801997184753418, -0.06335102766752243, 4.05781364440918, -96.00316619873047, -7.833462238311768, -9.038543701171875, -0.837890625, 0.161865234375, 0.05419921875, 
306, 3366383230, -0.5791893601417542, 0.4824790060520172, 0.37731558084487915, 0.5379493832588196, 10.860240936279297, -0.5522574782371521, 4.089172840118408, -91.16820526123047, -7.933197498321533, -8.18360424041748, -0.8359375, 0.1611328125, 0.056640625, 
307, 3366391563, -0.5757529139518738, 0.4861268103122711, 0.3749171197414398, 0.5400269627571106, 10.719735145568848, -1.2833000421524048, 4.017032623291016, -80.74472045898438, -12.452587127685547, -7.113986968994141, -0.83740234375, 0.15771484375, 0.06201171875, 
308, 3366399896, -0.5725823044776917, 0.4895702004432678, 0.3733065724372864, 0.5414012670516968, 10.617745399475098, -1.9664380550384521, 4.016019344329834, -67.59906768798828, -20.529850006103516, -6.055385589599609, -0.8369140625, 0.15625, 0.063720703125, 
309, 3366408229, -0.5697333216667175, 0.4927580654621124, 0.37248820066452026, 0.5420782566070557, 10.783967018127441, -2.393606185913086, 4.128378868103027, -54.241058349609375, -27.889123916625977, -4.6569390296936035, -0.8330078125, 0.15185546875, 0.06787109375, 
310, 3366416562, -0.5672730803489685, 0.4957098662853241, 0.37224963307380676, 0.5421308875083923, 10.80133056640625, -2.4471993446350098, 4.143465518951416, -41.9420280456543, -32.929561614990234, -2.1643824577331543, -0.83447265625, 0.152099609375, 0.07666015625, 
311, 3366424895, -0.5652516484260559, 0.49843886494636536, 0.3722839057445526, 0.541716456413269, 10.728509902954102, -2.037827491760254, 4.130871772766113, -33.092506408691406, -34.32560348510742, 1.9054595232009888, -0.83349609375, 0.150634765625, 0.08447265625, 
312, 3366433228, -0.5636676549911499, 0.5011723041534424, 0.37210261821746826, 0.5409690141677856, 10.513481140136719, -1.2413442134857178, 4.109306335449219, -29.72288703918457, -32.73550796508789, 9.096668243408203, -0.83349609375, 0.14990234375, 0.087646484375, 
313, 3366441561, -0.5624963641166687, 0.5039563179016113, 0.37126070261001587, 0.5401796102523804, 10.238032341003418, -0.5045252442359924, 4.033514976501465, -32.303245544433594, -26.164350509643555, 17.45596694946289, -0.830322265625, 0.154296875, 0.091064453125, 
314, 3366449894, -0.5615489482879639, 0.5069209337234497, 0.36930325627326965, 0.5397331714630127, 10.135709762573242, 0.03939304128289223, 3.8575634956359863, -41.854957580566406, -15.362171173095703, 24.967391967773438, -0.830810546875, 0.153564453125, 0.095458984375, 
315, 3366458227, -0.5606651306152344, 0.5100639462471008, 0.36597776412963867, 0.5399560928344727, 10.196563720703125, 0.5244032740592957, 3.581334114074707, -56.67445755004883, -1.136814832687378, 30.873212814331055, -0.832275390625, 0.16015625, 0.098876953125, 
316, 3366466560, -0.5596812963485718, 0.5134466886520386, 0.36106452345848083, 0.5410773754119873, 10.299428939819336, 0.8957198262214661, 3.2362518310546875, -75.20234680175781, 15.126388549804688, 35.38772964477539, -0.829833984375, 0.16064453125, 0.100341796875, 
317, 3366474893, -0.5584783554077148, 0.5170405507087708, 0.3545338213443756, 0.5432122945785522, 10.365632057189941, 1.0875307321548462, 2.934926748275757, -95.8227310180664, 32.07087707519531, 38.589027404785156, -0.825927734375, 0.162109375, 0.096923828125, 
318, 3366483226, -0.556928813457489, 0.5208798050880432, 0.3464905619621277, 0.5463166236877441, 10.298916816711426, 1.0609736442565918, 2.7158100605010986, -115.8174819946289, 47.0600700378418, 40.3411750793457, -0.82861328125, 0.168701171875, 0.099365234375, 
319, 3366491559, -0.5549352765083313, 0.5249431133270264, 0.3372093439102173, 0.5502491593360901, 10.12269115447998, 0.9128949642181396, 2.5193777084350586, -134.35548400878906, 58.672664642333984, 40.769920349121094, -0.82763671875, 0.170166015625, 0.098388671875, 
320, 3366499892, -0.5524716377258301, 0.5292102098464966, 0.3269721567630768, 0.5548005700111389, 9.961691856384277, 0.6848689317703247, 2.3336286544799805, -149.01602172851562, 66.71453857421875, 40.166255950927734, -0.82568359375, 0.173583984375, 0.0927734375, 
321, 3366508225, -0.549580454826355, 0.5335972309112549, 0.31614941358566284, 0.5597212910652161, 9.835671424865723, 0.34553053975105286, 2.130500078201294, -159.55665588378906, 71.0059585571289, 39.080142974853516, -0.82421875, 0.17578125, 0.0869140625, 
322, 3366516558, -0.5462908148765564, 0.5380780696868896, 0.3049880564212799, 0.5648216009140015, 9.698930740356445, 0.006224341690540314, 1.9057633876800537, -166.18594360351562, 72.43743896484375, 37.36542510986328, -0.82666015625, 0.177734375, 0.08642578125, 
323, 3366524891, -0.5426684617996216, 0.5425390601158142, 0.2937650680541992, 0.5699713826179504, 9.569112777709961, -0.13382986187934875, 1.7375929355621338, -169.62954711914062, 72.02540588378906, 34.95912170410156, -0.82470703125, 0.17919921875, 0.08154296875, 
324, 3366533224, -0.5387349128723145, 0.546957790851593, 0.2825676202774048, 0.5751177668571472, 9.448955535888672, -0.2895120680332184, 1.559160590171814, -170.9779510498047, 70.8843765258789, 32.007293701171875, -0.826171875, 0.18408203125, 0.079833984375, 
325, 3366541557, -0.5345573425292969, 0.5512534379959106, 0.2715024948120117, 0.5802215933799744, 9.390134811401367, -0.3802286982536316, 1.382499098777771, -171.13357543945312, 69.60760498046875, 29.099294662475586, -0.824951171875, 0.18212890625, 0.074951171875, 
326, 3366549890, -0.5301597714424133, 0.5554875731468201, 0.2605364918708801, 0.5852243304252625, 9.350056648254395, -0.30776217579841614, 1.249550461769104, -170.7375946044922, 67.78328704833984, 26.92697525024414, -0.82470703125, 0.18701171875, 0.068603515625, 
327, 3366558223, -0.5255831480026245, 0.5596332550048828, 0.24966061115264893, 0.5901232957839966, 9.420940399169922, -0.16723927855491638, 1.1874864101409912, -170.79571533203125, 66.3985595703125, 25.424596786499023, -0.82568359375, 0.18603515625, 0.069091796875, 
328, 3366566556, -0.5207713842391968, 0.5637211203575134, 0.23875726759433746, 0.5949904322624207, 9.677387237548828, 0.01493754517287016, 1.1482298374176025, -171.86703491210938, 66.02001190185547, 23.570560455322266, -0.824951171875, 0.186279296875, 0.066162109375, 
329, 3366574889, -0.5156782269477844, 0.5676727890968323, 0.2278340607881546, 0.5999317765235901, 9.998970031738281, 0.19679825007915497, 1.1878037452697754, -173.95266723632812, 66.93585205078125, 20.629335403442383, -0.823974609375, 0.187744140625, 0.063232421875, 
330, 3366583222, -0.5101956129074097, 0.571521520614624, 0.21682262420654297, 0.6050243973731995, 10.238656044006348, 0.3203405439853668, 1.254514217376709, -176.99305725097656, 68.36112976074219, 16.524078369140625, -0.825927734375, 0.188720703125, 0.0595703125, 
331, 3366591555, -0.5042333602905273, 0.5752155780792236, 0.20579004287719727, 0.6103517413139343, 10.330028533935547, 0.4447700083255768, 1.2671623229980469, -180.55426025390625, 70.21338653564453, 10.592336654663086, -0.824951171875, 0.189208984375, 0.0556640625, 
332, 3366599888, -0.4976850152015686, 0.5786970257759094, 0.19475683569908142, 0.6160293221473694, 10.444343566894531, 0.6157323718070984, 1.1582825183868408, -185.18006896972656, 73.11471557617188, 2.8390915393829346, -0.827392578125, 0.18603515625, 0.05712890625, 
333, 3366608221, -0.49043092131614685, 0.5819380879402161, 0.18368645012378693, 0.6221635937690735, 10.549789428710938, 0.7410284280776978, 0.908414900302887, -190.7320098876953, 77.16690063476562, -6.606029033660889, -0.82470703125, 0.18212890625, 0.05224609375, 
334, 3366616554, -0.48241737484931946, 0.5849599838256836, 0.17255041003227234, 0.6287484765052795, 10.586013793945312, 0.6994543075561523, 0.567588746547699, -196.52330017089844, 81.15501403808594, -16.371967315673828, -0.830322265625, 0.182373046875, 0.050048828125, 
335, 3366624887, -0.47366219758987427, 0.5877188444137573, 0.16150043904781342, 0.6357288956642151, 10.51778507232666, 0.5527970790863037, 0.20808576047420502, -201.44480895996094, 84.29420471191406, -26.508869171142578, -0.82958984375, 0.17724609375, 0.04443359375, 
336, 3366633220, -0.46419841051101685, 0.5902451872825623, 0.1506354808807373, 0.64299476146698, 10.391839981079102, 0.2728264629840851, -0.13188612461090088, -204.16893005371094, 85.84052276611328, -36.789363861083984, -0.8330078125, 0.170166015625, 0.042236328125, 
337, 3366641553, -0.45413047075271606, 0.5924763083457947, 0.14018705487251282, 0.6504518985748291, 10.181797981262207, -0.10447299480438232, -0.3922276496887207, -204.43885803222656, 86.11439514160156, -47.12746047973633, -0.834228515625, 0.1650390625, 0.032470703125, 
338, 3366649886, -0.44355717301368713, 0.594521164894104, 0.13040241599082947, 0.657875120639801, 9.694982528686523, -0.7956812381744385, -0.5178453922271729, -200.85174560546875, 82.36536407470703, -57.42210388183594, -0.83642578125, 0.1533203125, 0.02880859375, 
339, 3366658219, -0.43267014622688293, 0.5964282155036926, 0.12166796624660492, 0.6650335788726807, 9.263054847717285, -1.6323045492172241, -0.46674561500549316, -193.20440673828125, 74.51874542236328, -67.27418518066406, -0.84130859375, 0.144287109375, 0.027587890625, 
340, 3366666552, -0.4216984808444977, 0.5982347726821899, 0.11414734274148941, 0.6717579364776611, 9.138256072998047, -2.287606716156006, -0.31359949707984924, -180.8670196533203, 64.47293853759766, -75.79415130615234, -0.840576171875, 0.13525390625, 0.02001953125, 
341, 3366674885, -0.41095879673957825, 0.5998703837394714, 0.10805164277553558, 0.6779350638389587, 8.908010482788086, -2.8723151683807373, -0.10093171894550323, -164.50164794921875, 53.6649284362793, -82.25010681152344, -0.84228515625, 0.1220703125, 0.01806640625, 
342, 3366683218, -0.4006379246711731, 0.6013592481613159, 0.10328035056591034, 0.6835147142410278, 8.555936813354492, -3.3403372764587402, 0.057464174926280975, -146.42396545410156, 43.22616958618164, -86.3297119140625, -0.845947265625, 0.111328125, 0.01318359375, 
343, 3366691551, -0.39084580540657043, 0.6027095913887024, 0.0997583195567131, 0.6884996891021729, 8.370742797851562, -3.5694549083709717, 0.2272798717021942, -129.2887420654297, 33.49937438964844, -88.4096450805664, -0.84716796875, 0.098388671875, 0.011962890625, 
344, 3366699884, -0.3815670907497406, 0.604017436504364, 0.09707163274288177, 0.6929281949996948, 8.466815948486328, -3.6016299724578857, 0.4580146074295044, -115.54373168945312, 25.4812068939209, -87.74066925048828, -0.8515625, 0.08837890625, 0.011962890625, 
345, 3366708217, -0.3728067874908447, 0.6053065061569214, 0.09492921829223633, 0.6968574523925781, 8.938712120056152, -3.611074686050415, 0.76548171043396, -105.8962173461914, 19.369659423828125, -84.53851318359375, -0.852294921875, 0.07470703125, 0.00830078125, 
346, 3366716550, -0.36451759934425354, 0.6065797805786133, 0.09294801950454712, 0.700393795967102, 9.489749908447266, -3.562358856201172, 1.1015602350234985, -99.2244644165039, 16.019927978515625, -79.56159973144531, -0.853271484375, 0.064453125, 0.012451171875, 
347, 3366724883, -0.35669437050819397, 0.6077200770378113, 0.09099013358354568, 0.7036826014518738, 9.89693546295166, -3.4826135635375977, 1.342935562133789, -94.69971466064453, 15.709757804870605, -74.0033187866211, -0.857421875, 0.05126953125, 0.009033203125, 
348, 3366733216, -0.34928441047668457, 0.6086493730545044, 0.0888453871011734, 0.706863284111023, 10.157404899597168, -3.3947250843048096, 1.5144730806350708, -91.31524658203125, 18.287330627441406, -68.36886596679688, -0.858154296875, 0.041748046875, 0.006103515625, 
349, 3366741549, -0.34223824739456177, 0.609279453754425, 0.08645492047071457, 0.7100563645362854, 10.426548957824707, -3.3252620697021484, 1.644919991493225, -89.74789428710938, 22.89283561706543, -63.00090789794922, -0.85888671875, 0.03369140625, 0.0029296875, 
350, 3366749882, -0.3354759216308594, 0.6096482872962952, 0.0836736261844635, 0.7132927179336548, 10.638517379760742, -3.084702253341675, 1.7308027744293213, -89.49765014648438, 28.012245178222656, -57.66933059692383, -0.86181640625, 0.0244140625, 0.00048828125, 
351, 3366758215, -0.3289450705051422, 0.6097165942192078, 0.0805029347538948, 0.7166330218315125, 10.914196014404297, -2.715416669845581, 1.7966560125350952, -90.5958251953125, 33.85219192504883, -52.75926208496094, -0.863037109375, 0.014892578125, -0.00390625, 
352, 3366766548, -0.32250943779945374, 0.6095150709152222, 0.07680933177471161, 0.7201264500617981, 11.173232078552246, -2.3706328868865967, 1.8197345733642578, -93.4128646850586, 40.308528900146484, -48.627525329589844, -0.863037109375, 0.009521484375, -0.00244140625, 
353, 3366774881, -0.3160412311553955, 0.6090580224990845, 0.07265587896108627, 0.7238025665283203, 11.184037208557129, -2.1233842372894287, 1.7879109382629395, -97.85142517089844, 46.346866607666016, -45.996681213378906, -0.8603515625, 0.002685546875, -0.010009765625, 
354, 3366783214, -0.3093245029449463, 0.6084522008895874, 0.06799569725990295, 0.7276563048362732, 10.978870391845703, -1.9001991748809814, 1.7197022438049316, -103.9551010131836, 51.298343658447266, -45.32649230957031, -0.861083984375, -0.001220703125, -0.014404296875, 
355, 3366791547, -0.3022417426109314, 0.6077239513397217, 0.06299052387475967, 0.7316805720329285, 10.673453330993652, -1.646855354309082, 1.52099609375, -110.6614990234375, 55.039833068847656, -46.765682220458984, -0.860595703125, -0.009033203125, -0.023681640625, 
356, 3366799880, -0.2946529686450958, 0.6070033311843872, 0.05754539370536804, 0.7358110547065735, 10.592723846435547, -1.3844174146652222, 1.2738782167434692, -118.88912963867188, 57.27814865112305, -48.79243850708008, -0.8662109375, -0.018798828125, -0.030029296875, 
357, 3366808213, -0.28655198216438293, 0.6063569784164429, 0.05177754908800125, 0.7399601340293884, 10.609935760498047, -1.3648009300231934, 1.074273705482483, -127.21925354003906, 57.5205078125, -51.10113525390625, -0.865478515625, -0.025390625, -0.039794921875, 
358, 3366816546, -0.2779456675052643, 0.605901837348938, 0.04572354629635811, 0.7440035939216614, 10.38620662689209, -1.4982783794403076, 0.9257413744926453, -134.54971313476562, 55.52524948120117, -53.50156784057617, -0.86279296875, -0.028564453125, -0.04638671875, 
359, 3366824879, -0.2689370810985565, 0.6056594252586365, 0.03961101174354553, 0.7478524446487427, 10.081612586975098, -1.7962003946304321, 0.814649760723114, -139.69326782226562, 51.63726043701172, -56.066017150878906, -0.8662109375, -0.037353515625, -0.052001953125, 
360, 3366833212, -0.25961023569107056, 0.6056743860244751, 0.03350791335105896, 0.7514260411262512, 9.913924217224121, -2.0424413681030273, 0.7450735569000244, -142.54727172851562, 46.55128860473633, -58.44630432128906, -0.865966796875, -0.04296875, -0.061279296875, 
361, 3366841545, -0.2501406669616699, 0.6058778762817383, 0.027590136975049973, 0.754707396030426, 9.744368553161621, -2.3016624450683594, 0.6938775181770325, -142.78469848632812, 41.356285095214844, -60.13254165649414, -0.865234375, -0.053955078125, -0.0654296875, 
362, 3366849878, -0.24062176048755646, 0.6062119007110596, 0.021832486614584923, 0.7577167749404907, 9.449311256408691, -2.4281294345855713, 0.6411402225494385, -141.453857421875, 37.24974822998047, -61.19465637207031, -0.864501953125, -0.05908203125, -0.072021484375, 
363, 3366858211, -0.23112927377223969, 0.6065715551376343, 0.016227539628744125, 0.7605192065238953, 9.363834381103516, -2.500062942504883, 0.6119701266288757, -140.07635498046875, 34.66911697387695, -61.3032112121582, -0.866943359375, -0.06591796875, -0.0771484375, 
364, 3366866544, -0.22174406051635742, 0.6068968772888184, 0.010651635006070137, 0.7631483674049377, 9.482000350952148, -2.53218412399292, 0.612594723701477, -138.31837463378906, 33.605262756347656, -60.076507568359375, -0.86376953125, -0.072998046875, -0.082763671875, 
365, 3366874877, -0.21253657341003418, 0.6070836782455444, 0.005087243393063545, 0.765672504901886, 9.672896385192871, -2.5769872665405273, 0.6521502733230591, -136.68096923828125, 34.078399658203125, -57.81944274902344, -0.865234375, -0.07958984375, -0.087158203125, 
366, 3366883210, -0.203530415892601, 0.607036292552948, -0.0004687923938035965, 0.7681698799133301, 9.579643249511719, -2.7078003883361816, 0.6704288125038147, -133.82115173339844, 36.40572738647461, -55.896183013916016, -0.864501953125, -0.087646484375, -0.09423828125, 
367, 3366891543, -0.19468975067138672, 0.6067172288894653, -0.0059204502031207085, 0.7706865668296814, 9.30128288269043, -2.7038986682891846, 0.5269922018051147, -130.9532470703125, 39.04000473022461, -54.88328552246094, -0.86572265625, -0.0908203125, -0.1025390625, 
368, 3366899876, -0.1859789490699768, 0.6061946153640747, -0.01126086339354515, 0.773185670375824, 9.097740173339844, -2.7197554111480713, 0.41305187344551086, -127.77061462402344, 40.84684371948242, -54.56066131591797, -0.8642578125, -0.097900390625, -0.1064453125, 
369, 3366908209, -0.17742009460926056, 0.6054773330688477, -0.016294773668050766, 0.775665283203125, 8.978550910949707, -2.9543535709381104, 0.26826703548431396, -123.1656494140625, 41.854713439941406, -55.255615234375, -0.861572265625, -0.10302734375, -0.116943359375, 
370, 3366916542, -0.1690542995929718, 0.6046409606933594, -0.020995792001485825, 0.778069257736206, 8.940621376037598, -3.0137035846710205, 0.20369131863117218, -117.31809997558594, 41.73250961303711, -55.92068862915039, -0.8662109375, -0.10986328125, -0.1220703125, 
371, 3366924875, -0.16093097627162933, 0.6037360429763794, -0.02523353323340416, 0.7803653478622437, 8.8783540725708, -3.13175892829895, 0.10688140988349915, -110.3266830444336, 40.253028869628906, -56.67021560668945, -0.863525390625, -0.115478515625, -0.129150390625, 
372, 3366933208, -0.15308696031570435, 0.6028813123703003, -0.028945717960596085, 0.7824726104736328, 8.811527252197266, -3.343842029571533, 0.12191011011600494, -102.4345474243164, 37.05531311035156, -57.87257766723633, -0.864990234375, -0.125, -0.135498046875, 
373, 3366941541, -0.14550843834877014, 0.602093517780304, -0.03207660838961601, 0.7844008207321167, 8.914316177368164, -3.35207462310791, 0.17396952211856842, -94.29511260986328, 33.358436584472656, -59.26041030883789, -0.86181640625, -0.12939453125, -0.147216796875, 
374, 3366949874, -0.1382567286491394, 0.6014094352722168, -0.034690022468566895, 0.7861241698265076, 9.260261535644531, -3.4794626235961914, 0.3470863699913025, -86.19995880126953, 29.525541305541992, -59.87942886352539, -0.859619140625, -0.135498046875, -0.1513671875, 
375, 3366958207, -0.13132226467132568, 0.6007628440856934, -0.03675189986824989, 0.7877122163772583, 9.421178817749023, -3.548079013824463, 0.5141191482543945, -77.8475112915039, 26.646947860717773, -60.56121063232422, -0.85986328125, -0.14404296875, -0.154541015625, 
376, 3366966540, -0.12470972537994385, 0.6001521348953247, -0.038358211517333984, 0.789174497127533, 9.374095916748047, -3.548898935317993, 0.6592415571212769, -70.28437805175781, 24.389572143554688, -60.83952331542969, -0.857421875, -0.1494140625, -0.157958984375, 
377, 3366974873, -0.11832892149686813, 0.5995243787765503, -0.039626263082027435, 0.7905702590942383, 9.419681549072266, -3.4886178970336914, 0.6770660281181335, -64.79742431640625, 23.17386817932129, -60.7939453125, -0.859619140625, -0.15673828125, -0.161376953125, 
378, 3366983206, -0.11214086413383484, 0.5988142490386963, -0.04071281850337982, 0.7919540405273438, 9.537374496459961, -3.465435028076172, 0.6871998906135559, -61.015296936035156, 23.71698570251465, -60.33015823364258, -0.857666015625, -0.158935546875, -0.171630859375, 
379, 3366991539, -0.10611984133720398, 0.5979885458946228, -0.04172919690608978, 0.7933534383773804, 9.244295120239258, -3.4775238037109375, 0.7154276967048645, -58.77423095703125, 24.76732635498047, -58.86131286621094, -0.8564453125, -0.17041015625, -0.17333984375, 
380, 3366999872, -0.10023227334022522, 0.5971131324768066, -0.04275142773985863, 0.7947229146957397, 8.97634506225586, -3.5388340950012207, 0.7422101497650146, -57.60175323486328, 25.13091278076172, -57.47096252441406, -0.856201171875, -0.1748046875, -0.177001953125, 
381, 3367008205, -0.09444553405046463, 0.5962429642677307, -0.04379812628030777, 0.7960269451141357, 9.02957820892334, -3.634514570236206, 0.8373602032661438, -57.16347122192383, 24.37938117980957, -55.90771484375, -0.8515625, -0.182861328125, -0.1826171875, 
382, 3367016538, -0.08882074058055878, 0.5954363942146301, -0.044840384274721146, 0.7972192764282227, 9.147504806518555, -3.8041322231292725, 0.999563992023468, -55.85912322998047, 22.797399520874023, -54.23835372924805, -0.85009765625, -0.189453125, -0.1865234375, 
383, 3367024871, -0.08338874578475952, 0.5946893095970154, -0.04569000005722046, 0.7983144521713257, 8.88602066040039, -4.021915435791016, 1.0904598236083984, -52.37260818481445, 20.87078285217285, -53.46098327636719, -0.851806640625, -0.192626953125, -0.1904296875, 
384, 3367033204, -0.07824550569057465, 0.5940536260604858, -0.04627428576350212, 0.7992743253707886, 8.673852920532227, -4.246932506561279, 1.058586597442627, -47.24030303955078, 18.178264617919922, -52.53440475463867, -0.849853515625, -0.20068359375, -0.194580078125, 
385, 3367041537, -0.07344543933868408, 0.5935311317443848, -0.046505190432071686, 0.800104022026062, 8.752548217773438, -4.395500183105469, 1.0893107652664185, -40.82118225097656, 15.155375480651855, -51.43793869018555, -0.84912109375, -0.205810546875, -0.198486328125, 
386, 3367049870, -0.06911256909370422, 0.5931395292282104, -0.04634099453687668, 0.8007898330688477, 8.89035415649414, -4.5092878341674805, 1.1529996395111084, -32.820674896240234, 11.959158897399902, -49.60481643676758, -0.8466796875, -0.21044921875, -0.20166015625, 
387, 3367058203, -0.06530329585075378, 0.5928836464881897, -0.04572753235697746, 0.8013342022895813, 8.889266967773438, -4.585264682769775, 1.2965352535247803, -23.8779354095459, 8.441232681274414, -47.32949447631836, -0.845458984375, -0.2177734375, -0.202880859375, 
388, 3367066536, -0.062073372304439545, 0.5927830934524536, -0.044641800224781036, 0.8017264604568481, 8.909078598022461, -4.7200608253479, 1.4456731081008911, -14.128738403320312, 4.812040328979492, -44.88306427001953, -0.842041015625, -0.221435546875, -0.20556640625, 
389, 3367074869, -0.059425920248031616, 0.5928491353988647, -0.043049007654190063, 0.8019651174545288, 9.079190254211426, -4.803310871124268, 1.6205099821090698, -4.075615406036377, 0.8293261528015137, -42.45942687988281, -0.8427734375, -0.227783203125, -0.20166015625, 
390, 3367083202, -0.05734120309352875, 0.5930918455123901, -0.04098918288946152, 0.8020454049110413, 9.224969863891602, -4.776610374450684, 1.7880589962005615, 5.4741411209106445, -3.020972728729248, -40.142555236816406, -0.8427734375, -0.2314453125, -0.2060546875, 
391, 3367091535, -0.05576559156179428, 0.5934569239616394, -0.03848098963499069, 0.8020107746124268, 9.324588775634766, -4.73298978805542, 1.9538168907165527, 14.36961841583252, -6.045480251312256, -38.0763053894043, -0.838134765625, -0.23876953125, -0.20751953125, 
392, 3367099868, -0.0546521320939064, 0.5939096808433533, -0.03564116731286049, 0.8018834590911865, 9.311598777770996, -4.677780628204346, 2.142711877822876, 21.721864700317383, -8.173258781433105, -35.746437072753906, -0.842041015625, -0.24169921875, -0.202880859375, 
393, 3367108201, -0.05395418405532837, 0.594388484954834, -0.032544802874326706, 0.8017074465751648, 9.100675582885742, -4.672750473022461, 2.219621181488037, 27.86911964416504, -9.342167854309082, -33.1693115234375, -0.840087890625, -0.249755859375, -0.201171875, 
394, 3367116534, -0.053679369390010834, 0.5949235558509827, -0.029330171644687653, 0.8014531135559082, 8.769567489624023, -4.570354461669922, 2.2887442111968994, 32.587554931640625, -10.792116165161133, -29.50511932373047, -0.839599609375, -0.253173828125, -0.199951171875, 
395, 3367124867, -0.0537535697221756, 0.5954667925834656, -0.02614828757941723, 0.8011547327041626, 8.641118049621582, -4.3522443771362305, 2.338364839553833, 35.03271484375, -11.44540786743164, -25.313796997070312, -0.8359375, -0.258056640625, -0.1962890625, 
396, 3367133200, -0.054062455892562866, 0.5960060358047485, -0.023163534700870514, 0.8008248209953308, 8.725399017333984, -4.074626922607422, 2.4015676975250244, 34.798641204833984, -11.510619163513184, -21.13638687133789, -0.83544921875, -0.261474609375, -0.19677734375, 
397, 3367141533, -0.0544854998588562, 0.5965380668640137, -0.020571473985910416, 0.8004708290100098, 9.006258010864258, -3.8250348567962646, 2.5182127952575684, 31.3903751373291, -11.457056999206543, -16.61151885986328, -0.83837890625, -0.266845703125, -0.1923828125, 
398, 3367149866, -0.05492636561393738, 0.5970795154571533, -0.018367603421211243, 0.8000905513763428, 9.293163299560547, -3.8051397800445557, 2.6333706378936768, 27.266620635986328, -11.407514572143555, -13.243058204650879, -0.83544921875, -0.268798828125, -0.188232421875, 
399, 3367158199, -0.05534941703081131, 0.5976225137710571, -0.016529493033885956, 0.7996957302093506, 9.486170768737793, -3.81916880607605, 2.778223752975464, 23.077682495117188, -11.34670352935791, -10.410861015319824, -0.83544921875, -0.270751953125, -0.189208984375, 
400, 3367166532, -0.05578739941120148, 0.5981970429420471, -0.014996789395809174, 0.79926598072052, 9.75789737701416, -3.8365633487701416, 2.9177985191345215, 19.82372283935547, -11.665034294128418, -7.732709884643555, -0.837890625, -0.270751953125, -0.186767578125, 
401, 3367174865, -0.05630039423704147, 0.5987682938575745, -0.013652040623128414, 0.7988262176513672, 9.81837272644043, -3.9212634563446045, 3.0000689029693604, 18.366527557373047, -11.66805648803711, -5.354068756103516, -0.83837890625, -0.274169921875, -0.184326171875, 
402, 3367183198, -0.05695875734090805, 0.599291980266571, -0.012447916902601719, 0.7984064221382141, 9.732076644897461, -4.07666540145874, 3.007594108581543, 18.069067001342773, -10.814846992492676, -2.6057114601135254, -0.8369140625, -0.276611328125, -0.18359375, 
403, 3367191531, -0.05783969536423683, 0.5996816754341125, -0.011397815309464931, 0.7980659604072571, 9.657882690429688, -4.028336048126221, 2.858210802078247, 18.327259063720703, -8.692346572875977, 1.0500686168670654, -0.83642578125, -0.273193359375, -0.183837890625, 
404, 3367199864, -0.059013478457927704, 0.5999045372009277, -0.010590349324047565, 0.7978234887123108, 9.685644149780273, -3.7624430656433105, 2.7329022884368896, 18.22903060913086, -5.8214263916015625, 6.233213424682617, -0.8369140625, -0.273193359375, -0.181396484375, 
405, 3367208197, -0.060479190200567245, 0.5999782085418701, -0.01003169734030962, 0.797665536403656, 9.58559799194336, -3.7409744262695312, 2.683306932449341, 18.044580459594727, -3.412585496902466, 11.404473304748535, -0.83642578125, -0.272705078125, -0.17919921875, 
406, 3367216530, -0.06219843029975891, 0.599982500076294, -0.009640284813940525, 0.7975350022315979, 9.231842994689941, -3.892484188079834, 2.7091994285583496, 18.35976791381836, -2.239197254180908, 15.588945388793945, -0.83544921875, -0.273193359375, -0.17822265625, 
407, 3367224863, -0.064141646027565, 0.599999725818634, -0.009329614229500294, 0.7973719835281372, 8.814416885375977, -3.9171459674835205, 2.7653558254241943, 19.314058303833008, -2.6891894340515137, 18.685483932495117, -0.839599609375, -0.27001953125, -0.173583984375, 
408, 3367233196, -0.06626810133457184, 0.6001170873641968, -0.009001052938401699, 0.7971133589744568, 8.673623085021973, -3.8925344944000244, 2.808838129043579, 20.914947509765625, -4.533492088317871, 20.669715881347656, -0.840087890625, -0.26953125, -0.175048828125, 
409, 3367241529, -0.06859934329986572, 0.6003642082214355, -0.00852904748171568, 0.7967352271080017, 8.76409912109375, -3.9721460342407227, 2.889068603515625, 24.05538558959961, -7.184209823608398, 21.7558650970459, -0.839111328125, -0.2685546875, -0.173583984375, 
410, 3367249862, -0.0711364597082138, 0.6006897687911987, -0.007784726098179817, 0.7962746620178223, 8.828514099121094, -4.007540702819824, 2.9817769527435303, 28.64352035522461, -8.919270515441895, 21.89977264404297, -0.838134765625, -0.26513671875, -0.173095703125, 
411, 3367258195, -0.07391443103551865, 0.6009976863861084, -0.006648804992437363, 0.7957995533943176, 8.695137023925781, -4.170006275177002, 2.9353740215301514, 34.953304290771484, -9.343191146850586, 21.233169555664062, -0.841064453125, -0.262451171875, -0.16845703125, 
412, 3367266528, -0.07698872685432434, 0.6012703776359558, -0.004998357035219669, 0.7953142523765564, 8.746086120605469, -4.372474670410156, 2.8536250591278076, 43.050838470458984, -9.504308700561523, 20.32341194152832, -0.841796875, -0.259521484375, -0.166015625, 
413, 3367274861, -0.08049921691417694, 0.6014953851699829, -0.002879241481423378, 0.7948066592216492, 9.377431869506836, -4.343164443969727, 2.965451955795288, 51.853538513183594, -9.781462669372559, 21.142547607421875, -0.84326171875, -0.25732421875, -0.16455078125, 
414, 3367283194, -0.08453428745269775, 0.6015723943710327, -0.00024404190480709076, 0.7943344116210938, 9.94811725616455, -4.322147846221924, 3.049952268600464, 61.977882385253906, -8.37545108795166, 22.675817489624023, -0.845703125, -0.25537109375, -0.163330078125, 
415, 3367291527, -0.08908206224441528, 0.6013967990875244, 0.002755219116806984, 0.7939656972885132, 10.196803092956543, -4.225793838500977, 3.025062322616577, 70.5149917602539, -5.280144214630127, 25.027393341064453, -0.844482421875, -0.254150390625, -0.15869140625, 
416, 3367299860, -0.09409874677658081, 0.600900411605835, 0.005937855690717697, 0.7937453985214233, 10.411140441894531, -3.909937620162964, 2.9405059814453125, 76.75785064697266, -0.6600059270858765, 28.554113388061523, -0.844970703125, -0.249267578125, -0.154052734375, 
417, 3367308193, -0.09949152171611786, 0.6000422835350037, 0.009072024375200272, 0.7937073707580566, 10.419179916381836, -3.497622489929199, 2.857203960418701, 79.81713104248047, 4.791494369506836, 32.66250228881836, -0.845947265625, -0.248779296875, -0.155517578125, 
418, 3367316526, -0.10509569197893143, 0.5988335013389587, 0.011964883655309677, 0.793859601020813, 10.210132598876953, -3.0911004543304443, 2.803420066833496, 79.3571548461914, 10.63888168334961, 36.78908920288086, -0.842041015625, -0.24462890625, -0.153076171875, 
419, 3367324859, -0.11075475811958313, 0.5973288416862488, 0.014401959255337715, 0.7941831350326538, 9.888693809509277, -2.6873252391815186, 2.7048444747924805, 75.26277160644531, 15.85128116607666, 40.70344924926758, -0.8486328125, -0.2412109375, -0.15234375, 
420, 3367333192, -0.11626728624105453, 0.5956408381462097, 0.01629074662923813, 0.7946265339851379, 9.384842872619629, -2.421599864959717, 2.5761003494262695, 68.2967758178711, 19.741893768310547, 43.53043746948242, -0.84423828125, -0.235595703125, -0.1513671875, 
421, 3367341525, -0.12148474156856537, 0.5938647985458374, 0.01761310175061226, 0.7951469421386719, 8.829456329345703, -2.2363975048065186, 2.417147159576416, 59.84538650512695, 22.07473373413086, 44.65596008300781, -0.8466796875, -0.233154296875, -0.1513671875, 
422, 3367349858, -0.1263016164302826, 0.5921235084533691, 0.018464503809809685, 0.7956756949424744, 8.239005088806152, -2.050323724746704, 2.2079732418060303, 51.33127212524414, 22.551809310913086, 44.26355743408203, -0.849365234375, -0.227294921875, -0.155517578125, 
423, 3367358191, -0.13070815801620483, 0.5905294418334961, 0.018964216113090515, 0.7961366176605225, 7.763050079345703, -2.102771043777466, 1.9695706367492676, 43.93906784057617, 20.79587745666504, 42.64023971557617, -0.850830078125, -0.222412109375, -0.15576171875, 
424, 3367366524, -0.13475443422794342, 0.5891872644424438, 0.01938057318329811, 0.7964463829994202, 7.263485908508301, -2.397463798522949, 1.7985188961029053, 39.651912689208984, 16.96683120727539, 39.8621826171875, -0.851806640625, -0.21826171875, -0.15771484375, 
425, 3367374857, -0.1385822296142578, 0.5881260633468628, 0.01998835615813732, 0.7965587973594666, 6.922947883605957, -2.821105718612671, 1.6752418279647827, 39.548397064208984, 11.77762222290039, 36.20214080810547, -0.849609375, -0.2099609375, -0.158447265625, 
426, 3367383190, -0.14236658811569214, 0.5873328447341919, 0.021056341007351875, 0.7964493036270142, 6.87483549118042, -3.2192208766937256, 1.5360568761825562, 43.75000762939453, 6.25707483291626, 32.65873336791992, -0.848388671875, -0.2119140625, -0.15966796875, 
427, 3367391523, -0.14638419449329376, 0.5868014097213745, 0.02284359745681286, 0.7960634827613831, 7.09896183013916, -3.6954970359802246, 1.4467740058898926, 53.12070083618164, -0.277915358543396, 29.853012084960938, -0.85107421875, -0.205322265625, -0.156494140625, 
428, 3367399856, -0.15092772245407104, 0.5864588022232056, 0.0256182923913002, 0.7953826785087585, 7.219672203063965, -4.051721096038818, 1.4139045476913452, 67.84574127197266, -6.453434467315674, 28.46194076538086, -0.8544921875, -0.204345703125, -0.15380859375, 
429, 3367408189, -0.15627293288707733, 0.5862194895744324, 0.02947932668030262, 0.7943924069404602, 7.3839616775512695, -4.203210830688477, 1.4120680093765259, 86.13358306884766, -12.144185066223145, 28.970470428466797, -0.8515625, -0.201416015625, -0.15478515625, 
430, 3367416522, -0.16253447532653809, 0.586005449295044, 0.03439900279045105, 0.7930951714515686, 7.8680033683776855, -4.2074713706970215, 1.4809298515319824, 105.1106185913086, -16.70545196533203, 31.293827056884766, -0.853271484375, -0.1982421875, -0.1474609375, 
431, 3367424855, -0.1697055548429489, 0.5857124924659729, 0.040120091289281845, 0.7915390133857727, 8.73827838897705, -3.882511854171753, 1.647576093673706, 121.52922821044922, -19.383058547973633, 35.10408401489258, -0.850830078125, -0.196044921875, -0.145263671875, 
432, 3367433188, -0.17767435312271118, 0.5852441787719727, 0.046416472643613815, 0.789790689945221, 9.616971969604492, -3.4640140533447266, 1.8526382446289062, 134.68270874023438, -19.832324981689453, 39.698421478271484, -0.85400390625, -0.193359375, -0.13671875, 
433, 3367441521, -0.18622983992099762, 0.5844869613647461, 0.05302133411169052, 0.7879623770713806, 10.235459327697754, -3.1263067722320557, 2.094200372695923, 143.56521606445312, -17.814878463745117, 43.39714050292969, -0.8564453125, -0.1875, -0.132568359375, 
434, 3367449854, -0.19511419534683228, 0.5833537578582764, 0.059710096567869186, 0.7861718535423279, 10.442675590515137, -2.8208580017089844, 2.217756986618042, 147.99972534179688, -13.31633186340332, 46.11899185180664, -0.855224609375, -0.183837890625, -0.128173828125, 
435, 3367458187, -0.20417693257331848, 0.5818111300468445, 0.06623341888189316, 0.7844894528388977, 10.354759216308594, -2.47883677482605, 2.162306785583496, 148.70726013183594, -7.529364109039307, 48.540367126464844, -0.852294921875, -0.17919921875, -0.1259765625, 
436, 3367466520, -0.2132308930158615, 0.5799156427383423, 0.07236464321613312, 0.7829409837722778, 10.09090805053711, -2.0687544345855713, 2.008296012878418, 145.2209014892578, -1.4608103036880493, 51.093204498291016, -0.850830078125, -0.176025390625, -0.12255859375, 
437, 3367474853, -0.22206631302833557, 0.5777532458305359, 0.07774299383163452, 0.7815667986869812, 9.88316822052002, -1.500632882118225, 1.8029491901397705, 136.46908569335938, 4.633869647979736, 53.908119201660156, -0.85595703125, -0.169921875, -0.114501953125, 
438, 3367483186, -0.2305585891008377, 0.5754421353340149, 0.0822080448269844, 0.7803549766540527, 9.59768295288086, -1.1084619760513306, 1.6556222438812256, 123.71886444091797, 10.102995872497559, 56.88029861450195, -0.856201171875, -0.16357421875, -0.11572265625, 
439, 3367491519, -0.2386033684015274, 0.5731300711631775, 0.0856371819972992, 0.7792686223983765, 9.155263900756836, -0.8857126832008362, 1.4402204751968384, 108.92221069335938, 13.886115074157715, 59.87592697143555, -0.857666015625, -0.156494140625, -0.11376953125, 
440, 3367499852, -0.24612721800804138, 0.5709835290908813, 0.08802910894155502, 0.7782371044158936, 9.075140953063965, -0.6580936312675476, 1.243873953819275, 93.52874755859375, 15.17485523223877, 62.41851806640625, -0.8564453125, -0.1494140625, -0.114501953125, 
441, 3367508185, -0.2531196177005768, 0.5690999627113342, 0.08943922817707062, 0.7772125601768494, 9.624170303344727, -0.38521748781204224, 1.1579312086105347, 77.91194152832031, 15.106582641601562, 64.72930145263672, -0.85791015625, -0.14404296875, -0.1162109375, 
442, 3367516518, -0.259613573551178, 0.5675260424613953, 0.09006596356630325, 0.77614825963974, 10.190717697143555, -0.35488903522491455, 1.239569902420044, 64.2115249633789, 13.747021675109863, 66.12215423583984, -0.85791015625, -0.135498046875, -0.11669921875, 
443, 3367524851, -0.26569148898124695, 0.5662793517112732, 0.09026650339365005, 0.7749776244163513, 10.272547721862793, -0.755945086479187, 1.3973578214645386, 55.765438079833984, 10.2911376953125, 65.7315902709961, -0.860107421875, -0.128662109375, -0.116455078125, 
444, 3367533184, -0.2715546488761902, 0.5653868913650513, 0.0906292200088501, 0.7735534310340881, 10.342148780822754, -1.409831166267395, 1.4643741846084595, 54.4559326171875, 3.8202707767486572, 63.60746383666992, -0.8583984375, -0.116455078125, -0.1162109375, 
445, 3367541517, -0.2773004174232483, 0.5648859143257141, 0.09167730808258057, 0.7717553973197937, 10.84780216217041, -2.080329656600952, 1.6420408487319946, 60.18175506591797, -6.0827789306640625, 58.844478607177734, -0.86083984375, -0.111083984375, -0.117431640625, 
446, 3367549850, -0.2832449674606323, 0.5646592974662781, 0.09401494264602661, 0.769477903842926, 11.048545837402344, -2.587301015853882, 1.8023587465286255, 74.6257095336914, -17.25782585144043, 53.180721282958984, -0.859130859375, -0.1044921875, -0.114990234375, 
447, 3367558183, -0.28958484530448914, 0.5645517706871033, 0.09793983399868011, 0.76670241355896, 10.821246147155762, -2.960582733154297, 1.8231576681137085, 95.09568786621094, -28.192913055419922, 47.092506408691406, -0.860107421875, -0.0986328125, -0.113525390625, 
448, 3367566516, -0.2964678406715393, 0.5644151568412781, 0.10350863635540009, 0.7634339332580566, 10.78494644165039, -3.1203770637512207, 1.8545691967010498, 117.00128936767578, -37.390907287597656, 42.01886749267578, -0.8603515625, -0.09228515625, -0.10693359375, 
