sep=,
PacketCounter,SampleTimeFine,Quat_W,Quat_X,Quat_Y,Quat_Z,Acc_X,Acc_Y,Acc_Z,Gyr_X,Gyr_Y,Gyr_Z,Mag_X,Mag_Y,Mag_Z,
0, 3030988313, -0.7969800233840942, 0.2679796814918518, -0.17239561676979065, 0.5131160616874695, 0, 0, 0, 0, 0, 0, -0.1025390625, 0.736328125, -0.6064453125, 
1, 3030996646, -0.7969464659690857, 0.2680359184741974, -0.17237752676010132, 0.5131449103355408, 0.045663781464099884, -5.901553630828857, 7.859014987945557, -0.6273054480552673, -0.9568069577217102, -0.9093437790870667, -0.100341796875, 0.7353515625, -0.60986328125, 
2, 3031004979, -0.7969168424606323, 0.26809969544410706, -0.17235860228538513, 0.5131638646125793, 0.058267056941986084, -5.962724208831787, 7.872704982757568, -0.7074010968208313, -0.9217409491539001, -0.8828330039978027, -0.090576171875, 0.738525390625, -0.6064453125, 
3, 3031013312, -0.7968820929527283, 0.26813721656799316, -0.17234699428081512, 0.5132022500038147, 0.06878174096345901, -5.969483852386475, 7.855302333831787, -0.4491584300994873, -0.7157257795333862, -0.9551675915718079, -0.100341796875, 0.73583984375, -0.60888671875, 
4, 3031021645, -0.7968474626541138, 0.2681621313095093, -0.172332763671875, 0.5132477879524231, 0.06979028880596161, -5.99272346496582, 7.8596367835998535, -0.2714468836784363, -0.5710309743881226, -0.9875184893608093, -0.101318359375, 0.734375, -0.60693359375, 
5, 3031029978, -0.7968279123306274, 0.2681635022163391, -0.17231063544750214, 0.5132849812507629, 0.06696491688489914, -6.070260047912598, 7.871725082397461, 0.07502410560846329, -0.6163426041603088, -0.7865747213363647, -0.10107421875, 0.7392578125, -0.60986328125, 
6, 3031038311, -0.7968137264251709, 0.26814886927604675, -0.17227652668952942, 0.513326108455658, 0.07116370648145676, -6.06907320022583, 7.86106014251709, 0.369434118270874, -0.5668302178382874, -0.7838851809501648, -0.101806640625, 0.735107421875, -0.611328125, 
7, 3031046644, -0.7968183755874634, 0.268093079328537, -0.17223775386810303, 0.5133610367774963, 0.060684796422719955, -6.101268291473389, 7.894386291503906, 0.9027479290962219, -0.4613507390022278, -0.5184961557388306, -0.10205078125, 0.73681640625, -0.6083984375, 
8, 3031054977, -0.7968465685844421, 0.2680339217185974, -0.17218837141990662, 0.5133646726608276, 0.04385408014059067, -6.088371276855469, 7.889557361602783, 1.0295641422271729, -0.4857867658138275, -0.24977721273899078, -0.10107421875, 0.73828125, -0.60986328125, 
9, 3031063310, -0.7968710064888, 0.26798221468925476, -0.1721678525209427, 0.5133606195449829, 0.02591474913060665, -6.077770709991455, 7.903412342071533, 0.7112048268318176, -0.4810224771499634, 0.10711872577667236, -0.10205078125, 0.73779296875, -0.60791015625, 
10, 3031071643, -0.7968984246253967, 0.2679443061351776, -0.1721682995557785, 0.5133377313613892, 0.02640114352107048, -6.06744909286499, 7.877504825592041, 0.38190823793411255, -0.3953685164451599, 0.44043681025505066, -0.1005859375, 0.73828125, -0.60693359375, 
11, 3031079976, -0.7969385981559753, 0.2679002583026886, -0.17218078672885895, 0.5132942199707031, -0.014742415398359299, -6.073929786682129, 7.8745503425598145, 0.3572673201560974, -0.3557945191860199, 0.7549795508384705, -0.100341796875, 0.734375, -0.60791015625, 
12, 3031088309, -0.7969751358032227, 0.2678617835044861, -0.17219746112823486, 0.5132518410682678, -0.00891244225203991, -6.013545513153076, 7.900908946990967, 0.2615981698036194, -0.3224191665649414, 0.8020584583282471, -0.099365234375, 0.7353515625, -0.607421875, 
13, 3031096642, -0.7970172762870789, 0.2678429186344147, -0.1722135990858078, 0.5131909251213074, -0.020128099247813225, -5.982909679412842, 7.910715103149414, 0.021336661651730537, -0.5626551508903503, 0.9111496210098267, -0.1005859375, 0.7412109375, -0.6103515625, 
14, 3031104975, -0.797041118144989, 0.26785025000572205, -0.1722317785024643, 0.5131439566612244, 0.036450888961553574, -5.947367191314697, 7.924670696258545, -0.30866435170173645, -0.7204388380050659, 0.7924787998199463, -0.100830078125, 0.736328125, -0.60888671875, 
15, 3031113308, -0.7970510721206665, 0.26787862181663513, -0.1722778081893921, 0.5130981802940369, 0.07593458145856857, -5.893641948699951, 7.917560577392578, -0.789110541343689, -0.43519869446754456, 0.5157938599586487, -0.099609375, 0.73681640625, -0.60595703125, 
16, 3031121641, -0.7970403432846069, 0.26791703701019287, -0.17233197391033173, 0.513076663017273, 0.11265737563371658, -5.875002384185791, 7.92429256439209, -0.9712534546852112, -0.1592821180820465, 0.055992722511291504, -0.1005859375, 0.736328125, -0.6064453125, 
17, 3031129974, -0.7970048785209656, 0.2679537534713745, -0.17243269085884094, 0.5130786299705505, 0.14140455424785614, -5.90178918838501, 7.922395706176758, -1.32050359249115, 0.388055682182312, -0.1460907906293869, -0.099853515625, 0.734375, -0.6083984375, 
18, 3031138307, -0.7969734072685242, 0.26798635721206665, -0.17253859341144562, 0.5130749940872192, 0.12853632867336273, -5.963075637817383, 7.875417232513428, -1.308951497077942, 0.6552377939224243, -0.20203228294849396, -0.10302734375, 0.73583984375, -0.60595703125, 
19, 3031146640, -0.7969372272491455, 0.26800137758255005, -0.17264968156814575, 0.5130860805511475, 0.13423025608062744, -6.0020294189453125, 7.8474626541137695, -1.137208104133606, 0.690047562122345, -0.1603323221206665, -0.094970703125, 0.73974609375, -0.610595703125, 
20, 3031154973, -0.7969159483909607, 0.2679688334465027, -0.1727253496646881, 0.5131105184555054, 0.09901680797338486, -6.050897598266602, 7.837048053741455, -0.2739570736885071, 0.5410494804382324, 0.025716694071888924, -0.100341796875, 0.736328125, -0.6083984375, 
21, 3031163306, -0.7969329357147217, 0.26790183782577515, -0.17276833951473236, 0.5131044983863831, 0.05792372301220894, -6.054609775543213, 7.839065074920654, 0.3959960639476776, 0.3329594135284424, 0.3455616235733032, -0.099853515625, 0.734375, -0.6083984375, 
22, 3031171639, -0.796943724155426, 0.26781198382377625, -0.1727895885705948, 0.5131273865699768, 0.02613648772239685, -6.035218238830566, 7.8348164558410645, 0.8529027700424194, 0.1050695851445198, 0.41528356075286865, -0.098388671875, 0.7373046875, -0.60888671875, 
23, 3031179972, -0.7969781160354614, 0.267740398645401, -0.17278747260570526, 0.5131121277809143, 0.01991351507604122, -5.954377174377441, 7.838056564331055, 0.8071044683456421, -0.20420947670936584, 0.41551411151885986, -0.099365234375, 0.73779296875, -0.61181640625, 
24, 3031188305, -0.7969972491264343, 0.26771464943885803, -0.17277538776397705, 0.5130999684333801, -0.011423090472817421, -5.90972900390625, 7.8384857177734375, 0.33231908082962036, -0.5102483034133911, 0.12384481728076935, -0.099365234375, 0.73583984375, -0.60546875, 
25, 3031196638, -0.796997606754303, 0.2677421569824219, -0.17278099060058594, 0.5130831599235535, -0.021379847079515457, -5.912590026855469, 7.850094795227051, -0.4623240828514099, -0.7423388957977295, -0.01607293076813221, -0.101318359375, 0.73486328125, -0.6103515625, 
26, 3031204971, -0.7969827651977539, 0.26780015230178833, -0.1728084534406662, 0.5130667090415955, -0.017259810119867325, -5.920272350311279, 7.876710891723633, -1.0000693798065186, -0.6298923492431641, -0.08489837497472763, -0.099365234375, 0.73681640625, -0.60888671875, 
27, 3031213304, -0.7969677448272705, 0.26786667108535767, -0.1728401631116867, 0.5130445957183838, -0.009234320372343063, -5.954434394836426, 7.876896858215332, -1.1439701318740845, -0.7156232595443726, -0.06217855587601662, -0.099853515625, 0.736328125, -0.609375, 
28, 3031221637, -0.7969646453857422, 0.2679169476032257, -0.17286738753318787, 0.5130139589309692, 0.006037137005478144, -5.9997124671936035, 7.895523548126221, -0.90406733751297, -0.46624311804771423, -0.0784948319196701, -0.099365234375, 0.73681640625, -0.60888671875, 
29, 3031229970, -0.7969502806663513, 0.26795196533203125, -0.17289845645427704, 0.513007402420044, 0.021580277010798454, -6.011407375335693, 7.9072113037109375, -0.7529431581497192, -0.44375377893447876, -0.15692558884620667, -0.0986328125, 0.7373046875, -0.60546875, 
30, 3031238303, -0.7969432473182678, 0.26796412467956543, -0.17292970418930054, 0.5130016803741455, 0.03277432546019554, -6.028695106506348, 7.914828300476074, -0.471468448638916, -0.23538200557231903, -0.03697414696216583, -0.10107421875, 0.73828125, -0.60693359375, 
31, 3031246636, -0.7969437837600708, 0.2679446339607239, -0.17295239865779877, 0.5130033493041992, 0.07182884961366653, -6.02353048324585, 7.926616191864014, -0.022297188639640808, -0.1566694676876068, -0.043736301362514496, -0.091552734375, 0.740478515625, -0.608642578125, 
32, 3031254969, -0.7969422340393066, 0.26791542768478394, -0.1729869246482849, 0.5130093693733215, 0.0802835077047348, -6.005047798156738, 7.925300121307373, 0.00763304065912962, 0.05302146449685097, 0.07384584099054337, -0.100341796875, 0.73828125, -0.60986328125, 
33, 3031263302, -0.7969455718994141, 0.2678901255130768, -0.1730494201183319, 0.5129961967468262, 0.06556302309036255, -5.966007709503174, 7.92454195022583, -0.2641980051994324, 0.2590879797935486, 0.3001475930213928, -0.097900390625, 0.73828125, -0.607421875, 
34, 3031271635, -0.7969440817832947, 0.2678599953651428, -0.17312273383140564, 0.5129895806312561, 0.045449163764715195, -5.977001190185547, 7.887825965881348, -0.2863287329673767, 0.41361868381500244, 0.3887728750705719, -0.097412109375, 0.73779296875, -0.607177734375, 
35, 3031279968, -0.7969480156898499, 0.2678244113922119, -0.17320021986961365, 0.5129759311676025, 0.045205965638160706, -6.006807327270508, 7.889113903045654, -0.2565649747848511, 0.4934326112270355, 0.3891826272010803, -0.0986328125, 0.73876953125, -0.60595703125, 
36, 3031288301, -0.7969661355018616, 0.2677899897098541, -0.17326675355434418, 0.5129433870315552, 0.04645771533250809, -6.00183629989624, 7.840610027313232, -0.17949174344539642, 0.5893067717552185, 0.32540324330329895, -0.098388671875, 0.73828125, -0.60986328125, 
37, 3031296634, -0.7969783544540405, 0.2677357792854309, -0.1733279824256897, 0.5129318833351135, 0.0351848229765892, -5.9609150886535645, 7.834759712219238, 0.09666812419891357, 0.4349040687084198, 0.4081116020679474, -0.099365234375, 0.7373046875, -0.60693359375, 
38, 3031304967, -0.7969930768013, 0.2676786482334137, -0.17338694632053375, 0.5129189491271973, 0.01815391518175602, -5.9580535888671875, 7.828099727630615, 0.15734826028347015, 0.5062653422355652, 0.4270917773246765, -0.099853515625, 0.73388671875, -0.60693359375, 
39, 3031313300, -0.7970024347305298, 0.26763471961021423, -0.17343755066394806, 0.5129101872444153, -0.01848294585943222, -5.963418006896973, 7.822141647338867, 0.055121831595897675, 0.2618286907672882, 0.2954089641571045, -0.097900390625, 0.736328125, -0.607666015625, 
40, 3031321633, -0.7969959378242493, 0.2676245868206024, -0.17347440123558044, 0.5129131078720093, 0.001523739891126752, -5.9255876541137695, 7.801685333251953, -0.2424771636724472, -0.060001350939273834, 0.04177682101726532, -0.098876953125, 0.736328125, -0.6064453125, 
41, 3031329966, -0.7969900369644165, 0.2676358222961426, -0.17348822951316833, 0.5129116773605347, 0.00269662169739604, -5.935407638549805, 7.77048397064209, -0.3288995623588562, -0.4674469530582428, -0.15987123548984528, -0.0966796875, 0.73876953125, -0.606201171875, 
42, 3031338299, -0.7970030903816223, 0.26766255497932434, -0.17348018288612366, 0.5128800868988037, 0.009348928928375244, -5.984983921051025, 7.775506019592285, -0.33952948451042175, -0.6863206028938293, -0.08743418753147125, -0.092529296875, 0.73583984375, -0.610107421875, 
43, 3031346632, -0.7970128059387207, 0.26767563819885254, -0.17344914376735687, 0.5128688812255859, 0.01037877518683672, -6.0160417556762695, 7.806527137756348, 0.0019979102071374655, -1.044843077659607, -0.11212630569934845, -0.096435546875, 0.73876953125, -0.607666015625, 
44, 3031354965, -0.7970300316810608, 0.26767298579216003, -0.17340087890625, 0.5128598809242249, 0.002574849408119917, -5.990334510803223, 7.8055267333984375, 0.3332924246788025, -1.182647705078125, 0.0538923554122448, -0.095947265625, 0.73583984375, -0.607177734375, 
45, 3031363298, -0.7970666289329529, 0.2676456868648529, -0.17334437370300293, 0.5128364562988281, 0.027059204876422882, -5.994804859161377, 7.866038799285889, 0.6945299506187439, -1.1477097272872925, 0.21280305087566376, -0.094482421875, 0.737548828125, -0.605712890625, 
46, 3031371631, -0.7971184253692627, 0.2676156759262085, -0.1732875406742096, 0.5127905607223511, 0.02180926315486431, -5.968926429748535, 7.892210483551025, 0.7342319488525391, -1.0534238815307617, 0.41413095593452454, -0.096923828125, 0.736328125, -0.607666015625, 
47, 3031379964, -0.7971531748771667, 0.2675776183605194, -0.17326565086841583, 0.5127637982368469, 0.03473448380827904, -5.97795295715332, 7.921530246734619, 0.5544201135635376, -0.7007670402526855, 0.3897974193096161, -0.097900390625, 0.73583984375, -0.608642578125, 
48, 3031388297, -0.7971749901771545, 0.26755818724632263, -0.17325183749198914, 0.512744665145874, 0.020414214581251144, -5.980363368988037, 7.934433937072754, 0.26920560002326965, -0.6173927187919617, 0.2124444544315338, -0.095947265625, 0.7373046875, -0.607177734375, 
49, 3031396630, -0.7971879839897156, 0.26753413677215576, -0.173250213265419, 0.512737512588501, 0.04371121525764465, -5.997437000274658, 7.911622524261475, 0.22263891994953156, -0.45371773838996887, 0.06285732984542847, -0.096923828125, 0.73974609375, -0.60888671875, 
50, 3031404963, -0.7971969246864319, 0.26750144362449646, -0.17324040830135345, 0.5127440094947815, -0.00018597391317598522, -6.033072471618652, 7.898262023925781, 0.39906978607177734, -0.42123886942863464, -0.02785548008978367, -0.098876953125, 0.73876953125, -0.6083984375, 
51, 3031413296, -0.7972157597541809, 0.2674441635608673, -0.17321841418743134, 0.512752115726471, -0.00654485123232007, -6.039975166320801, 7.912653923034668, 0.7899172902107239, -0.40105485916137695, -0.05690201371908188, -0.10009765625, 0.73779296875, -0.60693359375, 
52, 3031421629, -0.7972497940063477, 0.2673737704753876, -0.17317061126232147, 0.5127521753311157, 0.01331144105643034, -6.00284481048584, 7.894514083862305, 1.1560728549957275, -0.385814368724823, -0.18141281604766846, -0.096435546875, 0.73681640625, -0.607666015625, 
53, 3031429962, -0.797269880771637, 0.267292857170105, -0.17313416302204132, 0.5127753615379333, 0.031679973006248474, -5.987744331359863, 7.886816501617432, 1.190882682800293, -0.34055402874946594, -0.21248288452625275, -0.098876953125, 0.736328125, -0.60986328125, 
54, 3031438295, -0.7972989678382874, 0.2672138810157776, -0.17309510707855225, 0.5127845406532288, 0.03457684442400932, -5.966386795043945, 7.877976894378662, 1.1936233043670654, -0.2507505416870117, -0.17903068661689758, -0.096435546875, 0.736328125, -0.610107421875, 
55, 3031446628, -0.7973234057426453, 0.26714175939559937, -0.17308318614959717, 0.5127880573272705, 0.05765191465616226, -5.9726738929748535, 7.872225761413574, 0.8915802240371704, -0.21491622924804688, 0.10345589369535446, -0.099365234375, 0.73583984375, -0.60888671875, 
56, 3031454961, -0.7973450422286987, 0.26708680391311646, -0.17307381331920624, 0.5127862691879272, 0.0290047787129879, -5.97853946685791, 7.860788345336914, 0.6669178605079651, -0.2527484893798828, 0.11831215023994446, -0.094970703125, 0.736328125, -0.608154296875, 
57, 3031463294, -0.7973635196685791, 0.26706281304359436, -0.1730809062719345, 0.5127676725387573, 0.029061807319521904, -5.9676313400268555, 7.868284702301025, 0.15522226691246033, -0.41393887996673584, 0.2618287205696106, -0.096923828125, 0.73681640625, -0.606689453125, 
58, 3031471627, -0.7973804473876953, 0.26707708835601807, -0.1730879247188568, 0.5127314329147339, 0.005128588527441025, -5.9537835121154785, 7.898848533630371, -0.3075629472732544, -0.6715155839920044, 0.3533227741718292, -0.094970703125, 0.73876953125, -0.610595703125, 
59, 3031479960, -0.7973921298980713, 0.2671220004558563, -0.1731022596359253, 0.5126850008964539, -0.020893454551696777, -5.919349670410156, 7.90333366394043, -0.7434403300285339, -0.9045794606208801, 0.37780994176864624, -0.097412109375, 0.73681640625, -0.61328125, 
60, 3031488293, -0.7973659038543701, 0.2671772241592407, -0.17313562333583832, 0.5126857757568359, 0.0321088507771492, -5.919800281524658, 7.9174957275390625, -1.0128252506256104, -0.9072177410125732, 0.26031744480133057, -0.097412109375, 0.73779296875, -0.608154296875, 
61, 3031496626, -0.7973684668540955, 0.26720374822616577, -0.1731642484664917, 0.5126582980155945, 0.05789510905742645, -5.948919296264648, 7.916823863983154, -0.6306865215301514, -0.5284088253974915, 0.20388929545879364, -0.097412109375, 0.7392578125, -0.609375, 
62, 3031504959, -0.7973913550376892, 0.2671836018562317, -0.17317698895931244, 0.512628972530365, 0.030985787510871887, -6.001342296600342, 7.91213846206665, 0.06918405741453171, -0.08484716713428497, 0.07015739381313324, -0.092529296875, 0.736572265625, -0.60595703125, 
63, 3031513292, -0.7974028587341309, 0.2671038806438446, -0.17316454648971558, 0.5126568078994751, 0.008826607838273048, -6.003417015075684, 7.900944709777832, 0.9878897666931152, -0.04657948762178421, -0.2387886941432953, -0.091552734375, 0.73779296875, -0.60888671875, 
64, 3031521625, -0.7974028587341309, 0.2670062482357025, -0.17313340306282043, 0.5127180814743042, 0.015421529300510883, -5.9425249099731445, 7.885072231292725, 1.3583228588104248, -0.10024131089448929, -0.45466548204421997, -0.098388671875, 0.7353515625, -0.609375, 
65, 3031529958, -0.7974122762680054, 0.2669226825237274, -0.17307893931865692, 0.5127653479576111, 0.03092900849878788, -5.945658206939697, 7.9040141105651855, 1.3655205965042114, -0.4043335020542145, -0.6095803380012512, -0.096435546875, 0.73583984375, -0.610107421875, 
66, 3031538291, -0.7974123954772949, 0.26687532663345337, -0.17303898930549622, 0.5128032565116882, 0.0252994354814291, -5.916795253753662, 7.885915279388428, 0.8143277764320374, -0.3899895250797272, -0.6717460751533508, -0.095458984375, 0.73681640625, -0.610107421875, 
67, 3031546624, -0.7974014282226562, 0.26686087250709534, -0.17302250862121582, 0.5128335356712341, 0.05843878537416458, -5.9291205406188965, 7.891074180603027, 0.2234329730272293, -0.4891422390937805, -0.5914967060089111, -0.095947265625, 0.7353515625, -0.608642578125, 
68, 3031554957, -0.7973920702934265, 0.2668648362159729, -0.17301851511001587, 0.512847363948822, 0.07444678992033005, -5.97583532333374, 7.879493236541748, -0.09419634938240051, -0.3995436429977417, -0.4963141977787018, -0.095947265625, 0.73583984375, -0.609619140625, 
69, 3031563290, -0.7973813414573669, 0.2668667137622833, -0.17304514348506927, 0.5128540396690369, 0.07453262060880661, -5.971164703369141, 7.875301361083984, -0.3136846721172333, -0.21811801195144653, -0.21384042501449585, -0.096923828125, 0.7373046875, -0.611572265625, 
70, 3031571623, -0.7973728179931641, 0.2668510675430298, -0.1730765700340271, 0.5128648281097412, 0.05838865786790848, -5.975492000579834, 7.883470058441162, -0.13328367471694946, 0.00829901173710823, -0.14424654841423035, -0.094970703125, 0.7353515625, -0.608642578125, 
71, 3031579956, -0.797365128993988, 0.26683488488197327, -0.17312094569206238, 0.5128703713417053, 0.03964134305715561, -5.984532356262207, 7.889778137207031, -0.23307670652866364, 0.0917757973074913, -0.07132284343242645, -0.097412109375, 0.7373046875, -0.6103515625, 
72, 3031588289, -0.7973548173904419, 0.26682665944099426, -0.17315059900283813, 0.5128804445266724, 0.009477516636252403, -5.9510579109191895, 7.8676981925964355, -0.2103569060564041, -0.04084189981222153, -0.19747294485569, -0.095947265625, 0.73681640625, -0.609619140625, 
73, 3031596622, -0.7973381876945496, 0.26683783531188965, -0.17318913340568542, 0.5128875374794006, -0.018025163561105728, -5.931459426879883, 7.84861421585083, -0.5205708742141724, -0.13809914886951447, -0.23694446682929993, -0.094482421875, 0.73779296875, -0.608642578125, 
74, 3031604955, -0.797308623790741, 0.2668604254722595, -0.17321307957172394, 0.5129135847091675, -0.012109827250242233, -5.963161468505859, 7.873027801513672, -0.5399865508079529, -0.3773617446422577, -0.394010990858078, -0.094970703125, 0.7373046875, -0.608642578125, 
75, 3031613288, -0.7972948551177979, 0.2668593227863312, -0.1732168048620224, 0.5129343867301941, 0.001030009356327355, -6.024267196655273, 7.8684492111206055, -0.09824340045452118, -0.3903225064277649, -0.46678099036216736, -0.095458984375, 0.73828125, -0.608642578125, 
76, 3031621621, -0.7972861528396606, 0.26682621240615845, -0.1731925755739212, 0.5129732489585876, -0.014169818721711636, -6.017135143280029, 7.852139949798584, 0.516126811504364, -0.5002331733703613, -0.4522833526134491, -0.095947265625, 0.7373046875, -0.608642578125, 
77, 3031629954, -0.7973001599311829, 0.2667694389820099, -0.1731451153755188, 0.5129971504211426, -0.010414538905024529, -6.046655654907227, 7.841554641723633, 0.9832278490066528, -0.6129870414733887, -0.3601745367050171, -0.094970703125, 0.7373046875, -0.609619140625, 
78, 3031638287, -0.797315239906311, 0.26668670773506165, -0.17308884859085083, 0.5130357146263123, -0.029083475470542908, -6.0401458740234375, 7.818206787109375, 1.374126672744751, -0.46393778920173645, -0.4023611843585968, -0.095458984375, 0.736328125, -0.608154296875, 
79, 3031646620, -0.7973405718803406, 0.2666133642196655, -0.1730164885520935, 0.5130587816238403, -0.014913677237927914, -5.976922512054443, 7.814938545227051, 1.3802485466003418, -0.7995611429214478, -0.32144585251808167, -0.094482421875, 0.73681640625, -0.611572265625, 
80, 3031654953, -0.7973620295524597, 0.2665727734565735, -0.17295023798942566, 0.5130689740180969, -0.0011802191147580743, -5.949591636657715, 7.833807945251465, 0.9384288191795349, -0.9595220685005188, -0.22631458938121796, -0.088623046875, 0.741943359375, -0.61083984375, 
81, 3031663286, -0.7973813414573669, 0.2665601372718811, -0.17289958894252777, 0.5130624175071716, 0.000006968445632082876, -5.961687088012695, 7.852020263671875, 0.4697394371032715, -1.0831875801086426, -0.10538976639509201, -0.092529296875, 0.73974609375, -0.612548828125, 
82, 3031671619, -0.7973984479904175, 0.2665749192237854, -0.17287181317806244, 0.5130373239517212, 0.029319502413272858, -5.987029552459717, 7.86422872543335, -0.03950996324419975, -1.020714521408081, 0.10514643788337708, -0.093994140625, 0.736328125, -0.611572265625, 
83, 3031679952, -0.7974079251289368, 0.26660698652267456, -0.17286819219589233, 0.5130072236061096, 0.03445524349808693, -5.972938537597656, 7.871632099151611, -0.4448552131652832, -0.9460488557815552, 0.14851132035255432, -0.096923828125, 0.734375, -0.609619140625, 
84, 3031688285, -0.797418475151062, 0.2666425108909607, -0.17285998165607452, 0.5129750370979309, 0.023725980892777443, -5.97550630569458, 7.871152877807617, -0.44690436124801636, -0.9448450803756714, 0.13547368347644806, -0.093505859375, 0.73681640625, -0.611083984375, 
85, 3031696618, -0.7974253296852112, 0.26667705178260803, -0.17285120487213135, 0.5129494071006775, 0.012789088301360607, -5.98069953918457, 7.885664939880371, -0.4328421354293823, -0.9982763528823853, 0.05857975035905838, -0.094970703125, 0.73583984375, -0.608642578125, 
86, 3031704951, -0.7974303960800171, 0.26668456196784973, -0.17283278703689575, 0.5129439830780029, -0.0002718080359045416, -5.976135730743408, 7.895594120025635, -0.022963160648941994, -0.9718168377876282, 0.1245364174246788, -0.096435546875, 0.73486328125, -0.610107421875, 
87, 3031713284, -0.7974548935890198, 0.2666802406311035, -0.17278489470481873, 0.512924313545227, 0.019377050921320915, -5.9932026863098145, 7.9145708084106445, 0.3447932004928589, -1.172529935836792, 0.06552121043205261, -0.093505859375, 0.73681640625, -0.615478515625, 
88, 3031721617, -0.7974964380264282, 0.2666361927986145, -0.17269213497638702, 0.5129138231277466, 0.019967375323176384, -6.031442165374756, 7.90256929397583, 1.1890896558761597, -1.2896126508712769, -0.024961071088910103, -0.095458984375, 0.73583984375, -0.607666015625, 
89, 3031729950, -0.7975385785102844, 0.2665433883666992, -0.1725863516330719, 0.5129321813583374, -0.0009227081900462508, -6.025262355804443, 7.920058250427246, 1.8799822330474854, -1.0862869024276733, -0.2290809154510498, -0.097412109375, 0.73681640625, -0.609130859375, 
90, 3031738283, -0.797577440738678, 0.2664114236831665, -0.17245906591415405, 0.5129831433296204, 0.013572672381997108, -5.986442565917969, 7.912687301635742, 2.531838893890381, -1.1056256294250488, -0.256052702665329, -0.094970703125, 0.73486328125, -0.613525390625, 
91, 3031746616, -0.7976284623146057, 0.26627886295318604, -0.17233426868915558, 0.5130144357681274, 0.03343866392970085, -5.933171272277832, 7.917393207550049, 2.513678550720215, -0.9881587028503418, -0.2843051850795746, -0.095458984375, 0.7353515625, -0.610107421875, 
92, 3031754949, -0.7976517677307129, 0.2661713659763336, -0.17223761975765228, 0.5130665898323059, 0.02707228623330593, -5.870940685272217, 7.950639724731445, 1.9938888549804688, -0.8676693439483643, -0.37016409635543823, -0.094970703125, 0.73486328125, -0.611083984375, 
93, 3031763282, -0.7976640462875366, 0.2661358118057251, -0.1721803992986679, 0.5130852460861206, 0.04382546991109848, -5.85726261138916, 7.936773300170898, 0.8002655506134033, -0.8854456543922424, -0.4002608358860016, -0.095947265625, 0.73583984375, -0.610107421875, 
94, 3031771615, -0.7976592183113098, 0.2661639153957367, -0.1721644550561905, 0.5130834579467773, 0.07158558070659637, -5.858020782470703, 7.938395977020264, -0.2930908501148224, -0.8493295311927795, -0.29045259952545166, -0.095947265625, 0.74072265625, -0.61279296875, 
95, 3031779948, -0.7976364493370056, 0.26621657609939575, -0.17219682037830353, 0.5130806565284729, 0.07785874605178833, -5.890324115753174, 7.942532062530518, -0.9792705774307251, -0.5206477046012878, -0.2936543822288513, -0.095947265625, 0.736328125, -0.609619140625, 
96, 3031788281, -0.7976089715957642, 0.2662651836872101, -0.17224763333797455, 0.5130810737609863, 0.09994667768478394, -5.933605194091797, 7.932652950286865, -1.0687922239303589, -0.20922985672950745, -0.26732295751571655, -0.089111328125, 0.7353515625, -0.609375, 
97, 3031796614, -0.7975844740867615, 0.2662711441516876, -0.17230236530303955, 0.5130975246429443, 0.08554084599018097, -6.002015113830566, 7.940034866333008, -0.5831977128982544, 0.12886521220207214, -0.32559534907341003, -0.094970703125, 0.736328125, -0.613037109375, 
98, 3031804947, -0.7975971102714539, 0.26621487736701965, -0.17233246564865112, 0.5130970478057861, 0.06639984250068665, -6.031327247619629, 7.926508903503418, 0.3713807761669159, 0.39632904529571533, -0.05362340062856674, -0.093994140625, 0.73828125, -0.611083984375, 
99, 3031813280, -0.7976194620132446, 0.2660944163799286, -0.17234477400779724, 0.5131207704544067, 0.044082969427108765, -6.040354251861572, 7.936551570892334, 1.292007565498352, 0.47055912017822266, 0.0708489641547203, -0.092041015625, 0.73486328125, -0.609375, 
100, 3031821613, -0.7976469993591309, 0.2659454345703125, -0.17232491075992584, 0.5131619572639465, -0.0035167220048606396, -6.0165557861328125, 7.942809104919434, 1.8945568799972534, 0.3527592718601227, -0.016918202862143517, -0.093994140625, 0.740234375, -0.611083984375, 
101, 3031829946, -0.7976804375648499, 0.26581230759620667, -0.17229317128658295, 0.5131895542144775, -0.006813830696046352, -5.975334644317627, 7.94944953918457, 1.7894105911254883, 0.06587981432676315, -0.025729501619935036, -0.093994140625, 0.73779296875, -0.611572265625, 
102, 3031838279, -0.7976948618888855, 0.2657143771648407, -0.1722724437713623, 0.5132247805595398, 0.00336898909881711, -5.9372172355651855, 7.906630992889404, 1.2801737785339355, -0.039279427379369736, -0.1273667812347412, -0.090576171875, 0.7353515625, -0.61279296875, 
103, 3031846612, -0.7977057099342346, 0.26564568281173706, -0.1722867339849472, 0.5132387280464172, 0.019062327221035957, -5.921724319458008, 7.920872211456299, 0.6426355242729187, 0.1187731996178627, -0.0188904982060194, -0.093505859375, 0.736328125, -0.609130859375, 
104, 3031854945, -0.7977079153060913, 0.2656095027923584, -0.1723245084285736, 0.5132412910461426, 0.00030757224885746837, -5.93518590927124, 7.902174949645996, 0.06780087947845459, 0.13347576558589935, 0.1364726424217224, -0.094970703125, 0.73974609375, -0.613037109375, 
105, 3031863278, -0.7977098226547241, 0.2655791640281677, -0.17236153781414032, 0.5132417678833008, -0.015829240903258324, -5.918241024017334, 7.900451183319092, -0.0023180879652500153, 0.06977317482233047, 0.05934818089008331, -0.093994140625, 0.73828125, -0.611572265625, 
106, 3031871611, -0.7977049350738525, 0.2655668258666992, -0.17240257561206818, 0.513241708278656, 0.001952674239873886, -5.924829483032227, 7.87786340713501, -0.25016140937805176, 0.05133092403411865, 0.01498432643711567, -0.091064453125, 0.73681640625, -0.61083984375, 
107, 3031879944, -0.7977003455162048, 0.2655656635761261, -0.17244121432304382, 0.5132363438606262, 0.010357316583395004, -5.920565605163574, 7.8584065437316895, -0.37111181020736694, -0.12490779161453247, 0.011859390884637833, -0.093017578125, 0.7373046875, -0.610107421875, 
108, 3031888277, -0.797696590423584, 0.2655631899833679, -0.1724722981452942, 0.5132331252098083, 0.03428357467055321, -5.904600143432617, 7.857641220092773, -0.29083681106567383, -0.1313369870185852, -0.01676451601088047, -0.092529296875, 0.7333984375, -0.61181640625, 
109, 3031896610, -0.7976879477500916, 0.26556509733200073, -0.17250466346740723, 0.5132347345352173, 0.03780277445912361, -5.940893650054932, 7.8803229331970215, -0.35932931303977966, -0.17995281517505646, -0.12260253727436066, -0.091064453125, 0.73486328125, -0.61083984375, 
110, 3031904943, -0.7976798415184021, 0.2655651271343231, -0.17252637445926666, 0.5132398009300232, 0.029791591688990593, -5.949670314788818, 7.888305187225342, -0.2482147365808487, -0.2083589881658554, -0.18179702758789062, -0.096435546875, 0.737060546875, -0.61572265625, 
111, 3031913276, -0.7976806163787842, 0.26556095480918884, -0.17253477871418, 0.5132380127906799, 0.028260882943868637, -5.948611736297607, 7.880237102508545, -0.09727004915475845, -0.4336617887020111, -0.09248019009828568, -0.094482421875, 0.7353515625, -0.610107421875, 
112, 3031921609, -0.7976852059364319, 0.26554057002067566, -0.17251557111740112, 0.513248085975647, 0.0030256526079028845, -5.968625545501709, 7.891602993011475, 0.32238078117370605, -0.5777162909507751, -0.1812591552734375, -0.090087890625, 0.73828125, -0.61376953125, 
113, 3031929942, -0.7977055311203003, 0.26549196243286133, -0.17248721420764923, 0.5132511258125305, 0.015006664209067822, -5.99082088470459, 7.8912739753723145, 0.7340527176856995, -0.5523581504821777, -0.034412723034620285, -0.094482421875, 0.73486328125, -0.609619140625, 
114, 3031938275, -0.7977339029312134, 0.2654324769973755, -0.17242513597011566, 0.5132587552070618, 0.006995640695095062, -5.952395915985107, 7.899613380432129, 1.1352227926254272, -0.8016871809959412, -0.09432441741228104, -0.086181640625, 0.73876953125, -0.6123046875, 
115, 3031946608, -0.7977600693702698, 0.26536837220191956, -0.1723606139421463, 0.5132728815078735, -0.003926910925656557, -5.925286293029785, 7.882282733917236, 1.2057387828826904, -0.8129316568374634, -0.21276460587978363, -0.093505859375, 0.73583984375, -0.611083984375, 
116, 3031954941, -0.7977818250656128, 0.26531851291656494, -0.17230255901813507, 0.5132843852043152, -0.01331144105643034, -5.901932239532471, 7.889650344848633, 0.986224889755249, -0.802583634853363, -0.18604899942874908, -0.091064453125, 0.7353515625, -0.6103515625, 
117, 3031963274, -0.7977956533432007, 0.2652902901172638, -0.17226542532444, 0.5132899880409241, -0.014241192489862442, -5.912189960479736, 7.890758514404297, 0.553421139717102, -0.7681068778038025, -0.18799567222595215, -0.092041015625, 0.73583984375, -0.60888671875, 
118, 3031971607, -0.7977954745292664, 0.2653075158596039, -0.17224997282028198, 0.5132863521575928, -0.02494911663234234, -5.85277795791626, 7.876789569854736, -0.16612112522125244, -0.7786599397659302, -0.22285664081573486, -0.094970703125, 0.7353515625, -0.609619140625, 
119, 3031979940, -0.7977704405784607, 0.26537320017814636, -0.17225386202335358, 0.5132900476455688, -0.028375327587127686, -5.871118068695068, 7.87125301361084, -0.9114953875541687, -0.8954096436500549, -0.5158835053443909, -0.090087890625, 0.737060546875, -0.60693359375, 
120, 3031988273, -0.797731876373291, 0.26548391580581665, -0.1722559928894043, 0.5132921934127808, -0.017703495919704437, -5.905023574829102, 7.881906032562256, -1.4443483352661133, -1.1823146343231201, -0.6496154069900513, -0.092529296875, 0.7373046875, -0.613037109375, 
121, 3031996606, -0.7976868152618408, 0.26562145352363586, -0.17226074635982513, 0.5132892727851868, 0.01254744827747345, -5.939653396606445, 7.859551429748535, -1.794238805770874, -1.3702720403671265, -0.7530713677406311, -0.094970703125, 0.73388671875, -0.611083984375, 
122, 3032004939, -0.7976589202880859, 0.2657443583011627, -0.17225190997123718, 0.5132719874382019, 0.048231784254312515, -5.987605094909668, 7.884653091430664, -1.505719780921936, -1.3135106563568115, -0.6548919677734375, -0.093994140625, 0.73974609375, -0.611083984375, 
123, 3032013272, -0.7976415753364563, 0.2658218443393707, -0.17222312092781067, 0.5132684111595154, 0.07004929333925247, -6.020864486694336, 7.903258800506592, -0.8016358613967896, -1.3833094835281372, -0.5283832550048828, -0.093017578125, 0.73583984375, -0.614013671875, 
124, 3032021605, -0.7976520657539368, 0.2658237814903259, -0.17217035591602325, 0.5132688283920288, 0.06789478659629822, -6.012336254119873, 7.92663049697876, 0.3144659101963043, -1.0595200061798096, -0.33271610736846924, -0.096435546875, 0.73681640625, -0.608642578125, 
125, 3032029938, -0.7976773381233215, 0.26576006412506104, -0.17211313545703888, 0.5132817625999451, 0.06735105067491531, -6.005727291107178, 7.954126358032227, 1.1425740718841553, -0.7374978065490723, -0.18138720095157623, -0.091552734375, 0.73828125, -0.611083984375, 
126, 3032038271, -0.7977023124694824, 0.26568302512168884, -0.1720612794160843, 0.513300359249115, 0.07374580949544907, -5.955357074737549, 7.955334663391113, 1.2696210145950317, -0.5778955817222595, -0.08172222971916199, -0.094970703125, 0.73828125, -0.611083984375, 
127, 3032046604, -0.7977230548858643, 0.2656191289424896, -0.17203882336616516, 0.5133087635040283, 0.06356016546487808, -5.929527759552002, 7.960735321044922, 0.8734966516494751, -0.3611223101615906, -0.03479693457484245, -0.093017578125, 0.73828125, -0.610595703125, 
128, 3032054937, -0.7977327704429626, 0.2655937373638153, -0.17204202711582184, 0.5133053660392761, 0.019813375547528267, -5.9315595626831055, 7.952208995819092, 0.20683492720127106, -0.3165535032749176, 0.04195611551403999, -0.094482421875, 0.73974609375, -0.612548828125, 
129, 3032063270, -0.7977266311645508, 0.2655961215496063, -0.17208455502986908, 0.5132995247840881, -0.015886465087532997, -5.90756893157959, 7.943117618560791, -0.44521379470825195, -0.1048518642783165, 0.012576588429510593, -0.092529296875, 0.73681640625, -0.614013671875, 
130, 3032071603, -0.7977086901664734, 0.26563435792922974, -0.17213383316993713, 0.51329106092453, -0.029634227976202965, -5.917375087738037, 7.9445624351501465, -0.9289641976356506, -0.256052702665329, -0.021656831726431847, -0.093017578125, 0.73779296875, -0.611083984375, 
131, 3032079936, -0.7976937294006348, 0.2656802833080292, -0.1721869558095932, 0.513272762298584, -0.03929056599736214, -5.976986885070801, 7.930221080780029, -1.0596481561660767, -0.32067742943763733, 0.022130697965621948, -0.093505859375, 0.73486328125, -0.610107421875, 
132, 3032088269, -0.7976880669593811, 0.26572105288505554, -0.17220459878444672, 0.513254702091217, -0.020035339519381523, -5.987343788146973, 7.905113697052002, -0.712908148765564, -0.5525118112564087, -0.12985137104988098, -0.092041015625, 0.73583984375, -0.612060546875, 
133, 3032096602, -0.797687828540802, 0.2657383978366852, -0.17219789326190948, 0.5132483243942261, -0.033554092049598694, -5.957910537719727, 7.909791469573975, -0.24009500443935394, -0.7663649916648865, -0.15444102883338928, -0.094482421875, 0.736328125, -0.613525390625, 
134, 3032104935, -0.7976970672607422, 0.2657414972782135, -0.17216721177101135, 0.5132426619529724, -0.006773742381483316, -5.928884029388428, 7.923633098602295, 0.12435711920261383, -0.9063214063644409, -0.1155330017209053, -0.093994140625, 0.736328125, -0.610595703125, 
135, 3032113268, -0.7977131605148315, 0.2657111585140228, -0.1721348762512207, 0.5132440328598022, 0.05632863938808441, -5.949877738952637, 7.937288284301758, 0.5406140089035034, -0.7222573757171631, -0.10564590245485306, -0.090576171875, 0.7333984375, -0.6123046875, 
136, 3032121601, -0.7977271676063538, 0.26565614342689514, -0.17211493849754333, 0.5132574439048767, 0.09449620544910431, -5.942589282989502, 7.9493408203125, 0.7506507635116577, -0.30395132303237915, -0.13553771376609802, -0.093994140625, 0.736328125, -0.613037109375, 
137, 3032129934, -0.7977415919303894, 0.2655748724937439, -0.1721205860376358, 0.5132752060890198, 0.10745716094970703, -5.932389259338379, 7.912568092346191, 0.8648902177810669, 0.11861952394247055, -0.038024332374334335, -0.095947265625, 0.736083984375, -0.614990234375, 
138, 3032138267, -0.7977518439292908, 0.2654716670513153, -0.17213968932628632, 0.5133062601089478, 0.10049028694629669, -5.937939643859863, 7.908769607543945, 1.0312546491622925, 0.5215314030647278, -0.07867411524057388, -0.092529296875, 0.73876953125, -0.611083984375, 
139, 3032146600, -0.7977558970451355, 0.2653661370277405, -0.17218440771102905, 0.5133394598960876, 0.07865981757640839, -5.927639484405518, 7.860909938812256, 0.8527746796607971, 0.7994970083236694, -0.07834112644195557, -0.093017578125, 0.7373046875, -0.611083984375, 
140, 3032154933, -0.7977696657180786, 0.26529088616371155, -0.17220942676067352, 0.5133485794067383, 0.03328189626336098, -5.935986042022705, 7.858248233795166, 0.6442492008209229, 0.4511178433895111, -0.05605674907565117, -0.089111328125, 0.736328125, -0.61328125, 
141, 3032163266, -0.7977725863456726, 0.26523542404174805, -0.17222270369529724, 0.5133681893348694, -0.015471826307475567, -5.937817573547363, 7.839529037475586, 0.4899747371673584, 0.05363621190190315, -0.17147450149059296, -0.093505859375, 0.73779296875, -0.608642578125, 
142, 3032171599, -0.7977795600891113, 0.26521414518356323, -0.17221149802207947, 0.5133723616600037, -0.03004194051027298, -5.900902271270752, 7.800182342529297, 0.27117791771888733, -0.4534872770309448, -0.1459883451461792, -0.093017578125, 0.734375, -0.611572265625, 
143, 3032179932, -0.7977813482284546, 0.26523444056510925, -0.17219151556491852, 0.5133657455444336, -0.023311160504817963, -5.887032985687256, 7.849106788635254, -0.17334432899951935, -0.9392611384391785, -0.19135114550590515, -0.086181640625, 0.740966796875, -0.61328125, 
144, 3032188265, -0.7977715730667114, 0.2653057277202606, -0.1721739023923874, 0.5133500099182129, -0.03424796462059021, -5.885015964508057, 7.852339744567871, -0.8082442879676819, -1.2509608268737793, -0.2345111072063446, -0.094482421875, 0.734375, -0.608642578125, 
145, 3032196598, -0.7977617383003235, 0.2653821110725403, -0.17215590178966522, 0.5133317708969116, -0.03640098497271538, -5.911803245544434, 7.874685287475586, -0.8719213008880615, -1.3274705410003662, -0.2737264931201935, -0.092529296875, 0.73681640625, -0.612060546875, 
146, 3032204931, -0.7977258563041687, 0.2654603123664856, -0.17213882505893707, 0.5133528709411621, -0.00837595947086811, -5.951236248016357, 7.9146504402160645, -0.8956656455993652, -1.3679410219192505, -0.48068946599960327, -0.091064453125, 0.73876953125, -0.612548828125, 
147, 3032213264, -0.7977157831192017, 0.2655123472213745, -0.17209525406360626, 0.5133563280105591, -0.007317406591027975, -5.995870590209961, 7.926429271697998, -0.37398064136505127, -1.3560559749603271, -0.5499248504638672, -0.091552734375, 0.7392578125, -0.613037109375, 
148, 3032221597, -0.7977223992347717, 0.2655118405818939, -0.1720348447561264, 0.5133664608001709, 0.04258795082569122, -6.0108489990234375, 7.964763164520264, 0.4027070105075836, -1.0968142747879028, -0.4694705009460449, -0.090576171875, 0.73583984375, -0.611328125, 
149, 3032229930, -0.7977426648139954, 0.2654661536216736, -0.17198190093040466, 0.5133763551712036, 0.05232304707169533, -5.992930889129639, 7.993452072143555, 0.8904019594192505, -0.8189511895179749, -0.20784670114517212, -0.091552734375, 0.734375, -0.61181640625, 
150, 3032238263, -0.7977825403213501, 0.2653878629207611, -0.171922966837883, 0.5133746266365051, 0.050413236021995544, -5.984583377838135, 8.008201599121094, 1.3394451141357422, -0.5286905765533447, -0.08110746741294861, -0.094482421875, 0.73681640625, -0.608154296875, 
151, 3032246596, -0.7978103160858154, 0.26530173420906067, -0.1718994379043579, 0.5133837461471558, 0.06516239792108536, -5.963639736175537, 8.012585639953613, 1.1526405811309814, -0.22946509718894958, 0.05622323602437973, -0.093994140625, 0.73779296875, -0.610595703125, 
152, 3032254929, -0.7978324294090271, 0.2652251422405243, -0.17191074788570404, 0.5133852362632751, 0.06940387934446335, -5.912111759185791, 8.002323150634766, 0.7664291262626648, 0.09966498613357544, 0.25288936495780945, -0.092529296875, 0.73876953125, -0.610595703125, 
153, 3032263262, -0.7978408932685852, 0.2651720941066742, -0.17198270559310913, 0.513375461101532, 0.07672140002250671, -5.889551162719727, 7.980827331542969, -0.00039702063077129424, 0.5620019435882568, 0.3975585699081421, -0.091064453125, 0.7353515625, -0.61181640625, 
154, 3032271595, -0.7978371381759644, 0.26514527201652527, -0.17208631336688995, 0.513360321521759, 0.04574955627322197, -5.878950119018555, 7.958446502685547, -0.564601719379425, 0.7599743604660034, 0.4730437099933624, -0.093505859375, 0.7373046875, -0.614013671875, 
155, 3032279928, -0.7978160381317139, 0.26514381170272827, -0.1722211390733719, 0.5133487582206726, 0.018253933638334274, -5.912926197052002, 7.945971965789795, -1.1217368841171265, 0.9497501850128174, 0.3156186044216156, -0.093017578125, 0.7373046875, -0.614013671875, 
156, 3032288261, -0.7977856993675232, 0.2651429772377014, -0.17233775556087494, 0.5133570432662964, -0.014441589824855328, -5.934399127960205, 7.877519130706787, -0.9826260209083557, 0.8232671022415161, 0.0723089873790741, -0.091064453125, 0.736328125, -0.61328125, 
157, 3032296594, -0.79776930809021, 0.265123575925827, -0.1724267303943634, 0.5133625864982605, -0.006251584738492966, -5.974011421203613, 7.831891059875488, -0.5436493158340454, 0.6239115595817566, 0.0377809964120388, -0.094482421875, 0.734619140625, -0.614990234375, 
158, 3032304927, -0.7977753281593323, 0.26507022976875305, -0.17245358228683472, 0.5133720636367798, 0.00483532203361392, -5.984626293182373, 7.819066047668457, 0.3613143563270569, 0.2638009488582611, -0.06327996402978897, -0.090576171875, 0.73828125, -0.61328125, 
159, 3032313260, -0.7977988123893738, 0.26497700810432434, -0.17243902385234833, 0.513388454914093, 0.004434783011674881, -5.994675159454346, 7.8236284255981445, 1.168213963508606, -0.045913517475128174, -0.0026766874361783266, -0.091552734375, 0.73388671875, -0.61279296875, 
160, 3032321593, -0.7978314757347107, 0.2648790776729584, -0.1723918914794922, 0.513404130935669, 0.024891957640647888, -5.938718795776367, 7.849428653717041, 1.4864965677261353, -0.30310606956481934, -0.07106669992208481, -0.092529296875, 0.73583984375, -0.60888671875, 
161, 3032329926, -0.7978633642196655, 0.26479387283325195, -0.17234575748443604, 0.5134140253067017, 0.01280358899384737, -5.90545129776001, 7.850631237030029, 1.3176730871200562, -0.4928562641143799, -0.0058528524823486805, -0.087646484375, 0.73779296875, -0.61572265625, 
162, 3032338259, -0.797881543636322, 0.264736533164978, -0.1723024696111679, 0.5134297609329224, 0.02745976485311985, -5.876682758331299, 7.865738391876221, 0.9619426131248474, -0.6106306314468384, -0.12769976258277893, -0.090087890625, 0.73779296875, -0.61083984375, 
163, 3032346592, -0.7979013919830322, 0.2647051215171814, -0.17226724326610565, 0.5134270787239075, 0.014241480268537998, -5.904743671417236, 7.847118854522705, 0.57683265209198, -0.7697206139564514, -0.04073944315314293, -0.083251953125, 0.74072265625, -0.615966796875, 
164, 3032354925, -0.7979310154914856, 0.2646752893924713, -0.17222429811954498, 0.513410747051239, 0.00939903687685728, -5.904171466827393, 7.876395225524902, 0.6229637861251831, -0.7686448097229004, 0.008939367718994617, -0.089111328125, 0.7353515625, -0.61572265625, 
165, 3032363258, -0.7979539036750793, 0.26464566588401794, -0.17219077050685883, 0.5134017467498779, -0.011809151619672775, -5.919943332672119, 7.9112653732299805, 0.5409726500511169, -0.792773425579071, 0.05192005634307861, -0.089599609375, 0.73486328125, -0.6123046875, 
166, 3032371591, -0.797999382019043, 0.26462793350219727, -0.1721433848142624, 0.5133560299873352, -0.02594303898513317, -5.923769950866699, 7.911286354064941, 0.5123615264892578, -0.7478972673416138, 0.0024845809675753117, -0.091064453125, 0.7373046875, -0.61279296875, 
167, 3032379924, -0.7980203628540039, 0.26459842920303345, -0.17212675511837006, 0.5133442282676697, -0.01773163676261902, -5.88068151473999, 7.947902202606201, 0.4057038426399231, -0.6154459714889526, 0.13037645816802979, -0.093505859375, 0.73583984375, -0.612548828125, 
168, 3032388257, -0.7980021834373474, 0.2645861506462097, -0.1721428781747818, 0.5133734345436096, 0.002982735401019454, -5.878814220428467, 7.95715856552124, -0.05344410613179207, -0.4898850917816162, 0.03731994330883026, -0.088134765625, 0.7353515625, -0.61083984375, 
169, 3032396590, -0.7979939579963684, 0.2646016478538513, -0.17217813432216644, 0.5133664011955261, 0.011895177885890007, -5.900179862976074, 7.963396072387695, -0.5478244423866272, -0.2765953242778778, -0.045862291008234024, -0.090576171875, 0.734375, -0.61328125, 
170, 3032404923, -0.7979663610458374, 0.2646162807941437, -0.17222948372364044, 0.5133845210075378, -0.016458692029118538, -5.928154468536377, 7.937195301055908, -0.6600660085678101, -0.11450842767953873, -0.10477501899003983, -0.089599609375, 0.736328125, -0.6142578125, 
171, 3032413256, -0.7979568243026733, 0.26461607217788696, -0.1722576767206192, 0.5133901834487915, -0.008984020911157131, -5.989297866821289, 7.948519229888916, -0.2995712459087372, -0.19322097301483154, -0.1835387796163559, -0.091552734375, 0.7353515625, -0.6123046875, 
172, 3032421589, -0.7979598045349121, 0.26457059383392334, -0.17225828766822815, 0.5134085416793823, 0.0026107877492904663, -6.0219855308532715, 7.931415557861328, 0.47153240442276, -0.1313369870185852, -0.17869770526885986, -0.087646484375, 0.7373046875, -0.6142578125, 
173, 3032429922, -0.7979798316955566, 0.26447275280952454, -0.1722329705953598, 0.5134361982345581, -0.016172578558325768, -6.041584491729736, 7.909220218658447, 1.308170199394226, -0.08231134712696075, -0.17849279940128326, -0.091064453125, 0.73779296875, -0.61279296875, 
174, 3032438255, -0.7980061173439026, 0.2643430829048157, -0.17219777405261993, 0.5134739279747009, 0.03119409643113613, -5.980161666870117, 7.90730619430542, 1.7793439626693726, 0.05929695442318916, -0.12559939920902252, -0.090576171875, 0.732421875, -0.61376953125, 
175, 3032446588, -0.7980414032936096, 0.26422005891799927, -0.17216843366622925, 0.5134924054145813, 0.019841985777020454, -5.922382354736328, 7.919191360473633, 1.646892786026001, -0.017993999645113945, 0.0750240907073021, -0.089599609375, 0.7373046875, -0.61669921875, 
176, 3032454921, -0.7980577349662781, 0.26415273547172546, -0.17216716706752777, 0.5135020613670349, 0.02177325449883938, -5.858800888061523, 7.908318996429443, 0.7526742815971375, -0.082772396504879, 0.08419398963451385, -0.091064453125, 0.73779296875, -0.613037109375, 
177, 3032463254, -0.7980590462684631, 0.2641594707965851, -0.17220430076122284, 0.5134840607643127, 0.013497414998710155, -5.83063268661499, 7.907932758331299, -0.4568938910961151, -0.2575126886367798, 0.16907955706119537, -0.089111328125, 0.73779296875, -0.615234375, 
178, 3032471587, -0.7980507612228394, 0.26421111822128296, -0.1722588986158371, 0.5134519338607788, 0.007746528834104538, -5.8980913162231445, 7.893441200256348, -1.134748935699463, -0.3458562195301056, 0.21446798741817474, -0.089111328125, 0.7373046875, -0.61376953125, 
179, 3032479920, -0.7980461716651917, 0.2642545998096466, -0.17230179905891418, 0.5134223103523254, 0.022581525146961212, -5.972137451171875, 7.908154487609863, -0.9481748938560486, -0.4813042879104614, 0.18918673694133759, -0.091064453125, 0.73583984375, -0.6142578125, 
180, 3032488253, -0.7980608344078064, 0.2642544209957123, -0.1723034530878067, 0.5133991241455078, 0.02794615738093853, -5.965721607208252, 7.9133405685424805, -0.09014930576086044, -0.5806106925010681, 0.20378686487674713, -0.083984375, 0.7373046875, -0.618896484375, 
181, 3032496586, -0.7980883717536926, 0.26419851183891296, -0.17227132618427277, 0.5133957862854004, 0.010121272876858711, -5.957996368408203, 7.909749507904053, 0.8520575165748596, -0.5827878713607788, 0.08877893537282944, -0.089111328125, 0.73583984375, -0.615234375, 
182, 3032504919, -0.7981274724006653, 0.2641114294528961, -0.17221541702747345, 0.5133987665176392, -0.003934280015528202, -5.932661533355713, 7.912275791168213, 1.4221534729003906, -0.5823780298233032, 0.11505913734436035, -0.089111328125, 0.736328125, -0.6181640625, 
183, 3032513252, -0.7981572151184082, 0.2640237808227539, -0.17217940092086792, 0.5134095549583435, -0.012710697948932648, -5.860532283782959, 7.93972110748291, 1.2668287754058838, -0.35507732629776, 0.009989551268517971, -0.090087890625, 0.73486328125, -0.61572265625, 
184, 3032521585, -0.798166036605835, 0.26397788524627686, -0.17216603457927704, 0.5134239792823792, -0.02190210670232773, -5.826026439666748, 7.972731113433838, 0.5880516171455383, -0.348801851272583, -0.09578442573547363, -0.088623046875, 0.736328125, -0.615234375, 
185, 3032529918, -0.7981638312339783, 0.2639625668525696, -0.17218588292598724, 0.5134285092353821, -0.03439087048172951, -5.880008697509766, 7.953553676605225, -0.05172795057296753, -0.19890734553337097, -0.1141754612326622, -0.08837890625, 0.73388671875, -0.615234375, 
186, 3032538251, -0.7981510758399963, 0.2639753818511963, -0.17221489548683167, 0.5134320855140686, -0.006680631078779697, -5.914742469787598, 7.9339823722839355, -0.4587893486022949, -0.17972229421138763, -0.25620636343955994, -0.091552734375, 0.73681640625, -0.615966796875, 
187, 3032546584, -0.7981314659118652, 0.26399892568588257, -0.17225633561611176, 0.5134366750717163, -0.007639236282557249, -5.9058661460876465, 7.923540115356445, -0.6936206817626953, -0.19565433263778687, -0.25131407380104065, -0.092529296875, 0.734375, -0.6123046875, 
188, 3032554917, -0.7981423139572144, 0.26400992274284363, -0.17227408289909363, 0.5134081244468689, -0.008261533454060555, -5.954012393951416, 7.9271955490112305, -0.3513120710849762, -0.1967557668685913, -0.12552256882190704, -0.088623046875, 0.7353515625, -0.611328125, 
189, 3032563250, -0.7981467843055725, 0.2639870047569275, -0.17229104042053223, 0.513407289981842, 0.013926585204899311, -5.977308750152588, 7.892754554748535, 0.06367699801921844, -0.21417345106601715, -0.00003842135629383847, -0.087646484375, 0.73779296875, -0.6142578125, 
190, 3032571583, -0.798162043094635, 0.2639203369617462, -0.17227518558502197, 0.513422966003418, 0.03874674066901207, -6.015477180480957, 7.899028301239014, 0.8582817316055298, -0.2696794271469116, 0.015522225759923458, -0.08642578125, 0.7333984375, -0.614501953125, 
191, 3032579916, -0.7981919050216675, 0.26381605863571167, -0.17225536704063416, 0.5134368538856506, 0.03635074943304062, -5.937882423400879, 7.887732982635498, 1.34385085105896, -0.04880792275071144, 0.07609988749027252, -0.086669921875, 0.73486328125, -0.61376953125, 
192, 3032588249, -0.7982266545295715, 0.26371195912361145, -0.17223729193210602, 0.5134423971176147, 0.014069641940295696, -5.906252861022949, 7.902096271514893, 1.3325035572052002, 0.04326243698596954, 0.1392902135848999, -0.085205078125, 0.7373046875, -0.613037109375, 
193, 3032596582, -0.7982596158981323, 0.263619601726532, -0.17222735285758972, 0.5134419202804565, 0.002253145445138216, -5.919871807098389, 7.920693397521973, 1.1211607456207275, -0.0847703218460083, 0.2628532946109772, -0.089599609375, 0.7373046875, -0.61474609375, 
194, 3032604915, -0.7982997894287109, 0.2635590434074402, -0.17220094799995422, 0.5134194493293762, 0.0036908669862896204, -5.9258012771606445, 7.926036834716797, 0.8682200908660889, -0.3391452431678772, 0.17676383256912231, -0.090087890625, 0.736328125, -0.6162109375, 
195, 3032613248, -0.7983251810073853, 0.2635177671909332, -0.17219671607017517, 0.51340252161026, -0.005986929405480623, -5.915729999542236, 7.937638759613037, 0.45275717973709106, -0.4234161078929901, 0.29054227471351624, -0.088623046875, 0.7333984375, -0.61279296875, 
196, 3032621581, -0.7983477711677551, 0.2634938061237335, -0.17219293117523193, 0.5133808851242065, -0.014670802280306816, -5.889264106750488, 7.925801753997803, 0.24354013800621033, -0.4637841582298279, 0.24945703148841858, -0.089111328125, 0.73486328125, -0.615234375, 
197, 3032629914, -0.7983570098876953, 0.26348111033439636, -0.17222563922405243, 0.5133619904518127, -0.020335208624601364, -5.866569519042969, 7.910750865936279, -0.1839486062526703, -0.18830303847789764, 0.26269960403442383, -0.086669921875, 0.7353515625, -0.61474609375, 
198, 3032638247, -0.7983575463294983, 0.26348504424095154, -0.17227542400360107, 0.5133427381515503, 0.00023644691100344062, -5.876018524169922, 7.9201507568359375, -0.516575038433075, -0.08379697054624557, 0.29108014702796936, -0.0869140625, 0.734375, -0.61767578125, 
199, 3032646580, -0.7983584403991699, 0.263476699590683, -0.1723351925611496, 0.513325572013855, -0.011794840916991234, -5.913234710693359, 7.901124477386475, -0.450285404920578, 0.10250816494226456, 0.2755067050457001, -0.093017578125, 0.73486328125, -0.614013671875, 
200, 3032654913, -0.7983595132827759, 0.26346057653427124, -0.17237912118434906, 0.5133174061775208, -0.026572812348604202, -5.945743560791016, 7.907496452331543, -0.2252131700515747, 0.04397964105010033, 0.18444809317588806, -0.08642578125, 0.73388671875, -0.615966796875, 
201, 3032663246, -0.7983700633049011, 0.263428270816803, -0.17239773273468018, 0.5133114457130432, -0.051643889397382736, -5.953103542327881, 7.896073818206787, 0.1661851406097412, -0.16192036867141724, 0.12643185257911682, -0.08642578125, 0.73583984375, -0.61572265625, 
202, 3032671579, -0.7983933091163635, 0.26340752840042114, -0.17238949239253998, 0.5132884979248047, -0.053539030253887177, -5.936959743499756, 7.885708808898926, 0.23826360702514648, -0.45873814821243286, 0.13590912520885468, -0.084716796875, 0.7373046875, -0.615478515625, 
203, 3032679912, -0.7984200716018677, 0.26336294412612915, -0.1723758578300476, 0.5132743120193481, -0.035370808094739914, -5.941215515136719, 7.922624588012695, 0.5678163170814514, -0.4979279041290283, 0.2440268099308014, -0.090087890625, 0.73583984375, -0.60986328125, 
204, 3032688245, -0.7984439134597778, 0.26332855224609375, -0.17236120998859406, 0.5132595896720886, -0.02622232213616371, -5.9187774658203125, 7.938275337219238, 0.45659932494163513, -0.6120905876159668, 0.33301061391830444, -0.085205078125, 0.73681640625, -0.614501953125, 
205, 3032696578, -0.7984685301780701, 0.2633081376552582, -0.17236854135990143, 0.5132293701171875, -0.024269595742225647, -5.917196273803711, 7.944455146789551, 0.10691381245851517, -0.49137064814567566, 0.4231983721256256, -0.0859375, 0.73388671875, -0.615966796875, 
206, 3032704911, -0.7984851598739624, 0.263310045003891, -0.1723969280719757, 0.5131931900978088, 0.006580325309187174, -5.9004807472229, 7.952495574951172, -0.3239560127258301, -0.39823731780052185, 0.5108502507209778, -0.086669921875, 0.73486328125, -0.612548828125, 
207, 3032713244, -0.7984911799430847, 0.26334530115127563, -0.1724601686000824, 0.5131443738937378, 0.00911987479776144, -5.895444869995117, 7.996971607208252, -1.0103150606155396, -0.29283472895622253, 0.565767228603363, -0.087646484375, 0.73828125, -0.61376953125, 
208, 3032721577, -0.7984874844551086, 0.26342085003852844, -0.172578364610672, 0.5130716562271118, 0.03346148133277893, -5.878622531890869, 8.007467269897461, -1.926433801651001, 0.08396345376968384, 0.785844624042511, -0.08056640625, 0.73828125, -0.617431640625, 
209, 3032729910, -0.7984623908996582, 0.26354357600212097, -0.17278683185577393, 0.5129775404930115, 0.062123171985149384, -5.864462375640869, 7.965054512023926, -3.2141897678375244, 0.593840479850769, 1.1610420942306519, -0.087158203125, 0.73486328125, -0.61279296875, 
210, 3032738243, -0.7984125018119812, 0.2636992037296295, -0.1730632483959198, 0.5128821730613708, 0.07986700534820557, -5.827942371368408, 7.9627485275268555, -4.143730163574219, 1.1851195096969604, 1.224949598312378, -0.08837890625, 0.73291015625, -0.61474609375, 
211, 3032746576, -0.7983196973800659, 0.26390111446380615, -0.1734836995601654, 0.5127808451652527, 0.05827273800969124, -5.880313873291016, 8.04196834564209, -5.841851234436035, 2.498079299926758, 1.3437995910644531, -0.084716796875, 0.73681640625, -0.613525390625, 
212, 3032754909, -0.7981659173965454, 0.2641640305519104, -0.1740247905254364, 0.5127012133598328, 0.010486958548426628, -5.869372367858887, 8.027737617492676, -7.527421951293945, 3.5822277069091797, 1.097185730934143, -0.087158203125, 0.736328125, -0.61376953125, 
213, 3032763242, -0.797920823097229, 0.26462018489837646, -0.17472000420093536, 0.5126112699508667, -0.06894511729478836, -5.749575614929199, 8.037830352783203, -11.097151756286621, 4.125941276550293, 0.5376428961753845, -0.086181640625, 0.7373046875, -0.6142578125, 
214, 3032771575, -0.7975671887397766, 0.26540741324424744, -0.17561662197113037, 0.5124478340148926, -0.03515610843896866, -5.635458469390869, 8.037540435791016, -16.71392059326172, 4.31243896484375, 0.1840895563364029, -0.081787109375, 0.739013671875, -0.612548828125, 
215, 3032779908, -0.7969462871551514, 0.26677533984184265, -0.17696921527385712, 0.5122385621070862, 0.025918927043676376, -5.4088311195373535, 8.132674217224121, -27.3883113861084, 5.383552551269531, -0.6048934459686279, -0.082275390625, 0.738525390625, -0.610595703125, 
216, 3032788241, -0.7958264946937561, 0.2694321274757385, -0.17916713654994965, 0.511824369430542, 0.01577208749949932, -4.574126720428467, 8.211138725280762, -49.79153823852539, 6.338230609893799, -2.2230005264282227, -0.082275390625, 0.74560546875, -0.608154296875, 
217, 3032796574, -0.7939893007278442, 0.27389582991600037, -0.18259850144386292, 0.5110954642295837, -0.007965577766299248, -4.185466289520264, 8.300392150878906, -81.68824005126953, 7.413673400878906, -3.394559144973755, -0.08544921875, 0.748046875, -0.6005859375, 
218, 3032804907, -0.7913464307785034, 0.280203253030777, -0.1873963177204132, 0.5100374221801758, 0.05788051337003708, -4.409933090209961, 8.454916954040527, -115.28939056396484, 10.16792106628418, -4.881451606750488, -0.080322265625, 0.756591796875, -0.588623046875, 
219, 3032813240, -0.7879630923271179, 0.288219153881073, -0.19338573515415192, 0.5085710287094116, -0.03320111706852913, -4.953398704528809, 8.21670913696289, -146.1409454345703, 11.477084159851074, -5.507945537567139, -0.0712890625, 0.7685546875, -0.57373046875, 
220, 3032821573, -0.7842158079147339, 0.29710471630096436, -0.20002344250679016, 0.5066788792610168, -0.09521429240703583, -6.222356796264648, 8.034811019897461, -162.68467712402344, 11.899115562438965, -3.3300182819366455, -0.083984375, 0.774658203125, -0.5537109375, 
221, 3032829906, -0.7802332639694214, 0.30614736676216125, -0.20696599781513214, 0.5046519041061401, 0.02723032608628273, -7.141635894775391, 7.999200344085693, -167.82374572753906, 13.99079418182373, -2.5559675693511963, -0.079345703125, 0.790771484375, -0.536865234375, 
222, 3032838239, -0.7762107849121094, 0.3148965537548065, -0.21392589807510376, 0.5025649070739746, -0.02122843638062477, -7.618062973022461, 7.7501702308654785, -165.1442108154297, 16.39601707458496, -1.5375699996948242, -0.07666015625, 0.797607421875, -0.515869140625, 
223, 3032846572, -0.7722858190536499, 0.32305970788002014, -0.2206386774778366, 0.5005242824554443, -0.010785450227558613, -7.876733303070068, 7.381947040557861, -156.6121826171875, 17.40023422241211, -0.44801560044288635, -0.07421875, 0.80810546875, -0.49853515625, 
224, 3032854905, -0.7684646844863892, 0.33063894510269165, -0.22709406912326813, 0.49856483936309814, -0.07561998069286346, -7.829259395599365, 7.111477375030518, -147.94630432128906, 18.782184600830078, 0.056659795343875885, -0.076416015625, 0.819580078125, -0.479248046875, 
225, 3032863238, -0.7644092440605164, 0.33801883459091187, -0.23371009528636932, 0.4967900216579437, -0.040659669786691666, -7.1320037841796875, 6.923947334289551, -147.4144744873047, 23.366247177124023, -2.1704771518707275, -0.076904296875, 0.829345703125, -0.463623046875, 
226, 3032871571, -0.7596514821052551, 0.34645193815231323, -0.24086707830429077, 0.494856059551239, -0.26387834548950195, -5.778081893920898, 6.9906511306762695, -165.97494506835938, 23.4107608795166, -6.129676342010498, -0.0712890625, 0.837890625, -0.44287109375, 
227, 3032879904, -0.7540687322616577, 0.35641399025917053, -0.24880990386009216, 0.49238380789756775, -0.6350590586662292, -5.262803077697754, 6.80898380279541, -192.99417114257812, 21.34733009338379, -7.478542327880859, -0.073486328125, 0.846435546875, -0.4228515625, 
228, 3032888237, -0.7474777102470398, 0.3681042492389679, -0.25763505697250366, 0.4892844557762146, -0.5652453303337097, -5.576693534851074, 6.535412788391113, -224.0033416748047, 19.224517822265625, -9.368196487426758, -0.073974609375, 0.8583984375, -0.396484375, 
229, 3032896570, -0.739780604839325, 0.38141751289367676, -0.26734864711761475, 0.48556050658226013, -0.4082548916339874, -5.960517883300781, 5.983103275299072, -254.45620727539062, 18.141759872436523, -11.66694164276123, -0.072998046875, 0.86572265625, -0.368408203125, 
230, 3032904903, -0.7308308482170105, 0.3964592516422272, -0.2778075337409973, 0.48117372393608093, -0.3826429843902588, -6.0546956062316895, 5.57816219329834, -286.06475830078125, 15.334458351135254, -15.692047119140625, -0.072998046875, 0.88134765625, -0.334228515625, 
231, 3032913236, -0.7207664251327515, 0.41279053688049316, -0.28882482647895813, 0.4761076867580414, -0.39609742164611816, -6.6363749504089355, 5.0248847007751465, -311.3628234863281, 12.945624351501465, -18.16416358947754, -0.07080078125, 0.893798828125, -0.294921875, 
232, 3032921569, -0.7098914980888367, 0.4296795427799225, -0.3000543415546417, 0.4705272614955902, -0.20874625444412231, -7.972293853759766, 4.607393741607666, -324.96484375, 11.724295616149902, -19.345947265625, -0.07470703125, 0.90185546875, -0.25, 
233, 3032929902, -0.6986451745033264, 0.4462384879589081, -0.3111072778701782, 0.4647335708141327, -0.08646270632743835, -9.127877235412598, 4.076132774353027, -323.6393737792969, 12.380685806274414, -19.386510848999023, -0.07373046875, 0.9052734375, -0.20703125, 
234, 3032938235, -0.6873586773872375, 0.4618890881538391, -0.32168319821357727, 0.4590371251106262, 0.04378168284893036, -9.990089416503906, 3.6706933975219727, -311.7269287109375, 14.398491859436035, -19.579761505126953, -0.076416015625, 0.913818359375, -0.16650390625, 
235, 3032946568, -0.6759361624717712, 0.47682487964630127, -0.33183589577674866, 0.4534667432308197, -0.03211142495274544, -9.519800186157227, 3.385854721069336, -302.56695556640625, 16.28495979309082, -21.195106506347656, -0.075927734375, 0.918701171875, -0.12548828125, 
236, 3032954901, -0.6640366911888123, 0.49159061908721924, -0.34172695875167847, 0.4479009211063385, -0.10768204927444458, -8.806800842285156, 3.1327273845672607, -302.4954833984375, 17.14190673828125, -25.107955932617188, -0.081787109375, 0.919677734375, -0.0859375, 
237, 3032963234, -0.6513465046882629, 0.5066815614700317, -0.3516682982444763, 0.4419839084148407, -0.139359712600708, -8.166838645935059, 2.7415502071380615, -312.7378234863281, 16.919294357299805, -28.00270652770996, -0.082763671875, 0.922119140625, -0.04345703125, 
238, 3032971567, -0.6376713514328003, 0.5223566889762878, -0.36186134815216064, 0.4354008436203003, -0.042988572269678116, -8.020453453063965, 2.3341774940490723, -329.6280212402344, 15.76306438446045, -29.053129196166992, -0.086181640625, 0.9189453125, -0.000732421875, 
239, 3032979900, -0.623002827167511, 0.5385308265686035, -0.3723396956920624, 0.42803481221199036, 0.08095577359199524, -8.128011703491211, 1.755124807357788, -346.7115478515625, 14.57674789428711, -28.612197875976562, -0.09033203125, 0.9130859375, 0.04443359375, 
240, 3032988233, -0.6076122522354126, 0.5548114776611328, -0.3829580247402191, 0.41992053389549255, 0.0963037759065628, -8.681374549865723, 1.012350082397461, -357.6685791015625, 13.320401191711426, -25.914825439453125, -0.09521484375, 0.9072265625, 0.0947265625, 
241, 3032996566, -0.5918940305709839, 0.5705949068069458, -0.39346033334732056, 0.41142508387565613, 0.3294827938079834, -9.6853609085083, 0.3183578848838806, -357.3108215332031, 14.024971008300781, -22.933393478393555, -0.08447265625, 0.904296875, 0.1396484375, 
242, 3033004899, -0.5757853984832764, 0.5859473943710327, -0.4037454128265381, 0.4026476740837097, 0.2724562883377075, -9.466897010803223, 0.057246044278144836, -357.2027282714844, 14.604711532592773, -22.173358917236328, -0.100341796875, 0.88623046875, 0.18701171875, 
243, 3033013232, -0.5595330595970154, 0.60061115026474, -0.4138452112674713, 0.39359864592552185, 0.14296592772006989, -9.587575912475586, -0.49050235748291016, -353.3470458984375, 15.550609588623047, -18.533397674560547, -0.10205078125, 0.871337890625, 0.232177734375, 
244, 3033021565, -0.543620228767395, 0.6140111088752747, -0.4236283600330353, 0.3847144544124603, 0.39631739258766174, -10.716470718383789, -0.9910034537315369, -338.20404052734375, 19.38945198059082, -13.339079856872559, -0.101806640625, 0.85888671875, 0.275390625, 
245, 3033029898, -0.5283481478691101, 0.6259368658065796, -0.4329241216182709, 0.3763333857059479, 0.4765627980232239, -10.94200325012207, -1.3090181350708008, -316.2166748046875, 24.055233001708984, -9.283896446228027, -0.10205078125, 0.84375, 0.31494140625, 
246, 3033038231, -0.5137456655502319, 0.6364709734916687, -0.4417129158973694, 0.3685897886753082, 0.4630996286869049, -10.500765800476074, -1.6348627805709839, -293.9577331542969, 29.074445724487305, -6.480477333068848, -0.105224609375, 0.822998046875, 0.354736328125, 
247, 3033046564, -0.49996882677078247, 0.6455283164978027, -0.45006465911865234, 0.36161428689956665, 0.5689294338226318, -10.57206916809082, -2.0695433616638184, -269.3702087402344, 35.179569244384766, -2.62528395652771, -0.105712890625, 0.808837890625, 0.385986328125, 
248, 3033054897, -0.4869832396507263, 0.6533235311508179, -0.45795196294784546, 0.3553790748119354, 0.5920961499214172, -10.258445739746094, -2.519047498703003, -246.81785583496094, 39.93466567993164, -0.04307270795106888, -0.109375, 0.79150390625, 0.417236328125, 
249, 3033063230, -0.4742298126220703, 0.6606506109237671, -0.4654993414878845, 0.34922197461128235, 0.3368898630142212, -8.660332679748535, -2.8065903186798096, -239.40045166015625, 39.18912124633789, 0.41369134187698364, -0.109375, 0.777099609375, 0.440673828125, 
250, 3033071563, -0.4610925316810608, 0.66817706823349, -0.47289401292800903, 0.3424954414367676, 0.022979704663157463, -7.415255069732666, -3.240335464477539, -247.14381408691406, 34.51113510131836, -0.330736368894577, -0.11328125, 0.7578125, 0.468994140625, 
251, 3033079896, -0.4473825693130493, 0.676023542881012, -0.4801437556743622, 0.33511480689048767, 0.10767310857772827, -7.6474809646606445, -3.772465467453003, -257.9657287597656, 29.805620193481445, -2.3414463996887207, -0.115234375, 0.73974609375, 0.493408203125, 
252, 3033088229, -0.4330877661705017, 0.6841930747032166, -0.4872407913208008, 0.32697081565856934, 0.03804526478052139, -7.727787971496582, -4.180202007293701, -269.7662353515625, 24.130037307739258, -3.8472378253936768, -0.11669921875, 0.719970703125, 0.523681640625, 
253, 3033096562, -0.4183071553707123, 0.6925368309020996, -0.4940941631793976, 0.3182477056980133, 0.04105112701654434, -7.787534713745117, -4.6714348793029785, -278.12298583984375, 19.715782165527344, -6.089574337005615, -0.119140625, 0.696044921875, 0.55078125, 
254, 3033104895, -0.40376871824264526, 0.700381875038147, -0.5005597472190857, 0.30963683128356934, 0.34014466404914856, -8.923995018005371, -5.245074272155762, -270.5220031738281, 19.073083877563477, -5.934908390045166, -0.117919921875, 0.673828125, 0.577880859375, 
255, 3033113228, -0.3900371193885803, 0.7072943449020386, -0.5065146684646606, 0.3017408847808838, 0.6504839658737183, -9.678854942321777, -5.73764705657959, -250.44020080566406, 21.557296752929688, -5.0133562088012695, -0.114990234375, 0.65087890625, 0.60498046875, 
256, 3033121561, -0.37732723355293274, 0.7132472991943359, -0.511968731880188, 0.2946004867553711, 0.5537068843841553, -9.168643951416016, -5.974031448364258, -228.042724609375, 23.065505981445312, -2.9689934253692627, -0.122314453125, 0.627685546875, 0.622802734375, 
257, 3033129894, -0.3659886121749878, 0.7180260419845581, -0.5169321894645691, 0.28856682777404785, 0.5923752784729004, -9.410316467285156, -6.301754951477051, -198.6848907470703, 26.497323989868164, 0.25563913583755493, -0.12841796875, 0.605712890625, 0.642578125, 
258, 3033138227, -0.3560298979282379, 0.7217740416526794, -0.5214009881019592, 0.28359243273735046, 0.6101740598678589, -9.134398460388184, -6.497587203979492, -170.40957641601562, 28.723304748535156, 2.8831372261047363, -0.12451171875, 0.591552734375, 0.660400390625, 
259, 3033146560, -0.34735623002052307, 0.7246514558792114, -0.5254164934158325, 0.27957144379615784, 0.4766862690448761, -8.626199722290039, -6.708404064178467, -144.75363159179688, 30.173433303833008, 4.929374694824219, -0.12890625, 0.575439453125, 0.67236328125, 
260, 3033154893, -0.33959662914276123, 0.7271140813827515, -0.5288941860198975, 0.27613234519958496, 0.3496531844139099, -7.890214920043945, -6.842905521392822, -127.423583984375, 28.36699867248535, 3.3420803546905518, -0.132080078125, 0.55712890625, 0.680908203125, 
261, 3033163226, -0.33257347345352173, 0.7293123006820679, -0.5319375395774841, 0.27301979064941406, 0.23954346776008606, -7.542459011077881, -7.102356433868408, -114.7686538696289, 25.276601791381836, 2.152223825454712, -0.134521484375, 0.547119140625, 0.6875, 
262, 3033171559, -0.3257863521575928, 0.7316524982452393, -0.5345708727836609, 0.2697790563106537, 0.12239135801792145, -6.544381618499756, -7.195155143737793, -112.47657012939453, 19.83003807067871, -1.4856683015823364, -0.137939453125, 0.536376953125, 0.697265625, 
263, 3033179892, -0.31872984766960144, 0.7344867587089539, -0.5369166135787964, 0.2658195197582245, -0.10552168637514114, -5.477295398712158, -7.229515552520752, -121.58906555175781, 11.483036041259766, -5.831066608428955, -0.1318359375, 0.525634765625, 0.70458984375, 
264, 3033188225, -0.3113804757595062, 0.737758219242096, -0.5390430688858032, 0.2611253559589386, -0.10280144214630127, -5.688590049743652, -7.415824890136719, -131.1079559326172, 3.6387879848480225, -9.087390899658203, -0.138671875, 0.50830078125, 0.715087890625, 
265, 3033196558, -0.30401611328125, 0.7412225008010864, -0.5409187078475952, 0.25606435537338257, 0.011142651550471783, -6.521880149841309, -7.506816864013672, -133.88302612304688, -1.7113523483276367, -11.581262588500977, -0.137939453125, 0.49658203125, 0.72705078125, 
266, 3033204891, -0.2970323860645294, 0.7446030974388123, -0.5423917770385742, 0.2512924373149872, 0.2324266880750656, -7.246736526489258, -7.663198471069336, -126.1008529663086, -3.0104966163635254, -14.897154808044434, -0.141357421875, 0.479736328125, 0.736083984375, 
267, 3033213224, -0.291034996509552, 0.7474902868270874, -0.5435777306556702, 0.24714164435863495, 0.26854103803634644, -7.707167148590088, -7.962688446044922, -108.34419250488281, -3.4490315914154053, -13.317890167236328, -0.13916015625, 0.467041015625, 0.741455078125, 
268, 3033221557, -0.2863267660140991, 0.7497625350952148, -0.5443326234817505, 0.2440778911113739, 0.5593181848526001, -8.10544490814209, -8.166687965393066, -83.05392456054688, -1.5718145370483398, -13.089583396911621, -0.14111328125, 0.4541015625, 0.7490234375, 
269, 3033229890, -0.28295138478279114, 0.7513372898101807, -0.5448212027549744, 0.24207325279712677, 0.649558961391449, -7.827386856079102, -8.218094825744629, -57.730194091796875, 0.6870527267456055, -10.344917297363281, -0.140380859375, 0.4462890625, 0.753173828125, 
270, 3033238223, -0.2802269756793976, 0.7526236176490784, -0.5451542735099792, 0.24049162864685059, 0.3778386414051056, -6.533941745758057, -7.995630741119385, -46.2081298828125, 0.510108470916748, -9.23644733428955, -0.146240234375, 0.441162109375, 0.7578125, 
271, 3033246556, -0.2775256335735321, 0.7539831399917603, -0.5453751087188721, 0.23885945975780487, 0.27108386158943176, -5.850532531738281, -7.947063446044922, -46.24570846557617, -0.8329893946647644, -10.708423614501953, -0.143798828125, 0.437744140625, 0.760498046875, 
272, 3033254889, -0.2742101550102234, 0.7557445764541626, -0.5456462502479553, 0.23649094998836517, 0.0943884328007698, -5.367376804351807, -7.7049241065979, -59.84313201904297, -5.016448974609375, -12.375571250915527, -0.145263671875, 0.427490234375, 0.7646484375, 
273, 3033263222, -0.2698170244693756, 0.7581409215927124, -0.5459298491477966, 0.2331964671611786, 0.06412065774202347, -4.970064163208008, -7.611290454864502, -80.41705322265625, -8.545485496520996, -17.05550765991211, -0.139892578125, 0.423583984375, 0.771728515625, 
274, 3033271555, -0.2641277611255646, 0.7612310647964478, -0.5463663339614868, 0.22857509553432465, -0.053712569177150726, -4.567259788513184, -7.607595443725586, -106.95980834960938, -14.332429885864258, -19.87384796142578, -0.13916015625, 0.41064453125, 0.775146484375, 
275, 3033279888, -0.2575216591358185, 0.7647258639335632, -0.5469115972518921, 0.22307723760604858, 0.20019149780273438, -5.41306734085083, -7.797478675842285, -124.95195007324219, -17.470582962036133, -21.503013610839844, -0.142578125, 0.39501953125, 0.784423828125, 
276, 3033288221, -0.25063586235046387, 0.7682302594184875, -0.5475053787231445, 0.21734900772571564, 0.25997716188430786, -6.586191654205322, -8.03740119934082, -129.80596923828125, -17.67049789428711, -21.080419540405273, -0.142822265625, 0.381103515625, 0.792236328125, 
277, 3033296554, -0.24421298503875732, 0.7713310718536377, -0.5481489300727844, 0.21199063956737518, 0.4289475977420807, -7.403921127319336, -8.338043212890625, -120.89209747314453, -15.845955848693848, -17.434419631958008, -0.14306640625, 0.3642578125, 0.798828125, 
278, 3033304887, -0.23900647461414337, 0.7737890481948853, -0.5486213564872742, 0.20770122110843658, 0.6380466818809509, -8.198180198669434, -8.558574676513672, -97.27046966552734, -12.402506828308105, -14.422590255737305, -0.13916015625, 0.35107421875, 0.8046875, 
279, 3033313220, -0.23555412888526917, 0.7754021286964417, -0.5489553213119507, 0.20472584664821625, 0.5879018902778625, -8.519240379333496, -8.714118957519531, -65.52125549316406, -9.672986030578613, -8.856246948242188, -0.136474609375, 0.338134765625, 0.80908203125, 
280, 3033321553, -0.23376041650772095, 0.7762497663497925, -0.5491639971733093, 0.2030029296875, 0.626952052116394, -8.019051551818848, -8.68993091583252, -35.55238342285156, -7.112504482269287, -3.7759907245635986, -0.13720703125, 0.33203125, 0.81005859375, 
281, 3033329886, -0.23306044936180115, 0.7766625285148621, -0.5491989254951477, 0.20213329792022705, 0.5272104740142822, -6.8618035316467285, -8.523333549499512, -15.54588508605957, -5.5839433670043945, -2.0597054958343506, -0.13330078125, 0.326904296875, 0.81640625, 
282, 3033338219, -0.2328430414199829, 0.7768868803977966, -0.549157440662384, 0.20163282752037048, 0.42048579454421997, -6.192477226257324, -8.266709327697754, -6.795776844024658, -5.031673431396484, -1.2737832069396973, -0.13427734375, 0.327880859375, 0.814697265625, 
283, 3033346552, -0.23248910903930664, 0.7772281169891357, -0.5490567088127136, 0.2009993940591812, 0.2394368201494217, -5.443918704986572, -8.073531150817871, -9.460221290588379, -5.9102935791015625, -2.7649927139282227, -0.1357421875, 0.326904296875, 0.817626953125, 
284, 3033354885, -0.23167003691196442, 0.777850866317749, -0.5488747954368591, 0.20003032684326172, 0.18499577045440674, -5.054794788360596, -7.961126327514648, -17.650888442993164, -7.0476179122924805, -5.946640968322754, -0.1337890625, 0.325927734375, 0.81787109375, 
285, 3033363218, -0.2303438037633896, 0.7787672877311707, -0.5486177206039429, 0.1986975073814392, 0.24100390076637268, -5.123910427093506, -7.989123821258545, -26.53999137878418, -8.132819175720215, -9.226292610168457, -0.13623046875, 0.3203125, 0.81689453125, 
286, 3033371551, -0.22858688235282898, 0.779918909072876, -0.5482962727546692, 0.1970902383327484, 0.3276068866252899, -5.244222164154053, -8.000001907348633, -33.800140380859375, -8.692086219787598, -11.97857666015625, -0.1328125, 0.3203125, 0.818359375, 
287, 3033379884, -0.22662851214408875, 0.7811703681945801, -0.5479085445404053, 0.19546706974506378, 0.45820489525794983, -5.545648574829102, -8.02637004852295, -36.20640182495117, -7.801044464111328, -13.956871032714844, -0.13427734375, 0.3125, 0.822509765625, 
288, 3033388217, -0.22482067346572876, 0.7823110222816467, -0.547519862651825, 0.19407744705677032, 0.5383893251419067, -6.040002346038818, -8.091765403747559, -32.48844909667969, -6.1534295082092285, -13.437689781188965, -0.134521484375, 0.30859375, 0.822509765625, 
289, 3033396550, -0.22351045906543732, 0.7831924557685852, -0.5471001863479614, 0.19321732223033905, 0.6311054825782776, -6.476244926452637, -8.146771430969238, -22.25922966003418, -3.5861363410949707, -12.14500904083252, -0.131591796875, 0.30712890625, 0.8251953125, 
290, 3033404883, -0.22296109795570374, 0.7836613059043884, -0.5467138886451721, 0.19304393231868744, 0.7318039536476135, -6.660386085510254, -8.201765060424805, -7.726983070373535, -0.7352182865142822, -8.75045108795166, -0.131103515625, 0.301025390625, 0.826171875, 
291, 3033413216, -0.2233944833278656, 0.7835968732833862, -0.5463842749595642, 0.19373701512813568, 0.7940079569816589, -6.820364475250244, -8.247016906738281, 10.872116088867188, 2.8244051933288574, -4.200030326843262, -0.130126953125, 0.303466796875, 0.82275390625, 
292, 3033421549, -0.22468839585781097, 0.7830587029457092, -0.5461313128471375, 0.19512411952018738, 0.7452329993247986, -6.494098663330078, -8.228777885437012, 26.598222732543945, 5.312267780303955, 0.36884525418281555, -0.136474609375, 0.305419921875, 0.823974609375, 
293, 3033429882, -0.22651700675487518, 0.7822802066802979, -0.5458576679229736, 0.1968902349472046, 0.6393560767173767, -5.761911869049072, -8.135506629943848, 36.01268768310547, 5.981649398803711, 2.1902501583099365, -0.1357421875, 0.3115234375, 0.823486328125, 
294, 3033438215, -0.2284012734889984, 0.7814676761627197, -0.5456498265266418, 0.1985095590353012, 0.4377661347389221, -5.220380783081055, -7.989091396331787, 35.422706604003906, 4.258729934692383, 3.7847375869750977, -0.13818359375, 0.310302734375, 0.81982421875, 
295, 3033446548, -0.2298717498779297, 0.7808858156204224, -0.5454458594322205, 0.19965927302837372, 0.31954124569892883, -4.854211807250977, -7.963830471038818, 26.731033325195312, 1.7217386960983276, 2.4192919731140137, -0.13671875, 0.31689453125, 0.8203125, 
296, 3033454881, -0.2306753545999527, 0.7806767821311951, -0.5452352166175842, 0.20012493431568146, 0.36117810010910034, -4.6455512046813965, -7.935431480407715, 13.267879486083984, -1.687056064605713, -0.0967961922287941, -0.13720703125, 0.3212890625, 0.817626953125, 
297, 3033463214, -0.23085787892341614, 0.7807946801185608, -0.5449960231781006, 0.20010577142238617, 0.38700273633003235, -5.042412281036377, -7.949049949645996, 2.0177102088928223, -3.205096483230591, -3.045443058013916, -0.1328125, 0.322998046875, 0.8203125, 
298, 3033471547, -0.23069997131824493, 0.7810914516448975, -0.5447220206260681, 0.19987526535987854, 0.4714091718196869, -5.6416544914245605, -8.053332328796387, -3.7021923065185547, -3.544997453689575, -5.00754451751709, -0.13720703125, 0.31982421875, 0.81982421875, 
299, 3033479880, -0.23069067299365997, 0.7813316583633423, -0.5444108247756958, 0.19979549944400787, 0.4813956618309021, -6.231656551361084, -8.191170692443848, -0.6877294778823853, -2.982585906982422, -5.07135009765625, -0.13623046875, 0.31689453125, 0.8173828125, 
300, 3033488213, -0.23118381202220917, 0.7813303470611572, -0.5440687537193298, 0.2001620978116989, 0.5449113845825195, -6.698483943939209, -8.21174144744873, 8.89613151550293, -1.4026225805282593, -3.6139252185821533, -0.1318359375, 0.322509765625, 0.818359375, 
301, 3033496546, -0.23248596489429474, 0.7809026837348938, -0.5437255501747131, 0.20125249028205872, 0.6609819531440735, -7.142358303070068, -8.296232223510742, 24.371061325073242, 1.5127007961273193, -0.5284348130226135, -0.13623046875, 0.32177734375, 0.81787109375, 
302, 3033504879, -0.23493272066116333, 0.7799054980278015, -0.5433081984519958, 0.20339441299438477, 0.785422146320343, -7.646461009979248, -8.300239562988281, 46.538875579833984, 5.564754486083984, 2.7582998275756836, -0.1318359375, 0.330810546875, 0.81787109375, 
303, 3033513212, -0.2387523353099823, 0.7781906127929688, -0.5428298115730286, 0.2067641019821167, 0.6799523234367371, -7.84285831451416, -8.400137901306152, 72.93690490722656, 10.305374145507812, 7.321146488189697, -0.138427734375, 0.332763671875, 0.81103515625, 
304, 3033521545, -0.24418829381465912, 0.7756581902503967, -0.5422123074531555, 0.2114967703819275, 0.7178935408592224, -8.030027389526367, -8.514239311218262, 103.47038269042969, 14.67348861694336, 12.074796676635742, -0.135986328125, 0.3466796875, 0.809814453125, 
305, 3033529878, -0.2512262463569641, 0.7723268866539001, -0.5413517951965332, 0.21756282448768616, 0.7159686088562012, -8.014305114746094, -8.570847511291504, 133.90838623046875, 18.47902488708496, 15.602679252624512, -0.1396484375, 0.35693359375, 0.80029296875, 
306, 3033538211, -0.25961506366729736, 0.7682812809944153, -0.540293276309967, 0.22455641627311707, 0.6462072134017944, -7.401366233825684, -8.511474609375, 158.1981964111328, 19.70880889892578, 19.674226760864258, -0.142333984375, 0.377685546875, 0.791748046875, 
307, 3033546544, -0.2688608467578888, 0.7637575268745422, -0.5390245318412781, 0.23203368484973907, 0.5115849375724792, -6.798814296722412, -8.292537689208984, 173.2281036376953, 19.194419860839844, 21.906375885009766, -0.1435546875, 0.397705078125, 0.780517578125, 
308, 3033554877, -0.27845999598503113, 0.7590107917785645, -0.53753262758255, 0.2396247386932373, 0.35396915674209595, -6.543320178985596, -8.07401180267334, 179.29420471191406, 17.642929077148438, 21.943300247192383, -0.147216796875, 0.419677734375, 0.771484375, 
309, 3033563210, -0.28801143169403076, 0.7541831135749817, -0.5359821915626526, 0.24693909287452698, 0.3101906478404999, -6.36826229095459, -7.737553119659424, 177.28048706054688, 15.16441535949707, 22.81073760986328, -0.146240234375, 0.440673828125, 0.7587890625, 
310, 3033571543, -0.2972622215747833, 0.7493780851364136, -0.5343616604804993, 0.25401571393013, 0.44112733006477356, -6.516054153442383, -7.428043842315674, 172.53346252441406, 14.54761028289795, 21.858469009399414, -0.1455078125, 0.4609375, 0.74462890625, 
311, 3033579876, -0.3061634600162506, 0.7445134520530701, -0.5328848361968994, 0.26076066493988037, 0.4178144335746765, -6.651602268218994, -7.105881214141846, 166.25857543945312, 14.50743293762207, 23.89277458190918, -0.148193359375, 0.4814453125, 0.7314453125, 
312, 3033588209, -0.31482985615730286, 0.7395427823066711, -0.5314374566078186, 0.2674543261528015, 0.47898197174072266, -7.201297283172607, -6.889761447906494, 163.79930114746094, 16.19361114501953, 24.362829208374023, -0.1455078125, 0.498779296875, 0.720947265625, 
313, 3033596542, -0.3235507309436798, 0.7342652678489685, -0.5300538539886475, 0.27424687147140503, 0.6200866103172302, -7.6949663162231445, -6.674049377441406, 166.18984985351562, 18.219276428222656, 27.00787353515625, -0.1435546875, 0.515625, 0.710205078125, 
314, 3033604875, -0.33274197578430176, 0.7284883260726929, -0.5285179615020752, 0.28152281045913696, 0.5023400783538818, -8.390236854553223, -6.557076454162598, 177.24107360839844, 20.866979598999023, 28.754262924194336, -0.142333984375, 0.53564453125, 0.693115234375, 
315, 3033613208, -0.3427547812461853, 0.7219694256782532, -0.5268214344978333, 0.28937438130378723, 0.5143544673919678, -8.978596687316895, -6.390185356140137, 193.6922607421875, 22.80944061279297, 33.062095642089844, -0.147216796875, 0.5576171875, 0.6748046875, 
316, 3033621541, -0.35384082794189453, 0.7145877480506897, -0.5246832370758057, 0.2981066107749939, 0.6455978751182556, -9.37021255493164, -6.203469276428223, 216.53504943847656, 25.119752883911133, 35.06987762451172, -0.1455078125, 0.579833984375, 0.66064453125, 
317, 3033629874, -0.36603325605392456, 0.7062702775001526, -0.5220090746879578, 0.30774572491645813, 0.6059959530830383, -9.491669654846191, -6.032222747802734, 240.72247314453125, 27.288259506225586, 36.65815734863281, -0.1474609375, 0.601806640625, 0.635986328125, 
318, 3033638207, -0.37927427887916565, 0.696946382522583, -0.5187897682189941, 0.3182342052459717, 0.5213168859481812, -9.47117805480957, -5.821439743041992, 264.3611755371094, 29.517288208007812, 38.771018981933594, -0.148681640625, 0.627685546875, 0.61474609375, 
319, 3033646540, -0.39339113235473633, 0.6866411566734314, -0.5150500535964966, 0.3293781876564026, 0.5771932601928711, -9.31495475769043, -5.555265426635742, 284.8524169921875, 31.140243530273438, 41.176612854003906, -0.14453125, 0.654541015625, 0.58544921875, 
320, 3033654873, -0.40819233655929565, 0.6754246354103088, -0.5107760429382324, 0.3410094678401947, 0.49527353048324585, -9.063576698303223, -5.2999396324157715, 302.0985412597656, 32.12640380859375, 43.073272705078125, -0.1435546875, 0.682861328125, 0.5517578125, 
321, 3033663206, -0.42349791526794434, 0.6634185910224915, -0.5061883926391602, 0.3525586724281311, 0.053308069705963135, -8.49601936340332, -4.938416004180908, 312.1331481933594, 29.76970863342285, 48.51231002807617, -0.14453125, 0.70751953125, 0.519775390625, 
322, 3033671539, -0.4387950897216797, 0.6509366035461426, -0.501197338104248, 0.36406126618385315, 0.023683536797761917, -8.250497817993164, -4.836597919464111, 316.4425964355469, 29.357025146484375, 48.394691467285156, -0.14111328125, 0.73828125, 0.482421875, 
323, 3033679872, -0.45373860001564026, 0.6383811831474304, -0.4959224760532379, 0.3750343918800354, 0.6403675079345703, -7.98072624206543, -4.3562211990356445, 311.50921630859375, 25.714271545410156, 47.76497268676758, -0.138671875, 0.762451171875, 0.447021484375, 
324, 3033688205, -0.46804818511009216, 0.6259902119636536, -0.49052149057388306, 0.3852981925010681, 0.19699683785438538, -7.571545600891113, -3.8615002632141113, 300.716796875, 22.174501419067383, 46.712158203125, -0.13720703125, 0.781982421875, 0.41455078125, 
325, 3033696538, -0.4814506769180298, 0.6141388416290283, -0.48511072993278503, 0.39459505677223206, -0.10423208773136139, -7.510051727294922, -3.262446403503418, 282.9710388183594, 17.047510147094727, 44.385643005371094, -0.13720703125, 0.8046875, 0.375244140625, 
326, 3033704871, -0.49384528398513794, 0.6030275821685791, -0.4797815680503845, 0.40284377336502075, -0.05549139901995659, -7.575142860412598, -2.713012456893921, 262.1151123046875, 11.440719604492188, 41.62387466430664, -0.132080078125, 0.820556640625, 0.34375, 
327, 3033713204, -0.5052703022956848, 0.5927324891090393, -0.47456151247024536, 0.4100736975669861, -0.1274089366197586, -7.839130878448486, -2.1787049770355225, 241.20864868164062, 5.610325336456299, 38.67461395263672, -0.127197265625, 0.837890625, 0.31591796875, 
328, 3033721537, -0.5158056616783142, 0.5832948088645935, -0.4694155752658844, 0.4163646399974823, -0.26930752396583557, -8.2015380859375, -1.746024489402771, 221.4481658935547, -0.5586841106414795, 35.208377838134766, -0.12353515625, 0.84814453125, 0.285888671875, 
329, 3033729870, -0.5256665945053101, 0.5745369791984558, -0.46432578563690186, 0.42187944054603577, -0.1910141110420227, -8.609633445739746, -1.4476873874664307, 205.88473510742188, -5.924761772155762, 32.89417266845703, -0.117431640625, 0.859130859375, 0.26220703125, 
330, 3033738203, -0.5351592302322388, 0.5661545991897583, -0.459197998046875, 0.4268600046634674, -0.12107677757740021, -9.214800834655762, -1.1286711692810059, 197.0722198486328, -10.246118545532227, 31.939693450927734, -0.112060546875, 0.86962890625, 0.230712890625, 
331, 3033746536, -0.5444247722625732, 0.5580006241798401, -0.45392173528671265, 0.4314984679222107, -0.15955132246017456, -9.555721282958984, -0.8344070315361023, 192.32904052734375, -13.908985137939453, 30.50745391845703, -0.111328125, 0.876953125, 0.2080078125, 
332, 3033754869, -0.5535968542098999, 0.5498889088630676, -0.4484564960002899, 0.435933917760849, -0.15698355436325073, -9.799980163574219, -0.5511341691017151, 191.15426635742188, -16.548870086669922, 29.77679443359375, -0.104736328125, 0.887939453125, 0.181884765625, 
333, 3033763202, -0.5629069805145264, 0.5415090918540955, -0.4427671432495117, 0.44029515981674194, -0.1175379678606987, -10.217007637023926, -0.23972254991531372, 195.12181091308594, -18.060977935791016, 31.108592987060547, -0.102783203125, 0.8935546875, 0.16259765625, 
334, 3033771535, -0.5724765062332153, 0.5326606631278992, -0.43673890829086304, 0.4447486996650696, -0.22941182553768158, -10.562085151672363, 0.004996657371520996, 203.30242919921875, -18.735788345336914, 32.31505584716797, -0.09619140625, 0.8994140625, 0.1318359375, 
335, 3033779868, -0.582304060459137, 0.5233167409896851, -0.430350124835968, 0.449287474155426, -0.2251535952091217, -10.396686553955078, 0.29477718472480774, 211.80462646484375, -19.473363876342773, 33.53829574584961, -0.095947265625, 0.9052734375, 0.1064453125, 
336, 3033788201, -0.5923360586166382, 0.5134747624397278, -0.4236399233341217, 0.4538828134536743, -0.260575532913208, -10.16231918334961, 0.5733588337898254, 219.59413146972656, -19.769384384155273, 35.00175094604492, -0.089111328125, 0.9091796875, 0.07568359375, 
337, 3033796534, -0.6024876236915588, 0.5032278299331665, -0.4166575074195862, 0.45843827724456787, -0.3484707474708557, -9.95025634765625, 0.8745832443237305, 225.1947479248047, -20.441116333007812, 36.491363525390625, -0.08349609375, 0.9140625, 0.046875, 
338, 3033804867, -0.6125450134277344, 0.4928019344806671, -0.40949776768684387, 0.4628664255142212, -0.44764408469200134, -9.601632118225098, 1.196869134902954, 226.42657470703125, -21.12057876586914, 36.76798629760742, -0.074951171875, 0.92041015625, 0.01611328125, 
339, 3033813200, -0.6222779154777527, 0.4824845790863037, -0.4022924304008484, 0.4670531153678894, -0.49184712767601013, -9.163259506225586, 1.5461655855178833, 222.23207092285156, -22.005783081054688, 35.798892974853516, -0.07373046875, 0.92333984375, -0.01318359375, 
340, 3033821533, -0.631480872631073, 0.4725759029388428, -0.3951854705810547, 0.47088345885276794, -0.5773438811302185, -8.82919692993164, 1.8885847330093384, 212.6284637451172, -23.21853256225586, 33.85398864746094, -0.0703125, 0.921142578125, -0.041015625, 
341, 3033829866, -0.6400523781776428, 0.4632563591003418, -0.3883037865161896, 0.47428444027900696, -0.6726866364479065, -8.6245756149292, 2.2466206550598145, 199.59982299804688, -24.439212799072266, 31.738191604614258, -0.059326171875, 0.92333984375, -0.069091796875, 
342, 3033838199, -0.6479172110557556, 0.4547182023525238, -0.3816927969455719, 0.47722530364990234, -0.7537834048271179, -8.390458106994629, 2.587831735610962, 184.0107421875, -26.306549072265625, 28.74790382385254, -0.068359375, 0.923583984375, -0.09765625, 
343, 3033846532, -0.6550601124763489, 0.4470738470554352, -0.3753731846809387, 0.47970321774482727, -0.8166154623031616, -8.274552345275879, 2.930136203765869, 167.17697143554688, -28.684803009033203, 25.24701499938965, -0.060302734375, 0.922119140625, -0.117919921875, 
344, 3033854865, -0.6615191102027893, 0.4403432011604309, -0.36935606598854065, 0.4817315340042114, -0.7862183451652527, -8.25074577331543, 3.2193050384521484, 150.43443298339844, -31.215330123901367, 21.94292449951172, -0.05908203125, 0.921142578125, -0.13818359375, 
345, 3033863198, -0.6673988103866577, 0.43437179923057556, -0.3636181950569153, 0.4834052622318268, -0.718442976474762, -8.447455406188965, 3.4896109104156494, 136.35653686523438, -32.91621398925781, 19.151151657104492, -0.055908203125, 0.919677734375, -0.15673828125, 
346, 3033871531, -0.6729302406311035, 0.4288181662559509, -0.35801956057548523, 0.48487189412117004, -0.6457516551017761, -8.866100311279297, 3.729196548461914, 128.49246215820312, -33.90670394897461, 17.493722915649414, -0.04833984375, 0.9189453125, -0.173095703125, 
347, 3033879864, -0.6783034205436707, 0.42331668734550476, -0.35242363810539246, 0.48631662130355835, -0.5640822052955627, -9.253294944763184, 3.934070587158203, 126.93940734863281, -33.5845832824707, 16.387651443481445, -0.053466796875, 0.91650390625, -0.1904296875, 
348, 3033888197, -0.6836807727813721, 0.4175051152706146, -0.34672635793685913, 0.48790326714515686, -0.4357820153236389, -9.502607345581055, 4.100010871887207, 131.230224609375, -31.646148681640625, 16.01771354675293, -0.0537109375, 0.9150390625, -0.208251953125, 
349, 3033896530, -0.6892417073249817, 0.41103631258010864, -0.34080538153648376, 0.48974013328552246, -0.3480798304080963, -9.800978660583496, 4.179518222808838, 141.150634765625, -28.78195571899414, 16.734039306640625, -0.050048828125, 0.909423828125, -0.222900390625, 
350, 3033904863, -0.6950061917304993, 0.40391117334365845, -0.33474424481391907, 0.49169832468032837, -0.36717498302459717, -9.424646377563477, 4.367064476013184, 150.04652404785156, -25.949384689331055, 19.24936866760254, -0.0517578125, 0.9072265625, -0.24267578125, 
351, 3033913196, -0.7008410692214966, 0.39627766609191895, -0.32855135202407837, 0.49380019307136536, -0.4626592695713043, -9.04712200164795, 4.5045366287231445, 156.8360137939453, -23.305498123168945, 19.94835662841797, -0.047607421875, 0.90380859375, -0.262939453125, 
352, 3033921529, -0.7066493034362793, 0.3884122967720032, -0.3223287761211395, 0.49586862325668335, -0.5382667779922485, -8.618003845214844, 4.687532424926758, 158.9899139404297, -22.071489334106445, 20.99083709716797, -0.0498046875, 0.896484375, -0.28369140625, 
353, 3033929862, -0.7122530341148376, 0.380686491727829, -0.3162599503993988, 0.49774715304374695, -0.7304338812828064, -8.015007972717285, 4.940158843994141, 154.6359405517578, -21.644821166992188, 21.628517150878906, -0.0458984375, 0.89208984375, -0.30322265625, 
354, 3033938195, -0.7172274589538574, 0.3734629452228546, -0.3104015290737152, 0.49975982308387756, -0.6094754338264465, -7.801453113555908, 5.217101573944092, 145.5780029296875, -19.57276153564453, 14.938429832458496, -0.044189453125, 0.8896484375, -0.32373046875, 
355, 3033946528, -0.7214633822441101, 0.366895467042923, -0.3050107955932617, 0.5018420815467834, 0.35129162669181824, -7.260348796844482, 5.833122253417969, 132.38504028320312, -15.968944549560547, 8.765738487243652, -0.0439453125, 0.8837890625, -0.33935546875, 
356, 3033954861, -0.7256693840026855, 0.3612498641014099, -0.3004196286201477, 0.5026422142982483, -1.9010446071624756, -6.513299942016602, 5.81531286239624, 112.20012664794922, -20.7343692779541, 21.464269638061523, -0.042724609375, 0.87890625, -0.35595703125, 
357, 3033963194, -0.7293825149536133, 0.35635727643966675, -0.29611536860466003, 0.5033143758773804, -1.662813663482666, -7.975320816040039, 6.0196380615234375, 99.71630096435547, -21.683305740356445, 17.631004333496094, -0.04150390625, 0.87548828125, -0.3740234375, 
358, 3033971527, -0.7329915761947632, 0.35152488946914673, -0.2918866276741028, 0.5039392113685608, -0.10318335890769958, -8.42911434173584, 6.042236804962158, 97.89002227783203, -21.155488967895508, 17.531230926513672, -0.040771484375, 0.8701171875, -0.38330078125, 
359, 3033979860, -0.7368855476379395, 0.346090704202652, -0.2874613404273987, 0.5045648813247681, -0.4268620014190674, -8.696702003479004, 5.980343818664551, 106.6956787109375, -20.09969139099121, 20.940322875976562, -0.0380859375, 0.864013671875, -0.39892578125, 
360, 3033988193, -0.7409084439277649, 0.3400702178478241, -0.2826783061027527, 0.5054689645767212, -0.9419510960578918, -8.605563163757324, 6.068673610687256, 116.83955383300781, -18.832117080688477, 19.64083480834961, -0.036865234375, 0.862060546875, -0.4111328125, 
361, 3033996526, -0.745060920715332, 0.33347776532173157, -0.2775924503803253, 0.5065749883651733, -0.6478379368782043, -8.396400451660156, 6.194753170013428, 126.15765380859375, -17.511417388916016, 19.280628204345703, -0.03515625, 0.853271484375, -0.42333984375, 
362, 3034004859, -0.7492314577102661, 0.32656919956207275, -0.2723946273326874, 0.5077449679374695, -0.5677216649055481, -7.903903007507324, 6.383532524108887, 130.510498046875, -16.223041534423828, 19.45795249938965, -0.034423828125, 0.848388671875, -0.44091796875, 
363, 3034013192, -0.7532089352607727, 0.3197351098060608, -0.2673436999320984, 0.5088930130004883, -0.743660032749176, -7.330873966217041, 6.592627048492432, 127.76187133789062, -14.614304542541504, 18.702409744262695, -0.0283203125, 0.84326171875, -0.457275390625, 
364, 3034021525, -0.7568690180778503, 0.3133091330528259, -0.26262202858924866, 0.5099168419837952, -0.8004344701766968, -6.884624004364014, 6.814789772033691, 119.38426208496094, -13.425734519958496, 17.72725486755371, -0.033935546875, 0.836181640625, -0.47265625, 
365, 3034029858, -0.7601287961006165, 0.3075060248374939, -0.25837668776512146, 0.5107686519622803, -0.8294292092323303, -6.602991580963135, 7.0080108642578125, 107.20835876464844, -12.144030570983887, 16.500635147094727, -0.02978515625, 0.827392578125, -0.486572265625, 
366, 3034038191, -0.7629566192626953, 0.3024732768535614, -0.2546546161174774, 0.5114265084266663, -0.7937600612640381, -6.296107769012451, 7.109261512756348, 92.96658325195312, -11.360527038574219, 14.983318328857422, -0.031494140625, 0.822265625, -0.49853515625, 
367, 3034046524, -0.7655031681060791, 0.2979731261730194, -0.25133752822875977, 0.5119035243988037, -0.844895601272583, -6.574801921844482, 7.096945762634277, 82.72389221191406, -10.634519577026367, 14.710322380065918, -0.0263671875, 0.817138671875, -0.507080078125, 
368, 3034054857, -0.7678096890449524, 0.2938581109046936, -0.24831366539001465, 0.5123035311698914, -0.7777114510536194, -6.769834995269775, 7.167147636413574, 75.35603332519531, -9.73244857788086, 13.708425521850586, -0.030029296875, 0.814208984375, -0.517822265625, 
369, 3034063190, -0.7699812650680542, 0.2899293303489685, -0.24544315040111542, 0.5126661062240601, -0.7610074281692505, -6.852939605712891, 7.286890983581543, 71.63721466064453, -9.127968788146973, 13.130635261535645, -0.02783203125, 0.806640625, -0.526123046875, 
370, 3034071523, -0.77203768491745, 0.2861262559890747, -0.24265791475772858, 0.5130356550216675, -0.8195804953575134, -6.8778557777404785, 7.3184919357299805, 69.2654037475586, -8.682405471801758, 12.16871166229248, -0.02734375, 0.803955078125, -0.532470703125, 
371, 3034079856, -0.7740330100059509, 0.2823929488658905, -0.23989711701869965, 0.5133960247039795, -0.8330386877059937, -6.8979105949401855, 7.322071075439453, 68.08477783203125, -8.75960636138916, 11.689055442810059, -0.026611328125, 0.79833984375, -0.54052734375, 
372, 3034088189, -0.7759972214698792, 0.2786575257778168, -0.2371271848678589, 0.5137585401535034, -0.8288977742195129, -6.8264851570129395, 7.290220260620117, 68.05656433105469, -8.719493865966797, 11.428120613098145, -0.024658203125, 0.793701171875, -0.544921875, 
373, 3034096522, -0.7778391242027283, 0.2750805914402008, -0.23445823788642883, 0.5141257047653198, -0.7793682813644409, -6.442819595336914, 7.385572910308838, 65.19856262207031, -8.357789039611816, 10.374059677124023, -0.02294921875, 0.79248046875, -0.556640625, 
374, 3034104855, -0.7794883251190186, 0.2718481421470642, -0.23202703893184662, 0.5144501328468323, -0.7841539978981018, -6.119481563568115, 7.483906269073486, 58.963321685791016, -7.775136470794678, 9.265185356140137, -0.026123046875, 0.7861328125, -0.56494140625, 
375, 3034113188, -0.7808794975280762, 0.2691248059272766, -0.22994041442871094, 0.514708936214447, -0.8260371685028076, -5.815011978149414, 7.513045310974121, 49.898590087890625, -7.119556903839111, 7.800167560577393, -0.024658203125, 0.78076171875, -0.56787109375, 
376, 3034121521, -0.7819619178771973, 0.26706233620643616, -0.22827275097370148, 0.5148823261260986, -0.8140286207199097, -5.634261131286621, 7.550419330596924, 38.41676330566406, -6.623094081878662, 5.998835563659668, -0.025390625, 0.778076171875, -0.5771484375, 
377, 3034129854, -0.7827619910240173, 0.26563167572021484, -0.22700808942317963, 0.5149657130241394, -0.781216025352478, -5.645281791687012, 7.562402248382568, 27.455814361572266, -6.222867012023926, 4.4574174880981445, -0.025390625, 0.775390625, -0.580078125, 
378, 3034138187, -0.7833252549171448, 0.2647389769554138, -0.22608572244644165, 0.5149746537208557, -0.7607216835021973, -5.765558242797852, 7.535482883453369, 18.13513946533203, -5.866954803466797, 3.16202712059021, -0.0224609375, 0.775390625, -0.580078125, 
379, 3034146520, -0.7837445735931396, 0.26416757702827454, -0.22537027299404144, 0.5149438381195068, -0.7198057174682617, -6.008668422698975, 7.475180625915527, 12.569650650024414, -5.6232099533081055, 2.315194606781006, -0.021484375, 0.7734375, -0.584716796875, 
380, 3034154853, -0.7841965556144714, 0.26351749897003174, -0.2246214896440506, 0.5149158239364624, -0.6526769399642944, -6.513582706451416, 7.454873561859131, 13.771035194396973, -5.502438068389893, 2.6460790634155273, -0.01708984375, 0.77685546875, -0.583251953125, 
381, 3034163186, -0.7848820090293884, 0.26230475306510925, -0.22356274724006653, 0.5149514675140381, -0.6332759261131287, -7.143513202667236, 7.414849758148193, 23.086069107055664, -5.366171836853027, 4.222867012023926, -0.023193359375, 0.771240234375, -0.5859375, 
382, 3034171519, -0.7858280539512634, 0.2603246569633484, -0.2221071422100067, 0.5151433944702148, -0.6170612573623657, -7.22233247756958, 7.391302108764648, 35.591251373291016, -4.437608242034912, 5.314499855041504, -0.026123046875, 0.767333984375, -0.58740234375, 
383, 3034179852, -0.787042498588562, 0.25762343406677246, -0.2202335149049759, 0.5154516100883484, -0.6912289261817932, -6.943000316619873, 7.371874809265137, 47.66926574707031, -4.265201568603516, 6.656435966491699, -0.023681640625, 0.767578125, -0.59326171875, 
384, 3034188185, -0.7884091734886169, 0.25447359681129456, -0.21807578206062317, 0.515845000743866, -0.7957711815834045, -6.599904537200928, 7.435701370239258, 55.33310317993164, -4.303575038909912, 7.1750030517578125, -0.02197265625, 0.763916015625, -0.599853515625, 
385, 3034196518, -0.7897433638572693, 0.25136446952819824, -0.2159089744091034, 0.5162396430969238, -0.8629074096679688, -5.909331321716309, 7.617969989776611, 54.84926986694336, -4.604542255401611, 6.770987510681152, -0.01123046875, 0.764404296875, -0.607421875, 
386, 3034204851, -0.7908896207809448, 0.24872837960720062, -0.2140074521303177, 0.5165532231330872, -0.9471932053565979, -5.392359733581543, 7.777707576751709, 46.935359954833984, -4.788218975067139, 5.834319591522217, -0.021728515625, 0.7548828125, -0.608154296875, 
387, 3034213184, -0.7917428016662598, 0.24685823917388916, -0.21254660189151764, 0.5167465209960938, -0.9628651738166809, -5.129803657531738, 7.8089280128479, 34.11958694458008, -5.000890731811523, 4.308140277862549, -0.021240234375, 0.749267578125, -0.614013671875, 
388, 3034221517, -0.7922914028167725, 0.24579304456710815, -0.21154920756816864, 0.5168227553367615, -0.9376217722892761, -5.144895076751709, 7.816673278808594, 20.680532455444336, -5.166483402252197, 2.6440560817718506, -0.022705078125, 0.75244140625, -0.620361328125, 
389, 3034229850, -0.7926030158996582, 0.24534113705158234, -0.21093405783176422, 0.516811192035675, -0.8529438972473145, -5.329169750213623, 7.844288349151611, 10.233219146728516, -4.983288288116455, 1.4192848205566406, -0.02001953125, 0.7451171875, -0.6220703125, 
390, 3034238183, -0.7927919030189514, 0.2452387660741806, -0.2105305790901184, 0.5167344808578491, -0.7898916006088257, -5.650789737701416, 7.792980670928955, 4.304139614105225, -5.010285377502441, 0.9633002281188965, -0.0234375, 0.748046875, -0.620849609375, 
391, 3034246516, -0.7929531931877136, 0.24520261585712433, -0.21018104255199432, 0.5166467428207397, -0.6879053711891174, -5.872481822967529, 7.78721809387207, 3.0854909420013428, -4.865078449249268, 0.8719598650932312, -0.02294921875, 0.7470703125, -0.619873046875, 
392, 3034254849, -0.7931568026542664, 0.24503080546855927, -0.20974773168563843, 0.5165916085243225, -0.6834686398506165, -6.078586578369141, 7.8443193435668945, 5.385315895080566, -4.811622142791748, 0.9312312006950378, -0.02001953125, 0.743896484375, -0.62353515625, 
393, 3034263182, -0.7934272885322571, 0.2446647733449936, -0.20917758345603943, 0.5165809988975525, -0.7050670385360718, -6.153679847717285, 7.865642070770264, 8.840421676635742, -4.981597900390625, 1.0156044960021973, -0.02490234375, 0.744384765625, -0.620361328125, 
394, 3034271515, -0.7937480807304382, 0.24412062764167786, -0.2085058093070984, 0.5166172385215759, -0.6811238527297974, -6.075168609619141, 7.9315690994262695, 11.799070358276367, -4.7978925704956055, 1.0376070737838745, -0.02392578125, 0.742919921875, -0.623779296875, 
395, 3034279848, -0.7940952777862549, 0.24345873296260834, -0.20779410004615784, 0.5166826844215393, -0.7077063918113708, -5.980613708496094, 7.899579048156738, 13.552774429321289, -4.389626979827881, 1.103563666343689, -0.0205078125, 0.743896484375, -0.623779296875, 
396, 3034288181, -0.7944215536117554, 0.24279457330703735, -0.2071004956960678, 0.5167721509933472, -0.6835330724716187, -5.793015003204346, 7.909420490264893, 13.434568405151367, -4.019911766052246, 0.7661988139152527, -0.02197265625, 0.742919921875, -0.626708984375, 
397, 3034296514, -0.7946793437004089, 0.24227648973464966, -0.20652541518211365, 0.516849160194397, -0.7257311940193176, -5.588929653167725, 7.94381856918335, 10.745147705078125, -3.6258106231689453, 0.3881581723690033, -0.0244140625, 0.743408203125, -0.626220703125, 
398, 3034304847, -0.7948409914970398, 0.24201487004756927, -0.20610250532627106, 0.5168917775154114, -0.760517418384552, -5.496662139892578, 7.9580559730529785, 6.430811405181885, -3.6105947494506836, -0.13328365981578827, -0.0234375, 0.742431640625, -0.628662109375, 
399, 3034313180, -0.7949002385139465, 0.2420472949743271, -0.2058723419904709, 0.5168772339820862, -0.7618431448936462, -5.510412216186523, 7.968742847442627, 1.354173183441162, -3.5102643966674805, -0.43432775139808655, -0.025634765625, 0.73828125, -0.631591796875, 
400, 3034321513, -0.7948636412620544, 0.2423572838306427, -0.20582018792629242, 0.5168088674545288, -0.6898033022880554, -5.511932849884033, 7.941116809844971, -3.4291956424713135, -3.429861545562744, -0.7164686322212219, -0.02392578125, 0.74072265625, -0.629638671875, 
401, 3034329846, -0.7947543263435364, 0.2428644895553589, -0.2059064656496048, 0.5167047381401062, -0.7128124237060547, -5.62191915512085, 7.904514789581299, -6.89943790435791, -3.2456181049346924, -0.9438974857330322, -0.02685546875, 0.7412109375, -0.62841796875, 
402, 3034338179, -0.7946510910987854, 0.2434350550174713, -0.20602189004421234, 0.5165489912033081, -0.7147637009620667, -5.8484625816345215, 7.88081693649292, -7.939657688140869, -3.553373098373413, -0.4119921624660492, -0.02294921875, 0.742919921875, -0.630615234375, 
403, 3034346512, -0.7945861220359802, 0.24393902719020844, -0.20610883831977844, 0.5163766741752625, -0.7426591515541077, -6.010033130645752, 7.907218933105469, -6.912347316741943, -3.5708420276641846, 0.1293518990278244, -0.02392578125, 0.743408203125, -0.627685546875, 
404, 3034354845, -0.7945889830589294, 0.2442692369222641, -0.20608928799629211, 0.5162236094474792, -0.7480173110961914, -6.184020519256592, 7.962372303009033, -3.9919400215148926, -3.6109540462493896, 0.5402042865753174, -0.02294921875, 0.742431640625, -0.626220703125, 
405, 3034363178, -0.7946670055389404, 0.24438613653182983, -0.20594532787799835, 0.5161058306694031, -0.7404890060424805, -6.221444129943848, 7.999337196350098, -0.40963563323020935, -3.566359519958496, 0.8684250116348267, -0.0244140625, 0.742919921875, -0.628173828125, 
406, 3034371511, -0.794819176197052, 0.24427933990955353, -0.20565493404865265, 0.5160377025604248, -0.7523830533027649, -6.232208728790283, 8.007655143737793, 3.4497506618499756, -3.6065733432769775, 1.0000308752059937, -0.0263671875, 0.741943359375, -0.622314453125, 
407, 3034379844, -0.7950159311294556, 0.24400149285793304, -0.20528380572795868, 0.5160139799118042, -0.7518482208251953, -6.183734893798828, 7.992493629455566, 6.180561065673828, -3.26820969581604, 1.0388877391815186, -0.0263671875, 0.742919921875, -0.626953125, 
408, 3034388177, -0.7952224612236023, 0.24359774589538574, -0.2048841267824173, 0.5160452127456665, -0.6851003766059875, -6.049699306488037, 7.999692440032959, 7.935904502868652, -2.5145108699798584, 0.7719618082046509, -0.02001953125, 0.742919921875, -0.6259765625, 
409, 3034396510, -0.7954098582267761, 0.24313923716545105, -0.20453332364559174, 0.5161119103431702, -0.6691408157348633, -5.88316011428833, 7.994076251983643, 8.234976768493652, -1.4346661567687988, 0.5591843128204346, -0.0263671875, 0.740234375, -0.62890625, 
410, 3034404843, -0.7955417633056641, 0.24275752902030945, -0.20428389310836792, 0.5161870121955872, -0.7205371260643005, -5.750020980834961, 7.970221519470215, 6.500560283660889, -0.6703373193740845, 0.20483702421188354, -0.02490234375, 0.73974609375, -0.629638671875, 
411, 3034413176, -0.7955912351608276, 0.2425549328327179, -0.20417927205562592, 0.516247570514679, -0.737099826335907, -5.6385087966918945, 7.9510416984558105, 3.213894844055176, -0.1907620131969452, -0.24882948398590088, -0.025390625, 0.74072265625, -0.629638671875, 
412, 3034421509, -0.7955583333969116, 0.24254751205444336, -0.20421436429023743, 0.5162879228591919, -0.7257706522941589, -5.667498588562012, 7.94156551361084, -0.2631990611553192, 0.13298910856246948, -0.6877294182777405, -0.02734375, 0.73828125, -0.62744140625, 
413, 3034429842, -0.7954692840576172, 0.2427215278148651, -0.20436681807041168, 0.5162831544876099, -0.7076848149299622, -5.730468273162842, 7.889174461364746, -3.378889322280884, 0.11872199177742004, -0.7173395156860352, -0.02783203125, 0.7412109375, -0.626953125, 
414, 3034438175, -0.7953759431838989, 0.24297650158405304, -0.20454004406929016, 0.5162380933761597, -0.6991484761238098, -5.87214994430542, 7.827433109283447, -4.555812358856201, -0.3347652554512024, -0.46017253398895264, -0.0166015625, 0.746826171875, -0.630859375, 
415, 3034446508, -0.7953205704689026, 0.24317754805088043, -0.20467346906661987, 0.5161759853363037, -0.6495916843414307, -6.012840747833252, 7.849064350128174, -3.5882344245910645, -0.5672656893730164, 0.010194466449320316, -0.02490234375, 0.7412109375, -0.629638671875, 
416, 3034454841, -0.7953048944473267, 0.24327753484249115, -0.20475424826145172, 0.516120970249176, -0.6597884893417358, -6.064778804779053, 7.83880090713501, -1.9735127687454224, -0.4964678883552551, 0.32906606793403625, -0.02392578125, 0.741943359375, -0.628662109375, 
417, 3034463174, -0.7953256368637085, 0.24328932166099548, -0.20476363599300385, 0.5160796642303467, -0.7291676998138428, -6.025847911834717, 7.883842468261719, -0.32436585426330566, -0.7247419357299805, 0.439719557762146, -0.02587890625, 0.74169921875, -0.62939453125, 
418, 3034471507, -0.7953630685806274, 0.24329054355621338, -0.20471589267253876, 0.5160403847694397, -0.7340177297592163, -5.940707683563232, 7.8776774406433105, 0.24325838685035706, -1.2979884147644043, 0.38170334696769714, -0.02734375, 0.74267578125, -0.6279296875, 
419, 3034479840, -0.7953988909721375, 0.24330349266529083, -0.20464476943016052, 0.5160073637962341, -0.7304697632789612, -5.931931495666504, 7.887532711029053, 0.3077550530433655, -1.628847599029541, 0.18347476422786713, -0.02197265625, 0.742919921875, -0.628662109375, 
420, 3034488173, -0.7954357862472534, 0.24330449104309082, -0.20455512404441833, 0.5159852504730225, -0.712708592414856, -5.871289253234863, 7.882955551147461, 0.5886919498443604, -1.6961873769760132, 0.05097232386469841, -0.025390625, 0.741455078125, -0.626220703125, 
421, 3034496506, -0.7954556345939636, 0.24331937730312347, -0.20447658002376556, 0.5159788727760315, -0.7161068916320801, -5.889243125915527, 7.898262023925781, 0.3604690730571747, -1.5890685319900513, -0.25100669264793396, -0.0244140625, 0.743408203125, -0.627685546875, 
422, 3034504839, -0.7954660654067993, 0.24334339797496796, -0.20439831912517548, 0.515982449054718, -0.7477367520332336, -5.896632194519043, 7.86122465133667, 0.23941625654697418, -1.5747246742248535, -0.4451369643211365, -0.02685546875, 0.740234375, -0.62841796875, 
423, 3034513172, -0.79546058177948, 0.24340003728866577, -0.20434008538722992, 0.5159873962402344, -0.7675119042396545, -5.84840202331543, 7.845678329467773, -0.29357755184173584, -1.5541051626205444, -0.60438072681427, -0.02392578125, 0.74267578125, -0.630126953125, 
424, 3034521505, -0.7954233288764954, 0.24353137612342834, -0.20433013141155243, 0.5159867405891418, -0.7268841862678528, -5.754661560058594, 7.830112934112549, -1.5904006958007812, -1.4702187776565552, -0.8085261583328247, -0.01953125, 0.748046875, -0.623779296875, 
425, 3034529838, -0.7953369617462158, 0.24377816915512085, -0.20439007878303528, 0.5159797668457031, -0.7075222730636597, -5.697716236114502, 7.855016708374023, -3.516719102859497, -1.422780990600586, -1.187514305114746, -0.021484375, 0.741943359375, -0.628662109375, 
426, 3034538171, -0.7951934933662415, 0.2441718727350235, -0.20455485582351685, 0.5159491896629333, -0.6808426976203918, -5.649965763092041, 7.8597283363342285, -6.140103340148926, -1.2215557098388672, -1.3871772289276123, -0.02685546875, 0.743408203125, -0.62744140625, 
427, 3034546504, -0.7949790358543396, 0.24473580718040466, -0.20486438274383545, 0.515889585018158, -0.6738187074661255, -5.63156270980835, 7.871798038482666, -9.332330703735352, -0.7608582377433777, -1.5753140449523926, -0.0283203125, 0.742431640625, -0.62548828125, 
428, 3034554837, -0.794686496257782, 0.2454742193222046, -0.2053564190864563, 0.515794038772583, -0.6472761631011963, -5.587353229522705, 7.869306564331055, -12.916659355163574, 0.11170370876789093, -1.6027982234954834, -0.0244140625, 0.741943359375, -0.624267578125, 
429, 3034563170, -0.7943000793457031, 0.24640168249607086, -0.2060634195804596, 0.5156649351119995, -0.611348032951355, -5.566012382507324, 7.8653388023376465, -16.902156829833984, 1.2563015222549438, -1.7205467224121094, -0.02294921875, 0.7470703125, -0.623779296875, 
430, 3034571503, -0.7938117980957031, 0.24752387404441833, -0.2069850116968155, 0.5155102610588074, -0.6404715180397034, -5.5811052322387695, 7.857860088348389, -20.98560905456543, 2.4368879795074463, -1.9785593748092651, -0.02490234375, 0.745849609375, -0.622314453125, 
431, 3034579836, -0.7932104468345642, 0.24887636303901672, -0.20806612074375153, 0.5153496265411377, -0.7464570999145508, -5.604454517364502, 7.823832035064697, -25.014812469482422, 2.8303234577178955, -2.8362019062042236, -0.023681640625, 0.74853515625, -0.617919921875, 
432, 3034588169, -0.7924709916114807, 0.2505495250225067, -0.20929323136806488, 0.515179455280304, -0.7933927178382874, -5.478503704071045, 7.765240669250488, -30.06719970703125, 2.5319178104400635, -4.122063636779785, -0.023681640625, 0.751220703125, -0.614013671875, 
433, 3034596502, -0.7915542125701904, 0.25265878438949585, -0.21073035895824432, 0.5149731040000916, -0.7477852702140808, -5.306305408477783, 7.764020919799805, -37.00281524658203, 2.0982182025909424, -5.522371768951416, -0.024658203125, 0.753662109375, -0.611328125, 
434, 3034604835, -0.7904012203216553, 0.2553376257419586, -0.2124699503183365, 0.5147075057029724, -0.6933035254478455, -5.154143810272217, 7.738083362579346, -46.36099624633789, 1.8532190322875977, -7.1439385414123535, -0.02685546875, 0.75927734375, -0.60693359375, 
435, 3034613168, -0.788844883441925, 0.25895318388938904, -0.21477903425693512, 0.5143305063247681, -0.6535539627075195, -4.762760639190674, 7.815054893493652, -62.290000915527344, 2.18239164352417, -9.528873443603516, -0.02587890625, 0.760498046875, -0.6005859375, 
436, 3034621501, -0.7867761254310608, 0.26373758912086487, -0.21781179308891296, 0.5137925744056702, -0.6887240409851074, -4.533867835998535, 7.8050007820129395, -82.41790008544922, 2.7233471870422363, -12.277040481567383, -0.025146484375, 0.7666015625, -0.5927734375, 
437, 3034629834, -0.7841720581054688, 0.2697143256664276, -0.22161731123924255, 0.5130428671836853, -0.708219051361084, -4.790991306304932, 7.666476249694824, -103.3261947631836, 3.4787282943725586, -14.546502113342285, -0.02880859375, 0.773193359375, -0.588134765625, 
438, 3034638167, -0.780951738357544, 0.27688321471214294, -0.22618892788887024, 0.512140154838562, -0.5598326921463013, -4.926398277282715, 7.483265399932861, -124.37494659423828, 4.655528545379639, -18.02666664123535, -0.029052734375, 0.7802734375, -0.566650390625, 
439, 3034646500, -0.7772042155265808, 0.28504496812820435, -0.23136627674102783, 0.5110495686531067, -0.5112365484237671, -5.362778663635254, 7.341625690460205, -141.85887145996094, 5.078036785125732, -20.5126953125, -0.02880859375, 0.79052734375, -0.551025390625, 
440, 3034654833, -0.7730820775032043, 0.29370617866516113, -0.2368583083152771, 0.509880006313324, -0.5463430285453796, -6.31325626373291, 7.170291423797607, -151.17332458496094, 5.8281779289245605, -22.647741317749023, -0.03369140625, 0.7978515625, -0.53662109375, 
441, 3034663166, -0.7686879634857178, 0.3026537597179413, -0.2424425184726715, 0.5086648464202881, -0.5586709976196289, -6.589352130889893, 7.151722431182861, -156.0662384033203, 5.486100196838379, -24.639575958251953, -0.028076171875, 0.817138671875, -0.519775390625, 
442, 3034671499, -0.7640461325645447, 0.31176993250846863, -0.2480553835630417, 0.5074450969696045, -0.6425154805183411, -6.817192077636719, 7.008268356323242, -159.14305114746094, 5.433185577392578, -26.75705337524414, -0.037353515625, 0.818603515625, -0.503173828125, 
443, 3034679832, -0.7592321634292603, 0.3210087716579437, -0.25369980931282043, 0.5061178803443909, -0.5432417988777161, -7.082070350646973, 6.891476631164551, -161.7115020751953, 5.017818927764893, -27.12282371520996, -0.03125, 0.83056640625, -0.482666015625, 
444, 3034688165, -0.7542350888252258, 0.3302336633205414, -0.25949937105178833, 0.5047116875648499, -0.5301399230957031, -7.217782020568848, 6.702749252319336, -163.77415466308594, 7.042575359344482, -26.828554153442383, -0.03759765625, 0.839111328125, -0.46044921875, 
